d_ori_22,d_ori_23,d_ori_20,d_ori_21,set_size,ctpd,d_ori_24,d_ori_25,d_ori_28,d_ori_29,stim_pos_x_30,stim_pos_x_31,stim_pos_x_32,stim_pos_x_33,stim_pos_x_34,stim_pos_x_35,stim_pos_y_11,stim_pos_y_10,stim_pos_y_13,stim_pos_y_12,stim_pos_y_15,stim_pos_y_14,stim_pos_y_17,stim_pos_y_16,stim_pos_y_19,stim_pos_y_18,d_ori_35,d_ori_34,stim_pos_x_3,d_ori_31,d_ori_30,d_ori_33,d_ori_32,d_ori_26,test_set_size,d_ori_27,targetCol,dsd_test,seq_type,dsd,blockRepN,targetDist,dtype_test,prime_set_size,stim_pos_y_25,correctResponse,dtype,distrMean,d_ori_17,d_ori_16,d_ori_15,d_ori_14,targetRow,d_ori_11,d_ori_13,d_ori_12,dsd_prime,streak_length_prime,stim_pos_y_35,stim_pos_y_34,stim_pos_y_33,stim_pos_y_32,stim_pos_y_31,stim_pos_y_30,d_ori_10,nextProbe,targetOri,stim_pos_x_1,stim_pos_x_2,ctpd_prime,stim_pos_x_4,stim_pos_x_5,stim_pos_x_6,stim_pos_x_7,stim_pos_x_8,stim_pos_x_9,stim_pos_y_28,stim_pos_y_29,targetPos,stim_pos_y_20,stim_pos_y_21,stim_pos_y_22,stim_pos_y_23,stim_pos_y_24,stim_pos_x_0,stim_pos_y_26,stim_pos_y_27,d_ori_9,d_ori_8,d_ori_3,d_ori_2,d_ori_1,d_ori_0,d_ori_7,d_ori_6,d_ori_5,d_ori_4,trialN,dtype_prime,stim_pos_x_18,stim_pos_x_19,stim_pos_x_12,stim_pos_x_13,stim_pos_x_10,stim_pos_x_11,stim_pos_x_16,stim_pos_x_17,stim_pos_x_14,stim_pos_x_15,stim_pos_y_9,stim_pos_y_8,d_ori_19,d_ori_18,stim_pos_y_1,stim_pos_y_0,stim_pos_y_3,stim_pos_y_2,stim_pos_y_5,stim_pos_y_4,stim_pos_y_7,stim_pos_y_6,totBlockN,stim_pos_x_27,stim_pos_x_26,stim_pos_x_25,stim_pos_x_24,stim_pos_x_23,stim_pos_x_22,stim_pos_x_21,stim_pos_x_20,blockN,stim_pos_x_29,stim_pos_x_28,prevDistrCTPD,prevDistrMean,prevDistrType,trials.thisRepN,trials.thisTrialN,trials.thisN,trials.thisIndex,timeStart,timeBeforeDraw,timeDraw,timeAfterSaving,timeAfterWritingToTemp,timeAfterPreparingNext,answer,correct,rt,trialScore,session,participant,resolution,cpu_info,expName,pc_name,graphic_card,date,monitorName,
178.5,155.3,167.0,164.4,36,10,166.2,166.8,141.8,154.9,7.52,8.485,8.069,7.731,8.202,7.506,7.717,4.924,-5.263,-8.163,1.577,-1.704,7.83,5.212,-4.385,-8.438,157.8,156.6,-7.56,165.7,170.3,173.4,155.8,160.3,36,166.6,3,5,prime,10,0,93,norm,36,-4.881,down,norm,161.84427712,172.5,157.7,144.4,155.5,0,145.6,155.2,158.1,10,5,8.352,5.146,2.052,-2.095,-5.009,-7.989,166.1,5,254.8,-8.228,-8.016,10,-7.967,-8.161,-4.387,-5.078,-5.153,-4.807,5.018,8.226,18,-1.89,1.105,5.047,7.876,-8.297,-8.087,-1.843,1.356,152.7,167.7,166.6,144.0,157.3,152.7,181.8,163.3,175.7,169.6,0,norm,1.962,1.374,-1.783,-1.927,-4.563,-5.191,-1.539,-1.227,-1.987,-1.621,1.376,-1.585,164.9,,-4.887,-7.871,2.024,-1.918,7.601,4.792,-5.006,-7.743,0,4.856,5.207,4.595,5.119,1.158,1.69,1.754,1.397,0,4.596,5.065,,,,0,0,0,0,255.247,255.275,255.29614279,255.296,255.297,255.299,down,1,1.38550241945,8.61449758055,001,014,1920_1080,Intel(R) Core(TM) i5-3570 CPU @ 3.40GHz,orientation_search,LEPPC096,Intel(R) HD Graphics 2500,2018_Nov_24_1543,testMonitor,
154.0,148.1,164.2,162.7,36,10,169.8,169.5,,167.5,7.89,7.987,8.027,8.138,8.316,7.588,8.218,4.624,-5.005,-7.758,1.372,-1.304,8.347,5.04,-4.529,-7.929,168.3,168.6,-7.509,163.2,163.0,159.2,160.5,181.8,36,154.1,4,5,prime,10,0,73,norm,36,-4.998,up,norm,161.84427712,178.3,172.3,179.6,162.7,4,164.1,176.2,158.7,10,5,8.314,4.835,1.855,-1.614,-4.942,-7.629,154.4,5,234.8,-7.755,-8.406,10,-8.27,-8.012,-5.071,-4.946,-4.336,-4.702,5.037,8.017,28,-2.035,1.186,4.346,8.056,-8.349,-8.42,-1.949,1.258,153.6,145.2,159.5,155.6,172.3,158.0,177.8,174.9,170.2,157.5,1,norm,1.164,1.63,-1.385,-1.913,-4.676,-4.309,-1.672,-1.392,-1.593,-1.827,1.81,-1.899,165.0,141.8,-4.882,-8.133,1.667,-1.105,8.184,4.375,-4.33,-8.076,0,5.127,4.907,5.015,5.239,1.449,2.06,2.08,2.011,0,5.044,4.441,,,,0,1,1,1,256.729,256.751,256.761160106,256.761,256.762,256.765,up,1,1.18379450995,8.81620549005,001,014,1920_1080,Intel(R) Core(TM) i5-3570 CPU @ 3.40GHz,orientation_search,LEPPC096,Intel(R) HD Graphics 2500,2018_Nov_24_1543,testMonitor,
,165.2,162.1,169.9,36,10,161.8,167.6,181.8,165.3,7.601,7.553,8.388,8.11,7.961,8.354,8.129,4.908,-4.85,-7.912,1.408,-1.734,7.571,4.69,-4.85,-7.647,157.4,142.7,-7.785,141.8,145.2,177.1,166.2,170.5,36,176.2,3,5,prime,10,0,106,norm,36,-5.093,up,norm,161.84427712,155.4,159.2,159.3,160.6,4,172.0,165.6,181.8,10,5,7.881,4.476,1.989,-1.578,-4.621,-7.968,142.9,5,267.8,-8.367,-7.777,10,-8.045,-8.212,-4.963,-4.44,-5.019,-4.79,5.263,7.938,22,-1.545,1.832,4.691,7.714,-7.654,-7.53,-1.799,1.499,177.4,149.5,156.0,157.4,160.6,166.5,173.8,160.7,153.7,151.8,2,norm,2.062,1.507,-1.425,-1.588,-4.467,-5.168,-1.206,-1.355,-1.414,-1.456,1.197,-1.759,181.2,162.3,-4.402,-7.641,1.97,-2.075,8.046,4.324,-5.18,-7.905,0,5.253,4.343,4.65,4.857,1.958,1.231,1.131,2.072,0,4.78,5.092,,,,0,2,2,2,257.981,257.994,258.013372115,258.014,258.015,258.018,up,1,1.38649277877,8.61350722123,001,014,1920_1080,Intel(R) Core(TM) i5-3570 CPU @ 3.40GHz,orientation_search,LEPPC096,Intel(R) HD Graphics 2500,2018_Nov_24_1543,testMonitor,
160.9,160.9,173.4,181.8,36,10,141.8,161.6,175.3,165.8,8.321,8.456,8.289,7.693,8.347,8.105,7.659,4.738,-4.975,-8.479,1.248,-1.595,7.778,4.581,-4.395,-8.384,167.2,148.2,-8.238,165.0,159.3,173.3,164.6,163.4,36,,4,5,prime,10,0,98,norm,36,-4.512,up,norm,161.84427712,155.4,153.8,154.0,173.0,3,157.0,148.4,148.4,10,5,7.834,4.977,1.604,-1.953,-4.743,-8.49,161.0,5,259.8,-8.281,-7.788,10,-8.203,-7.801,-4.8,-4.313,-5.165,-4.717,5.034,8.358,27,-1.659,1.717,4.749,8.185,-7.954,-8.181,-1.251,2.076,161.9,170.9,155.7,159.1,161.1,153.4,176.9,148.5,171.3,145.9,3,norm,1.306,1.365,-1.16,-1.56,-4.923,-4.353,-1.136,-1.312,-1.802,-1.21,1.136,-1.932,165.5,155.5,-4.77,-8.446,1.332,-1.244,8.286,4.998,-4.928,-7.893,0,4.83,4.579,4.459,4.474,1.277,1.292,1.259,1.865,0,4.564,4.604,,,,0,3,3,3,259.443,259.452,259.45880712,259.459,259.461,259.463,up,1,1.1620032847,8.8379967153,001,014,1920_1080,Intel(R) Core(TM) i5-3570 CPU @ 3.40GHz,orientation_search,LEPPC096,Intel(R) HD Graphics 2500,2018_Nov_24_1543,testMonitor,
153.6,168.4,167.3,161.5,36,10,160.0,152.6,169.0,155.4,7.704,7.611,8.27,8.443,7.588,8.132,7.778,5.109,-4.774,-7.653,1.343,-1.327,8.149,4.493,-4.658,-7.934,141.8,181.8,-7.809,167.7,161.2,,171.3,154.5,36,151.8,5,5,prime,10,0,72,norm,36,-4.537,up,norm,161.84427712,164.8,153.0,152.3,169.0,3,143.3,150.2,146.3,10,5,8.204,5.135,1.294,-2.031,-5.038,-7.574,156.5,5,233.8,-8.13,-8.417,10,-8.406,-7.661,-5.249,-4.872,-4.562,-4.542,4.426,8.374,33,-1.575,1.38,4.426,7.955,-8.061,-8.327,-1.185,1.1,160.8,143.1,152.8,157.2,151.3,156.0,152.1,168.3,158.1,162.0,4,norm,1.194,1.636,-1.621,-1.844,-4.847,-5.069,-1.739,-2.01,-1.931,-1.734,1.702,-1.802,155.6,156.5,-4.65,-8.476,1.291,-1.961,7.555,4.892,-5.2,-8.222,0,4.89,5.003,5.006,4.803,1.812,1.861,1.548,1.172,0,4.371,4.565,,,,0,4,4,4,260.644,260.654,260.659787276,260.66,260.662,260.664,up,1,1.04652938071,8.95347061929,001,014,1920_1080,Intel(R) Core(TM) i5-3570 CPU @ 3.40GHz,orientation_search,LEPPC096,Intel(R) HD Graphics 2500,2018_Nov_24_1543,testMonitor,
250.0,236.5,243.8,249.3,36,80,246.3,252.6,238.9,247.5,8.115,7.592,8.262,8.143,7.807,8.08,7.673,5.186,-4.738,-8.355,1.722,-1.396,7.763,4.445,-5.03,-7.526,250.9,246.6,-7.959,,253.4,244.4,247.7,250.6,36,247.5,5,5,probe,5,0,74,norm,36,-5.187,down,norm,246.498954206,248.2,247.3,243.7,249.1,1,247.2,240.9,243.9,10,5,8.492,4.643,1.794,-1.497,-4.587,-8.342,250.7,1,172.5,-7.755,-7.715,10,-8.132,-8.447,-4.58,-4.492,-4.958,-5.031,5.16,8.298,31,-1.812,1.661,4.602,8.046,-8.037,-8.432,-1.372,1.46,242.3,238.4,244.2,240.8,253.8,241.4,247.5,245.3,256.5,246.7,0,norm,1.445,1.561,-1.169,-1.512,-4.387,-4.87,-1.433,-1.188,-1.108,-1.871,1.551,-1.952,245.0,251.1,-4.513,-8.446,1.658,-1.597,7.559,4.53,-4.635,-7.59,1,4.764,4.565,4.647,4.489,1.848,1.127,1.873,1.372,1,4.499,4.888,10,161.84427712,norm,0,5,5,5,261.751,261.76,261.767457535,261.768,261.769,261.772,down,1,0.826924371382,9.17307562862,001,014,1920_1080,Intel(R) Core(TM) i5-3570 CPU @ 3.40GHz,orientation_search,LEPPC096,Intel(R) HD Graphics 2500,2018_Nov_24_1543,testMonitor,
261.9,261.4,,259.8,36,30,262.5,255.9,264.3,246.1,8.29,7.881,7.587,8.297,7.658,7.772,7.612,4.532,-4.892,-8.374,2.054,-1.609,7.99,5.252,-5.065,-7.541,268.1,270.7,-8.439,238.8,249.4,240.5,258.5,262.4,36,256.2,3,5,prime,10,0,93,norm,36,-4.694,down,norm,254.894224915,264.0,253.8,254.8,261.3,2,253.8,234.9,262.7,10,6,7.552,4.571,1.866,-1.943,-4.384,-7.669,266.7,6,347.9,-8.368,-8.44,30,-8.234,-8.298,-4.556,-4.682,-4.912,-5.077,4.761,7.74,20,-1.285,1.493,5.185,8.354,-8.209,-7.555,-1.748,1.106,274.9,263.6,262.7,251.9,248.1,251.4,257.4,257.4,255.5,260.3,0,norm,1.943,1.758,-1.725,-2.069,-4.468,-5.14,-1.18,-2.075,-1.943,-1.283,1.759,-1.851,262.5,263.2,-4.743,-8.339,1.835,-2.098,8.498,4.836,-4.774,-7.528,2,4.929,4.755,5.129,4.958,1.709,1.718,1.931,1.823,2,4.312,4.798,80,161.84427712,norm,0,6,6,6,262.631,262.643,262.663056881,262.663,262.665,262.667,down,1,0.815707141001,9.184292859,001,014,1920_1080,Intel(R) Core(TM) i5-3570 CPU @ 3.40GHz,orientation_search,LEPPC096,Intel(R) HD Graphics 2500,2018_Nov_24_1543,testMonitor,
256.3,264.7,253.9,253.9,36,30,257.5,270.2,234.9,,8.284,8.182,8.095,7.578,7.907,7.769,8.235,4.373,-4.583,-8.057,1.664,-1.651,7.7,4.799,-5.281,-8.31,250.3,256.7,-7.904,259.1,252.6,264.4,258.6,256.4,36,253.6,4,5,prime,10,0,90,norm,36,-4.628,up,norm,254.894224915,260.2,256.7,251.3,255.3,5,247.3,238.0,256.1,10,6,8.003,4.401,1.201,-1.684,-4.498,-7.759,245.7,6,344.9,-8.327,-7.908,30,-7.81,-8.464,-4.39,-5.03,-4.683,-5.034,4.537,7.67,29,-1.358,1.575,5.029,7.918,-7.859,-7.561,-1.273,1.186,254.0,262.1,254.6,248.8,260.3,255.1,255.5,252.5,245.5,255.1,1,norm,1.79,1.484,-1.765,-1.558,-4.509,-4.503,-1.5,-1.421,-1.961,-1.296,1.406,-1.594,274.9,239.6,-4.958,-8.015,1.603,-1.707,8.186,5.286,-4.582,-8.489,2,5.191,4.47,4.723,4.644,1.455,1.405,1.381,1.121,2,4.602,5.008,80,161.84427712,norm,0,7,7,7,263.517,263.533,263.549008599,263.549,263.551,263.553,up,1,0.962135433221,9.03786456678,001,014,1920_1080,Intel(R) Core(TM) i5-3570 CPU @ 3.40GHz,orientation_search,LEPPC096,Intel(R) HD Graphics 2500,2018_Nov_24_1543,testMonitor,
266.2,241.9,,250.9,36,30,249.9,274.9,256.4,258.0,8.029,8.364,8.473,8.328,7.5,8.161,8.067,4.545,-4.508,-7.556,1.956,-1.566,7.693,5.043,-4.951,-8.46,259.3,234.9,-8.202,249.4,245.2,252.8,251.1,266.2,36,257.3,3,5,prime,10,0,92,norm,36,-4.417,down,norm,254.894224915,255.8,245.0,253.8,255.0,2,236.7,260.6,240.3,10,6,7.569,4.4,1.738,-1.767,-4.933,-8.174,241.8,6,346.9,-7.567,-8.42,30,-7.919,-8.25,-4.449,-4.814,-4.796,-4.345,5.269,7.673,20,-1.885,1.242,4.848,7.685,-8.122,-8.334,-1.698,1.382,255.0,250.5,254.5,266.7,246.6,271.4,253.2,252.7,238.9,248.1,2,norm,1.217,1.692,-1.386,-1.759,-4.751,-4.914,-1.306,-1.283,-1.361,-1.753,2.087,-1.395,237.3,245.9,-4.305,-8.128,1.606,-1.33,8.259,5.22,-5.142,-7.771,2,4.579,4.493,5.256,5.25,1.613,1.477,1.535,1.722,2,5.226,4.954,80,161.84427712,norm,0,8,8,8,264.548,264.561,264.580569096,264.581,264.582,264.585,down,1,1.38221017652,8.61778982348,001,014,1920_1080,Intel(R) Core(TM) i5-3570 CPU @ 3.40GHz,orientation_search,LEPPC096,Intel(R) HD Graphics 2500,2018_Nov_24_1543,testMonitor,
273.5,265.7,270.9,237.2,36,30,238.1,260.1,262.8,268.5,7.71,7.638,7.689,7.661,8.236,8.114,7.521,4.733,-4.405,-8.296,1.931,-1.88,7.958,4.403,-5.149,-7.984,245.7,245.6,-7.823,246.9,249.6,274.9,,259.9,36,245.3,5,5,prime,10,0,69,norm,36,-5.143,down,norm,254.894224915,269.7,273.9,263.5,266.8,2,234.9,254.3,245.6,10,6,8.068,4.863,1.281,-1.657,-4.916,-8.284,267.5,6,323.9,-7.934,-7.848,30,-8.318,-7.77,-4.69,-5.186,-4.36,-4.587,4.386,7.886,32,-2.004,1.647,5.106,8.156,-8.268,-7.53,-1.975,2.065,249.4,253.5,253.2,253.3,260.9,263.6,245.2,259.2,254.7,264.1,3,norm,1.82,1.258,-1.509,-1.638,-4.768,-4.891,-1.845,-1.33,-2.094,-1.877,1.655,-1.159,261.2,246.6,-5.021,-8.022,1.628,-1.978,7.912,5.199,-4.314,-8.283,2,5.077,4.441,5.278,4.866,1.197,1.254,1.439,1.645,2,4.796,4.677,80,161.84427712,norm,0,9,9,9,266.0,266.009,266.025036984,266.025,266.027,266.03,down,1,1.48466633403,8.51533366597,001,014,1920_1080,Intel(R) Core(TM) i5-3570 CPU @ 3.40GHz,orientation_search,LEPPC096,Intel(R) HD Graphics 2500,2018_Nov_24_1543,testMonitor,
260.2,256.7,255.3,270.5,36,30,263.9,234.9,254.8,260.9,8.031,7.776,7.682,8.392,7.826,8.301,7.937,4.569,-4.814,-7.585,1.302,-1.142,8.036,4.867,-4.314,-8.248,238.1,253.6,-7.611,238.8,259.8,250.9,242.8,264.4,36,270.8,2,5,prime,10,0,65,norm,36,-5.154,up,norm,254.894224915,265.5,262.0,,274.9,3,249.2,265.7,256.5,10,6,7.769,5.223,2.039,-1.204,-4.59,-7.704,236.4,6,319.9,-8.075,-7.883,30,-7.546,-7.601,-5.288,-4.777,-4.723,-4.506,5.003,8.045,15,-1.455,2.035,5.081,8.347,-8.157,-7.704,-1.555,1.775,262.6,243.1,257.9,243.9,256.1,251.9,249.2,250.3,253.6,252.9,4,norm,1.829,1.917,-1.348,-1.396,-4.543,-4.497,-1.851,-1.834,-1.725,-1.107,1.221,-1.368,251.3,250.7,-4.764,-7.933,1.695,-1.906,8.087,5.06,-4.538,-7.534,2,4.395,5.214,4.524,5.175,1.14,1.314,1.626,1.6,2,4.611,4.571,80,161.84427712,norm,0,10,10,10,267.545,267.555,267.56942612,267.57,267.571,267.574,up,1,2.49704839117,7.50295160883,001,014,1920_1080,Intel(R) Core(TM) i5-3570 CPU @ 3.40GHz,orientation_search,LEPPC096,Intel(R) HD Graphics 2500,2018_Nov_24_1543,testMonitor,
250.6,268.8,257.9,252.7,36,30,268.9,254.5,244.6,274.9,8.438,7.961,8.494,7.922,8.263,7.957,7.981,4.82,-4.796,-8.258,1.605,-1.15,7.62,4.313,-4.561,-8.487,238.5,250.4,-7.963,250.0,240.7,261.8,240.9,245.9,36,245.4,0,5,prime,10,0,95,norm,36,-4.553,up,norm,254.894224915,263.5,256.0,258.6,261.5,4,257.5,243.4,256.4,10,6,8.014,4.319,1.652,-1.506,-4.658,-7.938,235.5,6,349.9,-7.607,-7.773,30,-8.22,-7.914,-5.112,-4.724,-4.679,-4.349,5.012,7.798,4,-2.057,1.595,4.725,7.712,-8.399,-7.517,-1.353,1.192,251.2,262.0,239.4,250.9,256.5,267.5,253.2,255.5,250.2,,5,norm,1.823,1.897,-1.946,-1.241,-5.268,-4.961,-1.929,-1.212,-1.158,-1.777,1.266,-1.434,243.3,253.1,-4.453,-8.153,1.567,-1.83,7.643,4.415,-4.91,-7.626,2,4.391,4.437,5.185,4.968,1.797,1.157,1.497,1.214,2,5.235,4.776,80,161.84427712,norm,0,11,11,11,270.104,270.117,270.136149202,270.136,270.138,270.141,down,0,1.91575546667,-10,001,014,1920_1080,Intel(R) Core(TM) i5-3570 CPU @ 3.40GHz,orientation_search,LEPPC096,Intel(R) HD Graphics 2500,2018_Nov_24_1543,testMonitor,
396.4,395.1,389.1,395.7,36,0,397.0,391.9,387.4,397.1,8.101,8.451,7.96,7.995,7.981,7.612,7.884,4.873,-4.605,-8.287,1.464,-2.057,8.428,5.003,-4.526,-7.625,398.9,,-8.463,399.3,391.9,384.6,386.7,391.3,36,390.6,5,5,probe,5,0,106,norm,36,-4.923,up,norm,393.337089307,387.9,398.1,389.9,383.3,4,400.7,392.1,391.4,10,6,8.499,4.755,1.292,-1.109,-5.234,-8.324,394.9,2,287.3,-8.069,-8.419,30,-7.525,-7.68,-5.076,-4.764,-4.377,-5.112,4.422,8.212,34,-1.33,1.282,4.867,8.364,-8.416,-8.456,-1.811,2.062,396.9,399.3,397.4,389.2,393.2,403.3,386.1,395.9,394.0,390.4,0,norm,1.182,1.189,-1.91,-1.65,-4.339,-4.416,-1.291,-1.835,-1.907,-1.118,1.208,-1.212,388.9,390.1,-4.694,-7.543,1.749,-1.486,8.221,4.81,-4.555,-7.611,3,5.297,4.607,4.636,4.31,1.226,1.698,1.516,1.891,3,4.827,5.086,30,254.894224915,norm,0,12,12,12,273.106,273.115,273.12279067,273.123,273.125,273.127,up,1,0.690646582989,9.30935341701,001,014,1920_1080,Intel(R) Core(TM) i5-3570 CPU @ 3.40GHz,orientation_search,LEPPC096,Intel(R) HD Graphics 2500,2018_Nov_24_1543,testMonitor,
387.1,387.0,382.9,392.0,36,0,393.0,377.4,375.3,386.2,8.077,7.613,7.805,7.859,7.868,7.771,7.849,4.472,-4.491,-8.263,1.46,-1.28,7.902,4.356,-4.731,-8.376,386.5,381.5,-7.998,386.7,383.2,388.6,390.3,376.0,36,382.3,1,5,probe,5,0,98,norm,36,-4.335,up,norm,385.337089307,380.3,391.4,388.4,382.5,3,381.1,390.1,381.8,10,6,7.933,4.835,1.52,-1.975,-4.791,-8.2,387.6,2,287.3,-8.346,-7.93,30,-7.844,-8.051,-4.61,-4.347,-5.233,-4.469,4.354,7.811,9,-2.057,1.137,5.198,7.651,-7.508,-7.784,-1.742,1.494,,392.7,384.9,381.5,389.8,378.9,395.3,395.0,380.1,380.8,1,norm,2.085,1.782,-1.837,-2.009,-4.544,-4.944,-1.787,-1.626,-1.301,-1.673,1.445,-1.688,394.3,383.6,-4.856,-7.769,2.03,-1.329,7.963,4.361,-4.387,-8.039,3,4.917,4.631,5.075,4.416,1.761,1.249,1.305,1.464,3,4.605,5.083,30,254.894224915,norm,0,13,13,13,273.851,273.861,273.871512575,273.872,273.873,273.876,up,1,0.810057776494,9.18994222351,001,014,1920_1080,Intel(R) Core(TM) i5-3570 CPU @ 3.40GHz,orientation_search,LEPPC096,Intel(R) HD Graphics 2500,2018_Nov_24_1543,testMonitor,
327.3,354.9,316.3,314.9,36,-60,334.2,320.8,320.5,,8.267,8.183,7.998,7.619,8.226,8.191,8.465,4.666,-4.35,-7.981,1.817,-1.473,7.749,5.223,-4.718,-8.247,339.9,333.4,-8.106,342.9,341.2,340.7,334.7,337.2,36,322.9,4,5,prime,10,0,76,norm,36,-5.232,up,norm,334.929651317,321.9,333.7,346.2,331.5,5,339.3,316.6,339.6,10,5,7.759,4.943,1.236,-1.338,-5.224,-7.875,347.5,5,410.9,-7.527,-8.366,-60,-7.831,-8.298,-4.941,-4.894,-4.634,-4.683,4.471,8.255,29,-1.702,1.119,4.574,7.579,-8.214,-7.584,-1.89,2.005,339.8,333.8,333.8,337.1,336.4,339.9,330.7,327.4,349.9,332.5,0,norm,1.695,1.615,-1.711,-1.543,-4.743,-5.155,-1.276,-2.026,-2.045,-1.937,1.96,-1.449,349.6,318.6,-4.7,-8.079,1.358,-1.548,8.433,4.828,-4.596,-8.309,4,4.732,4.489,4.972,4.358,1.154,1.815,1.899,1.2,4,4.419,4.323,0,254.894224915,norm,0,14,14,14,274.719,274.733,274.75122331,274.751,274.753,274.756,up,1,0.792571791995,9.207428208,001,014,1920_1080,Intel(R) Core(TM) i5-3570 CPU @ 3.40GHz,orientation_search,LEPPC096,Intel(R) HD Graphics 2500,2018_Nov_24_1543,testMonitor,
315.8,317.1,327.4,338.2,36,-60,331.4,338.2,348.4,333.0,8.285,8.17,8.249,8.086,8.469,8.177,8.448,4.438,-5.074,-8.031,2.093,-1.975,7.605,4.84,-4.433,-8.278,338.8,327.9,-7.757,329.3,354.9,351.1,,338.1,36,316.8,5,5,prime,10,0,117,norm,36,-5.076,down,norm,334.929651317,346.1,331.2,334.1,322.1,2,346.0,352.4,335.1,10,5,8.276,4.766,1.932,-1.11,-4.389,-8.174,337.4,5,451.9,-7.64,-7.641,-60,-7.656,-7.638,-5.133,-4.367,-4.875,-4.693,4.433,8.259,32,-1.207,1.326,5.134,7.638,-7.505,-8.473,-1.224,1.808,344.2,346.2,337.5,330.9,324.8,347.5,329.4,328.6,334.9,333.2,1,norm,1.874,1.807,-1.216,-2.079,-5.253,-4.807,-1.189,-1.916,-1.39,-2.02,1.306,-1.283,349.8,314.9,-4.979,-7.857,1.131,-1.249,8.058,4.437,-4.655,-8.002,4,4.509,4.889,5.127,4.589,1.47,1.882,1.256,1.943,4,5.228,5.107,0,254.894224915,norm,0,15,15,15,275.588,275.598,275.604058813,275.604,275.606,275.608,down,1,4.17195004194,5.82804995806,001,014,1920_1080,Intel(R) Core(TM) i5-3570 CPU @ 3.40GHz,orientation_search,LEPPC096,Intel(R) HD Graphics 2500,2018_Nov_24_1543,testMonitor,
328.2,,332.1,322.4,36,-60,340.8,350.3,354.7,338.7,7.588,8.25,8.262,7.693,8.074,8.075,8.039,4.63,-4.759,-7.97,1.403,-1.942,8.025,5.063,-4.828,-7.956,314.9,332.0,-7.531,330.8,335.8,348.0,354.9,339.2,36,340.7,3,5,prime,10,0,67,norm,36,-4.783,up,norm,334.929651317,347.3,323.0,339.9,338.2,5,326.3,335.6,336.7,10,5,8.273,4.706,1.374,-1.573,-4.558,-8.11,329.6,5,401.9,-8.215,-8.388,-60,-7.78,-8.175,-5.042,-4.839,-4.317,-4.853,5.064,7.739,23,-1.981,2.079,4.661,8.452,-8.393,-7.776,-1.226,1.534,333.4,333.6,320.6,335.0,342.9,341.8,327.5,346.6,345.2,338.5,2,norm,1.604,1.61,-1.277,-1.326,-5.176,-5.29,-1.264,-1.147,-1.318,-1.182,2.089,-1.201,338.1,335.3,-5.267,-8.394,1.26,-1.255,8.262,5.105,-5.141,-8.193,4,4.431,5.011,4.351,4.423,1.998,1.21,1.241,1.73,4,4.397,5.247,0,254.894224915,norm,0,16,16,16,279.8,279.809,279.815765397,279.816,279.818,279.82,up,1,1.19645668091,8.80354331909,001,014,1920_1080,Intel(R) Core(TM) i5-3570 CPU @ 3.40GHz,orientation_search,LEPPC096,Intel(R) HD Graphics 2500,2018_Nov_24_1543,testMonitor,
346.9,348.6,333.5,326.9,36,-60,334.6,327.7,331.2,333.2,7.988,7.951,8.327,8.352,8.321,7.711,7.806,4.438,-4.404,-8.084,1.109,-1.876,8.39,5.187,-4.797,-7.545,354.9,319.7,-7.811,330.7,330.0,337.5,,335.1,36,346.1,5,5,prime,10,0,92,norm,36,-5.271,down,norm,334.929651317,323.8,345.6,339.5,342.7,2,338.7,329.3,334.6,10,5,8.284,4.94,1.371,-1.32,-4.65,-7.702,353.9,5,426.9,-8.352,-7.534,-60,-8.306,-7.516,-4.405,-4.335,-4.639,-5.079,4.495,8.403,32,-1.6,1.73,4.904,7.586,-8.301,-7.59,-1.595,1.829,314.9,322.0,328.8,327.3,340.2,344.4,333.8,322.8,336.2,327.8,3,norm,1.613,1.728,-1.66,-2.077,-4.87,-4.964,-1.176,-1.23,-1.47,-1.522,1.969,-1.121,334.1,332.6,-4.675,-7.978,1.135,-1.308,7.833,5.151,-4.338,-7.836,4,4.533,5.148,4.754,5.101,1.922,1.225,1.247,1.213,4,5.174,5.261,0,254.894224915,norm,0,17,17,17,281.033,281.045,281.049554187,281.05,281.052,281.055,down,1,0.925333065294,9.07466693471,001,014,1920_1080,Intel(R) Core(TM) i5-3570 CPU @ 3.40GHz,orientation_search,LEPPC096,Intel(R) HD Graphics 2500,2018_Nov_24_1543,testMonitor,
326.7,329.3,336.8,331.2,36,-60,333.9,328.1,341.1,,8.37,7.564,8.47,8.445,8.254,8.302,7.854,4.627,-5.045,-8.128,2.073,-2.082,7.563,5.111,-4.965,-8.347,343.4,333.7,-7.785,322.3,332.6,343.9,337.4,335.3,36,335.4,4,5,prime,10,0,103,norm,36,-4.845,up,norm,334.929651317,326.3,333.9,314.9,354.9,5,337.5,321.6,340.2,10,5,7.629,4.362,1.172,-1.904,-5.111,-8.231,325.1,5,437.9,-7.654,-7.563,-60,-8.293,-8.064,-5.195,-5.048,-4.436,-5.246,4.358,7.877,29,-1.379,1.809,4.671,7.745,-8.334,-8.324,-1.554,1.204,327.5,337.9,336.5,327.0,336.5,345.5,330.2,342.2,337.9,332.9,4,norm,2.035,2.03,-1.325,-1.341,-4.474,-5.245,-1.841,-1.976,-1.145,-1.769,1.224,-1.248,335.7,333.6,-4.901,-7.659,1.424,-1.86,8.155,4.506,-5.014,-8.019,4,4.632,4.907,4.485,4.443,1.146,1.995,1.431,1.213,4,5.012,4.37,0,254.894224915,norm,0,18,18,18,282.013,282.022,282.029814917,282.03,282.032,282.034,up,1,0.770016894365,9.22998310564,001,014,1920_1080,Intel(R) Core(TM) i5-3570 CPU @ 3.40GHz,orientation_search,LEPPC096,Intel(R) HD Graphics 2500,2018_Nov_24_1543,testMonitor,
388.0,399.6,400.9,397.9,36,-80,393.2,,399.5,398.4,7.755,8.045,7.845,8.039,8.428,8.407,7.726,5.187,-4.382,-7.949,1.663,-1.637,7.733,4.801,-4.693,-8.075,402.8,396.1,-8.291,388.7,389.5,405.5,392.2,400.9,36,390.9,4,5,probe,5,0,113,norm,36,-5.237,down,norm,395.522737865,396.5,385.5,398.8,391.7,1,392.6,401.0,395.2,10,5,8.386,4.66,1.357,-2.099,-4.623,-7.736,392.6,1,282.5,-8.272,-8.114,-60,-7.531,-7.853,-4.704,-4.777,-4.792,-4.306,4.562,7.693,25,-1.859,1.623,5.029,7.748,-8.325,-7.88,-1.189,1.2,397.6,396.0,391.4,394.9,395.9,392.7,400.2,391.3,402.1,394.0,0,norm,1.951,1.469,-1.548,-1.65,-4.797,-4.782,-1.103,-1.666,-1.406,-1.365,1.581,-2.025,388.3,390.7,-5.217,-7.699,1.701,-1.999,8.082,5.264,-4.667,-7.981,5,4.516,5.283,4.823,4.439,1.868,1.38,2.098,1.261,5,4.595,5.259,-60,334.929651317,norm,0,19,19,19,282.842,282.855,282.874426906,282.875,282.877,282.88,down,1,1.02921393965,8.97078606035,001,014,1920_1080,Intel(R) Core(TM) i5-3570 CPU @ 3.40GHz,orientation_search,LEPPC096,Intel(R) HD Graphics 2500,2018_Nov_24_1543,testMonitor,
187.5,182.0,186.0,188.6,36,-40,177.1,172.5,175.6,174.4,7.753,7.947,8.185,7.847,8.405,8.206,7.913,4.381,-4.946,-7.551,1.38,-1.786,7.994,5.056,-4.409,-8.064,178.5,,-8.272,174.5,179.6,158.8,169.5,181.2,36,168.0,5,5,prime,10,0,103,norm,36,-4.42,up,norm,178.776807474,179.7,170.7,176.6,181.7,4,172.7,185.4,169.7,10,6,8.028,4.822,1.428,-1.277,-4.577,-8.165,195.8,6,281.8,-7.938,-8.084,-40,-7.701,-8.474,-5.079,-5.201,-4.676,-4.608,5.213,8.483,34,-1.756,1.61,5.097,8.406,-8.072,-7.566,-1.891,1.213,188.2,171.5,177.2,174.3,161.2,174.5,184.9,178.4,198.8,191.4,0,norm,1.16,1.427,-1.51,-1.132,-4.411,-4.966,-1.652,-1.933,-1.245,-1.377,1.462,-1.706,187.6,165.6,-4.405,-7.936,1.59,-1.697,8.028,5.282,-4.324,-8.164,6,4.444,4.845,5.275,4.318,1.253,1.914,1.575,1.567,6,4.593,4.915,-80,334.929651317,norm,0,20,20,20,283.949,283.959,283.965157825,283.965,283.967,283.97,up,1,1.39422971567,8.60577028433,001,014,1920_1080,Intel(R) Core(TM) i5-3570 CPU @ 3.40GHz,orientation_search,LEPPC096,Intel(R) HD Graphics 2500,2018_Nov_24_1543,testMonitor,
180.8,187.9,,178.2,36,-40,184.6,172.9,167.2,179.6,7.581,7.767,8.142,8.31,7.607,7.753,7.695,4.433,-5.147,-7.811,1.948,-1.109,8.079,5.29,-4.458,-7.926,168.4,171.2,-7.709,179.4,160.4,172.1,191.9,158.8,36,178.3,3,5,prime,10,0,61,norm,36,-4.737,down,norm,178.776807474,174.8,174.5,187.1,187.8,2,175.1,189.5,168.0,10,6,8.005,4.581,1.254,-1.798,-5.198,-8.095,191.4,6,239.8,-8.404,-7.608,-40,-7.674,-7.608,-4.502,-4.376,-4.723,-5.146,4.999,8.155,20,-1.986,1.967,5.032,7.977,-8.335,-8.095,-1.941,1.675,171.5,178.6,176.1,195.9,185.4,189.3,190.6,169.9,181.3,198.8,1,norm,1.525,1.461,-1.439,-1.323,-5.132,-4.906,-1.104,-1.879,-1.841,-1.752,1.551,-1.597,170.2,186.9,-4.551,-7.62,1.385,-1.579,8.001,5.196,-4.518,-7.58,6,4.597,4.933,5.242,4.443,1.407,1.676,1.437,1.535,6,5.195,4.555,-80,334.929651317,norm,0,21,21,21,285.396,285.405,285.415023639,285.415,285.417,285.419,down,1,1.40195367316,8.59804632684,001,014,1920_1080,Intel(R) Core(TM) i5-3570 CPU @ 3.40GHz,orientation_search,LEPPC096,Intel(R) HD Graphics 2500,2018_Nov_24_1543,testMonitor,
181.0,176.5,188.3,182.1,36,-40,176.7,167.0,197.4,168.1,8.222,7.578,7.511,7.555,8.192,7.885,8.354,4.669,-4.842,-8.487,1.497,-1.326,7.945,4.358,-4.482,-7.866,167.1,168.0,-7.791,168.7,193.7,184.4,158.8,189.5,36,175.0,0,5,prime,10,0,69,norm,36,-5.117,up,norm,178.776807474,188.3,175.1,158.8,165.8,3,162.6,180.6,187.5,10,6,7.74,5.079,1.505,-1.297,-4.36,-7.521,167.3,6,247.8,-8.12,-8.038,-40,-8.418,-7.714,-4.976,-4.518,-4.633,-4.785,5.297,7.971,3,-2.057,1.426,4.676,8.252,-7.549,-8.084,-1.754,1.68,178.4,166.6,,181.5,179.0,192.1,182.8,166.9,198.8,177.3,2,norm,1.188,1.779,-1.203,-1.792,-5.259,-5.207,-1.43,-1.848,-2.018,-1.619,1.259,-1.359,175.7,184.1,-4.936,-8.207,1.874,-1.935,7.677,4.563,-4.657,-8.163,6,5.103,4.772,4.484,4.637,2.048,1.1,1.959,1.417,6,4.615,4.986,-80,334.929651317,norm,0,22,22,22,286.854,286.863,286.881292411,286.882,286.883,286.886,up,1,3.00269247336,6.99730752664,001,014,1920_1080,Intel(R) Core(TM) i5-3570 CPU @ 3.40GHz,orientation_search,LEPPC096,Intel(R) HD Graphics 2500,2018_Nov_24_1543,testMonitor,
169.3,183.1,198.8,189.7,36,-40,184.5,177.7,179.9,190.7,8.139,7.601,7.552,7.823,8.466,8.343,8.221,5.018,-5.242,-7.925,1.56,-1.356,8.366,5.164,-5.007,-7.741,170.7,169.4,-7.922,192.7,186.6,158.8,182.1,173.1,36,179.0,3,5,prime,10,0,62,norm,36,-4.896,down,norm,178.776807474,183.1,167.7,192.4,184.0,0,163.3,185.7,185.9,10,6,8.259,4.896,1.556,-1.99,-5.208,-8.008,184.2,6,240.8,-7.543,-7.806,-40,-8.133,-7.884,-4.456,-4.908,-4.636,-4.337,5.188,8.035,18,-1.758,1.579,5.228,7.679,-7.56,-7.96,-1.739,2.084,192.6,171.8,177.6,179.6,175.2,194.6,188.1,184.0,169.6,175.7,3,norm,1.323,1.212,-1.245,-1.827,-4.904,-4.736,-2.094,-1.498,-1.356,-1.304,1.355,-1.147,180.8,,-4.387,-8.288,1.543,-1.689,7.934,4.603,-5.108,-8.407,6,5.182,5.199,4.334,4.852,1.912,1.92,1.209,2.088,6,4.545,5.262,-80,334.929651317,norm,0,23,23,23,289.908,289.917,289.924088853,289.924,289.926,289.929,down,1,1.34762457142,8.65237542858,001,014,1920_1080,Intel(R) Core(TM) i5-3570 CPU @ 3.40GHz,orientation_search,LEPPC096,Intel(R) HD Graphics 2500,2018_Nov_24_1543,testMonitor,
187.5,185.8,173.3,180.7,36,-40,161.6,171.3,190.1,165.8,7.58,8.002,8.014,7.923,7.808,8.482,7.983,4.767,-5.23,-7.684,1.313,-1.985,7.903,4.455,-4.637,-7.567,159.3,167.2,-8.222,,179.7,179.1,185.8,174.9,36,184.1,5,5,prime,10,0,66,norm,36,-4.808,down,norm,178.776807474,180.7,184.6,178.6,161.7,1,190.2,177.7,179.5,10,6,8.021,4.321,1.55,-1.176,-5.216,-7.91,158.8,6,244.8,-7.902,-8.275,-40,-7.964,-8.426,-4.701,-5.063,-4.483,-4.687,4.722,8.004,31,-1.567,1.298,4.32,7.749,-8.226,-8.209,-1.747,1.397,182.6,174.7,169.1,177.0,177.1,194.9,190.4,198.8,160.1,186.0,4,norm,1.208,1.157,-2.077,-1.839,-5.281,-5.229,-2.032,-1.294,-1.486,-1.314,2.081,-1.489,172.5,166.5,-4.341,-8.207,2.056,-2.071,8.171,5.222,-4.464,-8.327,6,4.329,5.269,5.187,4.739,1.172,1.868,1.616,1.285,6,4.603,4.867,-80,334.929651317,norm,0,24,24,24,291.313,291.334,291.344722013,291.345,291.347,291.35,up,0,1.23088592938,-10,001,014,1920_1080,Intel(R) Core(TM) i5-3570 CPU @ 3.40GHz,orientation_search,LEPPC096,Intel(R) HD Graphics 2500,2018_Nov_24_1543,testMonitor,
198.8,170.4,172.1,,36,-40,182.4,183.0,160.4,167.1,7.648,7.518,7.95,7.85,7.632,8.258,8.228,4.577,-4.551,-8.044,1.65,-1.106,8.448,4.806,-4.731,-7.888,194.6,184.8,-7.638,184.1,175.4,159.6,177.8,174.5,36,188.3,3,5,prime,10,0,74,norm,36,-4.814,up,norm,178.776807474,179.3,171.2,172.3,186.0,3,194.0,177.1,182.1,10,6,7.713,5.194,1.439,-1.947,-5.117,-8.276,178.3,6,252.8,-8.446,-7.571,-40,-7.85,-7.961,-4.969,-5.201,-4.31,-4.442,4.839,7.979,21,-1.524,1.22,5.032,8.158,-8.425,-8.483,-1.145,1.923,177.4,180.6,191.0,176.4,178.3,191.0,188.8,164.6,185.0,186.2,5,norm,2.002,1.74,-1.706,-1.871,-4.826,-4.906,-1.823,-1.655,-1.54,-1.747,1.847,-1.735,158.8,193.2,-5.064,-7.912,1.561,-1.651,8.067,4.899,-5.099,-8.135,6,4.368,4.506,4.608,5.256,1.184,1.264,1.222,1.676,6,4.8,4.862,-80,334.929651317,norm,0,25,25,25,293.656,293.666,293.682670282,293.683,293.685,293.687,up,1,1.28244951084,8.71755048916,001,014,1920_1080,Intel(R) Core(TM) i5-3570 CPU @ 3.40GHz,orientation_search,LEPPC096,Intel(R) HD Graphics 2500,2018_Nov_24_1543,testMonitor,
244.1,243.6,245.1,239.7,36,-30,242.5,243.7,246.2,240.8,7.91,8.18,8.039,8.07,7.933,7.84,8.085,4.827,-4.612,-7.906,1.578,-1.142,8.057,4.867,-4.947,-7.786,244.2,256.9,-8.131,256.3,247.8,253.1,248.1,247.5,36,250.7,0,5,probe,5,0,114,norm,36,-4.444,down,norm,246.933773109,236.9,247.6,250.1,248.3,0,250.5,250.9,253.4,10,6,8.449,4.406,2.096,-1.777,-5.282,-7.821,248.6,2,132.9,-7.683,-7.902,-40,-8.289,-8.008,-4.735,-4.959,-4.744,-4.409,4.449,8.111,0,-1.431,1.905,4.367,7.943,-8.248,-8.388,-1.696,1.427,241.8,249.2,239.9,252.4,248.1,,245.8,243.9,249.1,243.1,0,norm,1.956,1.576,-1.899,-1.591,-4.706,-4.921,-1.341,-1.344,-1.619,-1.848,2.076,-1.38,246.7,255.4,-5.088,-8.146,1.524,-1.926,7.506,4.303,-4.969,-7.677,7,4.517,4.679,4.842,5.018,1.39,1.948,1.296,1.766,7,5.295,5.276,-40,178.776807474,norm,0,26,26,26,295.002,295.013,295.024179739,295.024,295.026,295.029,down,1,0.975896024647,9.02410397535,001,014,1920_1080,Intel(R) Core(TM) i5-3570 CPU @ 3.40GHz,orientation_search,LEPPC096,Intel(R) HD Graphics 2500,2018_Nov_24_1543,testMonitor,
187.2,188.2,194.2,,36,-30,187.1,189.8,196.7,198.9,7.588,8.447,7.891,7.971,8.454,8.031,7.821,5.273,-4.502,-8.244,1.587,-1.893,8.201,4.951,-5.118,-7.607,193.2,196.0,-8.409,204.9,194.0,199.9,194.7,195.2,36,192.2,3,5,probe,5,0,62,norm,36,-5.239,up,norm,194.933773109,196.0,202.9,186.0,198.3,3,192.8,190.3,195.2,10,6,7.751,5.212,1.227,-1.316,-5.041,-8.024,190.1,2,132.9,-7.718,-7.62,-40,-7.653,-8.441,-5.089,-4.498,-4.763,-4.324,5.255,8.023,21,-1.806,1.343,4.662,7.819,-7.91,-8.388,-1.924,1.668,194.6,191.7,191.0,197.0,201.7,199.3,196.0,184.9,199.2,196.8,1,norm,1.329,1.977,-1.803,-1.775,-5.113,-4.787,-1.243,-2.062,-1.846,-1.895,1.78,-1.403,198.4,193.0,-4.9,-7.741,1.777,-1.965,7.605,5.159,-5.218,-7.652,7,4.655,5.257,4.627,4.975,1.935,1.843,2.005,1.898,7,4.303,4.991,-40,178.776807474,norm,0,27,27,27,296.023,296.032,296.039005548,296.039,296.041,296.043,up,1,0.925375323844,9.07462467616,001,014,1920_1080,Intel(R) Core(TM) i5-3570 CPU @ 3.40GHz,orientation_search,LEPPC096,Intel(R) HD Graphics 2500,2018_Nov_24_1543,testMonitor,
39.5,52.5,34.8,22.9,36,80,52.9,51.1,51.3,32.9,7.623,7.98,7.912,7.721,8.376,8.103,7.818,4.661,-5.0,-8.284,1.369,-1.424,7.577,4.92,-4.581,-8.399,34.9,38.4,-7.775,26.9,56.6,46.0,48.7,38.5,36,36.2,0,5,prime,10,0,81,norm,36,-5.044,up,norm,42.8761024663,27.1,55.5,48.4,56.2,5,42.5,48.7,48.8,10,6,7.543,4.58,2.087,-1.421,-5.194,-8.333,43.8,6,123.9,-8.431,-8.235,80,-7.622,-8.148,-4.992,-4.635,-5.018,-4.312,4.877,8.033,5,-1.757,1.732,5.209,8.094,-7.533,-8.404,-1.4,1.94,45.7,33.4,51.2,62.9,41.4,39.0,39.7,43.6,,48.7,0,norm,1.539,1.879,-1.527,-1.815,-4.549,-4.544,-1.896,-1.442,-1.82,-1.189,1.991,-1.718,45.6,38.8,-4.77,-7.724,2.064,-1.295,7.652,5.042,-4.539,-8.268,8,4.388,4.956,5.222,5.149,1.815,1.171,1.942,2.045,8,4.828,4.965,-30,178.776807474,norm,0,28,28,28,297.002,297.011,297.02080811,297.021,297.023,297.025,up,1,0.827012812491,9.17298718751,001,014,1920_1080,Intel(R) Core(TM) i5-3570 CPU @ 3.40GHz,orientation_search,LEPPC096,Intel(R) HD Graphics 2500,2018_Nov_24_1543,testMonitor,
31.1,28.3,47.6,35.2,36,80,50.0,52.5,45.1,47.1,7.818,7.729,8.26,7.928,7.802,8.146,7.785,5.007,-4.51,-7.988,1.74,-1.922,8.052,4.576,-5.18,-7.575,22.9,24.0,-8.336,53.1,47.8,62.9,41.6,43.2,36,28.0,3,5,prime,10,0,80,norm,36,-4.468,down,norm,42.8761024663,54.2,39.1,34.2,36.8,1,42.0,37.2,44.4,10,6,8.074,5.206,1.896,-1.403,-4.455,-8.138,53.0,6,122.9,-7.833,-8.049,80,-7.759,-8.324,-5.055,-4.535,-4.681,-4.996,4.937,7.837,19,-1.453,1.716,4.781,8.354,-7.588,-8.213,-1.281,1.539,40.1,31.8,44.9,55.3,38.1,36.5,44.5,54.9,51.2,57.5,1,norm,2.048,1.956,-1.836,-1.614,-5.05,-5.053,-1.468,-1.448,-1.97,-1.762,1.279,-1.942,,37.3,-5.117,-7.758,1.376,-1.358,8.027,4.44,-4.907,-8.441,8,4.585,4.692,4.712,5.037,1.366,1.468,1.836,2.035,8,4.804,5.024,-30,178.776807474,norm,0,29,29,29,297.885,297.898,297.917539683,297.918,297.92,297.922,down,1,0.779973612553,9.22002638745,001,014,1920_1080,Intel(R) Core(TM) i5-3570 CPU @ 3.40GHz,orientation_search,LEPPC096,Intel(R) HD Graphics 2500,2018_Nov_24_1543,testMonitor,
41.6,43.3,31.4,52.4,36,80,41.0,33.2,55.4,51.5,8.118,7.954,7.995,8.101,8.092,7.558,8.231,4.938,-4.847,-8.189,1.595,-1.831,8.105,4.648,-5.293,-8.333,27.8,51.6,-7.963,45.3,55.9,51.7,34.4,,36,33.5,4,5,prime,10,0,100,norm,36,-4.506,down,norm,42.8761024663,51.1,39.5,52.6,32.8,2,42.1,52.4,30.9,10,6,7.964,4.679,1.518,-1.133,-5.263,-7.784,22.9,6,142.9,-7.535,-8.45,80,-7.732,-7.688,-4.316,-4.634,-5.159,-4.827,4.484,7.838,26,-1.258,1.768,4.711,7.931,-7.812,-8.316,-2.071,1.755,59.9,43.3,36.4,53.5,43.7,33.2,37.7,40.4,62.9,32.3,2,norm,1.272,1.924,-1.562,-1.763,-5.042,-4.415,-1.801,-1.889,-1.274,-1.158,1.933,-1.47,47.2,44.1,-4.51,-8.47,1.663,-1.872,8.082,5.004,-4.46,-7.604,8,4.409,5.242,4.934,4.784,1.595,1.846,1.987,2.049,8,4.61,4.721,-30,178.776807474,norm,0,30,30,30,298.737,298.747,298.753433734,298.754,298.755,298.758,down,1,1.09325254706,8.90674745294,001,014,1920_1080,Intel(R) Core(TM) i5-3570 CPU @ 3.40GHz,orientation_search,LEPPC096,Intel(R) HD Graphics 2500,2018_Nov_24_1543,testMonitor,
53.8,46.5,50.6,32.5,36,80,59.5,27.5,61.4,46.2,8.106,7.65,8.201,7.703,8.431,7.814,7.675,4.379,-5.06,-8.073,1.851,-1.407,8.155,4.809,-5.103,-7.685,35.9,40.7,-7.608,31.1,41.8,22.9,30.9,26.6,36,40.0,0,5,prime,10,0,80,norm,36,-4.905,up,norm,42.8761024663,42.2,27.3,49.9,45.0,3,47.7,28.1,36.7,10,6,7.51,4.805,1.91,-1.768,-4.468,-8.045,26.2,6,122.9,-7.71,-8.21,80,-8.278,-8.149,-4.559,-4.316,-5.13,-4.668,4.769,7.875,3,-1.776,1.759,5.085,7.784,-8.487,-8.052,-1.782,1.261,53.3,49.8,,57.8,29.2,32.0,49.4,46.8,48.8,51.6,3,norm,1.187,1.243,-1.155,-1.863,-4.363,-5.224,-1.157,-1.756,-2.061,-1.361,1.168,-2.081,62.9,48.7,-5.147,-7.668,1.249,-2.058,8.318,4.485,-4.553,-8.261,8,4.854,4.65,4.629,5.128,1.394,1.494,1.742,1.9,8,5.13,4.341,-30,178.776807474,norm,0,31,31,31,299.892,299.903,299.907672613,299.908,299.91,299.912,up,1,1.24613522917,8.75386477083,001,014,1920_1080,Intel(R) Core(TM) i5-3570 CPU @ 3.40GHz,orientation_search,LEPPC096,Intel(R) HD Graphics 2500,2018_Nov_24_1543,testMonitor,
47.1,48.9,43.9,58.8,36,80,22.9,50.9,36.2,30.2,8.216,8.317,8.221,7.744,7.894,7.505,7.783,4.46,-4.411,-8.295,1.219,-1.211,7.868,4.93,-5.247,-8.071,62.9,47.0,-8.294,44.2,34.9,41.0,43.1,30.7,36,41.4,2,5,prime,10,0,117,norm,36,-4.807,up,norm,42.8761024663,36.5,53.4,,24.6,3,43.9,50.9,50.1,10,6,7.85,5.172,1.135,-1.828,-4.88,-8.231,39.6,6,159.9,-7.739,-7.857,80,-7.962,-7.504,-4.371,-4.813,-4.439,-5.256,4.942,8.185,15,-2.031,1.396,5.292,7.754,-8.307,-7.538,-1.166,1.83,54.8,31.2,28.2,37.1,35.9,47.3,43.2,41.4,35.6,45.1,4,norm,1.767,2.06,-1.856,-1.884,-4.794,-5.126,-1.557,-1.24,-2.059,-1.936,2.089,-1.988,45.3,42.1,-4.98,-8.422,1.456,-1.308,8.241,5.208,-4.916,-8.187,8,5.174,4.653,4.585,4.685,1.919,1.16,1.276,1.33,8,4.415,5.242,-30,178.776807474,norm,0,32,32,32,301.191,301.201,301.217167898,301.217,301.219,301.222,up,1,1.2802203723,8.7197796277,001,014,1920_1080,Intel(R) Core(TM) i5-3570 CPU @ 3.40GHz,orientation_search,LEPPC096,Intel(R) HD Graphics 2500,2018_Nov_24_1543,testMonitor,
36.5,48.9,41.3,52.9,36,80,55.9,38.1,42.3,58.8,7.77,8.434,8.307,8.347,8.42,7.898,8.453,4.827,-4.879,-7.624,1.273,-1.104,7.825,4.512,-5.273,-8.187,46.5,27.6,-8.251,36.9,45.6,49.4,43.2,29.0,36,37.8,2,5,prime,10,0,104,norm,36,-4.339,up,norm,42.8761024663,32.5,57.9,,46.4,3,25.9,37.8,55.4,10,6,8.417,4.581,2.014,-1.843,-4.984,-8.33,47.5,6,146.9,-8.243,-7.632,80,-8.075,-7.775,-4.982,-4.528,-4.741,-4.758,5.113,8.105,15,-1.265,1.272,4.614,8.028,-7.764,-8.459,-1.525,2.056,43.5,30.5,25.8,39.3,62.9,42.3,47.0,39.5,44.8,38.8,5,norm,1.184,2.058,-1.457,-1.833,-5.036,-4.347,-1.378,-1.792,-1.841,-1.268,1.837,-1.423,22.9,27.3,-4.342,-8.205,2.026,-1.932,7.964,4.576,-5.234,-7.61,8,4.32,4.483,4.787,4.898,1.305,1.123,1.723,1.144,8,5.049,4.541,-30,178.776807474,norm,0,33,33,33,302.544,302.564,302.576364974,302.577,302.578,302.581,up,1,1.0975170385,8.9024829615,001,014,1920_1080,Intel(R) Core(TM) i5-3570 CPU @ 3.40GHz,orientation_search,LEPPC096,Intel(R) HD Graphics 2500,2018_Nov_24_1543,testMonitor,
233.3,235.1,225.5,,36,30,231.0,230.9,215.7,220.5,8.384,7.524,7.827,8.493,7.64,7.788,8.067,4.453,-4.423,-7.669,1.819,-2.012,7.706,4.896,-4.989,-8.493,223.1,225.2,-7.653,220.8,219.8,227.8,219.1,231.9,36,220.8,3,5,probe,5,0,99,norm,36,-4.47,up,norm,225.679592931,222.6,232.7,229.4,229.5,3,232.1,216.2,223.8,10,6,7.934,4.758,1.969,-1.564,-5.215,-8.31,228.2,1,126.7,-8.248,-8.317,80,-7.559,-8.405,-4.328,-4.883,-4.981,-4.933,5.242,8.083,21,-1.218,1.911,4.517,8.458,-7.571,-7.511,-1.714,1.375,231.2,234.3,229.9,224.4,221.2,235.7,225.8,233.8,232.0,232.5,0,norm,1.413,1.982,-1.974,-1.436,-4.974,-5.039,-1.969,-1.523,-2.097,-1.926,1.913,-1.513,225.0,224.3,-4.564,-7.555,1.254,-1.154,7.869,4.732,-4.808,-7.808,9,5.037,4.343,4.568,4.855,1.855,1.798,1.686,1.43,9,4.868,5.11,80,42.8761024663,norm,0,34,34,34,303.71,303.72,303.728697691,303.729,303.731,303.733,up,1,0.996954365897,9.0030456341,001,014,1920_1080,Intel(R) Core(TM) i5-3570 CPU @ 3.40GHz,orientation_search,LEPPC096,Intel(R) HD Graphics 2500,2018_Nov_24_1543,testMonitor,
20.5,-2.1,14.0,,36,-10,21.4,37.9,37.1,25.9,7.736,7.7,7.753,7.962,7.871,7.866,7.654,4.408,-4.346,-8.144,1.381,-1.12,7.854,4.985,-4.878,-8.002,22.9,19.2,-7.821,23.9,27.1,13.3,14.6,5.7,36,14.3,3,5,prime,10,0,61,norm,36,-4.687,up,norm,17.9425154228,7.0,9.1,10.6,21.9,3,10.2,25.8,23.5,10,6,7.558,5.156,1.116,-1.981,-4.412,-7.751,27.1,6,78.9,-8.281,-8.179,-10,-8.144,-8.442,-5.061,-4.82,-5.179,-4.885,5.266,7.923,21,-1.706,1.354,4.633,8.378,-7.848,-7.681,-1.984,1.653,18.5,25.3,25.4,-0.2,12.3,7.4,22.8,25.6,17.3,6.7,0,norm,1.503,1.264,-1.301,-1.344,-5.275,-5.141,-1.388,-1.525,-1.258,-1.23,1.5,-1.747,12.7,22.3,-4.731,-7.903,1.129,-1.947,8.212,4.584,-4.598,-7.811,10,4.366,4.584,5.251,5.159,1.654,1.116,1.246,1.913,10,5.247,4.697,30,42.8761024663,norm,0,35,35,35,304.762,304.772,304.789279247,304.79,304.791,304.794,up,1,2.07744754733,7.92255245267,001,014,1920_1080,Intel(R) Core(TM) i5-3570 CPU @ 3.40GHz,orientation_search,LEPPC096,Intel(R) HD Graphics 2500,2018_Nov_24_1543,testMonitor,
22.6,11.4,10.4,,36,-10,7.6,36.8,18.5,24.9,8.485,8.131,8.324,8.028,7.592,8.409,7.588,4.386,-5.182,-7.917,1.123,-1.485,7.675,4.694,-4.714,-7.723,30.7,30.7,-8.436,22.6,16.0,18.0,4.9,4.6,36,9.4,3,5,prime,10,0,84,norm,36,-5.279,up,norm,17.9425154228,25.6,10.9,27.7,2.9,3,22.2,37.9,13.7,10,6,7.727,5.181,1.49,-1.392,-4.419,-8.434,30.1,6,101.9,-7.89,-8.47,-10,-8.347,-8.289,-4.856,-5.144,-4.641,-4.351,5.057,7.552,21,-1.417,1.348,5.165,8.043,-7.713,-8.351,-1.86,1.101,28.3,7.4,22.7,22.3,23.9,22.6,-2.1,16.6,20.4,30.0,1,norm,1.913,1.842,-1.528,-1.332,-4.333,-5.001,-2.051,-1.437,-1.19,-1.566,2.016,-1.133,13.7,8.4,-4.992,-7.878,2.009,-1.795,8.102,5.129,-4.473,-7.599,10,4.763,4.312,4.766,4.59,1.705,2.051,1.427,1.485,10,4.719,4.473,30,42.8761024663,norm,0,36,36,36,306.912,306.934,306.944136913,306.944,306.946,306.949,up,1,1.70384694678,8.29615305322,001,014,1920_1080,Intel(R) Core(TM) i5-3570 CPU @ 3.40GHz,orientation_search,LEPPC096,Intel(R) HD Graphics 2500,2018_Nov_24_1543,testMonitor,
13.8,21.9,19.0,16.8,36,-10,14.8,18.2,22.1,21.6,8.349,8.077,8.279,7.59,8.361,8.313,8.114,5.06,-4.554,-7.633,1.62,-1.191,7.689,5.176,-5.091,-8.16,8.5,24.0,-7.854,16.3,,34.7,19.0,-2.0,36,18.0,5,5,prime,10,0,106,norm,36,-4.633,down,norm,17.9425154228,8.6,17.5,1.6,22.4,0,8.8,21.5,14.3,10,6,8.158,4.864,1.212,-1.767,-4.656,-8.29,0.7,6,123.9,-8.247,-8.067,-10,-8.268,-7.654,-4.964,-4.594,-5.189,-5.294,4.94,8.21,30,-2.091,1.548,4.742,8.449,-7.948,-7.632,-1.272,2.037,27.3,20.5,18.5,17.3,37.9,10.0,3.7,17.4,24.0,-2.1,2,norm,1.63,1.296,-1.568,-1.238,-5.144,-4.759,-1.282,-2.075,-1.356,-1.174,1.572,-1.182,11.4,8.3,-4.706,-7.858,2.028,-1.542,8.404,4.541,-4.706,-7.934,10,4.322,4.505,5.174,4.79,1.512,1.909,1.799,1.673,10,4.363,5.054,30,42.8761024663,norm,0,37,37,37,308.685,308.695,308.704664046,308.705,308.707,308.709,down,1,1.17835613635,8.82164386365,001,014,1920_1080,Intel(R) Core(TM) i5-3570 CPU @ 3.40GHz,orientation_search,LEPPC096,Intel(R) HD Graphics 2500,2018_Nov_24_1543,testMonitor,
29.4,27.0,18.3,,36,-10,32.3,27.2,37.9,16.3,7.745,8.438,7.877,8.155,7.768,8.243,8.109,4.379,-4.968,-8.257,1.332,-2.095,7.645,4.971,-4.554,-7.513,15.4,19.0,-8.37,4.3,25.1,17.0,27.0,-1.8,36,17.9,3,5,prime,10,0,86,norm,36,-5.157,up,norm,17.9425154228,11.1,15.2,11.9,17.6,3,14.5,14.9,21.5,10,6,8.112,4.771,1.265,-1.496,-4.51,-8.278,-2.1,6,103.9,-7.587,-8.476,-10,-7.843,-7.88,-4.91,-5.284,-4.615,-4.982,4.886,7.65,21,-1.632,1.415,4.809,7.835,-8.374,-7.952,-1.966,1.317,16.9,21.7,8.9,22.4,15.7,6.5,21.6,21.2,13.1,14.4,3,norm,1.675,1.553,-1.702,-1.749,-4.392,-5.053,-1.307,-1.835,-1.751,-1.964,1.906,-1.953,7.1,12.4,-4.67,-8.084,1.213,-1.706,8.284,5.256,-4.535,-8.292,10,4.472,4.336,5.061,5.264,1.139,1.708,1.667,1.999,10,5.198,4.588,30,42.8761024663,norm,0,38,38,38,309.906,309.916,309.922487556,309.923,309.925,309.927,up,1,1.98766503096,8.01233496904,001,014,1920_1080,Intel(R) Core(TM) i5-3570 CPU @ 3.40GHz,orientation_search,LEPPC096,Intel(R) HD Graphics 2500,2018_Nov_24_1543,testMonitor,
23.1,26.6,22.1,15.1,36,-10,22.8,0.5,6.1,20.1,8.237,7.865,8.173,7.969,8.201,7.915,7.944,4.607,-5.031,-7.842,1.602,-1.932,8.293,5.253,-5.102,-8.482,25.0,20.1,-8.101,30.4,19.7,,22.6,7.6,36,8.1,5,5,prime,10,0,62,norm,36,-4.948,up,norm,17.9425154228,27.5,15.8,19.7,13.7,3,14.9,5.6,19.5,10,6,7.831,5.296,1.314,-2.067,-4.671,-7.533,9.7,6,79.9,-8.485,-8.463,-10,-8.129,-8.434,-4.437,-4.775,-4.492,-4.581,4.82,7.935,33,-1.861,1.778,4.422,8.41,-8.451,-8.081,-1.899,1.103,34.3,10.9,-2.1,12.2,16.9,13.1,19.4,15.6,37.9,21.6,4,norm,1.709,1.495,-1.748,-1.629,-5.285,-4.972,-1.412,-1.338,-1.443,-1.682,1.14,-1.178,27.5,15.6,-4.573,-8.369,1.314,-1.267,7.683,4.336,-4.382,-8.182,10,4.795,4.412,5.115,4.451,1.801,1.78,1.452,1.127,10,4.923,4.759,30,42.8761024663,norm,0,39,39,39,311.934,311.944,311.950344392,311.951,311.952,311.955,up,1,2.64896365432,7.35103634568,001,014,1920_1080,Intel(R) Core(TM) i5-3570 CPU @ 3.40GHz,orientation_search,LEPPC096,Intel(R) HD Graphics 2500,2018_Nov_24_1543,testMonitor,
21.5,19.5,32.9,17.5,36,-10,13.8,25.2,35.9,37.9,8.424,7.643,7.592,7.994,7.802,8.449,8.161,4.459,-4.511,-8.293,1.582,-1.931,7.795,4.586,-4.945,-8.402,-2.1,31.9,-7.759,5.4,7.7,11.8,18.5,20.0,36,24.6,0,5,prime,10,0,78,norm,36,-5.061,up,norm,17.9425154228,14.9,32.3,27.9,11.2,4,23.6,12.5,16.0,10,6,8.47,4.771,1.16,-1.649,-4.326,-7.513,17.7,6,95.9,-8.141,-8.487,-10,-8.009,-8.287,-5.254,-4.305,-4.959,-4.762,4.352,8.361,4,-1.732,1.895,4.893,8.004,-7.577,-8.332,-1.238,1.594,17.5,11.4,12.6,12.8,16.7,6.1,29.4,21.3,9.5,,5,norm,1.463,1.459,-1.1,-1.392,-4.647,-4.745,-1.128,-1.921,-1.949,-1.589,1.763,-2.063,16.2,29.2,-5.089,-7.543,1.134,-1.606,7.697,4.64,-5.009,-8.217,10,5.117,4.513,4.408,4.543,1.736,1.578,1.406,1.403,10,4.562,4.73,30,42.8761024663,norm,0,40,40,40,314.636,314.646,314.663657556,314.664,314.666,314.668,up,1,1.82161639559,8.17838360441,001,014,1920_1080,Intel(R) Core(TM) i5-3570 CPU @ 3.40GHz,orientation_search,LEPPC096,Intel(R) HD Graphics 2500,2018_Nov_24_1543,testMonitor,
91.2,102.7,82.7,94.4,36,-80,97.8,102.1,92.3,96.8,7.86,8.284,8.419,8.206,7.715,7.717,8.099,4.925,-5.097,-7.914,1.546,-1.28,7.741,4.711,-4.69,-8.492,92.2,95.4,-7.942,91.6,96.0,94.5,92.4,97.1,36,97.9,3,5,probe,5,0,84,norm,36,-4.369,down,norm,92.6797593421,95.3,87.3,98.2,94.9,0,97.0,90.8,93.5,10,6,8.423,5.208,1.315,-1.927,-4.991,-8.1,87.7,2,8.7,-8.112,-7.838,-10,-8.095,-8.424,-4.812,-4.774,-4.356,-5.169,5.001,7.88,18,-1.657,1.612,4.778,8.412,-8.325,-7.764,-1.923,1.451,95.7,95.1,93.0,93.6,88.2,97.7,98.9,87.6,91.5,96.9,0,norm,1.513,1.496,-1.491,-1.837,-4.966,-5.273,-1.721,-1.254,-1.739,-1.506,1.742,-1.873,96.2,,-4.454,-7.602,1.45,-1.795,7.755,4.822,-5.29,-7.722,11,4.359,4.611,5.184,4.507,1.961,1.257,1.803,1.714,11,5.145,4.45,-10,17.9425154228,norm,0,41,41,41,316.523,316.537,316.555499211,316.556,316.558,316.562,down,1,1.13015331704,8.86984668296,001,014,1920_1080,Intel(R) Core(TM) i5-3570 CPU @ 3.40GHz,orientation_search,LEPPC096,Intel(R) HD Graphics 2500,2018_Nov_24_1543,testMonitor,
71.2,73.8,62.2,68.9,36,-80,69.6,68.1,74.9,71.7,8.153,8.209,8.092,8.111,8.143,7.707,8.489,4.549,-4.815,-7.716,1.856,-1.921,7.927,4.747,-5.181,-8.265,70.3,69.6,-8.421,,69.2,78.7,67.8,68.6,36,71.1,5,5,probe,5,0,60,norm,36,-4.402,down,norm,68.6797593421,66.8,61.7,66.6,66.9,1,68.7,72.7,61.9,10,6,8.284,4.513,1.854,-1.775,-4.55,-8.129,67.1,2,8.7,-7.504,-8.062,-10,-8.347,-7.927,-4.379,-4.535,-5.141,-4.668,4.416,8.256,31,-1.344,1.256,4.414,7.528,-8.182,-8.44,-1.231,1.848,76.2,73.7,61.7,60.8,66.6,58.7,67.6,67.5,69.5,70.4,1,norm,1.324,2.073,-1.419,-1.907,-4.379,-4.978,-1.347,-1.939,-1.935,-1.517,1.602,-1.281,61.6,72.9,-5.167,-8.295,1.913,-1.605,7.711,5.105,-4.448,-7.962,11,4.351,4.609,5.088,4.452,1.834,1.755,1.737,1.264,11,4.621,5.122,-10,17.9425154228,norm,0,42,42,42,317.725,317.734,317.752274642,317.752,317.754,317.757,down,1,2.39865569514,7.60134430486,001,014,1920_1080,Intel(R) Core(TM) i5-3570 CPU @ 3.40GHz,orientation_search,LEPPC096,Intel(R) HD Graphics 2500,2018_Nov_24_1543,testMonitor,
295.7,304.7,321.9,323.9,36,60,326.7,318.3,312.2,320.1,7.569,8.019,7.654,7.615,7.928,8.434,7.538,4.898,-5.132,-7.859,1.655,-2.047,8.465,4.836,-5.102,-7.802,315.4,325.8,-7.898,301.6,322.4,,335.5,322.1,36,316.3,5,5,prime,10,0,89,norm,36,-4.979,up,norm,315.698566455,318.8,324.0,316.6,304.3,3,321.5,312.6,325.3,10,6,8.386,5.013,1.457,-1.423,-5.077,-7.97,318.1,6,404.7,-8.445,-7.929,60,-8.293,-8.025,-4.94,-4.908,-4.418,-4.548,5.266,7.658,33,-1.534,2.03,4.737,8.205,-8.084,-8.376,-1.705,1.321,335.7,314.9,320.6,313.1,324.1,326.5,311.8,314.8,309.7,308.7,0,norm,1.305,1.756,-1.194,-1.139,-5.276,-4.683,-1.899,-1.98,-1.98,-1.911,1.365,-1.399,329.8,324.4,-4.846,-8.47,2.056,-1.777,7.985,4.633,-4.368,-8.332,12,5.091,4.694,4.356,4.721,1.268,1.57,1.397,1.949,12,4.931,4.61,-80,17.9425154228,norm,0,43,43,43,320.172,320.181,320.18792468,320.188,320.19,320.193,up,1,0.978491303342,9.02150869666,001,014,1920_1080,Intel(R) Core(TM) i5-3570 CPU @ 3.40GHz,orientation_search,LEPPC096,Intel(R) HD Graphics 2500,2018_Nov_24_1543,testMonitor,
306.6,319.8,312.9,307.5,36,60,324.6,314.0,317.9,308.3,8.497,7.815,7.917,8.314,8.269,7.905,8.256,5.033,-4.832,-8.386,1.511,-1.358,7.998,4.943,-4.482,-7.636,318.3,323.7,-8.385,308.7,320.2,303.6,307.3,335.7,36,320.0,0,5,prime,10,0,115,norm,36,-5.3,down,norm,315.698566455,307.1,329.7,298.8,318.7,1,307.0,324.0,315.4,10,6,8.128,5.189,1.253,-2.075,-5.042,-7.51,329.1,6,430.7,-8.261,-8.493,60,-8.237,-7.535,-4.37,-4.861,-4.369,-5.171,4.339,7.789,1,-1.563,1.756,5.165,8.18,-8.186,-8.499,-1.775,1.392,312.4,310.0,316.4,313.2,,333.7,328.2,314.0,308.6,310.8,1,norm,2.048,1.846,-1.429,-1.966,-5.245,-4.828,-1.551,-1.623,-1.428,-1.76,1.552,-1.303,295.7,312.2,-4.918,-7.732,1.163,-1.492,8.082,4.875,-4.829,-7.84,12,4.487,4.41,5.153,5.229,1.243,1.781,1.311,1.274,12,4.995,4.788,-80,17.9425154228,norm,0,44,44,44,321.203,321.213,321.230931508,321.231,321.233,321.235,down,1,1.11310953809,8.88689046191,001,014,1920_1080,Intel(R) Core(TM) i5-3570 CPU @ 3.40GHz,orientation_search,LEPPC096,Intel(R) HD Graphics 2500,2018_Nov_24_1543,testMonitor,
316.6,314.6,313.3,324.7,36,60,320.8,304.9,,301.3,7.508,8.378,7.998,7.935,7.508,7.813,8.129,4.526,-4.639,-8.269,1.558,-1.677,8.436,4.424,-4.508,-7.724,307.9,323.0,-8.213,303.0,310.0,314.3,310.9,308.5,36,318.6,4,5,prime,10,0,75,norm,36,-4.766,up,norm,315.698566455,327.8,302.5,312.1,330.6,4,335.7,329.1,332.1,10,6,8.497,4.313,2.018,-1.388,-4.871,-7.739,315.0,6,390.7,-7.559,-7.859,60,-8.234,-7.59,-4.815,-4.924,-5.22,-4.58,5.057,8.478,28,-2.005,1.458,5.252,8.32,-7.98,-8.139,-1.813,1.333,295.7,303.1,325.1,316.6,318.3,324.0,321.0,309.0,314.7,326.4,2,norm,1.955,1.358,-2.013,-1.961,-4.902,-5.25,-1.312,-1.1,-1.853,-1.112,1.486,-1.812,320.3,331.9,-5.219,-7.694,1.603,-1.333,7.631,4.454,-5.209,-7.501,12,4.574,5.054,4.774,4.788,1.525,1.496,1.747,1.417,12,4.832,4.941,-80,17.9425154228,norm,0,45,45,45,322.386,322.395,322.401890587,322.402,322.404,322.406,up,1,0.942963634403,9.0570363656,001,014,1920_1080,Intel(R) Core(TM) i5-3570 CPU @ 3.40GHz,orientation_search,LEPPC096,Intel(R) HD Graphics 2500,2018_Nov_24_1543,testMonitor,
307.1,319.8,314.7,335.7,36,60,316.3,316.6,322.0,313.8,7.937,7.831,7.56,7.55,8.299,8.126,8.027,5.08,-5.295,-7.887,1.783,-1.195,7.95,4.94,-5.157,-8.14,314.8,295.7,-7.917,,300.2,306.8,314.1,316.0,36,327.8,5,5,prime,10,0,69,norm,36,-5.161,down,norm,315.698566455,318.0,320.4,297.5,298.6,1,314.1,296.1,317.8,10,6,8.017,4.717,1.686,-1.209,-4.521,-7.696,309.9,6,384.7,-8.11,-7.546,60,-8.406,-8.372,-4.323,-5.197,-5.263,-4.915,4.924,8.39,31,-1.378,1.975,4.884,8.469,-8.148,-7.963,-1.156,1.925,303.2,301.9,334.0,323.2,311.8,316.9,324.8,327.3,307.4,301.2,3,norm,1.713,1.717,-1.355,-1.851,-4.511,-4.944,-1.296,-1.504,-1.444,-1.705,1.267,-1.604,309.7,322.1,-4.829,-8.267,1.988,-1.586,8.46,4.746,-5.109,-7.803,12,4.44,4.843,5.236,4.783,1.276,1.386,1.15,1.974,12,4.777,5.016,-80,17.9425154228,norm,0,46,46,46,323.369,323.378,323.38463793,323.385,323.387,323.389,down,1,1.07758277469,8.92241722531,001,014,1920_1080,Intel(R) Core(TM) i5-3570 CPU @ 3.40GHz,orientation_search,LEPPC096,Intel(R) HD Graphics 2500,2018_Nov_24_1543,testMonitor,
309.9,318.9,308.3,320.9,36,60,310.7,295.7,302.4,322.9,8.092,8.304,7.559,8.154,7.819,7.859,8.046,5.281,-4.907,-7.5,2.061,-1.138,7.885,4.508,-4.796,-8.328,335.1,316.2,-8.206,328.8,313.9,330.0,,330.1,36,322.5,5,5,prime,10,0,60,norm,36,-4.514,down,norm,315.698566455,319.3,309.7,314.7,308.2,2,326.1,316.9,324.6,10,6,7.821,5.024,1.551,-1.259,-4.941,-7.826,327.4,6,375.7,-8.296,-8.001,60,-8.082,-8.369,-4.963,-4.761,-5.149,-5.226,4.45,7.819,32,-1.263,1.302,4.306,8.497,-8.356,-7.784,-1.858,1.394,313.7,309.9,308.3,308.9,314.3,316.3,335.7,324.0,327.2,325.4,4,norm,1.614,1.405,-1.385,-2.087,-5.086,-5.165,-1.12,-1.866,-1.907,-1.922,1.859,-1.75,323.7,318.0,-4.397,-8.06,1.667,-1.68,8.204,4.755,-4.342,-7.563,12,5.052,4.79,5.288,5.214,1.809,1.649,1.418,1.646,12,5.061,4.349,-80,17.9425154228,norm,0,47,47,47,324.499,324.509,324.522372129,324.523,324.524,324.527,down,1,1.82609882041,8.17390117959,001,014,1920_1080,Intel(R) Core(TM) i5-3570 CPU @ 3.40GHz,orientation_search,LEPPC096,Intel(R) HD Graphics 2500,2018_Nov_24_1543,testMonitor,
329.0,317.4,332.2,317.1,36,60,328.6,308.6,314.2,317.8,8.283,7.744,7.652,7.897,7.588,7.67,7.754,4.726,-5.184,-7.693,1.277,-1.736,8.025,5.145,-4.981,-8.232,295.7,318.8,-7.587,303.6,,335.7,317.0,301.2,36,311.6,5,5,prime,10,0,77,norm,36,-5.157,down,norm,315.698566455,332.9,314.9,325.7,323.5,0,314.4,308.1,314.8,10,6,8.332,4.974,1.512,-1.602,-4.621,-7.656,332.1,6,392.7,-8.42,-7.937,60,-8.084,-8.0,-5.196,-5.266,-5.188,-4.589,4.408,7.598,30,-1.236,1.54,4.685,7.869,-7.614,-7.682,-1.188,1.562,310.1,303.5,316.3,318.3,328.4,323.1,326.6,311.7,307.5,316.7,5,norm,1.806,1.504,-1.938,-1.253,-4.487,-4.866,-1.623,-1.131,-1.767,-1.693,2.013,-1.505,312.7,305.3,-5.002,-8.367,1.435,-2.088,8.167,4.331,-4.718,-8.354,12,4.677,4.806,4.922,4.575,1.956,1.331,1.492,1.189,12,5.234,4.784,-80,17.9425154228,norm,0,48,48,48,326.386,326.398,326.425944456,326.426,326.428,326.431,down,1,1.20062850538,8.79937149462,001,014,1920_1080,Intel(R) Core(TM) i5-3570 CPU @ 3.40GHz,orientation_search,LEPPC096,Intel(R) HD Graphics 2500,2018_Nov_24_1543,testMonitor,
462.2,466.7,466.1,456.9,36,-60,453.5,466.8,454.4,460.7,7.955,8.203,7.867,8.222,8.412,8.333,8.417,5.187,-5.108,-7.712,2.034,-1.569,8.298,4.552,-5.208,-7.668,463.5,468.2,-7.8,458.5,469.4,471.7,473.5,459.3,36,464.2,1,5,probe,5,0,93,norm,36,-4.692,up,norm,463.476054295,472.8,460.9,469.6,461.0,5,,468.0,462.9,10,6,8.455,4.694,1.768,-1.328,-4.435,-7.585,467.7,2,370.5,-8.041,-8.057,60,-8.236,-7.737,-5.154,-4.446,-4.414,-5.193,4.882,8.417,11,-1.869,1.611,4.602,7.954,-8.114,-7.667,-1.65,2.084,459.3,461.1,470.7,463.3,459.3,459.6,467.4,463.1,459.3,463.8,0,norm,2.022,1.668,-1.569,-1.168,-4.77,-4.917,-2.098,-1.396,-1.478,-1.808,1.763,-1.435,465.0,464.9,-4.904,-8.171,1.566,-1.436,8.151,4.48,-4.336,-8.437,13,5.17,5.18,4.815,5.199,1.86,1.492,1.441,1.29,13,4.84,5.282,60,315.698566455,norm,0,49,49,49,327.664,327.677,327.696453512,327.697,327.698,327.701,up,1,1.10147183513,8.89852816487,001,014,1920_1080,Intel(R) Core(TM) i5-3570 CPU @ 3.40GHz,orientation_search,LEPPC096,Intel(R) HD Graphics 2500,2018_Nov_24_1543,testMonitor,
455.4,457.1,453.8,455.0,36,-60,452.9,461.6,454.0,462.4,7.967,8.395,7.525,7.768,8.216,8.317,8.002,4.381,-4.574,-7.601,1.436,-1.242,7.729,4.882,-4.938,-7.851,449.6,459.5,-7.983,457.9,457.4,460.3,463.4,457.7,36,458.9,1,5,probe,5,0,87,norm,36,-4.569,down,norm,457.476054295,455.2,453.9,452.5,452.8,0,456.0,465.0,447.5,10,6,8.486,5.078,1.929,-1.652,-4.385,-8.423,459.3,2,370.5,-8.088,-7.91,60,-8.382,-8.421,-5.068,-4.596,-4.674,-4.835,5.147,7.683,6,-2.072,1.541,4.812,8.13,-8.373,-7.742,-1.477,1.709,461.1,452.8,464.7,457.0,451.8,457.1,453.1,,454.8,456.0,1,norm,1.856,1.648,-1.485,-1.81,-5.257,-4.494,-1.101,-1.803,-1.646,-1.269,1.471,-1.754,467.5,458.6,-4.508,-7.921,1.341,-1.51,7.986,5.183,-4.556,-7.792,13,5.212,4.562,4.448,5.144,1.646,2.017,1.855,1.934,13,4.72,4.902,60,315.698566455,norm,0,50,50,50,328.845,328.866,328.876782518,328.877,328.879,328.882,down,1,1.3848259808,8.6151740192,001,014,1920_1080,Intel(R) Core(TM) i5-3570 CPU @ 3.40GHz,orientation_search,LEPPC096,Intel(R) HD Graphics 2500,2018_Nov_24_1543,testMonitor,
282.6,257.6,276.7,250.8,36,-40,246.4,261.0,264.3,265.1,8.325,7.508,8.313,8.067,8.044,7.587,7.878,4.325,-5.144,-7.521,1.201,-1.212,8.289,4.771,-5.268,-8.15,248.7,275.6,-7.976,250.8,257.6,268.5,264.6,263.4,36,261.1,0,5,prime,10,0,71,norm,36,-4.373,down,norm,262.594943907,277.2,275.9,256.7,257.2,2,255.6,259.0,261.5,10,5,7.509,4.853,1.594,-1.996,-4.676,-7.503,257.6,5,333.6,-7.588,-7.621,-40,-7.962,-8.401,-4.513,-5.117,-4.338,-4.83,4.768,7.866,2,-1.686,1.663,5.043,8.124,-7.589,-7.636,-1.475,1.958,265.2,267.7,255.2,,273.3,262.5,277.0,264.6,268.5,255.8,0,norm,1.6,1.113,-1.492,-2.016,-4.467,-4.509,-1.889,-1.905,-1.531,-2.022,1.383,-1.255,260.6,261.2,-4.713,-7.77,1.753,-1.324,7.81,5.023,-4.465,-8.007,14,5.019,4.956,4.841,4.694,1.839,2.093,1.544,1.696,14,4.532,4.627,-60,315.698566455,norm,0,51,51,51,330.299,330.308,330.325434908,330.326,330.327,330.33,down,1,3.22820854836,6.77179145164,001,014,1920_1080,Intel(R) Core(TM) i5-3570 CPU @ 3.40GHz,orientation_search,LEPPC096,Intel(R) HD Graphics 2500,2018_Nov_24_1543,testMonitor,
262.5,260.7,260.9,263.3,36,-40,268.2,258.5,256.6,268.8,7.78,7.738,7.519,7.923,7.724,8.157,7.526,4.379,-4.702,-8.4,1.93,-2.027,7.69,4.801,-4.617,-7.94,263.6,244.7,-7.851,282.6,268.3,242.6,252.0,255.0,36,282.6,0,5,prime,10,0,61,norm,36,-4.369,down,norm,262.594943907,263.0,264.8,267.4,269.2,0,254.0,265.4,270.0,10,5,7.554,4.887,1.703,-1.555,-5.148,-7.526,268.7,5,323.6,-8.043,-7.844,-40,-8.121,-8.025,-5.069,-4.957,-4.688,-4.421,4.678,7.884,0,-1.736,1.225,4.753,7.835,-8.437,-8.438,-1.708,1.268,272.0,252.7,272.9,263.4,266.1,,258.1,272.7,271.6,249.4,1,norm,1.719,1.422,-1.289,-1.506,-4.31,-4.883,-1.485,-1.34,-1.858,-1.535,1.626,-1.714,271.4,271.8,-5.157,-8.464,1.873,-1.939,8.076,5.259,-4.431,-8.424,14,5.078,4.923,4.574,5.245,1.713,1.37,1.827,1.277,14,4.879,4.317,-60,315.698566455,norm,0,52,52,52,333.59,333.6,333.616825121,333.617,333.619,333.621,down,1,1.72208996302,8.27791003698,001,014,1920_1080,Intel(R) Core(TM) i5-3570 CPU @ 3.40GHz,orientation_search,LEPPC096,Intel(R) HD Graphics 2500,2018_Nov_24_1543,testMonitor,
261.6,252.9,246.1,258.6,36,-40,268.3,277.2,260.6,263.5,8.157,8.454,7.853,8.23,8.244,7.823,7.788,4.856,-4.534,-8.077,1.461,-1.775,8.269,4.721,-5.271,-7.765,272.4,255.5,-7.937,277.2,,262.1,271.5,249.8,36,269.7,5,5,prime,10,0,73,norm,36,-4.66,down,norm,262.594943907,264.2,267.5,268.5,265.2,0,282.6,270.7,270.7,10,5,7.685,4.403,1.194,-1.837,-4.571,-8.314,255.4,5,335.6,-8.455,-7.959,-40,-8.29,-7.906,-5.0,-4.473,-5.256,-4.352,4.674,8.481,30,-1.128,1.188,4.481,7.709,-7.683,-8.401,-1.596,1.991,262.2,258.5,254.1,261.2,255.1,272.0,274.9,266.1,267.5,257.6,2,norm,1.868,1.126,-1.438,-1.775,-5.094,-5.244,-1.964,-1.311,-2.063,-1.327,1.925,-1.93,262.6,242.6,-4.861,-8.375,1.217,-1.464,7.896,5.127,-4.716,-8.35,14,4.364,4.792,5.266,4.798,1.383,1.172,1.851,1.435,14,4.375,4.603,-60,315.698566455,norm,0,53,53,53,335.38,335.39,335.396215566,335.396,335.398,335.401,down,1,1.43537384781,8.56462615219,001,014,1920_1080,Intel(R) Core(TM) i5-3570 CPU @ 3.40GHz,orientation_search,LEPPC096,Intel(R) HD Graphics 2500,2018_Nov_24_1543,testMonitor,
253.6,280.2,244.2,271.9,36,-40,272.4,280.2,268.8,250.8,7.53,7.767,8.415,8.316,8.375,8.239,8.422,4.79,-4.342,-7.59,1.597,-2.067,8.206,4.972,-5.158,-7.761,267.4,251.6,-7.859,272.3,266.2,242.6,254.4,260.0,36,254.8,0,5,prime,10,0,64,norm,36,-4.359,up,norm,262.594943907,280.6,260.0,282.6,260.8,4,275.7,258.7,260.2,10,5,7.67,5.287,1.877,-1.828,-4.507,-7.72,258.5,5,326.6,-7.701,-8.217,-40,-7.651,-8.101,-4.669,-5.17,-4.813,-5.237,5.053,8.24,4,-1.144,1.469,4.457,7.59,-7.54,-8.028,-1.773,1.317,267.1,257.3,261.3,266.3,268.5,254.2,278.2,269.1,260.0,,3,norm,1.421,1.449,-1.575,-1.599,-4.541,-4.928,-1.281,-1.729,-1.312,-1.698,1.985,-1.739,274.8,278.3,-4.749,-8.196,1.737,-1.311,8.45,5.095,-5.221,-7.569,14,5.102,4.921,4.951,4.363,1.424,1.407,1.84,1.524,14,5.295,4.884,-60,315.698566455,norm,0,54,54,54,336.878,336.887,336.893661791,336.894,336.896,336.898,up,1,1.50248253892,8.49751746108,001,014,1920_1080,Intel(R) Core(TM) i5-3570 CPU @ 3.40GHz,orientation_search,LEPPC096,Intel(R) HD Graphics 2500,2018_Nov_24_1543,testMonitor,
261.5,270.1,262.2,275.1,36,-40,272.7,273.7,242.6,268.9,8.191,7.513,8.276,8.132,8.234,7.537,8.424,4.859,-4.465,-7.538,1.701,-1.611,8.393,4.92,-4.791,-7.917,258.1,260.1,-8.314,265.6,271.5,268.2,255.4,262.4,36,261.0,1,5,prime,10,0,119,norm,36,-4.338,up,norm,262.594943907,281.1,262.3,276.7,251.3,4,272.0,274.9,272.7,10,5,7.823,4.897,1.359,-1.878,-4.684,-7.587,,5,381.6,-8.407,-7.557,-40,-7.811,-8.366,-5.247,-5.118,-4.371,-4.739,5.261,8.116,10,-1.61,1.592,4.753,8.243,-7.65,-7.753,-1.999,1.167,259.7,266.1,275.8,263.4,282.6,256.9,268.0,273.0,260.9,270.5,4,norm,1.627,2.061,-1.158,-1.266,-4.984,-5.117,-1.141,-1.828,-1.69,-1.506,1.32,-1.312,275.3,264.7,-4.601,-7.993,1.198,-1.778,7.678,5.169,-5.061,-8.259,14,4.971,5.262,4.732,4.958,1.753,1.146,2.038,1.899,14,4.718,4.802,-60,315.698566455,norm,0,55,55,55,338.434,338.443,338.452694722,338.453,338.455,338.457,up,1,2.37092412507,7.62907587493,001,014,1920_1080,Intel(R) Core(TM) i5-3570 CPU @ 3.40GHz,orientation_search,LEPPC096,Intel(R) HD Graphics 2500,2018_Nov_24_1543,testMonitor,
325.0,323.3,324.9,331.5,36,20,332.3,327.3,337.1,327.4,8.123,8.131,7.987,8.321,8.387,7.868,8.288,5.171,-5.134,-8.084,1.659,-2.004,7.674,4.676,-5.3,-8.153,329.6,322.3,-8.097,335.3,,326.1,326.4,333.1,36,321.6,5,5,probe,5,0,110,norm,36,-5.113,down,norm,330.861412153,329.7,335.7,331.0,322.0,0,325.2,327.2,333.9,10,5,8.202,4.975,1.585,-1.134,-4.589,-7.661,328.2,2,220.9,-7.57,-7.985,-40,-8.297,-7.677,-4.565,-4.382,-4.545,-4.418,4.728,8.09,30,-1.388,2.071,4.731,7.547,-7.916,-8.03,-1.595,2.019,328.6,323.8,338.9,334.0,324.0,335.4,340.8,338.0,340.9,339.3,0,norm,1.335,1.919,-1.583,-1.251,-5.236,-4.959,-1.942,-1.966,-1.398,-1.338,1.215,-1.398,320.9,325.9,-5.073,-8.307,1.841,-1.982,8.124,5.129,-4.366,-7.959,15,5.016,4.647,4.878,5.22,1.505,1.989,1.862,1.873,15,5.127,4.717,-40,262.594943907,norm,0,56,56,56,340.86,340.869,340.886176594,340.886,340.888,340.891,down,1,1.16210711999,8.83789288001,001,014,1920_1080,Intel(R) Core(TM) i5-3570 CPU @ 3.40GHz,orientation_search,LEPPC096,Intel(R) HD Graphics 2500,2018_Nov_24_1543,testMonitor,
302.3,288.4,299.2,300.2,36,20,299.5,297.0,292.6,291.4,7.59,8.125,8.479,7.947,8.198,7.609,7.966,4.612,-4.855,-8.163,1.469,-1.768,8.37,5.277,-4.504,-8.435,294.3,297.4,-7.569,306.9,,297.9,289.0,302.9,36,296.6,5,5,probe,5,0,76,norm,36,-4.73,down,norm,296.861412153,291.3,287.1,286.9,298.3,0,289.6,298.7,299.7,10,5,7.58,4.45,1.407,-1.869,-5.276,-8.155,296.1,2,220.9,-8.046,-8.282,-40,-8.351,-8.435,-4.895,-4.573,-5.095,-5.099,5.002,8.22,30,-1.965,1.475,5.016,7.585,-8.094,-7.764,-2.021,1.236,301.4,303.2,297.4,303.7,297.2,289.8,292.2,305.0,291.3,302.5,1,norm,1.818,1.795,-1.597,-1.835,-4.802,-4.523,-1.359,-1.473,-1.657,-1.444,1.328,-1.855,295.1,295.1,-4.524,-8.494,1.188,-1.774,7.947,4.346,-4.586,-8.358,15,5.035,4.67,4.539,5.091,1.214,1.853,1.224,1.394,15,4.959,4.327,-40,262.594943907,norm,0,57,57,57,342.072,342.082,342.088234948,342.088,342.09,342.093,down,1,0.81032128874,9.18967871126,001,014,1920_1080,Intel(R) Core(TM) i5-3570 CPU @ 3.40GHz,orientation_search,LEPPC096,Intel(R) HD Graphics 2500,2018_Nov_24_1543,testMonitor,
19.3,5.0,11.9,24.5,36,10,-1.3,2.8,12.0,-0.3,8.422,8.338,7.595,8.374,7.813,7.998,7.697,5.187,-4.993,-8.06,1.401,-1.471,7.978,4.435,-4.844,-7.648,12.6,-4.7,-7.606,18.6,14.8,5.7,28.8,4.5,36,4.7,2,5,prime,10,0,97,norm,36,-4.448,down,norm,11.3503712362,14.4,15.6,31.4,12.1,0,12.5,0.6,,10,6,8.468,4.345,1.279,-1.491,-4.433,-8.435,7.9,6,108.4,-7.536,-8.057,10,-7.744,-7.625,-4.509,-4.865,-5.092,-4.729,5.021,8.245,12,-1.865,1.288,4.86,8.484,-7.934,-7.734,-1.727,1.889,8.2,-2.8,4.4,24.2,7.2,29.0,-8.6,6.6,6.9,2.4,0,norm,1.481,1.536,-1.333,-1.851,-4.446,-4.306,-2.044,-1.396,-2.05,-2.003,1.338,-1.617,15.3,28.9,-5.271,-8.362,1.976,-1.546,7.776,5.079,-5.23,-7.887,16,4.703,4.597,5.098,4.503,2.028,1.814,1.103,1.195,16,4.729,4.541,20,262.594943907,norm,0,58,58,58,342.936,342.948,342.96829341,342.968,342.97,342.973,down,1,1.42675974414,8.57324025586,001,014,1920_1080,Intel(R) Core(TM) i5-3570 CPU @ 3.40GHz,orientation_search,LEPPC096,Intel(R) HD Graphics 2500,2018_Nov_24_1543,testMonitor,
17.2,19.5,26.9,9.9,36,10,1.3,16.2,30.4,15.1,7.701,7.501,7.904,8.11,7.797,8.226,7.804,4.498,-4.825,-7.67,1.324,-1.174,8.387,5.174,-4.942,-7.641,-5.4,9.7,-8.352,11.8,31.4,-8.6,6.0,7.6,36,,4,5,prime,10,0,100,norm,36,-4.93,up,norm,11.3503712362,3.3,12.7,15.2,14.5,3,20.8,7.2,10.0,10,6,8.104,5.086,1.966,-1.399,-4.39,-8.042,8.5,6,111.4,-8.139,-8.452,10,-7.617,-8.004,-4.415,-4.991,-4.835,-4.528,5.023,7.562,27,-1.563,1.532,5.12,7.525,-7.876,-7.516,-1.314,1.402,21.6,1.4,12.3,26.1,2.5,13.6,12.2,5.9,-1.5,15.3,1,norm,2.098,1.175,-1.778,-1.406,-4.944,-4.635,-2.089,-1.464,-1.377,-1.215,1.93,-1.115,21.8,27.0,-5.073,-8.412,1.811,-1.704,8.241,4.721,-4.418,-8.43,16,4.468,4.352,5.289,4.451,1.587,1.664,2.044,1.485,16,4.505,4.694,20,262.594943907,norm,0,59,59,59,344.433,344.446,344.464755916,344.465,344.467,344.469,up,1,4.0872512292,5.9127487708,001,014,1920_1080,Intel(R) Core(TM) i5-3570 CPU @ 3.40GHz,orientation_search,LEPPC096,Intel(R) HD Graphics 2500,2018_Nov_24_1543,testMonitor,
17.3,18.9,3.0,9.2,36,10,7.8,11.3,1.6,19.9,8.019,8.497,7.56,8.354,8.11,7.957,8.428,4.737,-5.052,-7.958,1.394,-1.64,7.709,4.414,-4.755,-8.048,13.1,18.7,-8.438,-3.9,12.1,-4.7,23.7,14.4,36,21.9,1,5,prime,10,0,114,norm,36,-4.952,down,norm,11.3503712362,29.9,4.4,8.2,3.6,2,17.3,8.6,25.2,10,6,7.837,4.358,1.876,-1.71,-4.659,-8.391,19.5,6,125.4,-8.008,-7.903,10,-8.018,-7.541,-4.964,-4.757,-4.406,-4.66,4.869,8.001,8,-1.184,1.516,5.163,7.787,-7.801,-7.893,-1.719,1.137,19.2,,29.9,15.6,-0.6,-8.6,22.5,18.9,10.4,9.8,2,norm,1.924,1.429,-1.633,-1.379,-4.466,-4.467,-1.557,-1.14,-2.029,-2.019,1.378,-1.642,31.4,6.7,-4.625,-8.318,1.357,-1.374,8.074,4.973,-4.325,-8.093,16,4.89,4.799,5.253,5.042,1.784,1.136,1.406,1.376,16,4.306,4.479,20,262.594943907,norm,0,60,60,60,348.589,348.599,348.607749796,348.608,348.61,348.612,down,1,2.04770869612,7.95229130388,001,014,1920_1080,Intel(R) Core(TM) i5-3570 CPU @ 3.40GHz,orientation_search,LEPPC096,Intel(R) HD Graphics 2500,2018_Nov_24_1543,testMonitor,
4.2,8.0,7.9,9.2,36,10,1.9,23.6,15.0,5.5,8.301,8.211,7.606,7.873,8.426,8.231,8.065,5.186,-4.371,-8.095,1.44,-1.671,8.436,4.908,-4.706,-8.499,20.0,23.7,-7.912,7.3,18.9,17.1,1.8,4.5,36,8.6,2,5,prime,10,0,91,norm,36,-4.992,down,norm,11.3503712362,31.4,11.1,8.5,17.5,1,25.0,,30.4,10,6,7.578,5.158,1.241,-1.652,-4.516,-8.481,13.0,6,102.4,-8.009,-8.317,10,-8.389,-8.101,-5.254,-4.323,-4.599,-5.251,4.984,8.46,13,-1.771,1.434,4.916,7.969,-7.57,-8.307,-1.847,1.689,-0.1,15.8,15.5,-8.6,23.0,8.5,12.2,-2.4,5.1,0.6,3,norm,1.378,1.325,-1.826,-1.933,-5.119,-4.889,-1.545,-1.484,-1.989,-2.03,1.854,-1.207,10.9,-5.8,-4.336,-7.666,1.342,-1.383,7.759,4.645,-4.593,-8.42,16,4.323,5.164,4.671,5.177,1.396,1.805,1.635,1.68,16,4.947,4.396,20,262.594943907,norm,0,61,61,61,350.699,350.708,350.714747238,350.715,350.717,350.719,down,1,1.31694275083,8.68305724917,001,014,1920_1080,Intel(R) Core(TM) i5-3570 CPU @ 3.40GHz,orientation_search,LEPPC096,Intel(R) HD Graphics 2500,2018_Nov_24_1543,testMonitor,
0.2,26.6,30.5,22.7,36,10,18.5,21.1,31.4,7.0,7.874,8.127,7.571,8.266,8.158,7.71,8.311,4.405,-5.208,-7.887,1.405,-1.848,8.121,4.392,-5.23,-7.745,24.9,0.9,-8.443,9.0,-2.8,15.1,-1.0,16.9,36,-3.3,1,5,prime,10,0,100,norm,36,-5.139,up,norm,11.3503712362,2.6,8.5,14.3,3.7,3,-0.8,6.8,6.1,10,6,7.686,4.647,1.424,-1.948,-4.405,-7.505,-3.8,6,111.4,-8.134,-8.337,10,-7.501,-8.331,-4.789,-4.306,-4.886,-4.497,4.379,8.069,9,-1.347,1.681,4.92,8.337,-8.097,-8.389,-1.81,1.318,,12.8,-8.6,23.2,7.9,21.4,4.8,15.8,15.0,18.7,4,norm,1.329,1.759,-1.868,-1.892,-5.198,-4.584,-1.64,-1.886,-1.625,-1.397,1.487,-2.066,18.2,-2.2,-4.641,-7.937,1.309,-1.859,7.745,4.311,-4.767,-7.679,16,4.518,4.82,5.23,5.289,1.231,1.644,1.874,1.565,16,4.567,4.98,20,262.594943907,norm,0,62,62,62,352.071,352.083,352.087553076,352.088,352.09,352.093,up,1,1.89240158059,8.10759841941,001,014,1920_1080,Intel(R) Core(TM) i5-3570 CPU @ 3.40GHz,orientation_search,LEPPC096,Intel(R) HD Graphics 2500,2018_Nov_24_1543,testMonitor,
9.7,24.6,6.9,21.2,36,10,1.3,14.6,-5.2,10.2,8.289,7.97,7.921,7.739,8.269,7.873,8.459,4.969,-4.941,-8.233,1.147,-1.695,8.31,5.107,-4.578,-7.83,2.9,-3.9,-7.757,8.8,21.3,31.4,4.5,15.7,36,-8.6,0,5,prime,10,0,61,norm,36,-4.69,down,norm,11.3503712362,8.9,4.7,24.6,13.7,2,3.3,-2.1,24.0,10,6,8.349,5.142,1.295,-1.774,-5.143,-8.132,-4.6,6,72.4,-8.342,-8.23,10,-8.294,-8.126,-5.027,-5.03,-5.205,-5.145,5.168,8.466,2,-1.406,1.514,5.001,7.821,-8.04,-7.827,-1.143,1.267,11.3,22.9,10.5,,-2.6,11.6,23.9,-0.4,8.9,8.5,5,norm,1.102,1.552,-1.627,-1.349,-5.103,-4.859,-1.874,-1.168,-1.283,-1.638,1.641,-1.998,4.7,6.8,-4.873,-8.126,1.179,-1.839,8.24,4.61,-4.581,-8.064,16,5.195,5.083,4.469,4.353,1.311,1.2,1.511,1.79,16,4.868,4.756,20,262.594943907,norm,0,63,63,63,354.006,354.015,354.021806619,354.022,354.024,354.026,down,1,2.21603385997,7.78396614003,001,014,1920_1080,Intel(R) Core(TM) i5-3570 CPU @ 3.40GHz,orientation_search,LEPPC096,Intel(R) HD Graphics 2500,2018_Nov_24_1543,testMonitor,
86.0,,90.4,92.4,36,20,86.9,92.2,81.9,92.8,8.39,8.044,8.485,7.989,7.777,8.238,8.308,5.002,-4.899,-8.291,1.742,-1.507,8.236,5.092,-5.071,-7.512,87.1,93.2,-7.792,90.3,92.6,93.7,85.8,101.9,36,91.0,3,5,probe,5,0,74,norm,36,-4.689,up,norm,91.9246684322,89.4,96.8,93.6,90.6,5,91.6,97.0,88.6,10,6,7.872,5.267,1.395,-1.673,-4.784,-7.805,92.9,2,17.9,-7.892,-8.269,10,-8.464,-7.659,-4.748,-4.459,-4.853,-4.575,4.953,8.049,23,-1.492,1.714,4.373,7.966,-7.764,-8.465,-1.249,1.686,89.0,91.7,86.0,93.5,86.3,93.8,94.1,88.6,95.9,87.2,0,norm,2.077,1.843,-1.972,-1.137,-4.591,-4.421,-1.204,-1.387,-1.424,-2.078,1.138,-1.929,95.7,96.7,-5.217,-8.244,2.029,-1.567,7.64,4.965,-4.782,-8.097,17,5.104,4.892,4.419,5.136,1.521,1.511,1.862,1.902,17,4.712,5.17,10,11.3503712362,norm,0,64,64,64,356.283,356.293,356.299288034,356.299,356.301,356.304,up,1,1.3486270046,8.6513729954,001,014,1920_1080,Intel(R) Core(TM) i5-3570 CPU @ 3.40GHz,orientation_search,LEPPC096,Intel(R) HD Graphics 2500,2018_Nov_24_1543,testMonitor,
132.2,134.3,131.9,138.9,36,20,128.5,128.4,127.4,142.9,7.586,7.998,8.244,7.685,7.528,8.301,7.658,4.63,-5.171,-8.175,1.89,-1.801,8.335,4.804,-5.167,-7.655,136.9,133.0,-8.386,135.1,130.7,138.0,135.4,131.2,36,133.1,0,5,probe,5,0,115,norm,36,-5.041,up,norm,132.924668432,135.0,133.0,135.3,136.7,3,128.0,137.5,140.0,10,6,7.853,4.915,1.177,-1.609,-4.389,-8.029,127.9,2,17.9,-7.724,-8.05,10,-8.35,-8.32,-4.545,-4.601,-4.803,-4.366,4.549,7.842,3,-1.48,1.282,5.242,8.372,-8.476,-7.826,-1.268,1.668,128.4,140.8,,134.1,130.3,131.6,136.2,122.9,126.0,134.0,1,norm,1.571,2.021,-1.204,-1.851,-4.435,-4.477,-1.696,-1.302,-1.526,-1.179,1.639,-2.008,137.1,123.4,-4.857,-7.532,1.236,-1.635,7.626,5.032,-4.811,-7.955,17,4.669,4.544,4.582,4.674,1.974,2.066,1.669,1.709,17,5.146,4.462,10,11.3503712362,norm,0,65,65,65,357.685,357.695,357.702104083,357.702,357.704,357.707,up,1,1.68917990944,8.31082009056,001,014,1920_1080,Intel(R) Core(TM) i5-3570 CPU @ 3.40GHz,orientation_search,LEPPC096,Intel(R) HD Graphics 2500,2018_Nov_24_1543,testMonitor,
65.5,74.9,77.9,81.6,36,-10,60.4,59.7,77.1,60.8,8.285,8.474,8.23,8.232,8.423,8.103,7.839,5.245,-4.312,-8.37,1.681,-1.718,8.252,5.076,-4.904,-8.122,73.9,93.4,-7.876,70.9,65.0,72.6,72.6,64.9,36,67.1,2,5,prime,10,0,111,norm,36,-5.203,down,norm,73.4037634201,88.5,82.2,64.9,,2,84.7,82.9,93.1,10,5,7.894,4.448,1.148,-1.433,-4.702,-8.222,76.1,5,184.4,-8.445,-8.245,-10,-8.244,-8.2,-4.601,-4.475,-4.712,-4.745,5.228,8.308,14,-1.749,1.187,5.236,7.803,-7.999,-8.094,-1.253,1.495,87.1,78.7,68.2,89.2,76.1,70.1,67.9,77.6,72.6,73.8,0,norm,1.537,1.554,-1.942,-1.288,-5.032,-5.067,-1.631,-1.875,-1.503,-1.351,2.039,-1.24,53.4,64.8,-4.658,-8.486,1.836,-2.043,8.397,4.537,-4.721,-8.203,18,4.621,5.166,4.584,4.467,1.84,1.328,1.451,1.937,18,4.746,4.422,20,11.3503712362,norm,0,66,66,66,359.434,363.546,363.552921439,363.553,363.555,363.557,down,1,1.41942999856,8.58057000144,001,014,1920_1080,Intel(R) Core(TM) i5-3570 CPU @ 3.40GHz,orientation_search,LEPPC096,Intel(R) HD Graphics 2500,2018_Nov_24_1543,testMonitor,
57.3,86.0,74.0,,36,-10,72.4,56.1,69.9,71.3,7.87,7.608,8.171,8.031,7.992,8.159,7.598,4.56,-4.792,-7.56,1.776,-2.053,7.677,4.497,-4.527,-8.293,74.5,72.9,-7.928,72.1,73.8,93.4,68.8,56.6,36,59.7,3,5,prime,10,0,115,norm,36,-4.371,up,norm,73.4037634201,78.2,65.5,68.2,67.3,3,71.4,66.2,82.3,10,5,8.002,4.522,2.096,-1.701,-4.783,-7.501,73.3,5,188.4,-7.535,-7.904,-10,-8.464,-8.362,-4.922,-4.986,-5.049,-5.126,5.291,7.759,21,-2.026,1.383,4.821,7.74,-8.187,-7.552,-1.862,1.247,83.3,87.3,71.0,85.7,73.0,64.4,69.8,62.1,78.0,69.2,1,norm,1.261,1.372,-1.708,-1.254,-5.241,-4.562,-1.251,-1.222,-1.955,-1.71,1.148,-1.935,79.4,53.4,-4.502,-8.061,1.885,-1.165,8.153,4.86,-5.007,-8.052,18,4.868,4.505,4.319,4.94,1.144,1.708,1.773,1.36,18,4.357,4.796,20,11.3503712362,norm,0,67,67,67,365.02,365.041,365.051712392,365.052,365.054,365.057,up,1,1.17941622227,8.82058377773,001,014,1920_1080,Intel(R) Core(TM) i5-3570 CPU @ 3.40GHz,orientation_search,LEPPC096,Intel(R) HD Graphics 2500,2018_Nov_24_1543,testMonitor,
69.4,73.6,79.2,56.8,36,-10,80.9,78.2,63.2,68.4,8.173,8.02,8.304,8.21,8.051,8.492,8.096,4.961,-5.038,-8.434,1.429,-1.318,8.288,4.364,-5.265,-8.32,67.5,68.1,-7.528,79.7,62.2,53.4,77.8,78.8,36,70.9,0,5,prime,10,0,102,norm,36,-4.502,up,norm,73.4037634201,83.7,64.9,69.0,80.1,5,93.4,63.9,70.3,10,5,7.679,4.94,1.849,-1.109,-5.068,-7.743,85.7,5,175.4,-7.955,-8.063,-10,-8.001,-7.585,-4.371,-4.602,-5.191,-5.084,4.45,8.433,5,-1.647,1.603,4.731,7.965,-8.358,-7.749,-1.982,1.897,69.0,79.5,75.2,71.4,80.2,58.0,79.7,57.9,,78.8,2,norm,1.773,2.047,-1.434,-2.087,-5.211,-4.601,-1.724,-1.15,-1.626,-1.17,1.282,-1.517,69.5,75.6,-4.957,-8.038,1.532,-1.941,7.687,4.379,-4.588,-7.973,18,4.827,4.805,4.644,4.434,1.594,1.85,1.657,1.916,18,4.987,5.293,20,11.3503712362,norm,0,68,68,68,366.267,366.276,366.282717853,366.283,366.285,366.287,up,1,1.73813794942,8.26186205058,001,014,1920_1080,Intel(R) Core(TM) i5-3570 CPU @ 3.40GHz,orientation_search,LEPPC096,Intel(R) HD Graphics 2500,2018_Nov_24_1543,testMonitor,
61.8,72.0,82.6,84.3,36,-10,63.9,67.3,93.4,73.8,8.106,7.876,8.276,8.209,7.993,7.662,7.929,4.851,-4.651,-8.414,1.189,-1.674,8.442,5.033,-4.971,-7.948,64.2,69.8,-7.666,75.7,67.4,53.4,,73.1,36,74.5,5,5,prime,10,0,101,norm,36,-4.567,down,norm,73.4037634201,73.4,76.5,64.1,73.9,2,69.7,66.1,74.3,10,5,7.927,4.619,1.452,-1.428,-5.193,-7.764,75.8,5,174.4,-7.639,-7.777,-10,-8.065,-8.132,-4.655,-4.413,-4.756,-4.681,4.6,8.054,32,-1.959,1.773,5.214,7.611,-8.184,-8.219,-1.114,1.498,82.6,63.9,88.9,62.2,69.4,67.1,58.8,56.9,67.9,67.4,3,norm,1.887,1.715,-1.442,-1.983,-4.893,-4.74,-1.796,-1.378,-1.862,-1.993,1.32,-1.79,69.7,76.1,-4.321,-7.841,1.968,-1.726,8.034,4.87,-4.814,-7.942,18,4.723,4.882,4.801,4.627,1.971,1.277,1.634,1.371,18,5.061,4.611,20,11.3503712362,norm,0,69,69,69,368.056,368.065,368.075672386,368.076,368.078,368.08,down,1,0.958272096166,9.04172790383,001,014,1920_1080,Intel(R) Core(TM) i5-3570 CPU @ 3.40GHz,orientation_search,LEPPC096,Intel(R) HD Graphics 2500,2018_Nov_24_1543,testMonitor,
74.2,82.9,85.0,71.2,36,-10,71.5,79.9,76.1,84.6,8.337,8.305,7.755,7.568,8.245,7.716,7.78,4.323,-4.687,-7.739,1.729,-1.414,8.403,5.171,-4.638,-8.307,90.2,76.8,-7.597,93.4,91.7,67.8,83.2,53.4,36,76.2,1,5,prime,10,0,103,norm,36,-4.316,down,norm,73.4037634201,70.2,69.5,85.0,71.5,0,59.7,74.9,71.8,10,5,8.405,4.861,1.837,-1.641,-5.232,-7.983,92.4,5,176.4,-7.989,-7.946,-10,-7.921,-7.737,-4.593,-4.483,-5.126,-4.5,4.583,7.919,6,-1.921,1.444,4.78,7.87,-8.323,-7.878,-1.346,1.399,75.7,82.9,84.3,70.5,83.9,72.4,63.5,,74.6,80.8,4,norm,1.404,1.516,-1.624,-1.507,-5.204,-4.706,-1.833,-1.367,-1.298,-1.944,1.672,-1.744,83.3,63.8,-5.143,-8.377,1.923,-2.008,8.297,4.921,-4.306,-7.959,18,5.043,4.816,4.65,5.284,1.463,1.876,1.421,1.321,18,4.839,4.763,20,11.3503712362,norm,0,70,70,70,369.075,369.087,369.107348188,369.108,369.11,369.113,down,1,1.87254458956,8.12745541044,001,014,1920_1080,Intel(R) Core(TM) i5-3570 CPU @ 3.40GHz,orientation_search,LEPPC096,Intel(R) HD Graphics 2500,2018_Nov_24_1543,testMonitor,
121.3,126.9,131.1,120.7,36,0,128.5,122.9,128.6,128.0,7.602,7.664,7.54,7.658,7.779,7.774,8.466,4.728,-4.483,-8.381,1.748,-1.26,7.704,4.559,-4.948,-8.185,116.6,126.8,-7.543,123.3,127.0,121.1,117.3,125.4,36,127.8,1,5,probe,5,0,63,norm,36,-4.593,up,norm,125.719748899,127.8,117.7,124.6,127.0,4,124.0,129.1,124.8,10,5,8.395,5.3,1.646,-1.512,-4.87,-7.712,,2,62.7,-7.622,-7.935,-10,-8.054,-8.34,-4.483,-4.473,-4.61,-4.475,4.532,8.377,10,-1.243,1.382,4.781,7.83,-8.123,-7.941,-1.182,1.442,123.2,121.8,131.3,125.1,130.9,129.1,132.9,124.0,128.9,135.7,0,norm,1.475,1.791,-1.418,-2.036,-4.502,-4.474,-1.28,-1.822,-1.984,-1.891,1.105,-1.716,115.7,119.4,-4.899,-8.366,1.313,-1.84,8.181,5.204,-4.579,-7.598,19,5.155,4.411,4.758,4.915,1.326,2.04,1.886,2.035,19,4.933,4.306,-10,73.4037634201,norm,0,71,71,71,371.019,371.028,371.039531667,371.04,371.041,371.044,up,1,1.03164923954,8.96835076046,001,014,1920_1080,Intel(R) Core(TM) i5-3570 CPU @ 3.40GHz,orientation_search,LEPPC096,Intel(R) HD Graphics 2500,2018_Nov_24_1543,testMonitor,
174.5,165.0,168.0,169.4,36,0,163.4,171.7,162.3,170.3,8.039,7.557,8.152,8.049,7.771,8.398,7.637,4.549,-5.151,-8.007,1.434,-1.702,8.075,4.907,-4.688,-7.643,165.1,,-7.615,172.0,171.1,169.6,161.2,173.0,36,173.8,5,5,probe,5,0,105,norm,36,-4.749,up,norm,167.719748899,177.7,167.2,161.5,176.0,4,173.8,164.1,173.2,10,5,8.053,4.749,1.615,-1.464,-4.313,-8.038,160.1,2,62.7,-7.612,-8.313,-10,-8.286,-7.837,-4.733,-4.715,-4.951,-5.111,4.494,8.456,34,-1.733,1.572,5.276,8.458,-7.602,-8.485,-2.087,1.322,170.6,162.0,174.5,169.1,174.7,172.5,166.6,157.7,163.7,170.8,1,norm,1.381,1.341,-1.77,-1.333,-5.213,-4.73,-1.373,-2.027,-1.341,-1.488,1.252,-1.116,168.2,173.0,-5.083,-7.775,1.393,-1.581,7.766,4.359,-4.679,-8.307,19,4.426,4.551,4.514,4.678,1.702,1.611,1.504,1.448,19,4.675,4.904,-10,73.4037634201,norm,0,72,72,72,372.117,372.126,372.132596163,372.133,372.134,372.137,up,1,1.18060972448,8.81939027552,001,014,1920_1080,Intel(R) Core(TM) i5-3570 CPU @ 3.40GHz,orientation_search,LEPPC096,Intel(R) HD Graphics 2500,2018_Nov_24_1543,testMonitor,
199.6,221.2,,193.1,36,-30,187.5,223.5,213.6,199.5,8.285,8.164,8.162,7.597,8.16,7.64,7.722,4.531,-4.397,-7.957,1.222,-1.292,7.503,4.749,-4.803,-7.85,188.1,188.6,-7.661,220.8,198.1,197.0,208.4,207.5,36,197.8,3,5,prime,10,0,69,norm,36,-4.609,down,norm,206.194949475,208.3,216.2,203.8,205.3,2,198.1,198.4,213.3,10,6,8.151,5.153,1.149,-1.395,-4.647,-7.579,226.2,6,275.2,-7.621,-8.252,-30,-8.223,-7.922,-4.519,-4.699,-4.702,-4.821,4.581,8.174,20,-1.755,1.54,4.998,8.167,-7.891,-7.582,-1.761,1.311,198.4,214.1,211.8,222.6,217.9,219.8,186.2,215.3,211.2,209.8,0,norm,1.524,2.097,-1.971,-2.028,-4.771,-4.652,-1.987,-2.049,-1.476,-1.387,1.973,-1.937,188.8,198.7,-5.022,-8.436,1.823,-1.426,7.76,5.004,-4.499,-8.141,20,5.086,5.184,5.255,4.334,1.564,2.049,1.174,2.065,20,4.402,4.373,0,73.4037634201,norm,0,73,73,73,373.334,373.344,373.350318554,373.35,373.352,373.355,down,1,1.77363935768,8.22636064232,001,014,1920_1080,Intel(R) Core(TM) i5-3570 CPU @ 3.40GHz,orientation_search,LEPPC096,Intel(R) HD Graphics 2500,2018_Nov_24_1543,testMonitor,
209.6,226.2,206.5,195.2,36,-30,217.6,210.1,,202.3,8.07,8.059,7.954,7.514,7.838,7.718,8.203,5.103,-4.374,-7.886,1.18,-1.306,8.11,4.74,-5.179,-7.511,209.9,203.7,-8.145,214.2,222.1,199.7,220.0,205.1,36,219.6,4,5,prime,10,0,117,norm,36,-4.793,up,norm,206.194949475,217.9,205.8,193.7,217.9,4,206.8,213.1,200.7,10,6,8.113,5.14,1.668,-1.982,-5.062,-7.992,211.7,6,323.2,-7.874,-7.917,-30,-8.107,-7.622,-4.381,-5.211,-4.355,-5.174,5.086,8.212,28,-1.103,1.791,5.155,8.265,-7.534,-8.125,-1.85,1.487,207.8,211.4,196.8,206.9,206.0,218.7,202.7,213.6,204.2,193.6,1,norm,1.257,1.989,-1.697,-1.978,-4.502,-5.094,-1.934,-1.842,-1.807,-1.444,1.887,-1.602,186.2,210.3,-4.873,-8.256,1.136,-1.751,7.725,4.828,-4.713,-7.632,20,4.855,5.073,5.137,4.439,2.076,1.353,1.747,1.18,20,5.024,4.562,0,73.4037634201,norm,0,74,74,74,375.175,375.195,375.206785878,375.207,375.21,375.215,up,1,0.732197604604,9.2678023954,001,014,1920_1080,Intel(R) Core(TM) i5-3570 CPU @ 3.40GHz,orientation_search,LEPPC096,Intel(R) HD Graphics 2500,2018_Nov_24_1543,testMonitor,
211.2,199.2,213.9,223.7,36,-30,212.7,206.7,186.2,205.6,8.375,7.744,8.426,7.799,7.733,8.286,8.113,4.607,-4.539,-8.316,2.008,-2.033,7.625,5.285,-4.915,-7.808,209.7,205.6,-8.212,195.7,202.2,210.4,204.2,219.9,36,204.0,2,5,prime,10,0,114,norm,36,-4.863,up,norm,206.194949475,197.2,211.4,,210.9,3,226.2,211.3,194.9,10,6,7.88,4.71,2.096,-2.084,-4.312,-8.269,201.2,6,320.2,-7.926,-7.631,-30,-7.86,-8.119,-4.56,-5.176,-5.042,-4.875,4.83,8.14,15,-1.735,1.663,5.074,8.212,-7.636,-7.792,-1.718,1.478,202.8,203.2,191.2,206.8,208.4,205.3,197.2,216.2,216.9,207.7,2,norm,1.375,1.676,-1.111,-1.849,-4.991,-5.296,-1.534,-1.359,-1.555,-2.028,2.09,-1.8,195.3,223.3,-4.995,-8.318,2.07,-1.594,8.377,4.406,-4.535,-8.436,20,4.503,5.081,4.878,4.974,1.38,1.108,1.563,1.752,20,4.302,5.076,0,73.4037634201,norm,0,75,75,75,375.985,375.995,376.001130416,376.001,376.003,376.006,up,1,1.49882023183,8.50117976817,001,014,1920_1080,Intel(R) Core(TM) i5-3570 CPU @ 3.40GHz,orientation_search,LEPPC096,Intel(R) HD Graphics 2500,2018_Nov_24_1543,testMonitor,
192.1,205.6,205.6,220.1,36,-30,216.0,201.3,226.2,206.0,7.739,7.693,8.345,7.967,8.258,7.69,7.743,5.018,-5.196,-8.49,1.48,-1.868,7.722,4.506,-4.506,-8.031,199.7,200.1,-7.729,202.2,193.3,208.4,195.6,201.8,36,205.6,1,5,prime,10,0,78,norm,36,-5.263,up,norm,206.194949475,189.2,214.3,213.1,204.6,4,198.1,190.1,206.8,10,6,7.857,4.584,1.243,-1.545,-4.483,-8.292,,6,284.2,-7.704,-8.482,-30,-7.896,-8.454,-4.324,-5.092,-4.81,-5.1,4.815,8.234,10,-1.412,1.123,4.892,7.931,-7.882,-8.299,-1.577,1.956,186.2,202.3,210.4,217.4,198.1,210.7,196.7,198.2,225.7,197.3,3,norm,1.124,1.828,-1.349,-1.129,-5.294,-4.758,-1.787,-1.955,-1.436,-1.824,1.403,-1.712,200.4,215.1,-4.427,-8.493,1.151,-1.482,8.223,4.407,-4.769,-7.634,20,4.561,5.063,4.725,4.515,1.986,1.878,1.405,1.307,20,4.907,4.73,0,73.4037634201,norm,0,76,76,76,377.545,377.554,377.56118208,377.561,377.563,377.566,up,1,0.978099808055,9.02190019194,001,014,1920_1080,Intel(R) Core(TM) i5-3570 CPU @ 3.40GHz,orientation_search,LEPPC096,Intel(R) HD Graphics 2500,2018_Nov_24_1543,testMonitor,
186.2,,203.8,198.3,36,-30,203.9,205.5,207.7,206.7,8.106,7.531,7.588,7.93,7.553,7.899,8.03,4.788,-4.452,-7.638,1.937,-1.422,8.246,4.364,-4.889,-8.354,216.6,212.6,-8.449,211.9,205.3,187.1,207.0,220.7,36,193.4,3,5,prime,10,0,77,norm,36,-4.63,up,norm,206.194949475,226.2,214.5,194.3,203.1,5,200.6,206.8,199.7,10,6,7.918,4.813,1.643,-1.25,-4.589,-7.697,196.2,6,283.2,-7.914,-7.994,-30,-7.894,-8.463,-4.455,-4.659,-4.569,-4.673,4.669,8.397,23,-1.65,2.027,4.754,7.606,-8.135,-7.726,-1.193,1.667,207.8,193.9,202.2,210.0,203.9,198.4,208.7,206.1,205.2,218.0,4,norm,1.948,1.267,-1.399,-1.184,-4.851,-4.878,-1.189,-1.226,-1.799,-1.993,1.308,-1.326,201.5,219.9,-4.425,-7.804,1.816,-1.525,8.174,4.345,-4.309,-8.179,20,5.143,4.697,4.776,5.1,2.068,1.906,1.355,1.289,20,5.17,4.591,0,73.4037634201,norm,0,77,77,77,378.591,378.613,378.623275587,378.623,378.625,378.628,up,1,1.31409844854,8.68590155146,001,014,1920_1080,Intel(R) Core(TM) i5-3570 CPU @ 3.40GHz,orientation_search,LEPPC096,Intel(R) HD Graphics 2500,2018_Nov_24_1543,testMonitor,
198.0,193.9,211.2,,36,-30,218.7,206.9,199.4,205.0,8.216,8.463,7.729,7.677,8.496,8.355,8.342,4.592,-4.834,-7.782,2.068,-2.078,8.006,4.365,-4.373,-8.172,210.1,207.1,-7.533,200.6,211.8,204.6,219.3,198.8,36,207.5,3,5,prime,10,0,63,norm,36,-4.934,up,norm,206.194949475,202.7,208.6,201.2,199.2,3,214.8,200.8,186.2,10,6,7.53,5.059,1.838,-1.138,-5.198,-8.091,209.6,6,269.2,-7.791,-7.883,-30,-8.495,-8.283,-4.361,-4.839,-5.135,-4.99,4.735,8.476,21,-1.662,1.132,5.247,8.198,-8.422,-7.763,-1.886,1.279,206.1,211.4,203.6,208.5,213.0,197.0,213.7,215.0,218.5,201.4,5,norm,1.639,1.254,-1.257,-2.03,-4.937,-4.924,-1.542,-2.051,-1.299,-1.11,1.36,-1.369,217.8,197.3,-4.346,-7.859,1.584,-2.068,7.657,4.571,-5.059,-8.386,20,5.13,4.874,4.397,4.33,1.443,1.777,1.699,2.084,20,4.459,4.385,0,73.4037634201,norm,0,78,78,78,379.979,379.988,379.994647955,379.995,379.997,379.999,up,1,2.11021875139,7.88978124861,001,014,1920_1080,Intel(R) Core(TM) i5-3570 CPU @ 3.40GHz,orientation_search,LEPPC096,Intel(R) HD Graphics 2500,2018_Nov_24_1543,testMonitor,
250.4,260.5,251.2,258.5,36,60,258.0,246.7,252.3,252.8,7.747,8.441,8.032,8.177,8.037,7.564,8.139,4.734,-5.266,-7.91,1.733,-1.635,8.363,4.968,-5.104,-7.506,252.3,244.9,-8.115,255.6,247.3,242.1,256.9,253.0,36,261.8,2,5,probe,5,0,74,norm,36,-5.268,down,norm,251.832769709,246.2,252.9,251.3,256.2,0,241.8,249.4,,10,6,7.58,4.72,1.84,-1.364,-5.039,-7.831,250.8,2,177.8,-8.255,-7.501,-30,-8.265,-7.634,-5.06,-5.04,-4.445,-4.441,4.979,8.05,12,-1.393,1.994,4.508,8.183,-7.513,-8.362,-1.825,1.791,258.2,253.1,252.6,250.3,248.5,250.0,247.6,245.7,251.3,247.6,0,norm,1.236,1.113,-1.282,-1.354,-4.55,-4.482,-1.258,-1.358,-2.068,-1.208,1.112,-2.08,244.8,250.7,-5.089,-7.893,1.416,-1.788,8.134,5.245,-4.849,-7.646,21,4.789,5.144,4.709,4.873,1.143,1.237,1.383,1.723,21,5.037,4.309,-30,206.194949475,norm,0,79,79,79,382.147,382.156,382.162838495,382.163,382.165,382.167,down,1,1.65391122505,8.34608877495,001,014,1920_1080,Intel(R) Core(TM) i5-3570 CPU @ 3.40GHz,orientation_search,LEPPC096,Intel(R) HD Graphics 2500,2018_Nov_24_1543,testMonitor,
295.0,284.0,290.2,293.4,36,60,282.1,290.7,278.8,291.6,7.771,8.116,7.799,7.966,7.882,8.353,7.78,5.182,-5.251,-8.476,1.553,-1.127,8.377,5.091,-4.795,-8.023,291.8,285.5,-8.385,287.3,,290.2,291.6,286.8,36,292.5,5,5,probe,5,0,111,norm,36,-5.057,down,norm,288.832769709,284.3,293.6,283.9,280.9,0,288.6,295.4,281.0,10,6,8.438,4.503,1.38,-2.065,-5.255,-7.594,285.4,2,177.8,-8.121,-8.011,-30,-7.631,-7.547,-4.745,-4.628,-5.22,-4.573,5.236,8.304,30,-1.918,1.565,5.07,8.231,-8.463,-8.043,-1.511,1.936,280.3,285.3,289.4,286.7,293.1,298.8,293.5,292.8,287.3,283.9,1,norm,2.072,1.866,-1.458,-1.945,-5.285,-4.68,-1.112,-1.225,-1.906,-1.543,1.838,-1.677,296.9,284.6,-5.285,-8.273,1.545,-2.036,7.722,4.758,-4.464,-8.172,21,4.443,5.21,5.175,4.445,1.513,1.292,1.246,1.126,21,4.929,4.907,-30,206.194949475,norm,0,80,80,80,383.864,383.884,383.895549843,383.896,383.898,383.901,down,1,1.07697938296,8.92302061704,001,014,1920_1080,Intel(R) Core(TM) i5-3570 CPU @ 3.40GHz,orientation_search,LEPPC096,Intel(R) HD Graphics 2500,2018_Nov_24_1543,testMonitor,
272.6,289.5,296.4,281.7,36,40,289.3,292.7,281.5,273.4,7.824,8.295,8.023,7.979,7.98,8.274,8.215,4.657,-4.784,-7.607,2.095,-1.466,7.545,4.548,-4.757,-8.055,275.3,270.0,-7.943,277.8,,286.7,258.9,270.0,36,292.6,5,5,prime,10,0,97,norm,36,-4.427,down,norm,278.742247851,285.4,284.8,287.0,276.1,0,270.0,286.9,268.0,10,6,7.502,5.12,1.254,-1.141,-4.515,-8.004,268.7,6,375.7,-7.528,-8.096,40,-7.758,-7.953,-4.967,-4.565,-4.347,-4.866,4.423,7.933,30,-1.171,2.009,4.931,8.356,-8.222,-7.619,-1.734,1.691,294.1,266.7,289.3,258.7,272.3,283.6,271.7,275.1,285.3,273.2,0,norm,2.022,1.284,-1.112,-1.436,-4.911,-4.987,-1.685,-1.841,-1.925,-1.28,2.097,-1.96,298.7,274.6,-4.8,-8.248,1.884,-1.892,7.694,5.2,-4.715,-8.193,22,4.631,4.48,4.934,4.758,1.398,1.523,1.887,1.595,22,4.795,4.769,60,206.194949475,norm,0,81,81,81,385.017,385.027,385.033109876,385.033,385.035,385.038,down,1,1.01317712158,8.98682287842,001,014,1920_1080,Intel(R) Core(TM) i5-3570 CPU @ 3.40GHz,orientation_search,LEPPC096,Intel(R) HD Graphics 2500,2018_Nov_24_1543,testMonitor,
284.2,271.8,283.2,286.3,36,40,286.8,288.7,281.4,283.8,8.06,8.297,7.852,8.166,7.924,7.591,8.244,5.0,-5.141,-8.163,1.388,-1.386,7.767,4.759,-5.177,-8.16,282.7,270.5,-8.131,283.5,259.7,290.5,277.0,275.4,36,262.1,0,5,prime,10,0,72,norm,36,-5.041,up,norm,278.742247851,266.3,258.7,272.7,298.7,5,282.0,280.9,280.1,10,6,7.61,5.01,1.212,-1.571,-4.91,-8.294,279.9,6,350.7,-8.224,-8.018,40,-8.398,-8.488,-4.954,-5.2,-4.925,-5.212,4.496,8.359,5,-1.778,1.836,4.491,8.452,-7.553,-7.682,-1.749,1.695,273.7,270.0,268.2,280.7,276.4,276.7,280.8,283.8,,263.3,1,norm,1.911,1.245,-1.391,-1.291,-5.064,-4.719,-1.605,-1.748,-2.039,-1.952,1.688,-1.548,289.2,261.9,-4.858,-7.662,2.055,-1.477,7.679,4.725,-5.014,-8.066,22,5.094,5.134,4.986,5.246,1.635,1.122,1.947,1.997,22,4.769,5.057,60,206.194949475,norm,0,82,82,82,386.083,386.093,386.108470153,386.109,386.11,386.113,up,1,1.93993792219,8.06006207781,001,014,1920_1080,Intel(R) Core(TM) i5-3570 CPU @ 3.40GHz,orientation_search,LEPPC096,Intel(R) HD Graphics 2500,2018_Nov_24_1543,testMonitor,
278.3,282.4,267.8,274.3,36,40,275.3,262.0,270.6,278.5,7.724,7.56,8.495,8.271,7.686,7.571,7.837,5.053,-4.437,-8.048,1.622,-1.877,8.304,5.019,-5.126,-7.737,277.7,295.0,-7.53,,276.3,284.9,269.9,267.9,36,280.7,5,5,prime,10,0,65,norm,36,-5.214,down,norm,278.742247851,294.2,278.8,273.8,294.1,1,294.0,276.0,284.4,10,6,8.221,4.907,1.371,-1.759,-4.838,-7.952,298.7,6,343.7,-8.281,-8.47,40,-7.918,-7.809,-4.655,-5.056,-5.173,-5.184,5.039,8.039,31,-1.594,1.389,4.418,8.394,-7.851,-8.323,-1.664,1.147,274.4,282.1,281.6,272.6,290.6,294.0,280.9,262.4,277.9,258.7,2,norm,1.167,1.842,-1.126,-2.034,-4.367,-5.248,-1.442,-1.625,-1.313,-1.224,1.293,-1.851,295.8,273.4,-4.351,-7.826,1.341,-1.116,8.068,5.055,-4.58,-8.015,22,4.991,4.848,4.376,5.119,1.643,1.506,1.629,1.796,22,5.258,5.059,60,206.194949475,norm,0,83,83,83,388.085,388.095,388.105177004,388.105,388.107,388.11,down,1,4.24075994155,5.75924005845,001,014,1920_1080,Intel(R) Core(TM) i5-3570 CPU @ 3.40GHz,orientation_search,LEPPC096,Intel(R) HD Graphics 2500,2018_Nov_24_1543,testMonitor,
291.8,286.0,258.7,285.7,36,40,277.9,284.0,267.7,272.8,7.798,7.639,8.254,7.872,8.025,7.95,7.618,4.777,-5.101,-8.049,2.002,-1.773,8.244,5.127,-4.976,-7.873,276.1,272.0,-7.691,278.1,262.9,291.6,269.2,269.7,36,288.0,0,5,prime,10,0,95,norm,36,-4.659,down,norm,278.742247851,264.7,273.7,263.6,280.4,0,277.2,262.9,277.5,10,6,7.719,4.949,1.338,-1.747,-4.578,-7.949,295.0,6,373.7,-7.948,-7.952,40,-7.529,-8.199,-4.562,-4.688,-5.26,-4.508,4.877,7.57,0,-2.065,1.284,4.762,7.52,-7.935,-7.716,-1.348,1.454,274.7,277.6,281.4,261.1,279.2,,298.7,290.0,283.0,270.0,3,norm,1.803,1.277,-1.241,-1.215,-5.277,-4.468,-1.153,-1.863,-1.776,-1.924,1.908,-1.986,273.9,272.0,-4.928,-8.418,1.247,-1.363,8.48,4.736,-4.742,-8.27,22,4.463,5.244,4.929,4.483,2.075,2.073,1.851,1.733,22,4.971,4.554,60,206.194949475,norm,0,84,84,84,392.383,392.393,392.410728963,392.411,392.413,392.415,down,1,2.88712318579,7.11287681421,001,014,1920_1080,Intel(R) Core(TM) i5-3570 CPU @ 3.40GHz,orientation_search,LEPPC096,Intel(R) HD Graphics 2500,2018_Nov_24_1543,testMonitor,
289.3,272.1,282.9,284.4,36,40,282.4,279.8,273.1,281.0,7.94,8.0,7.51,7.977,8.106,7.878,7.925,4.741,-5.179,-7.632,1.906,-2.098,8.438,4.936,-4.631,-7.917,266.6,275.4,-8.08,270.3,280.3,287.5,295.5,279.7,36,265.0,3,5,prime,10,0,84,norm,36,-4.628,down,norm,278.742247851,290.1,281.8,280.7,279.9,1,290.2,258.7,284.1,10,6,7.712,4.539,1.533,-1.628,-5.05,-7.887,270.2,6,362.7,-8.293,-7.874,40,-7.863,-8.379,-4.882,-4.68,-4.918,-5.124,4.52,7.526,19,-1.271,1.152,4.357,7.86,-8.234,-7.993,-1.985,1.271,273.9,279.7,272.5,277.5,294.2,294.1,298.7,266.5,283.6,269.8,4,norm,1.833,1.405,-1.469,-1.125,-4.427,-4.665,-1.228,-1.484,-1.159,-1.264,1.161,-1.337,,271.7,-5.249,-7.554,2.078,-1.272,7.909,4.755,-4.7,-8.121,22,5.124,4.562,4.543,4.817,1.588,1.161,1.677,2.07,22,4.415,4.77,60,206.194949475,norm,0,85,85,85,395.344,395.353,395.360007232,395.36,395.362,395.364,down,1,0.910777107576,9.08922289242,001,014,1920_1080,Intel(R) Core(TM) i5-3570 CPU @ 3.40GHz,orientation_search,LEPPC096,Intel(R) HD Graphics 2500,2018_Nov_24_1543,testMonitor,
280.7,293.3,274.6,281.9,36,40,281.1,281.9,265.6,285.1,7.545,7.734,7.65,7.854,7.9,8.477,8.42,4.992,-4.458,-7.867,1.593,-1.181,8.147,4.453,-4.458,-7.613,287.7,284.1,-8.289,266.4,290.3,279.2,281.8,286.1,36,278.0,2,5,prime,10,0,74,norm,36,-5.067,up,norm,278.742247851,,270.7,292.9,277.5,5,272.7,273.1,279.6,10,6,8.46,4.68,1.878,-1.796,-4.607,-7.751,276.5,6,352.7,-7.613,-8.35,40,-8.246,-7.704,-5.217,-5.045,-4.864,-4.794,4.748,7.641,17,-1.882,1.956,4.845,7.547,-8.29,-8.462,-2.087,1.883,298.7,258.7,271.5,261.8,270.4,282.9,271.7,267.6,269.3,282.6,5,norm,2.079,1.842,-1.539,-1.246,-4.32,-4.531,-1.826,-1.98,-1.896,-2.031,1.457,-1.663,289.4,283.5,-5.15,-7.902,1.729,-1.587,7.529,4.399,-4.444,-8.348,22,5.2,4.62,4.661,4.936,1.179,1.234,1.736,1.364,22,4.851,4.396,60,206.194949475,norm,0,86,86,86,396.307,396.317,396.326004795,396.326,396.328,396.33,up,1,2.07792718188,7.92207281812,001,014,1920_1080,Intel(R) Core(TM) i5-3570 CPU @ 3.40GHz,orientation_search,LEPPC096,Intel(R) HD Graphics 2500,2018_Nov_24_1543,testMonitor,
,419.3,418.0,421.7,36,-20,415.9,417.9,422.1,425.4,8.116,7.888,8.438,8.153,8.052,8.192,7.899,4.494,-4.746,-8.346,1.195,-1.733,7.722,4.494,-4.695,-8.017,410.5,416.4,-8.178,420.5,419.3,410.5,422.3,414.7,36,416.9,3,5,probe,5,0,100,norm,36,-5.296,up,norm,420.227981123,411.5,419.0,420.5,427.8,4,412.9,419.2,424.8,10,6,8.435,5.22,1.569,-1.901,-4.641,-8.411,419.8,2,320.2,-8.076,-8.105,40,-7.816,-8.336,-4.975,-5.059,-4.626,-4.563,5.225,8.078,22,-1.514,1.859,4.984,8.289,-7.892,-8.359,-1.55,1.264,430.2,421.5,426.2,424.1,425.9,415.1,410.2,425.4,424.1,422.6,0,norm,1.158,1.607,-1.714,-1.36,-4.82,-4.381,-1.235,-1.614,-1.855,-1.983,1.785,-2.054,422.8,413.8,-5.294,-8.28,1.813,-1.742,7.944,4.652,-5.062,-7.694,23,4.809,4.92,5.237,4.597,1.84,1.127,1.57,1.442,23,5.181,4.596,40,278.742247851,norm,0,87,87,87,398.449,398.467,398.480941846,398.481,398.483,398.486,up,1,1.14369235292,8.85630764708,001,014,1920_1080,Intel(R) Core(TM) i5-3570 CPU @ 3.40GHz,orientation_search,LEPPC096,Intel(R) HD Graphics 2500,2018_Nov_24_1543,testMonitor,
418.8,425.5,419.3,430.6,36,-20,423.3,429.6,427.4,417.8,7.96,8.309,8.346,7.872,8.217,7.996,7.671,4.746,-4.859,-7.781,1.49,-1.15,8.156,4.374,-4.879,-7.776,418.7,429.7,-7.905,428.6,421.9,425.8,,430.1,36,420.0,5,5,probe,5,0,105,norm,36,-4.701,down,norm,425.227981123,428.7,423.5,421.7,423.8,2,424.7,422.0,426.0,10,6,8.043,5.012,1.964,-1.165,-4.596,-7.864,432.0,2,320.2,-8.11,-7.827,40,-7.969,-8.272,-4.824,-5.081,-4.567,-4.928,4.546,7.974,32,-1.705,1.84,4.48,8.418,-8.243,-7.553,-1.592,1.313,425.9,418.0,421.9,421.3,427.5,415.8,431.5,421.5,427.7,430.2,1,norm,1.64,1.964,-1.997,-1.77,-4.889,-4.906,-1.224,-1.154,-1.243,-2.052,1.721,-1.172,435.2,415.2,-4.493,-7.839,1.576,-1.509,8.212,5.111,-5.269,-7.902,23,4.476,5.291,4.72,5.054,2.095,1.412,1.664,1.554,23,5.249,4.5,40,278.742247851,norm,0,88,88,88,399.649,399.659,399.665312884,399.665,399.667,399.67,down,1,0.640875065916,9.35912493408,001,014,1920_1080,Intel(R) Core(TM) i5-3570 CPU @ 3.40GHz,orientation_search,LEPPC096,Intel(R) HD Graphics 2500,2018_Nov_24_1543,testMonitor,
5.4,7.9,7.6,17.5,36,40,40.2,16.6,14.6,0.2,8.412,8.033,7.647,7.639,7.741,8.014,8.443,4.823,-4.846,-7.699,1.603,-1.766,8.093,4.884,-4.517,-8.018,,22.0,-7.703,21.8,27.6,29.1,27.5,30.3,36,11.5,5,5,prime,10,0,99,norm,36,-4.933,up,norm,20.1842469105,19.0,24.3,21.9,13.0,5,31.1,39.9,15.2,10,5,8.312,4.65,1.343,-1.106,-4.97,-8.043,22.5,5,119.2,-7.828,-7.789,40,-7.906,-7.965,-4.984,-4.578,-4.842,-5.008,4.772,8.288,35,-1.329,1.875,4.679,7.742,-8.171,-7.639,-1.44,1.445,20.3,13.5,16.3,20.3,21.5,23.9,7.2,3.9,32.7,37.4,0,norm,2.066,1.736,-2.022,-1.598,-4.431,-4.469,-2.046,-1.137,-2.06,-2.011,1.205,-2.044,28.0,20.4,-4.356,-7.515,1.796,-1.21,8.201,5.023,-5.19,-8.369,24,4.812,4.96,5.028,4.96,1.921,1.496,1.368,1.77,24,4.639,4.946,-20,278.742247851,norm,0,89,89,89,400.351,400.361,400.367346637,400.367,400.369,400.372,up,1,2.36239212373,7.63760787627,001,014,1920_1080,Intel(R) Core(TM) i5-3570 CPU @ 3.40GHz,orientation_search,LEPPC096,Intel(R) HD Graphics 2500,2018_Nov_24_1543,testMonitor,
16.3,40.2,19.0,12.7,36,40,23.7,,18.5,13.7,8.393,7.753,7.521,8.097,8.137,7.922,7.627,4.374,-4.582,-7.813,1.841,-1.575,8.18,4.6,-4.367,-7.584,16.0,38.9,-8.153,24.3,31.2,20.1,13.4,23.3,36,18.0,4,5,prime,10,0,84,norm,36,-4.326,down,norm,20.1842469105,9.7,26.9,18.3,0.2,1,18.1,16.6,32.0,10,5,8.059,4.328,1.847,-1.18,-4.519,-8.382,15.5,5,104.2,-7.897,-7.744,40,-8.351,-8.486,-5.13,-4.725,-4.662,-4.57,4.57,7.696,25,-1.76,1.978,4.634,7.737,-8.018,-7.683,-1.261,1.253,22.4,34.8,29.8,31.1,24.2,14.3,17.9,15.4,28.8,13.2,1,norm,1.816,2.089,-1.986,-1.316,-4.834,-4.834,-1.646,-2.085,-1.109,-1.925,1.133,-1.689,28.7,35.3,-4.374,-8.401,1.693,-1.67,8.417,4.525,-4.738,-8.427,24,4.978,4.51,4.564,5.056,1.254,1.673,1.538,2.047,24,5.065,4.488,-20,278.742247851,norm,0,90,90,90,402.754,402.763,402.769601855,402.77,402.772,402.774,down,1,1.37772654432,8.62227345568,001,014,1920_1080,Intel(R) Core(TM) i5-3570 CPU @ 3.40GHz,orientation_search,LEPPC096,Intel(R) HD Graphics 2500,2018_Nov_24_1543,testMonitor,
20.5,8.0,27.0,8.7,36,40,0.2,24.1,26.2,28.0,7.985,8.098,7.855,7.736,7.909,8.253,7.978,5.19,-4.48,-8.184,1.714,-1.681,8.23,4.322,-4.777,-8.369,26.4,9.2,-7.689,10.2,26.6,19.1,32.3,12.7,36,30.3,0,5,prime,10,0,97,norm,36,-4.627,up,norm,20.1842469105,4.6,36.8,11.1,14.1,5,23.6,19.9,40.2,10,5,8.453,4.659,1.524,-1.39,-4.827,-7.7,7.3,5,117.2,-8.06,-8.361,40,-7.594,-8.253,-4.543,-4.593,-4.513,-5.299,4.933,8.413,5,-1.936,1.117,4.447,8.06,-8.406,-8.259,-2.027,1.298,17.0,27.6,31.3,2.9,28.3,27.2,8.7,6.4,,14.5,2,norm,1.656,1.154,-1.983,-1.111,-4.35,-5.002,-1.89,-1.613,-1.894,-1.701,1.84,-1.921,28.0,30.5,-4.579,-7.779,1.292,-2.067,7.88,4.697,-5.03,-8.35,24,4.737,5.031,4.782,4.719,1.874,2.082,2.087,2.039,24,4.549,4.499,-20,278.742247851,norm,0,91,91,91,404.185,404.194,404.20378371,404.204,404.206,404.208,up,1,1.75499518705,8.24500481295,001,014,1920_1080,Intel(R) Core(TM) i5-3570 CPU @ 3.40GHz,orientation_search,LEPPC096,Intel(R) HD Graphics 2500,2018_Nov_24_1543,testMonitor,
9.0,10.4,31.9,16.6,36,40,40.2,21.6,17.1,19.0,8.323,8.242,7.97,8.276,7.912,8.175,7.77,5.038,-4.373,-7.957,1.792,-1.591,8.46,4.909,-5.149,-8.372,6.3,35.0,-7.511,8.9,22.0,0.6,4.6,25.2,36,24.6,3,5,prime,10,0,119,norm,36,-4.88,down,norm,20.1842469105,22.9,21.0,24.9,20.5,1,18.9,17.6,26.4,10,5,8.33,4.854,1.716,-1.483,-4.727,-8.191,35.1,5,139.2,-7.72,-7.613,40,-7.961,-8.444,-4.396,-5.03,-4.72,-5.222,5.122,7.553,19,-2.092,1.348,4.643,8.174,-8.333,-7.995,-1.513,1.534,16.6,6.1,21.5,10.0,35.3,27.8,29.8,17.9,17.7,0.2,3,norm,1.698,2.018,-1.402,-1.434,-4.801,-4.982,-1.965,-2.008,-1.565,-1.533,1.543,-1.113,,15.8,-4.43,-7.802,1.144,-1.771,8.456,4.654,-5.019,-7.793,24,4.708,4.729,5.158,4.333,1.321,1.895,1.144,1.129,24,4.997,5.278,-20,278.742247851,norm,0,92,92,92,405.983,405.992,405.998598224,405.999,406.0,406.003,up,0,3.27915424945,-10,001,014,1920_1080,Intel(R) Core(TM) i5-3570 CPU @ 3.40GHz,orientation_search,LEPPC096,Intel(R) HD Graphics 2500,2018_Nov_24_1543,testMonitor,
19.3,8.1,35.1,33.6,36,40,13.8,30.1,27.6,12.6,8.151,8.5,7.767,7.914,7.724,7.721,7.848,4.525,-4.54,-8.348,1.835,-1.799,7.817,4.584,-4.912,-8.321,,26.7,-8.204,9.1,17.1,23.4,34.2,18.2,36,14.5,5,5,prime,10,0,64,norm,36,-4.771,up,norm,20.1842469105,1.8,14.2,24.7,31.3,5,39.8,14.7,22.9,10,5,8.154,4.625,1.949,-1.943,-4.8,-7.859,8.6,5,84.2,-8.161,-7.524,40,-8.367,-7.677,-4.407,-4.377,-5.021,-4.906,4.313,8.457,35,-1.635,1.132,5.167,7.941,-8.012,-8.13,-1.163,1.871,28.1,25.2,22.4,21.4,0.2,22.2,17.1,17.3,40.2,8.0,4,norm,1.385,2.049,-1.698,-1.97,-5.213,-4.696,-2.071,-1.111,-1.253,-1.716,1.392,-1.14,12.7,15.5,-4.652,-7.675,1.563,-1.492,8.112,5.231,-4.472,-8.184,24,5.254,5.033,5.001,4.608,1.975,1.267,1.406,1.482,24,4.729,4.599,-20,278.742247851,norm,0,93,93,93,410.354,410.364,410.381147072,410.381,410.383,410.386,up,1,3.04400262124,6.95599737876,001,014,1920_1080,Intel(R) Core(TM) i5-3570 CPU @ 3.40GHz,orientation_search,LEPPC096,Intel(R) HD Graphics 2500,2018_Nov_24_1543,testMonitor,
173.1,180.7,167.8,182.2,36,-20,168.9,162.2,168.7,175.2,8.422,8.289,8.023,7.525,7.749,7.812,8.434,5.251,-5.092,-7.57,1.804,-1.289,7.644,4.608,-4.401,-7.89,163.1,175.4,-8.256,171.4,,179.6,166.9,168.8,36,174.6,5,5,probe,5,0,106,norm,36,-4.42,down,norm,172.231036796,172.1,164.2,173.8,173.5,0,172.7,176.5,170.0,10,5,8.309,4.363,1.806,-1.532,-4.422,-7.752,168.4,1,66.2,-7.868,-8.253,40,-8.409,-8.269,-5.02,-4.848,-4.904,-5.173,4.953,8.152,30,-2.1,1.183,4.852,7.503,-8.323,-8.371,-1.316,1.684,180.0,172.7,173.5,172.9,175.1,172.9,165.6,169.3,172.6,171.7,0,norm,1.786,1.765,-1.875,-1.237,-4.936,-4.42,-2.028,-1.171,-1.301,-1.557,1.966,-1.451,172.5,167.2,-4.538,-8.182,1.403,-1.992,7.998,5.25,-4.492,-7.575,25,4.837,4.754,5.238,4.4,1.715,1.659,1.41,2.056,25,4.713,4.36,40,20.1842469105,norm,0,94,94,94,413.471,413.491,413.503040654,413.503,413.505,413.508,down,1,2.48411938765,7.51588061235,001,014,1920_1080,Intel(R) Core(TM) i5-3570 CPU @ 3.40GHz,orientation_search,LEPPC096,Intel(R) HD Graphics 2500,2018_Nov_24_1543,testMonitor,
167.0,155.6,174.4,154.4,36,-20,172.3,154.5,,187.2,7.673,7.923,7.95,8.447,7.635,8.263,8.056,4.846,-4.94,-7.528,1.77,-1.497,8.333,4.631,-4.722,-8.447,160.7,151.2,-8.146,176.6,162.4,174.0,163.1,156.4,36,174.2,4,5,prime,10,0,108,norm,36,-4.933,up,norm,168.207011297,166.8,182.6,167.5,167.6,4,162.0,162.6,173.8,10,5,8.05,4.44,1.948,-1.392,-4.714,-7.589,182.5,5,276.2,-8.09,-8.059,-20,-8.338,-7.969,-4.78,-4.507,-4.915,-5.212,5.272,8.192,28,-1.794,1.734,5.07,8.486,-8.307,-8.369,-1.493,1.771,178.7,164.4,155.2,151.0,188.2,172.9,181.1,167.0,156.2,171.3,0,norm,1.135,1.888,-1.864,-1.803,-4.878,-4.803,-2.012,-1.526,-1.406,-1.401,1.716,-1.552,168.6,148.2,-4.859,-7.702,1.232,-1.189,8.277,4.529,-4.925,-8.372,26,5.231,4.344,5.051,4.408,1.26,1.468,1.278,1.2,26,4.313,4.898,-20,20.1842469105,norm,0,95,95,95,416.025,416.034,416.043618974,416.044,416.046,416.048,up,1,1.76987351714,8.23012648286,001,014,1920_1080,Intel(R) Core(TM) i5-3570 CPU @ 3.40GHz,orientation_search,LEPPC096,Intel(R) HD Graphics 2500,2018_Nov_24_1543,testMonitor,
180.4,177.0,188.2,162.0,36,-20,184.4,176.3,169.5,158.5,7.656,7.94,7.996,8.157,7.956,7.976,8.024,4.6,-5.131,-8.339,1.999,-1.655,8.38,5.234,-4.872,-8.424,177.4,182.2,-8.046,157.4,182.1,187.4,168.9,177.5,36,148.2,0,5,prime,10,0,81,norm,36,-4.72,down,norm,168.207011297,175.9,163.1,170.3,159.4,0,169.0,174.1,160.3,10,5,8.494,5.234,1.148,-1.849,-4.402,-7.602,162.5,5,249.2,-8.265,-8.277,-20,-8.4,-7.987,-4.681,-5.273,-5.0,-4.592,5.214,8.388,0,-1.505,1.937,4.498,7.636,-8.492,-8.392,-1.167,1.567,174.4,167.5,150.6,176.2,155.8,,172.4,172.9,162.3,171.4,1,norm,1.59,1.169,-1.166,-2.063,-5.181,-5.024,-1.304,-1.382,-1.774,-1.882,1.8,-1.19,171.6,156.7,-5.024,-8.205,1.444,-1.278,8.262,4.85,-4.99,-8.015,26,5.16,5.026,4.483,4.874,1.501,1.592,1.359,1.83,26,5.003,4.589,-20,20.1842469105,norm,0,96,96,96,417.838,417.847,417.856000971,417.856,417.858,417.86,down,1,1.33096685451,8.66903314549,001,014,1920_1080,Intel(R) Core(TM) i5-3570 CPU @ 3.40GHz,orientation_search,LEPPC096,Intel(R) HD Graphics 2500,2018_Nov_24_1543,testMonitor,
