d_ori_22,d_ori_23,d_ori_20,d_ori_21,set_size,ctpd,d_ori_24,d_ori_25,d_ori_28,d_ori_29,stim_pos_x_30,stim_pos_x_31,stim_pos_x_32,stim_pos_x_33,stim_pos_x_34,stim_pos_x_35,stim_pos_y_11,stim_pos_y_10,stim_pos_y_13,stim_pos_y_12,stim_pos_y_15,stim_pos_y_14,stim_pos_y_17,stim_pos_y_16,stim_pos_y_19,stim_pos_y_18,d_ori_35,d_ori_34,stim_pos_x_3,d_ori_31,d_ori_30,d_ori_33,d_ori_32,d_ori_26,test_set_size,d_ori_27,targetCol,dsd_test,seq_type,dsd,blockRepN,targetDist,dtype_test,prime_set_size,stim_pos_y_25,correctResponse,dtype,distrMean,d_ori_17,d_ori_16,d_ori_15,d_ori_14,targetRow,d_ori_11,d_ori_13,d_ori_12,dsd_prime,streak_length_prime,stim_pos_y_35,stim_pos_y_34,stim_pos_y_33,stim_pos_y_32,stim_pos_y_31,stim_pos_y_30,d_ori_10,nextProbe,targetOri,stim_pos_x_1,stim_pos_x_2,ctpd_prime,stim_pos_x_4,stim_pos_x_5,stim_pos_x_6,stim_pos_x_7,stim_pos_x_8,stim_pos_x_9,stim_pos_y_28,stim_pos_y_29,targetPos,stim_pos_y_20,stim_pos_y_21,stim_pos_y_22,stim_pos_y_23,stim_pos_y_24,stim_pos_x_0,stim_pos_y_26,stim_pos_y_27,d_ori_9,d_ori_8,d_ori_3,d_ori_2,d_ori_1,d_ori_0,d_ori_7,d_ori_6,d_ori_5,d_ori_4,trialN,dtype_prime,stim_pos_x_18,stim_pos_x_19,stim_pos_x_12,stim_pos_x_13,stim_pos_x_10,stim_pos_x_11,stim_pos_x_16,stim_pos_x_17,stim_pos_x_14,stim_pos_x_15,stim_pos_y_9,stim_pos_y_8,d_ori_19,d_ori_18,stim_pos_y_1,stim_pos_y_0,stim_pos_y_3,stim_pos_y_2,stim_pos_y_5,stim_pos_y_4,stim_pos_y_7,stim_pos_y_6,totBlockN,stim_pos_x_27,stim_pos_x_26,stim_pos_x_25,stim_pos_x_24,stim_pos_x_23,stim_pos_x_22,stim_pos_x_21,stim_pos_x_20,blockN,stim_pos_x_29,stim_pos_x_28,prevDistrCTPD,prevDistrMean,prevDistrType,trials.thisRepN,trials.thisTrialN,trials.thisN,trials.thisIndex,timeStart,timeBeforeDraw,timeDraw,timeAfterSaving,timeAfterWritingToTemp,timeAfterPreparingNext,answer,correct,rt,trialScore,session,participant,resolution,cpu_info,expName,pc_name,graphic_card,date,monitorName,
199.9,,200.5,200.0,36,20,208.7,191.4,209.1,198.9,8.383,7.754,7.847,7.744,8.303,8.266,8.054,4.906,-4.416,-7.938,1.48,-1.132,7.678,4.543,-4.62,-8.144,213.2,198.0,-8.08,202.6,196.8,202.8,193.1,198.0,36,200.3,3,5,prime,10,0,69,norm,36,-4.562,up,norm,199.217287903,192.7,182.3,179.7,196.9,5,211.0,212.7,211.8,10,6,7.927,5.0,1.164,-1.815,-5.272,-7.689,195.4,6,268.2,-7.708,-7.803,20,-8.266,-7.664,-4.488,-4.396,-4.9,-4.494,4.812,7.599,23,-1.885,1.682,4.91,7.683,-7.842,-8.474,-1.136,1.163,201.9,183.0,205.5,200.1,217.8,219.2,207.4,202.2,204.7,179.2,0,norm,1.931,1.751,-1.772,-1.508,-5.155,-4.719,-1.293,-1.189,-1.649,-2.064,1.961,-1.688,207.0,202.1,-5.077,-8.297,1.212,-2.006,8.423,4.64,-5.073,-7.53,0,4.587,4.398,5.053,4.76,2.002,1.688,1.851,1.619,0,4.716,4.866,,,,0,0,0,0,188.323,188.348,188.369280058,188.37,188.37,188.372,up,1,1.08204593551,8.91795406449,001,330,1920_1200,Intel(R) Core(TM) i5-3570 CPU @ 3.40GHz,orientation_search,LEPPC096,Intel(R) HD Graphics 2500,2019_Jan_26_1138,testMonitor,
206.4,184.2,193.0,185.8,36,20,,193.9,219.2,216.3,7.651,7.874,8.118,8.346,8.058,8.358,8.314,5.196,-5.269,-7.972,1.389,-1.907,8.237,4.594,-4.462,-7.946,204.7,206.3,-7.684,194.4,186.2,210.0,203.7,198.2,36,202.5,4,5,prime,10,0,105,norm,36,-4.676,down,norm,199.217287903,204.6,193.0,211.7,179.2,0,211.6,201.8,208.3,10,6,8.273,4.348,1.196,-1.269,-4.973,-8.348,197.9,6,304.2,-7.698,-8.442,20,-7.564,-7.572,-4.862,-4.532,-5.113,-4.875,4.877,8.017,24,-1.982,1.588,5.258,7.609,-8.483,-7.566,-1.941,1.24,214.2,205.5,185.8,217.3,186.8,199.0,211.6,197.1,195.8,203.5,1,norm,1.365,1.602,-1.521,-1.532,-5.13,-4.923,-1.929,-1.427,-1.407,-1.91,1.701,-1.773,195.5,209.9,-4.765,-7.661,1.894,-1.769,8.005,5.052,-4.518,-7.611,0,4.701,4.321,4.962,5.191,1.193,1.539,1.901,1.154,0,5.068,4.495,,,,0,1,1,1,189.488,189.498,189.50518043,189.505,189.506,189.509,down,1,1.56751401848,8.43248598152,001,330,1920_1200,Intel(R) Core(TM) i5-3570 CPU @ 3.40GHz,orientation_search,LEPPC096,Intel(R) HD Graphics 2500,2019_Jan_26_1138,testMonitor,
189.1,207.2,191.5,203.6,36,20,187.2,196.8,192.4,185.7,7.871,8.487,8.155,7.768,7.797,8.103,7.951,5.284,-4.345,-8.168,1.526,-1.559,8.266,4.987,-4.514,-8.325,203.1,184.0,-8.035,192.7,192.9,206.8,219.2,203.8,36,204.0,0,5,prime,10,0,100,norm,36,-4.733,down,norm,199.217287903,207.8,191.4,198.6,189.3,0,194.0,203.9,189.2,10,6,8.227,4.456,1.817,-1.814,-5.077,-8.191,211.7,6,299.2,-8.19,-7.875,20,-7.605,-7.588,-5.045,-4.963,-4.725,-5.055,4.34,8.436,0,-1.561,1.606,4.925,7.541,-7.965,-8.285,-1.861,1.69,197.1,193.3,209.3,184.7,217.1,,212.7,191.3,181.1,205.3,2,norm,1.726,1.579,-1.353,-1.309,-5.049,-4.718,-1.152,-1.604,-1.317,-2.044,2.004,-1.133,214.0,191.9,-4.728,-7.691,1.575,-1.812,8.335,4.458,-4.302,-8.093,0,4.815,4.42,5.217,4.8,1.959,1.796,2.009,1.417,0,5.109,5.143,,,,0,2,2,2,191.11,191.123,191.143584462,191.144,191.145,191.148,down,1,1.75926493284,8.24073506716,001,330,1920_1200,Intel(R) Core(TM) i5-3570 CPU @ 3.40GHz,orientation_search,LEPPC096,Intel(R) HD Graphics 2500,2019_Jan_26_1138,testMonitor,
201.6,199.0,219.2,204.0,36,20,197.1,192.5,209.0,201.0,8.11,8.463,7.65,7.728,8.298,8.404,8.196,5.083,-4.717,-7.582,1.512,-1.91,8.469,4.414,-5.07,-7.889,,206.3,-8.247,184.1,187.7,197.3,179.2,193.4,36,202.5,5,5,prime,10,0,109,norm,36,-4.965,up,norm,199.217287903,181.0,192.4,192.7,201.1,5,192.7,186.5,189.1,10,6,7.592,4.339,2.063,-1.5,-5.149,-7.732,215.4,6,308.2,-8.179,-7.599,20,-7.68,-7.597,-4.836,-4.578,-4.752,-4.342,4.731,7.58,35,-1.223,1.666,5.096,7.619,-7.631,-8.109,-1.505,1.688,208.1,187.9,204.4,195.4,212.0,206.7,205.3,186.8,209.0,191.8,3,norm,2.085,1.96,-1.4,-1.818,-5.103,-5.224,-1.938,-2.01,-1.123,-1.941,1.926,-1.68,207.2,208.0,-4.696,-8.342,1.697,-1.565,8.419,4.642,-5.178,-8.408,0,5.151,4.368,4.353,5.218,1.808,2.068,1.216,1.937,0,4.672,4.878,,,,0,3,3,3,192.94,192.951,192.956593657,192.957,192.958,192.961,up,1,1.36511398153,8.63488601847,001,330,1920_1200,Intel(R) Core(TM) i5-3570 CPU @ 3.40GHz,orientation_search,LEPPC096,Intel(R) HD Graphics 2500,2019_Jan_26_1138,testMonitor,
202.8,190.0,219.2,201.9,36,20,189.4,203.1,201.3,186.9,7.851,7.822,7.526,8.499,7.738,8.029,8.302,4.816,-4.734,-7.667,1.346,-2.019,8.426,5.156,-4.379,-8.412,,193.4,-7.734,198.5,191.0,199.7,194.6,196.3,36,209.2,5,5,prime,10,0,110,norm,36,-4.62,up,norm,199.217287903,199.2,200.3,202.0,216.4,5,196.1,197.7,188.4,10,6,7.673,5.054,1.352,-1.264,-5.037,-8.483,199.9,6,309.2,-8.021,-7.812,20,-8.322,-7.528,-4.311,-4.819,-4.531,-4.606,5.193,7.952,35,-1.543,1.212,5.295,7.652,-8.366,-8.008,-2.063,1.519,189.4,179.2,201.0,210.2,187.8,184.4,197.5,207.5,202.0,203.8,4,norm,1.667,1.506,-1.803,-1.989,-5.223,-4.719,-1.785,-1.398,-1.16,-1.63,1.748,-1.69,200.8,195.1,-4.49,-7.582,1.895,-1.709,7.774,5.01,-4.975,-7.852,0,4.761,4.581,4.803,4.85,1.254,1.784,1.651,1.709,0,4.916,5.251,,,,0,4,4,4,194.343,194.354,194.359223459,194.359,194.362,194.365,up,1,1.3244773765,8.6755226235,001,330,1920_1200,Intel(R) Core(TM) i5-3570 CPU @ 3.40GHz,orientation_search,LEPPC096,Intel(R) HD Graphics 2500,2019_Jan_26_1138,testMonitor,
183.6,192.5,207.7,202.3,36,20,213.4,203.5,184.2,201.8,7.542,8.359,8.183,8.161,8.222,8.099,7.52,4.391,-4.509,-8.349,1.12,-1.879,7.674,5.132,-4.905,-7.874,192.2,212.3,-7.867,205.2,199.0,187.6,219.2,,36,191.9,4,5,prime,10,0,113,norm,36,-5.07,down,norm,199.217287903,195.6,179.2,201.8,187.4,2,188.7,210.6,215.9,10,6,8.353,4.735,1.676,-1.319,-4.674,-8.256,203.6,6,312.2,-8.204,-7.737,20,-8.345,-7.921,-4.805,-4.321,-4.42,-4.907,4.518,8.405,26,-1.201,1.166,5.106,8.259,-8.171,-8.346,-2.049,1.869,184.6,200.3,218.2,207.7,217.9,190.2,208.0,206.9,204.0,196.0,5,norm,1.434,1.433,-1.979,-1.731,-4.786,-4.701,-1.86,-1.862,-1.334,-2.086,1.957,-1.899,196.0,184.0,-4.563,-7.521,1.424,-2.056,8.418,5.033,-4.614,-7.567,0,5.2,5.142,4.314,4.898,1.233,2.082,1.549,1.396,0,4.614,5.203,,,,0,5,5,5,195.73,195.739,195.746445237,195.747,195.748,195.751,down,1,1.18371245679,8.81628754321,001,330,1920_1200,Intel(R) Core(TM) i5-3570 CPU @ 3.40GHz,orientation_search,LEPPC096,Intel(R) HD Graphics 2500,2019_Jan_26_1138,testMonitor,
301.3,311.8,303.1,301.5,36,-10,297.5,306.9,295.6,298.2,7.622,7.759,8.402,7.543,8.006,7.856,8.208,4.525,-5.278,-7.524,1.968,-1.778,8.298,4.489,-4.725,-7.544,299.8,297.9,-7.922,306.3,305.1,314.7,294.7,306.1,36,304.2,2,5,probe,5,0,82,norm,36,-4.361,up,norm,304.738217839,306.5,306.5,,314.0,3,299.6,310.1,300.4,10,6,8.326,4.644,1.349,-2.001,-4.859,-8.328,301.4,1,222.7,-7.627,-7.811,20,-8.333,-8.446,-5.259,-4.451,-4.706,-4.626,5.215,8.072,15,-1.901,1.948,5.184,8.45,-7.819,-8.309,-1.354,1.543,307.1,295.1,303.6,300.9,309.1,305.3,303.6,311.8,301.8,298.5,0,norm,2.082,1.763,-1.385,-2.059,-5.242,-4.676,-1.509,-2.045,-1.182,-1.129,2.057,-1.767,300.7,312.2,-4.885,-7.902,1.29,-2.088,7.881,4.636,-4.646,-7.582,1,4.927,4.368,4.654,4.606,1.68,1.819,1.681,1.414,1,4.468,4.619,20,199.217287903,norm,0,6,6,6,196.968,196.98,197.000841546,197.001,197.003,197.005,up,1,1.29417446511,8.70582553489,001,330,1920_1200,Intel(R) Core(TM) i5-3570 CPU @ 3.40GHz,orientation_search,LEPPC096,Intel(R) HD Graphics 2500,2019_Jan_26_1138,testMonitor,
237.3,246.3,253.2,242.7,36,40,255.0,250.7,233.5,252.9,7.744,7.716,7.698,8.248,8.075,7.842,8.133,4.555,-5.032,-8.338,1.327,-1.772,8.294,4.811,-4.786,-8.112,244.7,267.0,-8.04,264.3,242.4,247.9,249.7,262.5,36,259.3,2,5,prime,10,0,72,norm,36,-4.751,down,norm,252.48609895,255.6,255.1,258.5,239.2,1,268.0,,232.5,10,5,8.399,4.813,1.796,-1.74,-4.538,-8.498,261.3,5,324.5,-8.425,-7.826,40,-7.781,-7.814,-4.416,-4.335,-5.241,-4.417,4.438,7.884,13,-1.501,1.857,4.634,7.728,-7.538,-7.804,-1.885,1.758,268.3,248.0,252.2,260.1,242.3,256.5,254.4,248.8,272.5,245.3,0,norm,1.746,2.052,-1.479,-1.113,-4.514,-4.434,-1.226,-1.21,-1.993,-1.601,1.184,-1.877,249.0,234.2,-4.899,-7.952,1.543,-1.178,8.113,4.392,-5.018,-7.712,2,5.267,4.688,5.264,4.345,2.1,1.43,2.09,1.495,2,4.69,4.7,-10,199.217287903,norm,0,7,7,7,198.335,198.353,198.368226314,198.368,198.371,198.374,down,1,1.77895403763,8.22104596237,001,330,1920_1200,Intel(R) Core(TM) i5-3570 CPU @ 3.40GHz,orientation_search,LEPPC096,Intel(R) HD Graphics 2500,2019_Jan_26_1138,testMonitor,
249.5,257.7,240.2,254.4,36,40,258.8,239.5,247.0,245.3,7.96,7.558,8.279,7.77,7.9,7.971,7.864,4.592,-5.12,-8.095,1.173,-1.574,7.553,5.291,-4.334,-8.122,249.9,232.5,-8.034,246.2,241.3,241.7,262.5,266.6,36,262.1,0,5,prime,10,0,74,norm,36,-5.224,down,norm,252.48609895,264.4,256.6,236.3,245.8,1,272.5,241.1,259.0,10,5,7.614,4.699,1.338,-1.37,-5.229,-7.708,267.9,5,326.5,-8.259,-7.81,40,-8.218,-8.232,-4.615,-5.138,-4.778,-5.181,4.468,8.474,1,-1.361,1.796,4.587,7.781,-7.923,-8.01,-1.928,1.958,250.4,239.5,233.8,247.1,,247.5,255.1,253.6,246.9,255.3,1,norm,1.214,1.53,-1.673,-1.765,-5.063,-5.177,-1.565,-1.35,-1.145,-1.406,1.288,-1.221,258.4,234.2,-5.255,-7.856,2.044,-1.19,8.463,4.869,-4.864,-8.396,2,5.178,4.366,4.495,4.934,2.077,1.355,1.426,1.336,2,4.906,4.402,-10,199.217287903,norm,0,8,8,8,200.192,200.21,200.224560354,200.225,200.227,200.23,down,1,1.964721763,8.035278237,001,330,1920_1200,Intel(R) Core(TM) i5-3570 CPU @ 3.40GHz,orientation_search,LEPPC096,Intel(R) HD Graphics 2500,2019_Jan_26_1138,testMonitor,
246.3,259.5,237.0,265.9,36,40,255.2,258.7,256.6,244.8,8.012,8.056,8.194,8.17,7.878,8.036,7.817,4.825,-4.939,-8.266,1.685,-1.917,8.179,4.657,-4.359,-8.127,265.8,232.5,-7.874,256.6,248.7,259.1,250.5,265.1,36,262.6,0,5,prime,10,0,64,norm,36,-5.121,up,norm,252.48609895,257.8,245.9,244.1,257.7,5,259.6,254.6,261.9,10,5,7.954,5.172,1.701,-2.044,-4.518,-7.949,272.5,5,316.5,-8.466,-8.337,40,-7.537,-7.904,-5.126,-5.118,-4.65,-4.573,4.377,7.802,5,-1.144,1.248,4.53,7.82,-7.602,-7.712,-1.873,1.885,245.6,242.5,242.7,241.3,239.9,259.0,244.8,267.9,,258.0,2,norm,1.905,1.658,-1.706,-2.023,-5.207,-5.283,-1.247,-1.296,-1.494,-1.579,2.078,-1.619,257.8,258.9,-5.134,-8.286,2.003,-1.333,8.309,4.557,-4.584,-7.534,2,4.712,4.795,5.273,5.037,1.113,1.629,1.876,2.073,2,4.388,4.401,-10,199.217287903,norm,0,9,9,9,202.235,202.257,202.268064797,202.268,202.27,202.273,up,1,0.940990036369,9.05900996363,001,330,1920_1200,Intel(R) Core(TM) i5-3570 CPU @ 3.40GHz,orientation_search,LEPPC096,Intel(R) HD Graphics 2500,2019_Jan_26_1138,testMonitor,
253.2,257.0,250.9,267.3,36,40,,253.7,250.1,249.7,8.358,7.686,8.203,7.988,8.226,8.206,8.189,5.104,-4.825,-7.917,1.159,-1.504,8.352,4.493,-4.587,-8.453,239.5,248.9,-8.345,269.7,266.0,256.7,239.3,257.0,36,251.7,4,5,prime,10,0,66,norm,36,-5.074,down,norm,252.48609895,253.0,243.5,257.9,269.3,0,253.6,251.3,272.5,10,5,8.497,5.014,1.597,-1.137,-4.787,-7.503,252.7,5,318.5,-8.257,-8.379,40,-8.212,-7.612,-4.484,-4.951,-4.369,-4.673,4.631,7.858,24,-1.255,1.643,4.847,7.505,-8.024,-8.375,-1.165,1.819,255.9,244.9,237.9,259.3,257.5,243.8,244.8,232.5,250.3,259.3,3,norm,1.651,1.559,-1.677,-1.101,-4.572,-5.167,-1.618,-1.877,-1.869,-1.614,1.407,-1.941,241.7,254.3,-4.985,-8.377,1.434,-1.548,7.746,5.299,-4.614,-7.889,2,5.271,5.147,5.256,4.457,1.101,2.024,1.311,1.393,2,4.578,4.929,-10,199.217287903,norm,0,10,10,10,203.233,203.243,203.249376311,203.25,203.251,203.254,down,1,0.965612208338,9.03438779166,001,330,1920_1200,Intel(R) Core(TM) i5-3570 CPU @ 3.40GHz,orientation_search,LEPPC096,Intel(R) HD Graphics 2500,2019_Jan_26_1138,testMonitor,
272.5,252.0,265.4,253.6,36,40,243.9,257.2,248.1,232.5,8.25,7.846,8.156,7.938,7.786,8.142,7.9,4.533,-4.49,-8.249,1.514,-1.769,7.787,4.761,-5.039,-8.461,250.9,235.3,-8.107,248.4,241.8,252.3,245.0,265.8,36,241.1,0,5,prime,10,0,72,norm,36,-4.641,down,norm,252.48609895,268.6,269.9,245.0,252.2,2,253.6,261.6,252.5,10,5,7.979,5.129,1.224,-1.778,-4.609,-8.394,250.1,5,324.5,-7.576,-7.784,40,-8.033,-8.298,-4.385,-4.718,-4.706,-5.103,4.912,7.81,2,-2.062,1.309,5.111,8.176,-7.762,-8.379,-1.545,1.612,261.3,247.1,245.7,,257.1,245.7,272.1,250.0,251.9,247.3,4,norm,2.045,2.09,-1.597,-1.313,-5.073,-5.153,-1.298,-1.704,-1.158,-1.91,1.291,-1.581,243.5,257.8,-5.293,-7.575,2.1,-1.365,7.556,4.687,-5.05,-8.197,2,4.496,5.158,4.928,5.068,1.645,1.891,1.282,1.488,2,4.943,4.655,-10,199.217287903,norm,0,11,11,11,204.253,204.263,204.268805828,204.269,204.271,204.273,down,1,1.12991718255,8.87008281745,001,330,1920_1200,Intel(R) Core(TM) i5-3570 CPU @ 3.40GHz,orientation_search,LEPPC096,Intel(R) HD Graphics 2500,2019_Jan_26_1138,testMonitor,
409.2,413.6,400.5,402.7,36,80,403.2,398.3,406.0,410.9,8.053,8.294,7.89,7.616,7.633,7.778,7.635,4.885,-4.81,-8.256,1.494,-1.719,7.509,5.196,-4.884,-7.541,408.1,403.7,-7.809,400.7,410.7,404.5,406.3,411.1,36,405.7,2,5,probe,5,0,113,norm,36,-4.821,down,norm,404.684963631,399.2,404.5,394.7,405.3,1,398.4,,397.6,10,5,8.181,5.167,1.728,-2.082,-4.999,-8.417,405.7,1,291.7,-7.8,-7.791,40,-7.837,-7.715,-5.124,-4.985,-5.293,-5.18,4.417,8.011,13,-1.721,1.319,4.31,8.245,-8.279,-8.122,-1.82,2.041,396.1,413.4,409.3,405.1,401.0,410.0,400.2,414.7,407.7,404.0,0,norm,1.329,1.999,-1.208,-1.828,-4.994,-4.926,-1.998,-1.269,-1.88,-1.222,1.754,-1.118,412.4,409.6,-4.874,-7.614,1.614,-1.708,7.655,5.112,-5.288,-8.33,3,4.681,4.835,5.096,4.992,1.558,1.332,1.378,1.61,3,5.024,5.024,40,252.48609895,norm,0,12,12,12,205.435,205.446,205.451640517,205.452,205.454,205.457,down,1,1.36909049913,8.63090950087,001,330,1920_1200,Intel(R) Core(TM) i5-3570 CPU @ 3.40GHz,orientation_search,LEPPC096,Intel(R) HD Graphics 2500,2019_Jan_26_1138,testMonitor,
79.4,82.8,86.7,77.9,36,60,87.0,83.5,80.3,86.5,7.571,7.958,7.699,8.111,8.476,8.279,7.634,4.856,-4.823,-8.24,1.882,-1.136,7.655,4.807,-4.345,-8.332,59.7,96.3,-8.303,83.4,76.3,79.9,75.8,73.0,36,97.6,3,5,prime,10,0,98,norm,36,-5.205,down,norm,79.7147714297,84.3,93.9,73.7,64.8,0,99.7,71.6,80.5,10,6,7.524,5.035,1.136,-1.705,-5.052,-7.837,75.3,6,177.7,-8.151,-7.703,60,-8.441,-7.773,-4.312,-5.156,-4.332,-4.72,4.49,7.623,18,-1.913,1.956,4.994,7.597,-7.825,-7.595,-2.098,1.129,68.4,76.2,92.9,63.0,95.9,84.9,92.0,83.1,72.7,73.3,0,norm,1.823,1.976,-1.254,-1.914,-5.285,-5.202,-1.321,-1.79,-1.881,-1.21,1.585,-1.775,85.2,,-4.937,-8.423,1.628,-2.078,7.971,4.92,-5.114,-8.084,4,5.257,5.066,4.852,4.67,2.008,1.684,1.199,1.656,4,5.104,5.04,80,252.48609895,norm,0,13,13,13,206.868,206.877,206.885592262,206.886,206.887,206.89,up,0,2.16158624838,-10,001,330,1920_1200,Intel(R) Core(TM) i5-3570 CPU @ 3.40GHz,orientation_search,LEPPC096,Intel(R) HD Graphics 2500,2019_Jan_26_1138,testMonitor,
79.8,70.4,85.5,95.0,36,60,86.7,,77.0,77.4,7.796,8.14,7.607,8.199,7.781,7.538,7.55,5.226,-4.367,-8.42,1.877,-1.49,8.228,4.975,-5.015,-7.573,83.2,79.7,-8.261,74.6,89.8,74.6,72.9,78.1,36,99.7,4,5,prime,10,0,73,norm,36,-5.098,down,norm,79.7147714297,70.8,62.6,85.6,63.9,1,69.1,70.2,82.1,10,6,7.858,4.691,1.824,-1.262,-4.954,-8.278,89.2,6,152.7,-7.607,-8.27,60,-7.779,-8.479,-4.44,-4.922,-5.207,-5.017,4.36,7.681,25,-1.696,1.946,4.877,8.141,-8.087,-8.459,-1.796,1.739,87.6,80.8,80.2,78.6,85.9,59.7,78.4,69.4,75.4,70.9,1,norm,1.233,1.28,-1.843,-1.454,-5.071,-4.747,-1.861,-1.965,-1.408,-1.396,1.248,-1.476,77.9,80.5,-5.02,-7.669,1.55,-1.735,7.948,4.739,-4.319,-7.647,4,4.98,5.185,4.645,4.969,1.335,1.489,1.175,1.547,4,5.176,4.48,80,252.48609895,norm,0,14,14,14,210.103,210.113,210.127470722,210.128,210.129,210.132,down,1,1.01352239349,8.98647760651,001,330,1920_1200,Intel(R) Core(TM) i5-3570 CPU @ 3.40GHz,orientation_search,LEPPC096,Intel(R) HD Graphics 2500,2019_Jan_26_1138,testMonitor,
82.2,79.2,70.7,96.7,36,60,76.9,79.2,63.5,78.8,8.26,7.536,7.549,7.705,8.031,7.931,7.605,4.461,-4.314,-8.206,1.388,-1.955,7.97,5.024,-5.045,-7.705,77.8,88.2,-8.449,83.9,70.8,76.6,98.0,99.7,36,75.0,1,5,prime,10,0,100,norm,36,-5.088,down,norm,79.7147714297,79.4,81.0,92.4,96.1,2,90.4,75.0,82.4,10,6,8.282,4.787,1.351,-1.502,-4.519,-8.057,97.4,6,179.7,-8.375,-7.512,60,-8.087,-7.973,-4.594,-5.203,-4.527,-4.998,5.25,7.842,8,-1.284,1.694,4.835,8.327,-7.765,-8.453,-2.052,1.609,75.1,,75.7,59.7,73.1,75.4,79.2,74.7,72.0,98.4,2,norm,1.477,1.195,-2.096,-1.77,-4.715,-4.309,-1.883,-1.455,-1.794,-1.868,1.379,-1.37,93.1,74.8,-4.825,-7.503,1.269,-1.784,7.894,4.821,-4.319,-7.962,4,4.822,4.355,5.036,4.907,1.986,1.453,1.498,1.434,4,4.496,4.372,80,252.48609895,norm,0,15,15,15,211.189,211.198,211.207177654,211.207,211.209,211.212,down,1,1.39886608577,8.60113391423,001,330,1920_1200,Intel(R) Core(TM) i5-3570 CPU @ 3.40GHz,orientation_search,LEPPC096,Intel(R) HD Graphics 2500,2019_Jan_26_1138,testMonitor,
82.6,,71.9,72.9,36,60,77.7,82.9,84.5,61.4,7.903,7.971,8.002,8.238,8.457,8.196,7.57,4.426,-4.988,-8.415,1.142,-1.297,8.47,5.043,-5.009,-7.762,89.0,64.5,-7.638,90.8,68.8,81.7,76.0,65.8,36,79.2,3,5,prime,10,0,116,norm,36,-4.564,up,norm,79.7147714297,82.2,78.2,96.2,74.9,5,94.6,87.6,75.3,10,6,8.317,4.863,1.539,-1.664,-5.007,-7.786,92.9,6,195.7,-8.352,-7.954,60,-8.497,-7.75,-4.342,-4.603,-4.323,-4.414,5.04,7.894,23,-1.305,2.094,5.017,7.941,-7.7,-8.261,-1.388,1.956,90.4,82.7,68.8,90.9,86.0,59.7,99.7,76.4,86.4,78.6,3,norm,1.397,1.997,-1.563,-1.686,-4.444,-4.579,-1.255,-1.574,-2.041,-1.919,1.21,-1.592,84.7,61.8,-5.126,-8.187,1.804,-1.884,8.471,4.919,-4.485,-7.997,4,4.789,5.237,4.307,4.457,1.756,1.21,1.765,1.362,4,4.363,4.407,80,252.48609895,norm,0,16,16,16,212.643,212.653,212.670047139,212.67,212.672,212.675,up,1,2.57421861912,7.42578138088,001,330,1920_1200,Intel(R) Core(TM) i5-3570 CPU @ 3.40GHz,orientation_search,LEPPC096,Intel(R) HD Graphics 2500,2019_Jan_26_1138,testMonitor,
72.0,66.9,77.0,83.1,36,60,70.2,99.7,77.4,86.4,8.468,7.949,7.501,7.982,7.587,8.202,8.383,4.324,-4.631,-7.938,1.573,-1.791,8.104,5.041,-4.517,-8.133,95.9,89.5,-7.815,77.5,88.2,86.7,84.8,83.5,36,95.8,0,5,prime,10,0,77,norm,36,-5.006,down,norm,79.7147714297,82.1,80.6,70.0,99.4,2,78.3,87.2,78.1,10,6,8.349,4.784,1.319,-1.807,-4.88,-8.211,81.3,6,156.7,-7.507,-8.057,60,-8.414,-7.933,-4.736,-5.041,-4.827,-5.119,4.932,8.318,2,-1.964,1.866,5.162,7.904,-7.661,-8.052,-1.952,1.571,71.3,82.8,59.7,,78.3,83.5,78.9,98.7,72.8,66.1,4,norm,1.93,1.888,-1.54,-2.084,-4.514,-4.921,-1.27,-1.462,-1.28,-1.762,1.243,-1.139,88.3,71.9,-5.052,-7.692,1.758,-1.102,7.739,4.553,-4.67,-7.982,4,5.205,4.556,4.74,4.97,1.943,1.314,1.857,1.187,4,5.11,5.153,80,252.48609895,norm,0,17,17,17,215.291,215.303,215.307624114,215.308,215.31,215.313,down,1,3.21516600467,6.78483399533,001,330,1920_1200,Intel(R) Core(TM) i5-3570 CPU @ 3.40GHz,orientation_search,LEPPC096,Intel(R) HD Graphics 2500,2019_Jan_26_1138,testMonitor,
84.1,94.5,88.8,82.1,36,60,79.4,71.7,91.1,85.5,8.022,8.084,7.965,7.826,8.151,7.743,8.191,4.791,-5.007,-7.666,1.273,-1.422,8.008,4.877,-4.844,-7.739,81.8,85.7,-8.078,75.0,75.3,83.0,66.3,67.7,36,70.1,0,5,prime,10,0,83,norm,36,-5.132,down,norm,79.7147714297,72.9,75.4,71.4,65.4,2,72.1,89.6,59.7,10,6,8.332,5.005,1.395,-1.575,-4.34,-7.859,72.8,6,162.7,-8.012,-8.249,60,-7.735,-8.07,-4.528,-4.96,-5.1,-4.794,4.577,8.065,2,-1.312,1.86,4.878,8.041,-7.594,-8.176,-1.741,1.339,95.1,99.7,88.8,,91.1,72.5,78.7,85.9,74.5,82.5,5,norm,1.109,1.704,-1.472,-1.63,-4.645,-4.709,-1.626,-2.078,-1.454,-1.466,1.557,-1.521,67.5,81.4,-5.101,-7.802,1.144,-1.193,7.64,4.375,-5.1,-8.225,4,4.433,4.332,4.337,4.434,1.69,1.467,1.93,1.313,4,4.74,5.097,80,252.48609895,norm,0,18,18,18,218.567,218.577,218.583449972,218.584,218.585,218.588,up,0,4.08529530639,-10,001,330,1920_1200,Intel(R) Core(TM) i5-3570 CPU @ 3.40GHz,orientation_search,LEPPC096,Intel(R) HD Graphics 2500,2019_Jan_26_1138,testMonitor,
217.2,209.4,210.8,216.2,36,20,216.6,217.7,217.5,221.1,7.73,8.101,8.112,8.432,7.836,7.875,7.892,4.805,-4.309,-8.371,2.092,-1.411,7.857,5.132,-5.037,-7.71,225.1,212.7,-7.832,222.5,218.2,224.3,220.5,221.5,36,213.7,1,5,probe,5,0,75,norm,36,-4.792,up,norm,219.382961817,220.5,214.8,218.8,212.5,3,217.5,210.4,214.0,10,6,8.001,4.634,1.836,-1.368,-4.74,-7.569,216.3,1,144.4,-8.498,-8.482,60,-8.079,-8.186,-4.737,-4.946,-4.545,-5.161,4.917,8.098,9,-1.428,1.273,4.496,8.478,-8.328,-8.277,-2.068,2.015,,222.8,216.3,223.1,219.6,222.8,214.3,218.7,212.7,229.4,0,norm,2.039,1.711,-1.192,-2.08,-5.035,-4.466,-1.752,-1.687,-1.44,-1.261,1.958,-1.344,214.3,216.9,-4.737,-7.512,2.064,-1.577,7.902,4.841,-5.059,-7.609,5,4.474,5.217,4.883,4.44,1.24,1.319,1.454,1.267,5,4.573,5.038,60,79.7147714297,norm,0,19,19,19,223.741,223.75,223.761268586,223.761,223.763,223.766,up,1,0.911724871105,9.0882751289,001,330,1920_1200,Intel(R) Core(TM) i5-3570 CPU @ 3.40GHz,orientation_search,LEPPC096,Intel(R) HD Graphics 2500,2019_Jan_26_1138,testMonitor,
61.4,65.5,58.2,66.3,36,-20,50.7,37.7,56.6,51.0,7.93,7.568,8.018,8.157,8.234,7.861,7.881,5.135,-4.485,-7.622,1.92,-1.789,8.303,5.167,-4.94,-8.287,63.5,49.7,-7.85,42.9,50.4,56.3,49.7,52.5,36,77.7,0,5,prime,10,0,88,norm,36,-4.379,down,norm,57.669544547,41.8,51.9,61.9,55.2,2,51.2,72.3,42.1,10,6,8.296,5.206,1.79,-1.798,-4.705,-7.717,60.7,6,145.7,-8.263,-8.454,-20,-8.484,-8.115,-4.52,-5.002,-4.739,-5.202,4.349,8.182,2,-1.247,2.025,4.327,8.33,-7.894,-7.718,-1.175,1.215,54.9,66.9,53.3,,51.3,56.0,59.7,54.8,76.3,61.3,0,norm,1.487,1.884,-1.501,-1.39,-4.511,-4.781,-1.843,-1.562,-1.83,-1.674,1.411,-1.125,64.6,64.9,-4.852,-7.722,2.015,-1.962,8.414,5.241,-5.021,-7.705,6,4.306,4.457,4.907,4.5,2.009,1.775,1.302,1.463,6,4.365,4.746,20,79.7147714297,norm,0,20,20,20,224.711,224.721,224.728318184,224.729,224.73,224.733,down,1,1.01622602702,8.98377397298,001,330,1920_1200,Intel(R) Core(TM) i5-3570 CPU @ 3.40GHz,orientation_search,LEPPC096,Intel(R) HD Graphics 2500,2019_Jan_26_1138,testMonitor,
60.4,64.0,49.1,64.6,36,-20,56.8,58.0,46.1,58.4,8.065,7.887,7.881,7.522,7.561,8.207,7.825,4.88,-4.501,-8.301,1.895,-1.87,8.087,4.857,-4.572,-7.629,47.6,,-8.31,57.6,64.8,52.8,52.2,58.6,36,62.4,5,5,prime,10,0,92,norm,36,-4.708,up,norm,57.669544547,55.4,45.4,68.5,68.6,4,69.5,76.2,73.3,10,6,7.894,4.493,1.591,-1.757,-4.467,-7.863,51.5,6,149.7,-7.993,-7.585,-20,-7.855,-8.069,-4.805,-5.245,-5.05,-4.769,5.22,8.026,34,-1.918,1.767,4.583,8.091,-8.171,-7.808,-1.709,1.872,42.7,67.3,77.3,62.5,59.6,63.9,50.2,56.8,49.1,37.7,1,norm,1.269,1.919,-1.274,-1.575,-4.562,-5.206,-1.921,-1.336,-2.002,-1.191,1.887,-1.701,60.7,77.7,-4.598,-7.661,1.98,-1.921,7.704,4.552,-4.935,-8.157,6,4.43,4.78,4.411,4.592,1.547,2.067,1.199,1.35,6,4.447,4.938,20,79.7147714297,norm,0,21,21,21,225.79,225.799,225.805973771,225.806,225.808,225.81,up,1,0.910987159778,9.08901284022,001,330,1920_1200,Intel(R) Core(TM) i5-3570 CPU @ 3.40GHz,orientation_search,LEPPC096,Intel(R) HD Graphics 2500,2019_Jan_26_1138,testMonitor,
62.8,54.9,44.9,72.1,36,-20,71.3,56.8,62.9,43.9,7.843,8.461,7.75,8.092,7.795,8.274,8.014,4.891,-5.232,-7.584,1.14,-1.486,8.435,4.404,-5.096,-7.603,59.5,55.7,-8.036,64.0,42.4,50.8,51.5,63.3,36,77.7,2,5,prime,10,0,74,norm,36,-4.381,down,norm,57.669544547,45.9,51.7,47.2,50.7,0,49.5,47.3,,10,6,7.733,4.979,1.306,-1.721,-4.395,-8.497,54.2,6,131.7,-8.172,-8.11,-20,-8.363,-7.681,-4.854,-4.687,-4.798,-4.432,5.002,8.459,12,-1.352,1.919,4.546,7.6,-7.812,-8.051,-1.266,1.859,42.3,37.7,55.7,51.6,70.6,69.7,53.2,51.9,54.1,71.6,2,norm,2.048,1.291,-1.163,-1.964,-4.818,-4.349,-1.176,-1.22,-1.774,-1.882,1.384,-1.989,45.9,49.3,-4.769,-7.588,1.51,-1.412,8.297,4.826,-5.057,-7.665,6,4.397,5.126,5.236,4.968,1.954,2.021,1.901,1.507,6,4.786,4.848,20,79.7147714297,norm,0,22,22,22,226.757,226.766,226.773050536,226.773,226.775,226.777,down,1,0.948646960759,9.05135303924,001,330,1920_1200,Intel(R) Core(TM) i5-3570 CPU @ 3.40GHz,orientation_search,LEPPC096,Intel(R) HD Graphics 2500,2019_Jan_26_1138,testMonitor,
69.6,70.1,60.0,45.3,36,-20,39.9,52.3,47.8,58.5,7.798,8.103,7.603,8.289,7.889,8.129,8.058,4.727,-4.686,-8.118,1.404,-1.551,7.523,4.508,-5.146,-7.941,56.0,68.4,-8.287,76.0,69.6,55.5,,53.4,36,59.3,5,5,prime,10,0,116,norm,36,-5.213,down,norm,57.669544547,77.7,59.5,62.2,65.1,2,48.7,47.8,51.8,10,6,7.663,4.443,1.805,-1.591,-4.631,-7.566,74.7,6,173.7,-8.035,-8.447,-20,-8.292,-7.841,-5.193,-4.891,-4.701,-4.476,4.377,8.462,32,-1.243,1.579,4.34,7.764,-8.32,-7.725,-1.208,1.577,62.0,51.2,57.1,64.3,37.7,73.9,73.3,51.9,63.2,61.3,3,norm,1.333,2.035,-1.417,-1.227,-4.525,-5.164,-1.414,-1.174,-1.99,-1.319,2.047,-1.649,58.8,46.6,-5.159,-8.205,1.812,-1.658,8.292,4.802,-5.243,-8.253,6,5.182,5.121,5.2,5.278,1.436,1.703,1.132,1.935,6,5.048,4.646,20,79.7147714297,norm,0,23,23,23,227.759,227.769,227.785753116,227.786,227.788,227.79,down,1,1.55076730731,8.44923269269,001,330,1920_1200,Intel(R) Core(TM) i5-3570 CPU @ 3.40GHz,orientation_search,LEPPC096,Intel(R) HD Graphics 2500,2019_Jan_26_1138,testMonitor,
60.7,63.4,,77.7,36,-20,56.5,60.9,70.4,75.4,8.208,8.271,7.587,7.534,8.372,8.313,7.633,4.568,-4.767,-7.747,1.677,-1.125,7.824,4.841,-5.209,-7.653,62.6,56.0,-8.009,56.2,54.9,65.5,44.3,38.4,36,65.1,3,5,prime,10,0,75,norm,36,-4.713,down,norm,57.669544547,52.1,57.2,59.3,50.0,2,59.8,45.9,58.2,10,6,8.134,4.419,1.361,-2.072,-4.399,-7.659,68.0,6,132.7,-7.976,-8.492,-20,-7.796,-8.423,-4.563,-4.446,-5.297,-5.2,4.406,8.007,20,-1.387,1.625,4.418,8.318,-8.216,-8.198,-1.941,1.935,39.8,53.5,51.9,48.3,64.9,37.7,50.9,57.6,40.6,60.4,4,norm,1.462,2.008,-1.317,-1.773,-5.025,-5.28,-1.679,-1.43,-1.217,-1.211,1.144,-1.804,60.5,63.0,-5.263,-7.601,1.265,-2.033,7.864,5.229,-5.075,-7.919,6,4.488,4.843,4.393,5.2,1.676,1.672,1.275,1.507,6,4.677,4.681,20,79.7147714297,norm,0,24,24,24,229.378,229.397,229.410825521,229.411,229.413,229.416,down,1,0.979642004751,9.02035799525,001,330,1920_1200,Intel(R) Core(TM) i5-3570 CPU @ 3.40GHz,orientation_search,LEPPC096,Intel(R) HD Graphics 2500,2019_Jan_26_1138,testMonitor,
49.8,48.3,64.0,40.9,36,-20,47.4,55.1,62.7,65.9,7.886,8.341,8.338,7.872,8.033,8.254,8.183,4.673,-4.591,-8.374,1.713,-1.556,7.647,4.572,-4.541,-7.814,77.7,39.9,-7.991,46.0,55.9,55.2,50.8,65.0,36,57.7,0,5,prime,10,0,88,norm,36,-4.313,down,norm,57.669544547,50.2,43.1,64.4,57.5,1,48.9,72.0,57.0,10,6,7.911,5.026,1.574,-1.82,-4.308,-8.407,63.3,6,145.7,-7.92,-8.236,-20,-7.704,-8.09,-4.428,-5.235,-4.776,-4.874,4.564,8.123,1,-1.413,1.105,4.937,7.523,-7.532,-7.65,-1.991,1.47,60.8,53.9,53.4,64.0,,52.4,73.5,37.7,55.4,44.4,5,norm,1.361,1.911,-1.147,-1.63,-4.474,-5.089,-1.931,-1.398,-1.379,-1.476,1.541,-1.504,55.1,44.1,-4.858,-8.43,1.476,-1.267,8.042,4.406,-4.581,-8.28,6,5.229,4.95,4.521,4.869,1.156,1.551,1.312,1.372,6,4.569,5.124,20,79.7147714297,norm,0,25,25,25,230.438,230.448,230.45450594,230.455,230.456,230.459,down,1,1.51693521391,8.48306478609,001,330,1920_1200,Intel(R) Core(TM) i5-3570 CPU @ 3.40GHz,orientation_search,LEPPC096,Intel(R) HD Graphics 2500,2019_Jan_26_1138,testMonitor,
122.3,,123.4,120.3,36,-80,113.6,114.9,121.5,121.7,8.2,7.664,7.635,7.913,8.398,8.272,7.612,5.167,-4.49,-7.931,1.108,-1.417,8.204,4.583,-4.913,-7.6,118.0,114.6,-7.785,112.5,120.1,124.0,115.6,123.1,36,122.3,3,5,probe,5,0,86,norm,36,-5.012,up,norm,118.990594639,115.2,113.4,116.7,124.1,5,110.2,114.4,117.6,10,6,8.098,4.693,1.264,-1.821,-4.573,-7.585,123.1,2,33.0,-7.615,-8.268,-20,-7.59,-8.365,-4.366,-4.447,-5.049,-4.877,5.041,7.502,23,-1.423,1.441,5.07,7.965,-8.233,-8.471,-1.727,1.917,118.2,121.9,124.5,118.1,129.0,124.3,109.0,111.9,121.8,119.8,0,norm,1.861,1.668,-2.039,-1.38,-4.659,-4.77,-1.277,-1.827,-1.913,-2.061,1.196,-1.944,118.2,118.7,-4.54,-8.153,1.945,-1.427,7.651,5.06,-4.42,-8.288,7,5.244,4.752,4.511,4.577,1.301,1.675,1.608,2.038,7,4.476,4.72,-20,57.669544547,norm,0,26,26,26,232.009,232.019,232.028909289,232.029,232.031,232.033,up,1,1.54243756846,8.45756243154,001,330,1920_1200,Intel(R) Core(TM) i5-3570 CPU @ 3.40GHz,orientation_search,LEPPC096,Intel(R) HD Graphics 2500,2019_Jan_26_1138,testMonitor,
143.3,151.4,154.9,144.7,36,-80,148.9,156.4,150.3,152.8,8.045,8.149,7.886,7.867,7.902,7.621,8.132,5.255,-4.536,-7.628,1.482,-1.828,8.029,4.749,-4.955,-7.979,153.3,146.2,-8.355,152.2,,150.8,148.4,152.7,36,146.7,5,5,probe,5,0,117,norm,36,-5.19,down,norm,149.990594639,147.8,154.0,147.5,154.9,0,152.6,146.7,149.6,10,6,8.009,5.188,1.214,-2.004,-5.232,-7.533,149.8,2,33.0,-7.63,-7.62,-20,-7.576,-8.346,-4.719,-4.673,-4.699,-4.946,5.214,7.546,30,-1.625,1.514,4.479,8.435,-7.766,-7.935,-1.365,1.205,150.2,146.5,140.0,160.0,152.2,154.1,144.0,144.8,153.2,140.9,1,norm,1.961,2.068,-1.101,-2.06,-5.276,-4.317,-1.486,-1.401,-1.68,-1.46,1.373,-1.889,150.3,145.3,-5.245,-8.113,1.572,-1.186,8.26,5.152,-5.263,-8.223,7,4.92,4.932,4.952,5.287,2.006,1.581,1.738,1.633,7,4.89,5.08,-20,57.669544547,norm,0,27,27,27,233.609,233.619,233.635428737,233.636,233.637,233.64,down,1,1.0150521484,8.9849478516,001,330,1920_1200,Intel(R) Core(TM) i5-3570 CPU @ 3.40GHz,orientation_search,LEPPC096,Intel(R) HD Graphics 2500,2019_Jan_26_1138,testMonitor,
339.2,336.1,356.9,337.8,36,-30,338.4,342.2,338.6,331.0,7.958,8.478,7.986,8.167,8.226,8.016,7.564,4.485,-4.563,-8.42,2.031,-1.339,8.363,4.901,-4.507,-7.885,337.6,349.9,-8.06,333.9,324.3,338.2,331.0,332.9,36,340.8,3,5,prime,10,0,97,norm,36,-4.508,down,norm,344.238846582,357.6,348.3,330.8,324.2,1,345.1,337.3,337.7,10,6,8.299,4.686,1.995,-1.348,-4.324,-7.516,356.4,6,441.2,-8.338,-8.1,-30,-7.928,-8.318,-5.075,-5.117,-5.062,-4.781,4.747,7.788,19,-2.089,1.739,5.027,8.054,-7.964,-7.747,-2.097,1.874,364.2,358.7,331.9,336.4,328.2,338.0,341.7,339.2,339.3,345.5,0,norm,1.486,1.138,-1.755,-1.275,-5.171,-5.063,-1.879,-1.678,-1.293,-1.976,1.834,-1.248,,354.3,-4.435,-7.727,1.557,-1.683,8.442,4.876,-4.692,-8.435,8,4.56,5.213,5.039,4.673,1.943,1.197,1.516,2.054,8,5.144,4.695,-80,57.669544547,norm,0,28,28,28,234.697,234.707,234.715296251,234.715,234.717,234.72,down,1,1.12074589739,8.87925410261,001,330,1920_1200,Intel(R) Core(TM) i5-3570 CPU @ 3.40GHz,orientation_search,LEPPC096,Intel(R) HD Graphics 2500,2019_Jan_26_1138,testMonitor,
335.0,354.2,333.7,346.8,36,-30,341.9,345.2,354.5,331.3,7.744,8.137,7.647,7.771,8.238,7.805,8.383,5.262,-5.214,-8.273,1.886,-1.525,8.137,4.356,-4.85,-7.923,339.7,326.8,-7.553,361.0,355.2,,325.0,352.5,36,343.3,5,5,prime,10,0,98,norm,36,-5.192,up,norm,344.238846582,324.2,353.2,340.1,364.2,3,334.1,347.6,355.4,10,6,8.114,4.708,1.971,-1.774,-4.689,-7.837,335.9,6,442.2,-8.475,-7.755,-30,-8.318,-7.634,-4.933,-4.336,-4.534,-4.697,4.727,8.306,33,-1.119,1.589,4.935,8.147,-7.591,-8.428,-1.439,1.372,361.4,352.1,337.1,329.5,337.6,344.0,346.7,327.3,348.7,351.7,1,norm,1.416,2.083,-1.522,-1.314,-4.941,-5.032,-1.381,-1.6,-1.16,-1.833,1.466,-1.817,342.6,331.9,-4.865,-8.188,1.877,-1.513,8.022,5.273,-5.15,-7.928,8,5.063,5.104,4.51,4.788,1.178,1.486,1.339,2.045,8,4.488,5.107,-80,57.669544547,norm,0,29,29,29,235.874,235.888,235.906805085,235.907,235.909,235.912,up,1,1.29306035197,8.70693964803,001,330,1920_1200,Intel(R) Core(TM) i5-3570 CPU @ 3.40GHz,orientation_search,LEPPC096,Intel(R) HD Graphics 2500,2019_Jan_26_1138,testMonitor,
351.8,351.4,336.6,332.0,36,-30,334.4,348.7,339.0,331.4,8.04,7.898,7.865,7.587,7.617,8.39,8.025,4.808,-4.717,-8.182,1.637,-1.553,7.596,4.916,-4.602,-8.183,356.1,354.2,-8.099,334.8,327.7,350.1,344.9,350.5,36,353.0,2,5,prime,10,0,84,norm,36,-4.605,up,norm,344.238846582,342.7,334.3,,350.4,3,324.2,333.7,347.4,10,6,7.933,5.183,1.327,-1.503,-5.058,-7.573,353.7,6,428.2,-8.129,-7.68,-30,-7.945,-8.06,-4.458,-4.666,-4.568,-4.959,4.877,7.589,15,-1.578,2.016,4.717,7.64,-8.321,-7.817,-1.155,1.644,346.1,346.6,359.1,357.8,338.2,349.7,330.7,339.3,342.6,346.1,2,norm,1.565,1.747,-1.801,-2.08,-4.595,-5.042,-1.346,-1.631,-1.582,-1.94,1.186,-1.534,332.5,332.9,-4.628,-8.222,1.322,-1.201,7.928,5.166,-4.72,-8.298,8,5.149,4.628,4.941,4.803,1.37,1.415,1.915,1.316,8,4.428,5.045,-80,57.669544547,norm,0,30,30,30,237.239,237.248,237.255100516,237.255,237.257,237.26,up,1,0.877993594227,9.12200640577,001,330,1920_1200,Intel(R) Core(TM) i5-3570 CPU @ 3.40GHz,orientation_search,LEPPC096,Intel(R) HD Graphics 2500,2019_Jan_26_1138,testMonitor,
338.1,346.2,342.8,344.8,36,-30,353.4,356.3,351.2,345.3,7.951,7.962,8.434,7.588,7.986,7.586,7.758,5.007,-5.123,-7.979,1.795,-1.714,8.222,4.717,-4.736,-8.027,356.1,336.1,-7.955,332.6,349.3,346.6,336.6,356.1,36,355.4,0,5,prime,10,0,66,norm,36,-4.88,up,norm,344.238846582,349.7,330.2,343.9,348.9,4,333.3,334.1,334.0,10,6,7.96,5.286,1.594,-1.154,-5.291,-8.241,364.2,6,410.2,-8.059,-7.562,-30,-8.125,-8.016,-4.506,-4.347,-4.807,-4.816,4.933,8.083,4,-1.174,1.362,4.96,8.329,-7.715,-7.536,-1.397,1.898,351.3,360.4,337.4,348.6,340.2,343.9,341.9,328.3,356.7,,3,norm,1.352,1.495,-1.869,-1.649,-4.96,-4.542,-1.533,-1.349,-1.563,-1.121,1.837,-1.402,324.2,348.9,-5.128,-8.204,2.086,-1.246,8.415,4.335,-5.203,-7.779,8,4.984,4.456,4.92,4.31,1.257,1.758,1.887,1.894,8,4.697,4.637,-80,57.669544547,norm,0,31,31,31,238.171,238.18,238.190542927,238.191,238.192,238.195,up,1,1.18656942802,8.81343057198,001,330,1920_1200,Intel(R) Core(TM) i5-3570 CPU @ 3.40GHz,orientation_search,LEPPC096,Intel(R) HD Graphics 2500,2019_Jan_26_1138,testMonitor,
363.5,326.5,335.7,,36,-30,346.2,347.2,344.0,351.0,7.799,8.314,7.711,7.592,8.476,7.969,8.245,5.186,-5.021,-8.151,1.92,-1.576,7.737,4.767,-5.242,-8.327,364.2,338.8,-7.513,358.2,328.3,347.1,347.6,351.1,36,329.7,3,5,prime,10,0,64,norm,36,-5.022,up,norm,344.238846582,334.1,346.6,346.4,342.2,3,340.8,329.8,338.7,10,6,8.051,4.825,1.436,-1.403,-5.097,-8.061,344.5,6,408.2,-8.074,-7.967,-30,-7.736,-7.572,-4.457,-4.371,-4.355,-4.54,4.637,7.855,21,-1.692,1.738,4.445,8.402,-7.761,-7.814,-1.287,1.9,324.2,347.3,349.8,355.6,326.3,349.4,359.6,345.7,341.2,347.2,4,norm,1.27,1.756,-1.282,-1.345,-4.794,-4.891,-1.925,-1.892,-1.434,-1.793,1.743,-1.896,343.3,336.9,-4.939,-8.312,1.438,-1.79,7.52,4.641,-4.362,-7.526,8,5.071,4.891,5.051,4.457,1.743,1.973,1.49,1.188,8,5.196,4.413,-80,57.669544547,norm,0,32,32,32,239.424,239.448,239.456725413,239.457,239.459,239.461,up,1,1.16962380043,8.83037619957,001,330,1920_1200,Intel(R) Core(TM) i5-3570 CPU @ 3.40GHz,orientation_search,LEPPC096,Intel(R) HD Graphics 2500,2019_Jan_26_1138,testMonitor,
347.4,359.9,336.8,334.1,36,-30,330.6,349.7,358.8,346.7,8.267,7.666,8.2,8.241,8.35,8.34,8.07,5.1,-4.571,-7.76,1.21,-1.892,8.062,4.883,-4.948,-8.485,355.8,333.5,-8.271,324.2,352.3,340.3,347.5,334.4,36,353.9,0,5,prime,10,0,107,norm,36,-4.507,down,norm,344.238846582,364.2,363.6,336.1,329.9,2,348.9,351.2,346.7,10,6,8.051,4.844,1.483,-1.924,-4.809,-7.754,353.9,6,451.2,-7.965,-8.472,-30,-7.61,-8.233,-5.025,-5.285,-4.619,-5.253,5.198,8.367,2,-1.457,1.981,4.492,7.76,-7.898,-8.484,-1.479,1.284,330.8,354.2,352.2,,363.9,339.0,337.4,336.8,339.0,361.3,5,norm,1.158,1.405,-2.06,-1.735,-5.129,-4.516,-1.464,-2.054,-1.48,-1.51,1.945,-1.684,341.3,342.2,-5.283,-7.646,1.521,-1.526,8.333,4.867,-5.188,-7.765,8,5.163,4.848,4.833,5.134,1.407,1.752,1.449,1.517,8,4.784,4.497,-80,57.669544547,norm,0,33,33,33,240.672,240.681,240.687709953,240.688,240.69,240.692,down,1,0.860256526737,9.13974347326,001,330,1920_1200,Intel(R) Core(TM) i5-3570 CPU @ 3.40GHz,orientation_search,LEPPC096,Intel(R) HD Graphics 2500,2019_Jan_26_1138,testMonitor,
399.7,389.9,384.8,389.3,36,-30,392.3,,393.7,383.7,7.64,7.672,8.15,8.251,7.505,8.306,7.9,5.22,-4.95,-7.92,1.73,-1.162,7.663,4.367,-5.138,-8.404,393.4,385.6,-8.44,380.8,391.3,395.1,395.4,392.0,36,387.1,4,5,probe,5,0,74,norm,36,-5.099,down,norm,389.700041707,389.9,391.3,379.7,387.4,1,384.4,388.2,387.0,10,6,7.509,4.87,1.413,-1.509,-4.937,-7.535,386.9,1,315.7,-7.624,-7.793,-30,-8.104,-8.373,-4.552,-4.984,-4.525,-5.054,4.37,7.806,25,-1.494,1.831,4.555,7.981,-7.729,-8.442,-1.217,1.615,389.4,389.1,389.8,387.9,397.8,383.9,389.6,391.9,393.8,394.1,0,norm,1.279,2.075,-1.999,-1.699,-4.915,-4.809,-1.459,-1.213,-1.176,-1.519,1.656,-1.281,388.2,386.4,-5.121,-7.587,2.027,-2.038,7.879,4.643,-5.072,-8.004,9,4.491,4.958,4.966,4.46,1.692,1.862,1.322,1.25,9,5.073,4.698,-30,344.238846582,norm,0,34,34,34,241.586,241.596,241.606676408,241.607,241.609,241.611,down,1,0.89566153901,9.10433846099,001,330,1920_1200,Intel(R) Core(TM) i5-3570 CPU @ 3.40GHz,orientation_search,LEPPC096,Intel(R) HD Graphics 2500,2019_Jan_26_1138,testMonitor,
162.0,160.3,145.2,160.9,36,0,156.4,160.1,135.7,134.8,7.901,7.632,8.271,8.423,8.166,7.837,7.609,4.771,-4.921,-8.453,1.774,-1.686,8.291,4.91,-4.655,-8.352,170.4,139.4,-7.531,153.8,148.6,162.9,154.6,161.0,36,133.9,0,5,prime,10,0,80,norm,36,-4.502,down,norm,150.425864187,156.6,135.9,142.0,151.9,1,166.9,161.2,147.8,10,6,7.975,4.564,1.805,-1.929,-4.755,-7.536,145.8,6,230.4,-8.394,-8.124,0,-8.36,-8.35,-4.64,-4.589,-4.995,-4.56,4.696,7.979,1,-1.293,1.817,4.871,8.244,-8.342,-7.521,-1.193,1.798,134.6,156.4,158.3,130.4,,161.6,154.8,153.8,152.2,154.3,0,norm,1.992,1.78,-2.097,-1.989,-4.472,-4.549,-1.111,-2.043,-1.54,-1.582,1.309,-1.727,131.0,139.6,-4.911,-8.266,2.076,-1.29,8.426,5.218,-5.047,-7.762,10,4.579,5.278,4.984,5.212,1.103,2.033,1.835,1.128,10,4.364,4.926,-30,344.238846582,norm,0,35,35,35,242.54,242.55,242.558229541,242.558,242.56,242.563,down,1,3.02868199903,6.97131800097,001,330,1920_1200,Intel(R) Core(TM) i5-3570 CPU @ 3.40GHz,orientation_search,LEPPC096,Intel(R) HD Graphics 2500,2019_Jan_26_1138,testMonitor,
141.2,130.4,149.3,160.5,36,0,153.6,138.7,,160.3,7.674,8.356,7.968,8.319,8.233,8.258,7.644,4.714,-4.876,-8.196,1.335,-2.033,8.351,5.192,-5.017,-8.186,153.8,141.8,-7.754,131.4,147.0,159.7,148.2,155.3,36,148.0,4,5,prime,10,0,72,norm,36,-4.691,up,norm,150.425864187,153.1,133.4,157.4,143.2,4,160.3,146.2,162.6,10,6,8.272,4.358,1.827,-1.255,-4.494,-7.637,148.4,6,222.4,-8.244,-7.599,0,-7.92,-8.067,-4.537,-5.033,-5.119,-4.731,5.206,7.605,28,-1.445,1.463,5.018,8.395,-8.352,-7.574,-1.464,1.771,157.3,152.1,152.0,163.1,147.7,158.6,156.9,170.4,165.4,146.8,1,norm,1.654,1.28,-1.506,-1.166,-5.286,-4.767,-1.748,-1.687,-1.742,-1.637,1.836,-1.611,156.2,144.9,-5.222,-7.74,1.416,-2.023,7.59,4.667,-4.388,-7.533,10,4.989,4.708,4.519,4.987,1.768,1.837,2.036,1.172,10,5.076,4.803,-30,344.238846582,norm,0,36,36,36,245.633,245.655,245.665109846,245.665,245.667,245.67,up,1,0.91333401148,9.08666598852,001,330,1920_1200,Intel(R) Core(TM) i5-3570 CPU @ 3.40GHz,orientation_search,LEPPC096,Intel(R) HD Graphics 2500,2019_Jan_26_1138,testMonitor,
158.4,155.4,145.7,148.4,36,0,151.5,145.5,152.8,160.8,8.203,7.688,7.905,8.134,7.69,7.689,7.578,4.55,-4.654,-8.287,1.807,-1.675,8.136,5.22,-4.758,-8.027,152.8,166.5,-7.556,149.8,151.8,145.4,159.5,160.1,36,143.3,3,5,prime,10,0,82,norm,36,-4.321,down,norm,150.425864187,156.4,170.4,152.0,145.0,0,142.7,148.2,137.3,10,6,7.987,4.523,2.048,-1.656,-4.956,-8.004,158.6,6,232.4,-8.292,-7.609,0,-8.282,-8.337,-4.727,-4.596,-5.147,-4.466,5.178,8.476,18,-2.096,1.157,4.985,7.838,-7.737,-7.868,-1.477,1.24,142.3,158.9,153.1,140.9,165.0,136.1,140.6,146.7,130.4,150.5,2,norm,1.413,1.538,-1.252,-2.075,-4.395,-4.496,-1.573,-1.742,-1.893,-1.572,1.979,-1.622,158.4,,-5.248,-8.171,2.021,-2.084,8.235,5.001,-5.255,-7.703,10,5.233,5.221,4.889,5.153,1.502,1.755,1.937,1.269,10,5.133,4.454,-30,344.238846582,norm,0,37,37,37,246.6,246.612,246.616747194,246.617,246.619,246.622,down,1,1.04972548627,8.95027451373,001,330,1920_1200,Intel(R) Core(TM) i5-3570 CPU @ 3.40GHz,orientation_search,LEPPC096,Intel(R) HD Graphics 2500,2019_Jan_26_1138,testMonitor,
142.2,155.7,144.6,156.0,36,0,130.4,150.9,170.4,161.1,7.866,8.444,7.598,7.594,8.39,8.378,7.726,4.325,-5.195,-8.195,1.248,-1.574,8.303,5.262,-4.939,-8.438,146.0,143.7,-7.531,139.8,153.5,169.0,155.0,163.6,36,141.2,2,5,prime,10,0,70,norm,36,-4.871,up,norm,150.425864187,142.6,156.1,,154.4,3,152.7,162.2,140.3,10,6,7.935,4.526,1.523,-1.44,-4.719,-7.578,140.3,6,220.4,-8.463,-8.104,0,-7.999,-7.615,-4.869,-5.085,-5.087,-4.452,4.918,8.205,15,-1.894,1.114,5.013,8.348,-7.536,-7.952,-1.533,1.886,142.8,151.6,142.3,164.9,150.1,157.3,158.4,144.3,142.7,150.6,3,norm,1.594,2.022,-1.373,-1.596,-4.757,-5.067,-1.287,-1.551,-1.528,-1.21,1.845,-1.792,142.6,166.7,-4.569,-7.59,1.499,-1.275,8.148,4.621,-4.394,-8.144,10,4.457,4.883,4.75,4.628,1.351,1.372,1.325,2.099,10,4.964,4.462,-30,344.238846582,norm,0,38,38,38,247.691,247.701,247.707265642,247.707,247.709,247.712,up,1,0.981195907332,9.01880409267,001,330,1920_1200,Intel(R) Core(TM) i5-3570 CPU @ 3.40GHz,orientation_search,LEPPC096,Intel(R) HD Graphics 2500,2019_Jan_26_1138,testMonitor,
142.4,138.4,154.6,142.6,36,0,143.2,163.0,140.3,144.0,7.934,8.069,7.563,7.708,8.224,8.165,8.455,4.535,-4.524,-7.745,1.179,-1.842,8.366,4.997,-4.345,-7.59,148.5,154.0,-7.753,157.7,130.4,164.8,146.1,157.5,36,158.5,0,5,prime,10,0,81,norm,36,-4.885,up,norm,150.425864187,157.8,136.9,159.9,151.5,3,139.6,149.1,156.9,10,6,8.354,5.107,1.224,-1.671,-4.609,-7.859,165.6,6,231.4,-8.154,-7.875,0,-8.257,-8.177,-4.358,-5.1,-4.611,-4.714,5.086,8.132,3,-1.101,1.245,4.651,7.55,-8.129,-8.077,-1.516,1.702,161.4,156.1,,143.3,170.4,162.3,166.0,151.5,141.5,139.9,4,norm,2.029,1.31,-1.893,-1.577,-4.439,-4.602,-1.655,-1.334,-1.277,-1.138,1.361,-1.526,167.3,157.4,-4.949,-8.348,1.936,-1.847,7.591,4.61,-4.622,-7.885,10,4.883,4.348,5.08,5.071,1.9,1.816,1.929,1.558,10,5.286,5.236,-30,344.238846582,norm,0,39,39,39,248.736,248.746,248.752419068,248.753,248.754,248.757,up,1,1.03488976136,8.96511023864,001,330,1920_1200,Intel(R) Core(TM) i5-3570 CPU @ 3.40GHz,orientation_search,LEPPC096,Intel(R) HD Graphics 2500,2019_Jan_26_1138,testMonitor,
143.3,150.5,,158.9,36,0,142.2,150.0,144.6,143.2,7.914,8.045,7.775,8.282,8.099,7.78,8.04,4.48,-4.78,-7.769,1.305,-1.877,8.443,4.635,-5.238,-7.888,146.9,169.7,-8.157,141.0,162.9,157.1,152.3,149.9,36,151.3,3,5,prime,10,0,60,norm,36,-4.522,down,norm,150.425864187,146.2,146.3,137.4,149.4,2,143.0,144.1,134.5,10,6,7.577,5.107,1.973,-1.604,-4.961,-7.802,170.4,6,210.4,-7.573,-8.032,0,-8.36,-7.852,-5.279,-4.734,-4.424,-4.686,4.344,8.326,20,-1.661,1.724,4.737,7.716,-8.424,-8.145,-1.53,2.081,130.4,163.8,141.6,146.9,140.5,158.4,136.5,139.0,146.7,152.8,5,norm,1.344,2.08,-1.165,-1.313,-4.888,-5.25,-1.32,-1.612,-1.513,-1.436,1.168,-2.044,155.1,149.8,-4.901,-8.179,1.16,-1.385,8.229,4.666,-4.943,-7.586,10,4.459,4.641,4.543,5.051,1.362,2.0,1.714,1.242,10,5.224,5.178,-30,344.238846582,norm,0,40,40,40,249.828,249.838,249.846751942,249.847,249.849,249.851,down,1,0.980154840899,9.0198451591,001,330,1920_1200,Intel(R) Core(TM) i5-3570 CPU @ 3.40GHz,orientation_search,LEPPC096,Intel(R) HD Graphics 2500,2019_Jan_26_1138,testMonitor,
221.3,221.0,224.8,221.7,36,30,216.8,224.3,229.3,216.9,8.197,8.423,7.516,7.539,8.35,7.785,7.813,5.117,-5.293,-8.472,1.78,-1.549,7.723,4.541,-4.699,-8.491,226.8,228.7,-8.243,224.4,233.3,220.5,229.5,222.6,36,232.1,2,5,probe,5,0,75,norm,36,-4.303,down,norm,223.790345646,225.6,233.8,222.4,219.0,1,224.2,,226.9,10,6,8.057,4.531,1.576,-1.807,-5.093,-7.782,228.6,2,148.8,-8.24,-7.62,0,-7.772,-8.023,-5.248,-4.899,-4.491,-5.274,4.861,7.608,13,-1.197,1.47,4.575,8.159,-7.723,-8.063,-1.402,1.157,220.3,225.6,218.8,230.9,216.6,230.0,220.5,221.7,223.9,226.2,0,norm,1.75,2.079,-1.15,-1.789,-4.357,-4.436,-1.779,-1.342,-1.529,-1.989,1.434,-1.712,228.0,213.8,-5.023,-7.69,1.892,-2.053,7.723,4.789,-4.984,-7.806,11,4.977,4.972,5.183,4.528,1.911,1.945,1.217,1.119,11,4.424,5.257,0,150.425864187,norm,0,41,41,41,250.873,250.883,250.889554291,250.89,250.891,250.894,down,1,1.01901478109,8.98098521891,001,330,1920_1200,Intel(R) Core(TM) i5-3570 CPU @ 3.40GHz,orientation_search,LEPPC096,Intel(R) HD Graphics 2500,2019_Jan_26_1138,testMonitor,
265.8,254.7,258.8,262.1,36,30,259.6,268.6,258.6,260.2,7.662,7.509,8.019,8.246,8.337,7.557,7.916,5.267,-4.679,-7.648,1.508,-1.908,8.08,5.201,-4.445,-7.758,259.1,259.6,-7.769,253.8,257.0,268.8,258.2,253.8,36,254.6,1,5,probe,5,0,110,norm,36,-5.231,down,norm,258.790345646,258.7,253.3,256.2,257.0,0,257.2,260.9,263.3,10,6,8.166,4.411,2.039,-2.033,-4.53,-8.45,248.8,2,148.8,-7.574,-8.003,0,-7.926,-8.48,-5.287,-4.47,-4.978,-4.355,5.285,7.774,6,-1.134,1.597,5.076,8.064,-7.551,-8.0,-1.645,1.288,259.5,254.1,262.4,265.0,258.0,259.5,250.0,,252.9,262.1,1,norm,1.412,1.662,-1.553,-1.622,-4.768,-5.194,-1.857,-1.626,-1.562,-1.672,1.992,-1.39,261.9,253.3,-5.216,-7.872,1.831,-1.154,7.851,4.608,-4.826,-7.838,11,4.982,4.663,4.731,5.054,1.782,1.175,1.677,1.567,11,5.08,5.143,0,150.425864187,norm,0,42,42,42,251.95,251.959,251.965853383,251.966,251.968,251.97,up,0,1.27756479197,-10,001,330,1920_1200,Intel(R) Core(TM) i5-3570 CPU @ 3.40GHz,orientation_search,LEPPC096,Intel(R) HD Graphics 2500,2019_Jan_26_1138,testMonitor,
334.5,325.4,346.5,343.9,36,60,337.4,334.0,352.4,337.4,8.475,8.389,7.613,7.826,8.149,7.97,8.2,5.147,-5.227,-7.618,1.584,-2.01,7.697,4.481,-4.791,-7.95,340.7,347.6,-7.893,342.1,354.6,338.4,329.2,345.1,36,336.0,1,5,prime,10,0,106,norm,36,-4.562,down,norm,338.313884265,337.9,358.3,339.8,322.9,2,346.9,318.3,354.6,10,5,7.866,5.033,1.361,-1.277,-4.501,-8.072,330.4,5,444.3,-7.577,-7.974,60,-7.853,-7.68,-4.362,-4.672,-4.954,-5.089,4.766,8.468,8,-1.117,1.48,5.204,7.785,-7.851,-8.134,-1.415,1.371,333.9,,334.4,344.0,336.6,333.1,336.8,333.3,335.1,330.8,0,norm,2.064,2.085,-1.519,-1.811,-4.489,-4.35,-2.082,-2.015,-1.708,-1.916,1.733,-1.258,334.0,349.1,-4.61,-8.086,2.022,-1.402,7.531,4.307,-4.693,-8.141,12,4.56,4.828,4.5,4.389,2.031,1.104,2.025,1.884,12,5.232,4.737,30,150.425864187,norm,0,43,43,43,254.315,254.325,254.335789956,254.336,254.338,254.34,up,0,2.48527912745,-10,001,330,1920_1200,Intel(R) Core(TM) i5-3570 CPU @ 3.40GHz,orientation_search,LEPPC096,Intel(R) HD Graphics 2500,2019_Jan_26_1138,testMonitor,
355.7,324.4,351.1,342.4,36,60,331.7,335.6,337.4,336.1,8.257,8.188,7.519,8.421,7.707,8.311,8.4,4.333,-4.404,-7.741,1.748,-1.208,7.916,4.4,-4.896,-8.345,356.0,330.0,-7.515,339.2,332.1,322.0,349.0,329.5,36,318.3,2,5,prime,10,0,108,norm,36,-5.155,up,norm,338.313884265,324.1,,329.7,353.8,4,342.1,330.8,326.7,10,5,7.899,4.492,1.389,-1.733,-5.267,-8.025,329.7,5,446.3,-7.881,-8.406,60,-8.352,-8.3,-5.252,-5.226,-4.698,-4.449,4.688,8.013,16,-1.236,1.856,4.332,7.776,-8.043,-7.954,-1.526,1.426,338.2,355.1,358.3,326.7,321.8,335.7,348.9,322.1,319.9,330.3,1,norm,1.807,2.05,-1.369,-1.745,-4.349,-4.589,-1.392,-2.018,-1.295,-1.792,2.075,-1.964,337.1,356.9,-4.973,-8.461,1.143,-1.204,8.25,4.664,-4.818,-7.731,12,4.356,4.795,4.385,4.572,1.78,1.17,1.446,1.533,12,5.184,4.408,30,150.425864187,norm,0,44,44,44,257.896,257.906,257.923648387,257.924,257.926,257.928,up,1,1.56759853532,8.43240146468,001,330,1920_1200,Intel(R) Core(TM) i5-3570 CPU @ 3.40GHz,orientation_search,LEPPC096,Intel(R) HD Graphics 2500,2019_Jan_26_1138,testMonitor,
354.3,333.9,347.7,338.3,36,60,356.3,334.8,351.1,358.3,7.538,8.312,8.142,8.464,7.574,7.515,7.802,4.428,-5.07,-8.133,1.866,-1.556,7.812,4.457,-4.888,-8.262,331.8,333.3,-8.108,334.8,353.2,,330.5,351.3,36,335.1,5,5,prime,10,0,113,norm,36,-5.086,up,norm,338.313884265,353.8,343.2,343.6,333.6,3,339.2,335.0,325.6,10,5,7.56,4.895,1.591,-1.956,-4.503,-7.734,337.9,5,451.3,-7.927,-8.388,60,-8.149,-8.436,-4.98,-4.694,-4.505,-4.56,4.928,7.532,33,-1.695,1.981,5.008,8.316,-7.826,-8.07,-1.567,1.611,348.0,335.2,341.2,343.0,330.7,348.9,322.6,325.0,336.8,333.0,2,norm,1.943,1.485,-1.772,-1.135,-4.95,-5.292,-1.797,-1.327,-1.475,-1.424,2.033,-1.543,334.3,318.3,-5.056,-7.952,2.005,-1.475,8.346,4.35,-4.789,-8.18,12,4.563,4.927,4.818,4.349,1.894,1.683,1.477,1.43,12,4.638,5.139,30,150.425864187,norm,0,45,45,45,259.531,259.543,259.547067281,259.547,259.549,259.552,down,0,2.59099219457,-10,001,330,1920_1200,Intel(R) Core(TM) i5-3570 CPU @ 3.40GHz,orientation_search,LEPPC096,Intel(R) HD Graphics 2500,2019_Jan_26_1138,testMonitor,
353.9,344.9,340.3,331.2,36,60,318.3,323.0,329.3,,7.704,7.578,8.211,7.957,8.163,7.699,8.364,4.882,-5.181,-8.126,1.424,-1.439,8.467,4.939,-5.135,-7.992,336.3,323.9,-8.159,355.4,340.2,334.2,345.1,347.3,36,336.7,4,5,prime,10,0,116,norm,36,-4.353,up,norm,338.313884265,335.2,320.2,331.1,344.3,5,338.8,335.1,348.6,10,5,7.702,5.069,1.319,-1.535,-5.086,-7.569,321.4,5,454.3,-8.378,-8.278,60,-7.989,-8.033,-4.865,-5.149,-4.807,-5.133,5.295,7.652,29,-1.406,1.803,4.809,7.801,-8.43,-7.678,-1.301,1.75,345.5,340.5,358.3,334.1,349.5,340.8,329.2,342.1,336.1,333.4,3,norm,1.149,1.543,-2.054,-1.657,-4.349,-4.698,-1.102,-1.887,-1.793,-1.584,2.058,-2.007,335.7,338.7,-5.099,-8.181,2.065,-1.225,7.88,4.615,-4.806,-7.767,12,4.513,4.4,4.462,5.153,2.031,1.966,1.541,1.305,12,4.44,5.085,30,150.425864187,norm,0,46,46,46,263.217,263.227,263.242991365,263.243,263.245,263.247,up,1,1.13832570317,8.86167429683,001,330,1920_1200,Intel(R) Core(TM) i5-3570 CPU @ 3.40GHz,orientation_search,LEPPC096,Intel(R) HD Graphics 2500,2019_Jan_26_1138,testMonitor,
346.8,341.9,352.1,328.4,36,60,341.8,332.9,350.1,355.5,8.116,7.873,8.339,7.934,8.331,8.147,7.829,5.011,-5.218,-7.798,1.715,-1.81,8.221,4.794,-4.327,-8.103,335.2,318.3,-7.904,352.0,,344.2,353.0,338.2,36,328.1,5,5,prime,10,0,75,norm,36,-4.796,down,norm,338.313884265,350.2,344.8,345.6,340.1,0,358.3,334.8,351.8,10,5,7.525,5.124,1.876,-1.664,-4.687,-8.234,343.8,5,413.3,-7.527,-7.572,60,-7.857,-7.74,-5.118,-4.495,-4.742,-5.088,4.566,8.244,30,-1.24,1.784,4.699,8.488,-7.502,-8.142,-1.4,1.878,338.9,355.1,345.7,340.9,339.5,342.4,339.5,335.7,344.8,337.3,4,norm,1.997,2.011,-1.101,-1.671,-5.024,-4.784,-1.156,-1.491,-1.551,-1.304,1.455,-2.07,345.8,355.3,-5.045,-7.635,1.983,-1.513,8.133,4.393,-5.102,-7.783,12,4.999,4.323,5.224,4.761,1.288,1.436,1.345,1.283,12,4.372,4.705,30,150.425864187,norm,0,47,47,47,264.429,264.439,264.445373895,264.446,264.447,264.45,down,1,1.18664579503,8.81335420497,001,330,1920_1200,Intel(R) Core(TM) i5-3570 CPU @ 3.40GHz,orientation_search,LEPPC096,Intel(R) HD Graphics 2500,2019_Jan_26_1138,testMonitor,
498.0,499.8,487.4,503.9,36,30,491.5,492.5,494.9,494.4,8.041,7.776,8.284,8.137,8.019,8.401,8.364,5.293,-4.477,-8.459,1.427,-2.058,7.886,4.868,-4.931,-7.849,495.0,493.5,-8.121,494.7,494.9,500.5,497.5,498.3,36,,4,5,probe,5,0,103,norm,36,-4.519,up,norm,494.925600071,490.4,504.9,494.6,494.0,3,491.4,486.9,498.7,10,5,8.392,4.841,1.552,-1.554,-4.732,-7.725,501.3,2,391.9,-8.301,-7.806,60,-7.677,-8.06,-5.222,-4.602,-4.666,-4.301,4.428,8.03,27,-1.519,1.213,4.54,8.465,-8.494,-7.993,-1.531,2.042,496.4,500.0,492.4,498.6,493.4,493.1,504.4,498.1,484.9,504.3,0,norm,1.185,1.942,-1.282,-1.782,-4.338,-5.116,-1.799,-1.76,-1.382,-1.421,1.717,-1.533,497.5,489.7,-4.309,-8.004,1.326,-1.873,7.653,4.893,-4.765,-7.63,13,5.034,4.418,5.22,4.478,1.996,1.125,1.695,1.169,13,5.093,4.655,60,338.313884265,norm,0,48,48,48,265.678,265.699,265.710263575,265.71,265.712,265.715,up,1,0.944568117408,9.05543188259,001,330,1920_1200,Intel(R) Core(TM) i5-3570 CPU @ 3.40GHz,orientation_search,LEPPC096,Intel(R) HD Graphics 2500,2019_Jan_26_1138,testMonitor,
464.5,471.7,463.0,469.5,36,30,475.9,470.0,462.6,466.3,8.369,7.689,7.991,7.853,8.066,7.504,7.573,5.165,-4.794,-8.246,1.952,-1.903,8.28,4.74,-4.497,-7.602,469.8,465.3,-8.368,458.2,455.9,465.0,464.9,465.1,36,472.4,1,5,probe,5,0,74,norm,36,-4.807,down,norm,465.925600071,463.1,471.0,457.8,461.4,1,465.1,466.8,459.9,10,5,8.061,4.523,1.795,-1.132,-4.678,-8.1,467.7,2,391.9,-8.472,-7.944,60,-8.043,-8.141,-4.911,-4.865,-4.481,-5.192,4.67,7.692,7,-1.364,1.372,4.363,7.593,-7.858,-7.73,-2.072,1.974,471.8,463.8,466.2,468.5,467.2,471.4,,472.8,461.9,472.0,1,norm,1.669,1.489,-1.566,-1.662,-4.342,-5.124,-2.055,-1.296,-1.952,-1.901,1.148,-2.009,469.8,469.5,-4.357,-8.147,1.685,-1.762,8.303,5.255,-4.334,-8.192,13,4.505,5.059,5.013,5.281,1.223,1.292,2.02,1.115,13,4.64,4.95,60,338.313884265,norm,0,49,49,49,266.677,266.686,266.706002115,266.706,266.708,266.71,down,1,0.997924507742,9.00207549226,001,330,1920_1200,Intel(R) Core(TM) i5-3570 CPU @ 3.40GHz,orientation_search,LEPPC096,Intel(R) HD Graphics 2500,2019_Jan_26_1138,testMonitor,
259.5,253.7,256.5,246.8,36,80,254.2,,269.0,254.3,7.589,8.023,8.267,7.965,7.557,7.703,8.057,5.066,-5.285,-8.371,1.449,-1.169,7.764,4.946,-4.414,-8.121,251.0,247.3,-7.965,259.1,262.2,240.3,269.2,263.4,36,270.9,4,5,prime,10,0,97,norm,36,-4.971,down,norm,260.344391279,248.9,254.3,248.0,275.2,1,247.0,269.3,240.4,10,5,8.379,4.754,2.055,-1.139,-5.217,-7.949,272.7,5,357.3,-7.83,-7.968,80,-7.522,-7.675,-4.363,-5.107,-4.857,-4.505,4.777,8.059,25,-1.627,1.528,4.976,7.524,-8.457,-8.37,-1.484,1.29,265.3,280.3,253.3,260.8,255.2,244.8,269.3,270.2,241.7,262.6,0,norm,1.556,1.262,-2.02,-1.636,-5.018,-4.696,-2.055,-1.187,-1.728,-1.475,1.556,-1.145,262.1,259.4,-5.015,-8.294,1.307,-2.013,8.284,5.151,-4.77,-8.265,14,4.343,5.276,4.926,4.836,1.58,1.281,1.228,1.819,14,4.44,4.557,30,338.313884265,norm,0,50,50,50,267.742,267.755,267.774701935,267.775,267.777,267.779,down,1,0.850938846326,9.14906115367,001,330,1920_1200,Intel(R) Core(TM) i5-3570 CPU @ 3.40GHz,orientation_search,LEPPC096,Intel(R) HD Graphics 2500,2019_Jan_26_1138,testMonitor,
240.3,256.6,257.2,265.5,36,80,265.9,256.9,265.0,258.1,8.174,8.443,7.913,7.787,7.999,8.295,7.828,5.272,-4.47,-8.248,1.615,-1.548,7.931,5.215,-4.889,-8.141,256.1,272.4,-8.455,274.7,254.9,253.3,268.3,251.5,36,246.4,1,5,prime,10,0,64,norm,36,-5.033,up,norm,260.344391279,256.5,260.6,269.2,261.6,3,266.4,280.3,262.2,10,5,8.02,4.683,1.361,-1.435,-4.37,-8.319,256.1,5,324.3,-8.2,-7.988,80,-8.147,-7.786,-4.691,-4.672,-5.161,-4.494,5.157,8.06,9,-1.196,1.991,4.395,7.515,-8.01,-7.694,-1.679,1.755,,268.8,264.9,263.0,256.2,262.6,268.4,260.9,258.7,273.6,1,norm,1.956,1.792,-1.566,-1.169,-4.445,-4.727,-1.842,-1.742,-1.248,-1.391,1.849,-1.906,259.3,266.8,-4.457,-7.722,1.403,-1.774,8.111,4.315,-4.684,-8.014,14,4.772,4.407,4.962,4.914,1.953,1.135,1.67,2.092,14,4.982,4.818,30,338.313884265,norm,0,51,51,51,268.673,268.694,268.70538001,268.706,268.707,268.71,up,1,1.12126265753,8.87873734247,001,330,1920_1200,Intel(R) Core(TM) i5-3570 CPU @ 3.40GHz,orientation_search,LEPPC096,Intel(R) HD Graphics 2500,2019_Jan_26_1138,testMonitor,
254.9,259.1,,272.1,36,80,264.2,280.3,274.6,243.6,7.697,7.698,8.01,8.399,7.743,7.754,8.094,4.784,-4.944,-8.324,1.832,-1.928,7.501,4.935,-5.123,-8.34,256.0,240.3,-7.945,250.0,250.2,260.9,266.5,246.3,36,245.0,3,5,prime,10,0,64,norm,36,-5.076,down,norm,260.344391279,263.7,261.6,256.9,252.3,2,256.0,262.5,256.3,10,5,8.319,5.193,1.32,-1.16,-4.604,-7.538,272.6,5,324.3,-7.921,-7.8,80,-8.335,-8.023,-5.133,-5.192,-4.768,-4.737,4.693,7.943,20,-1.387,1.142,4.691,7.898,-8.076,-7.989,-1.765,1.474,250.1,263.9,252.9,252.0,274.1,251.7,258.0,274.1,276.2,263.3,2,norm,1.739,1.629,-1.537,-1.521,-5.08,-4.564,-2.039,-1.603,-1.622,-1.554,1.812,-1.706,265.2,275.9,-4.728,-7.632,1.458,-1.533,7.545,4.685,-5.012,-7.846,14,4.898,5.257,4.809,4.887,1.127,1.167,1.671,1.421,14,5.028,4.418,30,338.313884265,norm,0,52,52,52,269.865,269.877,269.903824659,269.904,269.906,269.908,down,1,1.19055922684,8.80944077316,001,330,1920_1200,Intel(R) Core(TM) i5-3570 CPU @ 3.40GHz,orientation_search,LEPPC096,Intel(R) HD Graphics 2500,2019_Jan_26_1138,testMonitor,
271.7,253.0,263.9,248.1,36,80,273.0,247.8,,251.0,7.535,7.578,7.683,7.784,7.763,8.058,8.029,4.665,-4.582,-7.655,1.476,-1.215,8.056,5.12,-5.092,-8.257,254.1,252.9,-7.844,272.3,257.5,280.3,265.4,266.8,36,278.0,4,5,prime,10,0,115,norm,36,-5.262,up,norm,260.344391279,261.1,270.7,262.0,272.6,4,240.3,266.6,267.4,10,5,7.688,5.288,1.631,-1.767,-4.804,-7.737,274.9,5,375.3,-8.484,-7.861,80,-8.487,-7.868,-4.904,-4.39,-4.651,-4.991,4.968,8.133,28,-1.279,1.44,5.188,7.751,-7.586,-7.918,-1.253,1.818,252.7,265.6,263.6,273.7,258.7,273.0,256.9,261.6,242.7,268.8,3,norm,1.809,1.832,-1.834,-1.566,-4.768,-5.043,-1.176,-2.096,-1.54,-1.629,1.987,-1.96,256.7,267.5,-4.422,-8.42,2.085,-1.814,7.836,4.898,-5.129,-8.226,14,5.252,4.86,5.238,4.542,1.218,1.237,1.992,1.713,14,4.364,4.786,30,338.313884265,norm,0,53,53,53,271.132,271.145,271.165349361,271.166,271.167,271.17,up,1,1.87606298799,8.12393701201,001,330,1920_1200,Intel(R) Core(TM) i5-3570 CPU @ 3.40GHz,orientation_search,LEPPC096,Intel(R) HD Graphics 2500,2019_Jan_26_1138,testMonitor,
278.1,252.4,255.9,277.0,36,80,257.1,240.3,280.3,256.7,8.067,8.114,8.02,7.623,8.499,7.608,8.289,5.036,-5.019,-7.627,1.22,-1.156,8.017,4.721,-5.172,-7.753,253.7,275.2,-7.995,240.4,,258.2,244.5,263.3,36,265.8,5,5,prime,10,0,62,norm,36,-4.536,down,norm,260.344391279,254.9,271.3,257.4,258.7,0,263.2,260.9,261.8,10,5,8.124,4.794,1.537,-2.098,-4.416,-8.041,267.9,5,322.3,-8.114,-8.496,80,-8.093,-8.119,-4.736,-4.651,-5.154,-4.648,4.991,8.136,30,-2.085,1.247,4.631,8.084,-8.007,-7.873,-1.449,2.012,279.2,273.3,261.0,249.5,277.9,267.9,242.7,275.5,269.8,268.3,4,norm,1.218,1.645,-1.518,-1.382,-5.116,-5.123,-1.499,-1.854,-2.066,-1.735,1.553,-1.521,268.0,252.5,-4.658,-8.145,1.898,-1.228,7.789,5.192,-4.361,-7.66,14,4.858,5.211,4.419,4.639,2.016,1.935,1.827,1.637,14,4.319,4.676,30,338.313884265,norm,0,54,54,54,273.087,273.109,273.120492951,273.121,273.123,273.126,down,1,2.14159680695,7.85840319305,001,330,1920_1200,Intel(R) Core(TM) i5-3570 CPU @ 3.40GHz,orientation_search,LEPPC096,Intel(R) HD Graphics 2500,2019_Jan_26_1138,testMonitor,
426.7,435.8,436.9,426.4,36,0,426.8,433.7,429.9,432.0,8.03,8.001,7.544,8.187,7.629,8.377,7.553,4.709,-4.509,-7.559,1.957,-1.883,7.611,5.097,-4.644,-8.218,429.6,428.9,-8.086,425.1,430.0,441.0,435.7,433.4,36,431.4,0,5,probe,5,0,92,norm,36,-5.195,up,norm,431.01918944,430.9,435.8,425.1,431.8,5,435.4,432.5,423.3,10,5,7.696,4.834,1.81,-1.583,-4.325,-7.943,439.8,2,339.0,-8.064,-8.229,80,-8.185,-8.359,-4.538,-4.502,-5.162,-4.735,5.082,7.795,5,-1.3,1.939,5.201,7.51,-7.7,-7.703,-1.151,1.569,427.4,422.5,439.1,428.5,434.8,428.2,423.8,440.8,,432.5,0,norm,1.648,1.335,-2.011,-1.449,-4.797,-4.595,-1.75,-2.02,-1.495,-1.495,1.505,-1.708,427.3,421.0,-4.431,-8.122,1.139,-2.099,7.796,4.996,-4.657,-8.248,15,4.5,4.507,4.431,5.223,1.61,1.52,1.711,1.886,15,5.251,5.282,80,260.344391279,norm,0,55,55,55,275.302,275.313,275.317969278,275.318,275.32,275.323,up,1,1.0144481548,8.9855518452,001,330,1920_1200,Intel(R) Core(TM) i5-3570 CPU @ 3.40GHz,orientation_search,LEPPC096,Intel(R) HD Graphics 2500,2019_Jan_26_1138,testMonitor,
406.5,408.6,,405.2,36,0,414.1,403.4,403.2,411.3,8.391,8.4,8.411,8.148,7.937,8.233,7.653,5.128,-4.599,-7.523,1.874,-1.38,8.244,5.273,-4.482,-7.843,408.8,410.9,-7.801,420.6,410.5,417.2,421.0,412.0,36,414.3,3,5,probe,5,0,72,norm,36,-4.797,down,norm,411.01918944,401.9,405.2,406.9,416.4,2,414.9,404.4,403.0,10,5,8.344,4.404,2.014,-1.98,-4.453,-7.637,406.3,2,339.0,-8.475,-7.779,80,-8.336,-7.664,-4.709,-4.936,-4.498,-5.096,5.275,7.867,20,-1.63,1.883,5.202,8.129,-8.273,-7.875,-1.422,1.309,413.3,401.0,405.7,410.7,415.6,413.5,413.6,412.0,408.4,418.8,1,norm,1.614,1.771,-1.124,-1.873,-4.72,-4.468,-1.863,-1.227,-1.59,-1.352,2.025,-2.039,416.1,410.3,-4.76,-7.722,1.473,-1.785,7.513,4.635,-5.045,-8.089,15,5.059,4.302,4.416,4.667,1.123,1.192,1.289,1.701,15,4.398,4.402,80,260.344391279,norm,0,56,56,56,276.379,276.401,276.411260783,276.411,276.413,276.416,down,1,0.882431634172,9.11756836583,001,330,1920_1200,Intel(R) Core(TM) i5-3570 CPU @ 3.40GHz,orientation_search,LEPPC096,Intel(R) HD Graphics 2500,2019_Jan_26_1138,testMonitor,
356.9,335.0,348.0,337.2,36,10,359.0,359.3,353.5,348.8,8.478,8.459,8.039,8.114,7.74,8.292,7.528,4.62,-4.506,-8.204,1.808,-1.417,7.867,4.371,-5.201,-8.451,356.9,364.0,-8.262,354.8,361.3,365.1,349.2,364.3,36,369.1,0,5,prime,10,0,67,norm,36,-4.386,up,norm,354.961935375,352.7,358.1,357.5,358.8,4,344.5,346.2,348.3,10,6,8.288,4.634,1.958,-2.079,-4.441,-8.014,366.2,6,422.0,-8.145,-8.167,10,-8.445,-7.599,-4.875,-4.957,-4.632,-4.873,5.272,8.473,4,-2.095,2.007,5.236,8.33,-7.64,-7.809,-1.945,1.616,364.1,347.3,361.2,350.1,375.0,372.8,343.6,351.7,349.6,,0,norm,1.555,1.538,-1.713,-1.367,-4.729,-4.395,-1.662,-1.156,-1.636,-1.627,1.311,-1.594,364.9,365.8,-5.017,-8.225,1.277,-1.864,7.973,4.795,-5.192,-7.956,16,4.355,4.673,5.152,4.669,1.638,1.416,1.335,1.995,16,5.292,4.492,0,260.344391279,norm,0,57,57,57,277.332,277.345,277.365643721,277.366,277.368,277.372,up,1,1.61503935014,8.38496064986,001,330,1920_1200,Intel(R) Core(TM) i5-3570 CPU @ 3.40GHz,orientation_search,LEPPC096,Intel(R) HD Graphics 2500,2019_Jan_26_1138,testMonitor,
346.1,351.9,358.8,,36,10,352.7,366.8,355.7,375.0,7.903,8.139,8.421,7.848,7.622,8.419,8.022,4.612,-4.489,-7.809,1.213,-1.124,7.893,4.713,-4.447,-7.755,359.8,359.1,-8.385,349.2,361.7,353.0,337.5,347.2,36,360.3,3,5,prime,10,0,76,norm,36,-4.506,up,norm,354.961935375,347.9,350.7,351.7,355.9,3,345.2,346.9,364.0,10,6,7.897,4.888,1.263,-1.302,-5.043,-8.021,362.6,6,431.0,-8.11,-8.5,10,-8.045,-8.049,-4.874,-4.647,-5.253,-5.2,5.109,7.95,21,-1.392,1.941,5.064,8.006,-7.887,-8.398,-1.101,1.125,348.7,361.4,351.7,361.9,339.7,353.3,352.8,364.9,364.6,335.0,1,norm,1.549,1.705,-1.973,-1.526,-5.185,-5.21,-2.072,-1.166,-1.678,-1.469,1.227,-1.401,363.0,361.9,-4.764,-8.052,1.558,-1.638,8.015,4.927,-5.143,-8.242,16,4.385,4.538,4.592,4.658,1.693,1.394,1.78,1.164,16,5.048,4.997,0,260.344391279,norm,0,58,58,58,279.031,279.052,279.063224939,279.063,279.065,279.068,up,1,1.01433616998,8.98566383002,001,330,1920_1200,Intel(R) Core(TM) i5-3570 CPU @ 3.40GHz,orientation_search,LEPPC096,Intel(R) HD Graphics 2500,2019_Jan_26_1138,testMonitor,
355.0,353.2,352.2,364.9,36,10,352.3,339.7,361.2,356.9,7.576,8.308,8.256,7.887,8.05,7.761,8.149,4.69,-4.959,-8.49,1.88,-1.618,7.55,4.351,-4.858,-7.503,375.0,370.8,-8.354,339.0,341.4,353.9,335.0,354.2,36,347.1,2,5,prime,10,0,83,norm,36,-4.81,up,norm,354.961935375,,368.1,344.1,358.0,5,345.9,371.3,348.7,10,6,8.074,4.456,1.106,-1.149,-5.232,-7.518,352.0,6,438.0,-7.969,-7.778,10,-7.911,-7.823,-4.396,-4.877,-4.87,-5.246,4.358,8.483,17,-1.702,1.34,4.841,8.263,-8.163,-7.622,-1.223,2.047,367.6,345.0,359.5,358.7,354.7,365.9,348.7,361.9,364.8,345.1,2,norm,1.392,1.792,-1.981,-1.943,-4.404,-4.402,-1.949,-1.104,-1.114,-1.944,1.276,-1.95,342.9,335.2,-4.478,-8.395,1.893,-1.635,7.855,4.902,-5.257,-8.356,16,4.63,4.488,4.976,4.907,1.662,1.414,1.729,2.083,16,4.962,4.412,0,260.344391279,norm,0,59,59,59,280.122,280.131,280.138097508,280.138,280.14,280.142,up,1,2.38992420348,7.61007579652,001,330,1920_1200,Intel(R) Core(TM) i5-3570 CPU @ 3.40GHz,orientation_search,LEPPC096,Intel(R) HD Graphics 2500,2019_Jan_26_1138,testMonitor,
354.2,349.1,361.8,342.1,36,10,360.0,361.7,343.7,349.7,7.964,7.934,8.441,7.611,7.869,7.506,8.439,5.158,-4.594,-7.851,1.643,-1.681,7.593,4.646,-5.153,-8.368,352.6,353.0,-8.166,356.7,359.6,356.9,352.3,359.4,36,350.2,0,5,prime,10,0,83,norm,36,-4.709,up,norm,354.961935375,361.3,353.7,348.6,358.1,4,348.4,354.9,362.0,10,6,8.463,4.372,1.631,-1.519,-4.771,-7.56,356.5,6,438.0,-7.864,-8.332,10,-7.849,-7.844,-5.189,-5.137,-4.815,-4.316,5.153,8.162,4,-1.606,1.288,4.822,8.119,-8.103,-7.75,-1.35,1.634,348.6,343.5,375.0,357.0,365.9,357.3,353.2,351.4,352.8,,3,norm,1.63,1.314,-1.864,-1.567,-5.086,-4.429,-1.518,-1.741,-1.935,-1.193,1.229,-1.598,339.7,335.0,-4.595,-8.375,1.678,-1.255,7.669,4.947,-4.517,-8.041,16,5.217,4.96,4.301,4.769,2.013,1.234,1.212,1.387,16,5.121,4.525,0,260.344391279,norm,0,60,60,60,282.572,282.593,282.604177426,282.604,282.606,282.609,up,1,0.858389609982,9.14161039002,001,330,1920_1200,Intel(R) Core(TM) i5-3570 CPU @ 3.40GHz,orientation_search,LEPPC096,Intel(R) HD Graphics 2500,2019_Jan_26_1138,testMonitor,
353.0,354.4,359.5,372.9,36,10,344.3,357.2,335.0,347.2,8.129,8.306,7.65,7.623,8.264,7.898,8.444,5.134,-4.589,-7.736,1.479,-1.955,7.633,5.166,-4.823,-7.921,350.7,348.4,-8.296,339.3,356.6,350.9,340.5,371.9,36,354.5,2,5,prime,10,0,85,norm,36,-4.385,up,norm,354.961935375,375.0,,344.1,363.8,4,359.0,342.1,345.5,10,6,8.326,5.044,1.699,-1.422,-4.407,-7.642,344.2,6,440.0,-7.609,-7.824,10,-8.446,-7.997,-5.004,-5.296,-4.796,-4.476,4.618,7.754,16,-1.381,1.581,4.714,8.048,-7.768,-8.423,-1.828,1.284,366.2,340.3,362.6,357.1,340.7,354.0,362.5,347.8,359.4,356.4,4,norm,1.553,1.346,-1.301,-1.97,-4.34,-4.429,-2.046,-2.042,-1.924,-1.381,1.314,-2.026,349.8,346.6,-5.045,-7.536,2.089,-1.809,8.464,4.635,-4.872,-8.242,16,5.187,4.379,4.666,4.629,1.975,1.772,1.334,1.537,16,4.401,4.635,0,260.344391279,norm,0,61,61,61,283.507,283.517,283.523288466,283.523,283.525,283.528,up,1,2.47586334713,7.52413665287,001,330,1920_1200,Intel(R) Core(TM) i5-3570 CPU @ 3.40GHz,orientation_search,LEPPC096,Intel(R) HD Graphics 2500,2019_Jan_26_1138,testMonitor,
352.2,354.4,361.3,356.5,36,10,361.1,335.0,349.1,364.0,7.87,8.424,7.62,7.806,8.087,8.494,8.32,5.141,-5.027,-7.757,1.676,-1.568,8.36,4.801,-5.041,-8.469,358.7,,-8.107,364.4,354.8,353.0,356.9,359.7,36,341.0,5,5,prime,10,0,107,norm,36,-4.943,up,norm,354.961935375,352.0,361.8,357.6,363.5,4,352.1,355.6,347.8,10,6,8.187,5.173,1.54,-2.007,-4.59,-7.674,355.2,6,462.0,-7.775,-8.352,10,-7.742,-8.31,-4.835,-4.902,-4.543,-4.615,5.063,8.239,34,-1.914,1.591,4.871,8.426,-7.714,-8.144,-1.346,1.682,348.0,360.8,354.2,346.0,357.4,347.8,355.4,347.2,349.9,343.0,5,norm,1.55,1.333,-1.451,-1.529,-4.543,-4.651,-1.594,-2.075,-1.88,-1.332,1.552,-1.683,375.0,343.7,-4.765,-8.169,1.805,-1.937,7.815,4.582,-4.433,-8.01,16,4.952,4.823,4.791,5.14,1.117,1.29,1.531,1.871,16,4.983,4.998,0,260.344391279,norm,0,62,62,62,286.037,286.052,286.069941916,286.07,286.072,286.075,up,1,2.9350412578,7.0649587422,001,330,1920_1200,Intel(R) Core(TM) i5-3570 CPU @ 3.40GHz,orientation_search,LEPPC096,Intel(R) HD Graphics 2500,2019_Jan_26_1138,testMonitor,
472.9,481.2,484.7,477.9,36,10,,477.6,489.9,476.2,7.802,7.517,8.401,8.32,8.217,7.9,8.052,4.313,-4.739,-8.264,1.687,-1.616,7.578,5.094,-5.142,-8.067,481.0,479.7,-7.553,477.7,476.4,485.6,483.4,471.7,36,488.2,4,5,probe,5,0,113,norm,36,-4.453,down,norm,479.89325168,473.2,484.4,483.0,476.1,0,469.9,475.8,480.3,10,6,8.302,5.011,2.005,-1.98,-4.484,-8.026,476.6,1,366.9,-7.61,-8.24,10,-8.323,-7.887,-4.475,-4.742,-4.348,-4.66,4.971,8.364,24,-1.239,1.411,4.563,7.706,-8.014,-7.792,-1.842,1.428,483.5,474.2,483.0,477.6,471.7,480.7,474.8,480.2,482.6,470.6,0,norm,2.024,1.482,-1.164,-2.069,-4.775,-5.035,-2.034,-2.069,-2.001,-1.243,1.609,-2.045,486.8,478.9,-4.903,-7.904,1.267,-2.021,8.163,5.022,-4.405,-7.518,17,4.643,4.917,4.933,5.079,1.174,1.146,1.66,1.475,17,4.55,4.728,10,354.961935375,norm,0,63,63,63,289.029,289.039,289.045534054,289.046,289.048,289.05,down,1,1.10700255271,8.89299744729,001,330,1920_1200,Intel(R) Core(TM) i5-3570 CPU @ 3.40GHz,orientation_search,LEPPC096,Intel(R) HD Graphics 2500,2019_Jan_26_1138,testMonitor,
52.5,51.5,56.1,58.8,36,-80,53.0,56.5,42.3,46.5,8.174,8.377,7.866,8.283,7.585,8.267,8.281,4.859,-4.331,-7.858,1.566,-1.566,7.761,4.83,-4.735,-7.759,34.4,51.6,-8.377,45.0,53.0,56.0,53.1,42.0,36,58.1,1,5,prime,10,0,109,norm,36,-4.901,up,norm,54.4261907821,65.1,51.4,52.3,45.9,5,,52.2,46.4,10,5,8.032,4.646,1.918,-1.886,-4.891,-8.148,74.4,5,163.4,-7.682,-8.238,-80,-8.381,-7.593,-4.85,-4.514,-5.201,-5.242,5.057,7.995,11,-1.934,1.759,4.959,8.053,-7.865,-8.335,-2.055,1.27,62.8,40.5,56.7,60.5,58.1,65.5,49.0,52.1,65.3,61.0,0,norm,1.543,1.954,-1.545,-1.781,-4.885,-4.448,-1.593,-1.58,-1.844,-1.687,1.92,-1.818,48.1,51.0,-5.254,-8.475,1.781,-1.128,8.307,4.723,-4.591,-7.898,18,4.618,4.468,4.958,5.18,1.188,1.69,1.711,1.292,18,4.441,5.258,10,354.961935375,norm,0,64,64,64,290.199,315.401,315.408286696,315.408,315.411,315.413,up,1,0.893445084726,9.10655491527,001,330,1920_1200,Intel(R) Core(TM) i5-3570 CPU @ 3.40GHz,orientation_search,LEPPC096,Intel(R) HD Graphics 2500,2019_Jan_26_1138,testMonitor,
43.6,55.6,62.7,53.5,36,-80,51.4,37.1,34.4,47.6,8.073,7.745,8.012,7.584,7.617,8.447,8.355,4.57,-4.855,-8.212,1.388,-1.576,7.912,4.715,-4.713,-7.904,60.1,70.3,-7.611,49.2,60.9,,74.4,56.5,36,68.9,5,5,prime,10,0,94,norm,36,-4.961,up,norm,54.4261907821,52.0,72.5,63.0,55.8,3,40.3,60.0,52.9,10,5,7.956,4.359,1.865,-1.846,-4.969,-7.656,55.4,5,148.4,-8.482,-8.104,-80,-7.963,-7.532,-4.581,-4.55,-4.972,-4.554,5.211,7.577,33,-1.256,1.944,5.087,7.739,-8.181,-8.31,-1.762,1.76,34.6,65.8,49.2,63.6,48.6,58.3,57.5,46.0,54.9,47.5,1,norm,1.145,1.677,-1.295,-1.862,-4.502,-5.085,-1.849,-1.269,-1.645,-1.864,1.879,-1.144,45.6,57.9,-4.324,-8.171,1.606,-1.756,8.067,4.822,-4.401,-8.336,18,4.907,5.064,4.428,4.36,1.394,2.069,1.624,2.022,18,4.876,5.143,10,354.961935375,norm,0,65,65,65,316.34,316.35,316.358400326,316.359,316.361,316.364,up,1,0.967249118535,9.03275088147,001,330,1920_1200,Intel(R) Core(TM) i5-3570 CPU @ 3.40GHz,orientation_search,LEPPC096,Intel(R) HD Graphics 2500,2019_Jan_26_1138,testMonitor,
42.2,51.8,51.4,48.0,36,-80,49.4,48.8,47.5,46.7,7.949,7.645,7.892,8.302,7.803,8.294,8.438,4.797,-4.621,-8.455,1.56,-1.735,8.201,4.345,-4.588,-7.79,56.5,51.1,-8.154,53.2,44.5,46.8,52.2,59.6,36,51.4,1,5,prime,10,0,92,norm,36,-5.147,up,norm,54.4261907821,62.1,45.5,51.5,49.9,3,52.5,47.2,63.6,10,5,7.551,4.318,1.984,-1.735,-4.562,-8.456,50.5,5,146.4,-7.685,-7.555,-80,-7.87,-8.185,-5.041,-5.281,-4.697,-4.454,4.901,8.47,9,-1.557,1.506,4.985,7.866,-7.59,-7.785,-1.78,1.893,,47.2,48.3,51.2,53.9,42.7,47.4,34.4,50.2,56.4,2,norm,2.04,2.079,-1.235,-1.718,-5.179,-4.656,-2.096,-1.254,-1.103,-1.596,1.916,-1.204,59.0,74.4,-4.963,-7.886,1.291,-1.692,8.401,4.68,-4.631,-7.548,18,4.456,4.415,4.599,4.429,1.678,2.099,1.54,1.613,18,4.531,4.66,10,354.961935375,norm,0,66,66,66,317.373,317.382,317.389283687,317.389,317.391,317.394,up,1,0.80942900117,9.19057099883,001,330,1920_1200,Intel(R) Core(TM) i5-3570 CPU @ 3.40GHz,orientation_search,LEPPC096,Intel(R) HD Graphics 2500,2019_Jan_26_1138,testMonitor,
59.6,48.3,66.7,50.2,36,-80,70.5,57.8,50.8,44.1,8.136,7.508,7.624,7.77,8.29,7.86,7.984,4.529,-4.383,-7.513,1.462,-1.182,8.259,4.509,-4.593,-8.366,47.1,,-8.479,63.0,50.9,48.2,55.3,63.3,36,50.0,5,5,prime,10,0,101,norm,36,-4.569,up,norm,54.4261907821,74.4,61.3,56.7,47.9,4,61.2,66.9,55.1,10,5,8.4,4.355,1.794,-1.537,-5.181,-8.055,58.4,5,155.4,-8.105,-7.556,-80,-8.418,-7.691,-4.717,-4.765,-4.684,-4.786,4.575,8.33,34,-1.343,1.955,4.417,7.811,-7.52,-8.223,-1.213,1.709,70.4,55.5,57.3,56.9,42.2,58.0,34.4,65.4,61.3,49.7,3,norm,1.745,1.317,-1.52,-1.824,-5.145,-4.987,-1.922,-1.429,-1.708,-1.309,1.535,-1.589,53.5,48.7,-4.546,-8.022,1.733,-1.198,7.543,4.995,-4.529,-7.683,18,4.833,4.438,4.448,4.323,1.889,1.937,1.696,1.264,18,4.692,4.993,10,354.961935375,norm,0,67,67,67,318.236,318.246,318.26143445,318.262,318.263,318.266,up,1,0.893587857827,9.10641214217,001,330,1920_1200,Intel(R) Core(TM) i5-3570 CPU @ 3.40GHz,orientation_search,LEPPC096,Intel(R) HD Graphics 2500,2019_Jan_26_1138,testMonitor,
63.5,49.9,74.4,54.1,36,-80,58.6,59.4,58.0,44.7,8.128,7.505,7.961,8.3,8.403,8.276,8.08,4.474,-4.629,-8.057,1.343,-1.993,8.127,4.455,-4.768,-8.394,43.6,57.4,-7.993,47.2,46.8,46.0,67.8,63.6,36,68.8,2,5,prime,10,0,91,norm,36,-4.441,up,norm,54.4261907821,52.8,,57.7,34.4,4,44.3,63.4,62.1,10,5,7.658,4.692,1.214,-1.795,-4.99,-7.659,52.5,5,145.4,-7.847,-8.176,-80,-8.306,-8.197,-4.756,-4.925,-4.544,-4.567,4.55,7.979,16,-1.25,2.047,5.103,8.389,-7.799,-7.683,-2.085,1.217,53.0,50.4,63.0,47.4,59.0,65.8,61.1,62.3,61.1,50.0,4,norm,1.514,1.226,-1.318,-1.661,-5.123,-4.78,-1.142,-1.276,-1.202,-1.675,1.437,-1.472,47.9,58.2,-4.802,-8.471,1.151,-1.689,7.927,4.368,-4.305,-8.158,18,4.976,4.856,5.286,4.408,1.922,1.141,1.25,1.813,18,4.586,4.846,10,354.961935375,norm,0,68,68,68,319.199,319.222,319.231364866,319.232,319.233,319.236,up,1,0.862417441379,9.13758255862,001,330,1920_1200,Intel(R) Core(TM) i5-3570 CPU @ 3.40GHz,orientation_search,LEPPC096,Intel(R) HD Graphics 2500,2019_Jan_26_1138,testMonitor,
53.1,60.2,62.0,63.8,36,-60,61.3,62.4,64.5,64.5,7.867,7.512,7.73,7.763,7.97,7.794,7.629,5.3,-4.782,-8.439,1.422,-1.607,8.35,4.951,-5.077,-7.654,67.9,,-8.126,63.7,58.7,66.6,61.8,66.9,36,51.1,5,5,probe,5,0,95,norm,36,-4.665,up,norm,61.0752203226,53.8,57.5,67.4,60.5,4,62.6,59.1,70.5,10,5,7.778,4.86,1.615,-1.198,-4.871,-8.379,57.8,2,-33.9,-7.861,-7.867,-80,-8.115,-7.943,-5.29,-4.533,-5.247,-4.44,4.71,7.568,34,-1.269,1.775,4.72,8.214,-8.403,-8.185,-1.891,2.027,63.1,71.1,63.1,69.9,58.6,53.9,59.0,64.8,64.4,63.2,0,norm,1.846,1.271,-1.65,-1.19,-4.799,-4.985,-1.813,-1.281,-1.89,-1.347,2.009,-1.663,66.9,63.6,-4.49,-8.36,1.453,-1.915,7.806,4.8,-4.372,-8.021,19,4.686,4.762,4.917,4.635,1.986,2.074,1.148,1.778,19,4.979,4.983,-80,54.4261907821,norm,0,69,69,69,320.134,320.143,320.150356676,320.151,320.152,320.155,up,1,0.776768673469,9.22323132653,001,330,1920_1200,Intel(R) Core(TM) i5-3570 CPU @ 3.40GHz,orientation_search,LEPPC096,Intel(R) HD Graphics 2500,2019_Jan_26_1138,testMonitor,
84.2,79.9,75.5,69.1,36,-60,87.2,71.5,78.3,81.1,8.33,8.339,8.425,7.864,8.013,7.634,8.274,5.107,-4.746,-8.295,1.193,-1.469,7.987,4.494,-4.437,-8.422,85.5,82.4,-8.344,74.9,80.2,76.5,77.8,78.7,36,79.2,2,5,probe,5,0,113,norm,36,-4.595,down,norm,79.0752203226,80.5,89.1,72.0,83.4,0,75.6,78.7,,10,5,7.587,4.507,1.901,-1.907,-4.465,-8.292,73.8,2,-33.9,-7.9,-8.456,-80,-7.909,-8.006,-5.278,-4.787,-4.587,-4.848,5.138,7.804,12,-1.715,1.657,4.985,8.03,-7.963,-8.199,-1.329,1.151,75.9,85.1,80.5,84.2,80.5,82.4,83.9,88.2,85.7,82.0,1,norm,1.412,1.496,-1.55,-1.561,-5.239,-5.179,-1.818,-1.478,-1.446,-1.237,1.463,-2.021,84.5,80.0,-5.084,-8.13,1.132,-1.695,7.519,4.443,-4.541,-8.418,19,4.878,4.897,4.604,5.04,1.935,2.07,1.413,1.717,19,4.938,5.183,-80,54.4261907821,norm,0,70,70,70,320.965,320.975,320.991385319,320.992,320.993,320.996,down,1,0.769446798005,9.230553202,001,330,1920_1200,Intel(R) Core(TM) i5-3570 CPU @ 3.40GHz,orientation_search,LEPPC096,Intel(R) HD Graphics 2500,2019_Jan_26_1138,testMonitor,
40.6,48.7,55.6,35.1,36,-10,,39.6,56.8,40.7,8.38,7.954,8.026,8.082,8.361,7.57,8.264,5.127,-4.751,-8.492,1.609,-1.387,7.699,4.874,-4.304,-7.717,37.3,62.1,-8.088,48.5,37.6,48.5,41.0,64.3,36,49.0,4,5,prime,10,0,66,norm,36,-4.337,down,norm,52.4861788193,72.5,55.2,41.5,45.9,0,61.6,48.4,70.7,10,6,7.765,5.225,1.34,-2.069,-4.875,-8.156,57.3,6,118.5,-8.305,-8.021,-10,-8.243,-7.593,-4.703,-4.343,-4.83,-4.72,4.594,8.336,24,-1.657,1.559,5.218,7.795,-7.809,-7.564,-1.394,1.701,61.4,46.9,32.5,47.4,42.8,66.2,43.1,35.6,53.3,41.3,0,norm,2.04,1.738,-1.975,-1.11,-4.351,-4.611,-1.366,-1.217,-1.303,-1.335,1.362,-1.456,50.8,41.9,-4.587,-7.543,1.661,-1.504,8.302,4.898,-4.691,-7.692,20,4.496,4.95,5.133,5.044,1.963,1.382,1.845,1.969,20,5.047,5.205,-60,54.4261907821,norm,0,71,71,71,321.799,321.809,321.818208792,321.818,321.82,321.823,down,1,0.721286684461,9.27871331554,001,330,1920_1200,Intel(R) Core(TM) i5-3570 CPU @ 3.40GHz,orientation_search,LEPPC096,Intel(R) HD Graphics 2500,2019_Jan_26_1138,testMonitor,
62.1,49.0,44.9,52.3,36,-10,48.4,32.5,52.3,51.8,8.137,8.161,7.528,7.526,7.938,8.046,8.353,4.757,-4.369,-7.734,1.597,-1.56,7.561,5.158,-5.237,-7.575,54.7,45.0,-7.991,50.9,45.4,50.0,66.5,67.1,36,52.5,2,5,prime,10,0,64,norm,36,-4.846,down,norm,52.4861788193,53.6,41.1,53.0,,2,53.7,57.1,52.3,10,6,8.133,4.985,1.124,-2.072,-4.796,-7.762,44.4,6,116.5,-8.165,-7.927,-10,-7.536,-8.313,-5.18,-4.795,-4.324,-4.588,4.733,7.938,14,-1.339,1.999,5.06,7.535,-8.264,-8.247,-1.11,1.288,64.9,41.3,72.5,40.7,43.1,48.0,51.7,33.7,33.9,57.1,1,norm,1.777,2.08,-1.523,-1.333,-5.27,-5.272,-1.297,-1.966,-2.095,-1.254,1.933,-1.643,47.8,63.5,-4.948,-7.504,1.755,-2.036,8.221,4.838,-4.864,-7.535,20,4.784,4.396,4.76,4.618,1.368,1.123,1.649,1.584,20,4.575,4.321,-60,54.4261907821,norm,0,72,72,72,322.577,322.588,322.598092515,322.598,322.6,322.602,down,1,0.875981187757,9.12401881224,001,330,1920_1200,Intel(R) Core(TM) i5-3570 CPU @ 3.40GHz,orientation_search,LEPPC096,Intel(R) HD Graphics 2500,2019_Jan_26_1138,testMonitor,
54.9,48.4,70.5,44.3,36,-10,60.1,49.1,51.0,36.4,8.362,8.234,7.87,8.368,8.424,7.526,7.566,4.56,-4.336,-8.174,1.288,-1.838,8.083,5.176,-5.228,-8.356,62.4,61.0,-7.744,59.5,46.2,38.7,40.8,64.4,36,57.7,2,5,prime,10,0,112,norm,36,-5.249,down,norm,52.4861788193,42.5,42.9,56.4,59.1,0,55.9,42.8,,10,6,7.709,4.46,1.465,-1.355,-4.731,-7.566,49.2,6,164.5,-7.881,-7.797,-10,-8.098,-7.991,-5.115,-5.152,-4.834,-4.871,4.893,7.686,12,-1.923,1.948,5.035,7.811,-8.185,-7.581,-1.582,1.47,32.5,51.5,48.6,72.5,56.7,56.8,54.3,50.8,45.1,49.0,2,norm,1.639,1.474,-1.193,-1.46,-4.728,-4.934,-1.992,-1.229,-1.48,-1.495,1.39,-1.364,58.9,71.1,-4.506,-7.741,1.651,-1.526,7.82,5.128,-4.606,-8.171,20,4.303,4.328,4.843,4.635,1.402,1.118,1.907,1.925,20,4.457,4.829,-60,54.4261907821,norm,0,73,73,73,323.52,323.54,323.552382786,323.553,323.555,323.557,down,1,0.876555298618,9.12344470138,001,330,1920_1200,Intel(R) Core(TM) i5-3570 CPU @ 3.40GHz,orientation_search,LEPPC096,Intel(R) HD Graphics 2500,2019_Jan_26_1138,testMonitor,
47.1,58.4,49.2,55.1,36,-10,40.7,47.6,52.4,51.3,7.736,7.863,7.728,8.359,8.04,8.027,8.373,4.325,-4.375,-8.204,1.73,-1.302,8.297,5.188,-5.168,-7.753,34.2,,-8.332,43.0,43.1,57.2,59.9,54.8,36,37.7,5,5,prime,10,0,99,norm,36,-4.515,up,norm,52.4861788193,39.2,62.0,56.8,46.2,4,37.1,72.5,43.7,10,6,7.875,4.317,1.636,-1.337,-5.204,-7.525,56.1,6,151.5,-7.656,-7.725,-10,-7.86,-8.035,-4.581,-4.798,-4.893,-4.655,4.436,8.401,34,-1.597,1.928,4.873,8.05,-7.638,-8.344,-1.381,1.17,60.8,40.1,32.5,60.4,48.2,47.7,59.9,47.7,58.3,49.2,3,norm,1.359,2.068,-1.861,-1.944,-5.017,-4.951,-1.538,-1.318,-1.796,-1.719,1.689,-1.304,50.4,40.7,-5.052,-8.397,1.773,-2.032,8.197,4.628,-5.092,-8.253,20,4.871,4.792,4.525,4.745,1.305,1.786,2.028,1.754,20,4.958,5.128,-60,54.4261907821,norm,0,74,74,74,324.467,324.477,324.485665188,324.486,324.488,324.49,up,1,1.26313565346,8.73686434654,001,330,1920_1200,Intel(R) Core(TM) i5-3570 CPU @ 3.40GHz,orientation_search,LEPPC096,Intel(R) HD Graphics 2500,2019_Jan_26_1138,testMonitor,
48.5,52.6,37.7,46.8,36,-10,51.1,58.2,53.2,72.5,8.024,7.635,7.788,8.022,8.347,7.924,7.676,4.874,-4.48,-7.513,1.475,-1.488,7.73,4.97,-5.195,-7.663,48.5,50.3,-7.823,53.7,53.9,51.3,44.0,59.6,36,56.7,0,5,prime,10,0,64,norm,36,-5.209,up,norm,52.4861788193,51.7,42.3,67.8,63.1,5,36.7,38.5,50.8,10,6,7.512,4.388,1.805,-1.949,-4.586,-8.487,45.9,6,116.5,-7.75,-8.273,-10,-7.803,-7.862,-4.368,-4.82,-4.437,-5.013,4.551,7.692,5,-1.507,2.002,5.14,7.992,-7.847,-8.343,-1.278,1.831,62.5,59.0,58.5,32.5,53.5,45.5,44.5,42.9,,62.3,4,norm,1.253,1.234,-1.173,-1.563,-4.318,-5.104,-1.543,-1.261,-2.07,-1.864,1.645,-1.475,61.1,42.3,-4.972,-7.732,1.677,-1.635,7.534,5.154,-4.92,-8.415,20,4.96,4.683,5.176,4.935,2.088,2.05,1.547,1.516,20,4.888,4.824,-60,54.4261907821,norm,0,75,75,75,325.797,325.819,325.829813257,325.83,325.832,325.835,up,1,0.668553907712,9.33144609229,001,330,1920_1200,Intel(R) Core(TM) i5-3570 CPU @ 3.40GHz,orientation_search,LEPPC096,Intel(R) HD Graphics 2500,2019_Jan_26_1138,testMonitor,
50.0,56.5,38.3,38.3,36,-10,46.8,53.7,58.6,,8.018,7.642,7.758,8.493,7.938,7.938,8.35,4.666,-4.416,-8.137,1.302,-1.915,8.002,4.896,-4.737,-7.536,50.1,45.1,-7.822,64.2,45.5,61.8,58.2,44.5,36,46.8,4,5,prime,10,0,92,norm,36,-4.994,up,norm,52.4861788193,54.0,53.1,52.7,56.3,5,51.6,44.4,58.9,10,6,7.641,5.1,2.024,-1.697,-4.815,-8.146,32.5,6,144.5,-7.503,-8.089,-10,-7.78,-7.612,-5.213,-4.844,-5.197,-4.369,5.124,7.644,29,-1.71,1.789,4.372,8.448,-8.49,-8.252,-1.226,1.173,66.7,59.4,50.9,41.6,56.4,34.2,37.7,58.8,33.0,72.5,5,norm,1.675,1.621,-1.689,-1.637,-5.223,-5.274,-1.968,-1.578,-1.938,-1.564,1.476,-1.558,35.0,48.8,-4.402,-8.153,1.949,-1.418,7.604,5.043,-4.357,-7.532,20,4.934,5.123,5.051,4.404,1.177,1.314,1.385,1.873,20,4.39,4.61,-60,54.4261907821,norm,0,76,76,76,326.546,326.568,326.57861259,326.579,326.581,326.584,up,1,0.788464295707,9.21153570429,001,330,1920_1200,Intel(R) Core(TM) i5-3570 CPU @ 3.40GHz,orientation_search,LEPPC096,Intel(R) HD Graphics 2500,2019_Jan_26_1138,testMonitor,
134.5,124.9,140.2,129.6,36,-40,135.8,133.0,131.4,120.2,7.666,7.647,8.471,7.819,8.307,8.263,7.611,5.235,-4.609,-7.506,1.124,-1.769,7.87,5.187,-5.084,-8.208,132.7,123.7,-7.614,125.2,124.5,131.1,133.6,134.3,36,138.2,0,5,probe,5,0,86,norm,36,-4.716,up,norm,130.155734195,129.3,123.1,135.1,131.6,4,134.8,131.7,131.5,10,6,8.168,4.603,1.363,-1.922,-4.869,-8.425,128.2,1,44.2,-8.322,-8.414,-10,-8.405,-7.863,-4.42,-4.538,-5.294,-5.154,4.532,8.112,4,-1.118,1.94,4.798,7.578,-7.873,-7.772,-1.798,1.116,128.0,135.0,136.1,129.4,135.4,126.3,139.7,137.2,134.6,,0,norm,1.316,2.054,-1.323,-2.071,-4.798,-4.621,-1.118,-1.717,-1.369,-1.429,1.682,-2.023,123.1,128.1,-4.788,-7.559,1.605,-1.368,8.388,4.683,-4.525,-8.314,21,4.587,5.063,5.174,4.842,1.446,1.196,1.525,1.893,21,4.754,4.641,-10,52.4861788193,norm,0,77,77,77,327.42,327.442,327.452140072,327.452,327.454,327.457,up,1,0.87470528523,9.12529471477,001,330,1920_1200,Intel(R) Core(TM) i5-3570 CPU @ 3.40GHz,orientation_search,LEPPC096,Intel(R) HD Graphics 2500,2019_Jan_26_1138,testMonitor,
54.5,67.1,58.7,87.0,36,-20,62.5,76.7,72.7,70.5,8.453,7.76,8.248,8.103,7.708,8.485,7.721,4.391,-4.585,-7.796,1.73,-1.692,7.592,5.039,-4.754,-8.371,71.6,70.4,-8.122,75.7,73.1,74.0,72.4,68.2,36,69.9,2,5,prime,10,0,76,norm,36,-5.127,up,norm,68.0738425233,69.9,,68.9,77.9,4,64.9,65.4,88.1,10,5,7.898,4.687,1.572,-1.581,-4.891,-7.9,76.4,5,144.1,-8.025,-7.538,-20,-8.148,-7.708,-4.851,-4.524,-4.948,-4.473,5.05,7.6,16,-1.826,1.905,4.714,8.389,-8.112,-8.127,-1.718,1.575,80.7,76.9,71.1,62.1,76.9,73.3,68.8,75.1,65.1,80.7,0,norm,1.328,1.64,-1.439,-1.835,-5.245,-4.325,-1.923,-1.922,-1.772,-1.875,1.171,-1.882,48.1,77.8,-5.091,-7.737,1.503,-1.93,8.006,5.19,-4.409,-8.185,22,5.14,5.157,5.104,5.134,1.408,1.765,1.492,2.052,22,4.597,5.063,-40,52.4861788193,norm,0,78,78,78,328.365,328.379,328.397638479,328.398,328.4,328.403,up,1,1.4674252456,8.5325747544,001,330,1920_1200,Intel(R) Core(TM) i5-3570 CPU @ 3.40GHz,orientation_search,LEPPC096,Intel(R) HD Graphics 2500,2019_Jan_26_1138,testMonitor,
57.7,72.0,88.1,66.7,36,-20,71.5,58.0,70.6,70.0,7.958,7.576,8.245,8.461,7.862,7.846,8.193,4.597,-5.079,-7.985,1.206,-1.893,8.13,4.719,-4.897,-8.2,61.3,68.5,-7.789,79.7,63.7,67.8,80.1,54.3,36,76.4,0,5,prime,10,0,95,norm,36,-4.672,up,norm,68.0738425233,48.1,58.9,72.0,83.0,5,70.3,58.0,69.4,10,5,8.308,4.475,2.05,-1.113,-4.614,-7.673,73.4,5,163.1,-7.99,-7.88,-20,-8.341,-7.749,-5.16,-4.447,-4.894,-4.566,4.701,8.414,5,-1.428,1.121,4.459,7.682,-7.617,-7.862,-1.277,1.693,77.5,64.7,57.2,69.8,72.4,80.4,84.0,60.3,,61.7,1,norm,2.091,1.982,-1.523,-1.279,-4.845,-4.916,-1.245,-1.44,-1.36,-1.367,1.962,-1.712,53.5,68.0,-5.297,-8.193,1.784,-1.776,8.316,5.264,-5.176,-8.254,22,5.132,4.975,5.232,5.035,1.354,1.671,1.574,1.857,22,5.071,4.826,-40,52.4861788193,norm,0,79,79,79,329.903,329.914,329.929809363,329.93,329.932,329.935,up,1,0.857167436022,9.14283256398,001,330,1920_1200,Intel(R) Core(TM) i5-3570 CPU @ 3.40GHz,orientation_search,LEPPC096,Intel(R) HD Graphics 2500,2019_Jan_26_1138,testMonitor,
74.0,87.0,57.1,63.7,36,-20,48.2,48.1,71.1,66.9,7.713,8.43,8.151,7.502,7.679,7.82,8.099,4.448,-5.227,-7.83,2.09,-1.702,8.123,5.155,-5.252,-8.206,81.6,81.1,-8.242,82.2,79.2,74.7,62.1,84.9,36,80.6,2,5,prime,10,0,71,norm,36,-5.045,up,norm,68.0738425233,70.5,52.8,,69.6,3,66.5,88.1,69.9,10,5,7.689,4.954,1.767,-1.81,-5.124,-8.124,65.6,5,139.1,-8.381,-7.888,-20,-8.17,-7.75,-4.814,-4.304,-4.32,-4.398,4.847,7.955,15,-1.318,1.163,4.632,7.906,-8.211,-8.193,-2.042,1.756,65.0,73.2,58.9,56.3,65.4,63.9,72.3,70.5,67.0,54.5,2,norm,1.331,1.188,-1.813,-1.453,-4.808,-4.715,-1.831,-1.311,-1.382,-1.699,2.03,-1.383,62.0,72.4,-4.864,-7.773,1.254,-1.303,8.385,4.693,-4.79,-7.97,22,4.93,4.824,4.989,5.282,1.636,1.246,1.627,1.867,22,4.756,5.055,-40,52.4861788193,norm,0,80,80,80,330.826,330.838,330.858125193,330.858,330.86,330.863,up,1,0.849357475771,9.15064252423,001,330,1920_1200,Intel(R) Core(TM) i5-3570 CPU @ 3.40GHz,orientation_search,LEPPC096,Intel(R) HD Graphics 2500,2019_Jan_26_1138,testMonitor,
81.5,63.3,69.3,68.5,36,-20,71.1,77.5,50.3,,7.972,8.144,8.047,7.64,8.445,7.638,7.68,4.745,-5.083,-8.431,1.462,-1.802,7.678,4.825,-4.413,-7.961,71.4,68.8,-8.143,78.8,68.0,66.0,88.1,48.1,36,63.3,4,5,prime,10,0,66,norm,36,-4.605,up,norm,68.0738425233,72.1,49.0,82.3,74.8,5,60.8,75.0,56.1,10,5,7.943,5.275,1.955,-1.826,-4.929,-7.611,69.1,5,134.1,-8.229,-8.114,-20,-7.72,-8.39,-4.521,-4.988,-5.056,-5.034,5.025,7.585,29,-1.346,1.444,4.98,7.882,-7.588,-8.396,-1.13,1.673,78.8,51.0,62.8,59.9,54.1,64.9,73.0,49.2,63.3,77.8,3,norm,1.33,1.696,-1.309,-1.792,-4.508,-4.964,-1.894,-1.66,-1.77,-1.293,1.927,-1.666,63.7,85.0,-4.566,-8.469,1.326,-1.119,7.68,5.032,-4.387,-8.461,22,4.747,4.508,5.273,4.814,1.98,1.545,1.574,1.685,22,5.272,5.15,-40,52.4861788193,norm,0,81,81,81,331.745,331.755,331.761560169,331.762,331.763,331.766,up,1,0.825835532029,9.17416446797,001,330,1920_1200,Intel(R) Core(TM) i5-3570 CPU @ 3.40GHz,orientation_search,LEPPC096,Intel(R) HD Graphics 2500,2019_Jan_26_1138,testMonitor,
69.5,69.4,70.4,69.5,36,-20,70.9,,83.3,77.1,7.65,7.793,8.184,7.913,8.3,7.969,8.096,4.417,-5.085,-7.64,1.174,-1.849,7.564,5.046,-5.161,-8.241,68.2,70.6,-8.343,48.1,57.2,68.9,76.3,67.8,36,78.1,4,5,prime,10,0,96,norm,36,-4.92,down,norm,68.0738425233,80.0,63.2,58.9,64.2,1,57.0,88.1,68.7,10,5,8.307,4.468,1.515,-2.094,-4.821,-7.65,48.2,5,164.1,-7.596,-8.29,-20,-8.41,-7.641,-4.977,-4.555,-4.869,-5.113,4.348,7.776,25,-1.866,1.664,5.026,8.144,-8.449,-7.797,-1.376,1.691,53.0,61.3,78.2,73.2,65.7,62.2,83.4,60.4,61.5,61.8,4,norm,1.395,1.625,-1.958,-1.128,-4.947,-5.113,-1.278,-1.473,-1.705,-1.669,1.398,-1.835,78.2,54.3,-5.001,-8.195,1.382,-1.655,7.52,4.309,-4.859,-8.387,22,4.898,4.449,4.392,5.131,1.481,2.088,1.133,1.592,22,5.137,4.428,-40,52.4861788193,norm,0,82,82,82,332.629,332.642,332.662347353,332.663,332.665,332.668,down,1,0.810617066547,9.18938293345,001,330,1920_1200,Intel(R) Core(TM) i5-3570 CPU @ 3.40GHz,orientation_search,LEPPC096,Intel(R) HD Graphics 2500,2019_Jan_26_1138,testMonitor,
162.7,161.9,167.6,149.7,36,-40,,157.6,165.3,168.9,7.922,8.103,7.87,8.148,7.878,8.385,8.154,4.931,-4.726,-7.899,1.122,-1.936,8.414,4.576,-4.945,-7.887,155.5,159.9,-8.047,157.6,149.5,150.5,158.9,156.5,36,150.1,4,5,probe,5,0,107,norm,36,-5.033,down,norm,158.904865111,156.2,157.2,162.4,163.0,0,161.0,162.0,166.4,10,5,8.085,5.15,1.432,-1.591,-4.762,-7.914,156.6,2,51.9,-7.869,-8.465,-20,-8.06,-8.283,-4.992,-4.782,-4.416,-4.775,4.495,7.592,24,-1.486,2.01,4.738,8.119,-8.311,-8.082,-1.887,2.062,158.5,160.3,154.4,148.9,149.7,157.6,154.0,154.6,163.5,154.4,0,norm,1.961,1.88,-1.419,-1.912,-4.948,-5.225,-1.318,-1.643,-1.626,-1.98,1.242,-1.69,155.1,155.1,-4.613,-8.151,2.055,-1.846,8.479,4.327,-4.469,-8.003,23,4.84,5.113,5.056,5.281,1.945,2.095,2.08,1.962,23,5.069,4.426,-20,68.0738425233,norm,0,83,83,83,333.518,333.528,333.534504455,333.535,333.536,333.539,down,1,0.810854921098,9.1891450789,001,330,1920_1200,Intel(R) Core(TM) i5-3570 CPU @ 3.40GHz,orientation_search,LEPPC096,Intel(R) HD Graphics 2500,2019_Jan_26_1138,testMonitor,
118.5,116.1,117.0,113.7,36,-40,129.2,118.7,121.8,115.1,8.497,7.56,8.497,8.01,7.68,7.814,7.553,4.417,-4.784,-8.348,1.131,-1.101,7.501,5.028,-4.773,-7.928,115.1,120.3,-8.244,125.1,126.9,,121.2,122.3,36,116.9,5,5,probe,5,0,68,norm,36,-4.907,up,norm,119.904865111,116.7,116.4,116.7,122.9,3,118.4,109.9,129.9,10,5,7.539,4.835,2.056,-1.417,-4.405,-8.498,115.0,2,51.9,-7.824,-7.758,-20,-8.404,-7.518,-5.181,-4.544,-4.655,-4.711,4.394,7.969,33,-1.133,1.232,5.018,7.687,-8.24,-8.197,-1.335,1.747,121.0,124.1,126.1,124.2,121.6,122.0,115.1,115.0,111.4,123.2,1,norm,1.232,1.482,-1.538,-1.754,-4.518,-4.941,-1.142,-1.45,-2.094,-1.821,2.013,-1.428,123.3,128.5,-4.658,-8.114,1.149,-1.197,7.991,4.937,-4.801,-7.692,23,5.276,4.613,4.98,4.661,1.51,1.14,1.164,1.108,23,5.248,5.176,-20,68.0738425233,norm,0,84,84,84,334.392,334.414,334.425113094,334.425,334.429,334.435,up,1,0.852148946452,9.14785105355,001,330,1920_1200,Intel(R) Core(TM) i5-3570 CPU @ 3.40GHz,orientation_search,LEPPC096,Intel(R) HD Graphics 2500,2019_Jan_26_1138,testMonitor,
343.9,350.1,321.0,351.6,36,40,325.7,336.7,345.7,346.5,7.718,8.103,8.071,7.973,8.183,8.459,8.318,4.631,-4.64,-7.832,1.751,-1.821,7.639,4.351,-4.846,-8.321,338.7,333.4,-8.327,330.7,326.9,332.7,343.2,337.4,36,331.6,1,5,prime,10,0,92,norm,36,-5.021,down,norm,335.981565712,349.2,342.5,339.1,336.4,2,337.8,345.2,328.7,10,6,7.899,4.762,1.305,-1.159,-4.784,-7.767,321.5,6,428.0,-7.866,-7.873,40,-8.133,-8.467,-4.83,-5.094,-4.713,-4.45,4.38,7.835,8,-1.141,1.126,4.615,8.338,-8.292,-7.979,-1.165,1.176,323.3,,327.0,345.4,330.1,316.0,332.3,341.1,338.2,337.5,0,norm,1.573,1.817,-1.471,-2.004,-4.909,-4.712,-1.204,-1.573,-1.389,-1.192,1.413,-1.44,326.4,356.0,-4.623,-7.98,2.06,-1.633,8.266,4.447,-4.496,-8.234,24,4.874,4.869,5.107,4.88,2.07,1.755,1.528,1.297,24,4.814,4.699,-40,68.0738425233,norm,0,85,85,85,335.328,335.349,335.360975675,335.361,335.363,335.366,down,1,1.10028406716,8.89971593284,001,330,1920_1200,Intel(R) Core(TM) i5-3570 CPU @ 3.40GHz,orientation_search,LEPPC096,Intel(R) HD Graphics 2500,2019_Jan_26_1138,testMonitor,
338.7,337.7,341.3,323.9,36,40,344.6,333.7,321.6,329.9,7.596,7.555,8.475,7.649,7.98,7.742,7.818,5.034,-4.678,-8.181,1.627,-1.306,8.298,4.758,-4.893,-8.46,334.3,339.2,-8.107,338.0,341.3,334.0,323.2,338.8,36,,4,5,prime,10,0,90,norm,36,-4.971,up,norm,335.981565712,326.4,340.7,333.5,356.0,3,318.3,316.0,351.3,10,6,7.825,4.57,1.353,-1.152,-4.407,-7.524,353.2,6,426.0,-7.648,-8.281,40,-7.536,-7.905,-4.552,-4.526,-4.856,-4.772,5.241,8.047,27,-1.392,1.892,5.182,7.881,-7.918,-7.793,-1.953,1.7,341.0,338.5,337.9,321.9,338.7,344.8,340.9,327.5,326.3,333.3,1,norm,1.915,2.1,-1.665,-1.75,-4.673,-4.983,-1.369,-1.659,-1.866,-1.795,1.731,-1.245,335.7,323.5,-4.322,-8.213,1.358,-2.039,7.963,4.657,-4.593,-8.443,24,4.977,5.091,4.587,5.028,1.564,1.172,1.857,1.419,24,5.294,4.633,-40,68.0738425233,norm,0,86,86,86,336.513,336.526,336.559516612,336.56,336.564,336.57,up,1,0.765801405334,9.23419859467,001,330,1920_1200,Intel(R) Core(TM) i5-3570 CPU @ 3.40GHz,orientation_search,LEPPC096,Intel(R) HD Graphics 2500,2019_Jan_26_1138,testMonitor,
340.7,336.6,332.7,,36,40,336.4,329.3,341.2,329.0,7.555,7.893,8.077,7.792,7.51,8.038,8.403,4.429,-4.667,-8.299,1.789,-1.445,8.334,4.913,-4.97,-8.012,341.8,337.1,-7.748,327.9,346.1,340.3,337.9,324.3,36,336.9,3,5,prime,10,0,73,norm,36,-4.658,up,norm,335.981565712,346.1,328.4,344.2,332.8,3,356.0,340.2,344.8,10,6,8.004,4.845,1.551,-1.264,-5.149,-7.973,342.2,6,409.0,-7.798,-7.694,40,-7.748,-7.748,-4.756,-4.525,-4.851,-4.545,4.656,8.079,21,-1.8,1.806,5.061,7.891,-8.291,-8.281,-1.778,1.152,344.8,344.3,355.5,352.4,350.6,350.2,321.6,337.1,316.0,337.3,2,norm,1.378,1.702,-1.239,-2.085,-5.218,-4.421,-1.843,-1.275,-1.196,-1.148,1.687,-1.495,341.6,338.5,-4.831,-8.393,1.286,-1.462,7.993,4.956,-4.457,-7.849,24,5.273,4.697,4.508,5.212,1.812,1.582,1.219,1.33,24,4.447,5.282,-40,68.0738425233,norm,0,87,87,87,337.371,337.383,337.387471102,337.388,337.39,337.393,down,0,1.18968508118,-10,001,330,1920_1200,Intel(R) Core(TM) i5-3570 CPU @ 3.40GHz,orientation_search,LEPPC096,Intel(R) HD Graphics 2500,2019_Jan_26_1138,testMonitor,
331.3,,338.7,334.1,36,40,332.5,333.0,324.3,341.4,8.255,8.353,8.163,7.869,8.454,7.589,8.114,4.83,-4.515,-8.468,1.353,-1.274,7.72,4.536,-4.661,-8.41,337.0,354.8,-7.592,336.8,319.6,337.0,350.6,351.9,36,356.0,3,5,prime,10,0,77,norm,36,-4.87,up,norm,335.981565712,341.1,333.2,352.2,352.9,5,345.0,336.7,330.7,10,6,7.919,5.259,1.577,-1.489,-4.513,-7.709,328.7,6,413.0,-8.155,-8.107,40,-8.109,-8.197,-5.062,-5.101,-4.848,-4.65,4.603,7.596,23,-1.167,1.147,4.898,8.454,-7.804,-8.381,-1.904,2.02,331.6,316.0,340.1,352.4,344.5,324.4,334.8,330.0,337.7,336.6,3,norm,1.54,1.804,-1.859,-1.888,-4.941,-4.814,-1.916,-2.059,-1.421,-1.281,1.557,-1.45,345.1,341.1,-4.662,-8.482,1.17,-1.721,7.788,5.043,-4.726,-8.336,24,4.95,4.798,4.529,4.44,1.244,1.194,1.377,1.608,24,4.941,5.277,-40,68.0738425233,norm,0,88,88,88,339.653,339.663,339.679363009,339.68,339.681,339.684,up,1,0.860248075053,9.13975192495,001,330,1920_1200,Intel(R) Core(TM) i5-3570 CPU @ 3.40GHz,orientation_search,LEPPC096,Intel(R) HD Graphics 2500,2019_Jan_26_1138,testMonitor,
336.6,330.3,349.2,332.4,36,40,327.9,325.9,344.4,333.2,8.475,8.215,8.225,7.731,7.6,7.727,7.87,4.494,-5.174,-7.838,1.381,-1.561,7.803,4.926,-4.577,-8.426,330.3,320.1,-7.817,334.9,340.7,356.0,341.6,337.0,36,331.0,0,5,prime,10,0,86,norm,36,-4.727,up,norm,335.981565712,336.9,348.6,338.4,332.2,4,316.0,322.1,330.7,10,6,7.941,4.836,1.288,-1.938,-5.264,-8.283,346.1,6,422.0,-7.595,-7.571,40,-8.336,-8.445,-5.127,-4.856,-4.337,-4.758,4.899,7.533,4,-2.025,1.702,5.02,7.833,-7.78,-8.477,-2.067,1.682,342.6,349.9,318.1,327.4,343.5,329.9,324.2,335.9,329.5,,4,norm,1.242,1.305,-1.855,-1.771,-5.272,-4.302,-1.682,-1.517,-1.287,-1.999,1.482,-1.327,345.5,345.5,-4.41,-8.143,1.839,-1.534,7.856,4.324,-4.488,-8.266,24,4.367,4.449,4.889,4.623,1.443,1.464,1.455,1.674,24,4.83,4.508,-40,68.0738425233,norm,0,89,89,89,340.586,340.606,340.617966048,340.618,340.62,340.623,up,1,1.17018432822,8.82981567178,001,330,1920_1200,Intel(R) Core(TM) i5-3570 CPU @ 3.40GHz,orientation_search,LEPPC096,Intel(R) HD Graphics 2500,2019_Jan_26_1138,testMonitor,
322.5,341.1,347.9,351.4,36,40,344.3,347.5,335.6,339.7,7.744,7.617,7.733,7.966,7.695,8.323,8.1,4.513,-5.166,-7.599,1.314,-2.002,8.471,4.474,-5.151,-8.299,333.9,327.7,-8.088,344.9,326.7,,356.0,341.5,36,330.1,5,5,prime,10,0,97,norm,36,-5.242,up,norm,335.981565712,333.4,327.0,323.3,324.4,3,348.2,354.1,325.2,10,6,7.674,4.692,1.314,-1.676,-5.173,-8.36,340.3,6,433.0,-7.832,-8.251,40,-7.91,-7.911,-4.384,-5.093,-4.645,-4.454,4.396,7.688,33,-1.611,1.478,4.746,7.516,-8.205,-8.483,-1.533,1.705,316.6,325.8,336.4,316.0,339.2,339.9,327.2,336.7,332.7,321.6,5,norm,1.171,1.761,-1.111,-1.699,-4.925,-5.057,-1.126,-1.798,-1.549,-2.048,1.702,-1.738,335.5,324.9,-4.59,-8.055,1.184,-1.822,8.461,4.401,-5.277,-7.71,24,4.687,4.319,5.165,5.124,2.027,1.706,1.518,2.023,24,4.326,4.994,-40,68.0738425233,norm,0,90,90,90,341.833,341.842,341.851031211,341.851,341.853,341.855,up,1,1.06374079408,8.93625920592,001,330,1920_1200,Intel(R) Core(TM) i5-3570 CPU @ 3.40GHz,orientation_search,LEPPC096,Intel(R) HD Graphics 2500,2019_Jan_26_1138,testMonitor,
438.2,440.2,444.3,447.5,36,-60,439.0,437.1,440.4,446.4,7.715,7.581,7.948,8.144,8.117,8.288,8.001,4.515,-4.617,-8.056,1.303,-2.074,7.864,4.635,-5.227,-8.14,442.2,443.9,-8.09,449.0,440.3,435.2,451.7,446.8,36,444.9,3,5,probe,5,0,61,norm,36,-5.18,down,norm,441.739107993,445.2,447.7,441.4,448.0,0,438.8,450.8,433.9,10,6,7.703,4.902,1.294,-1.246,-4.789,-7.535,441.5,2,380.7,-7.533,-7.597,40,-8.006,-8.279,-4.942,-5.268,-4.382,-5.277,4.766,7.814,18,-1.401,1.192,5.154,7.79,-7.519,-7.694,-1.938,1.291,437.0,441.1,438.5,440.9,440.5,441.6,443.5,437.5,443.5,431.7,0,norm,1.994,1.748,-1.298,-1.537,-4.654,-4.472,-1.928,-1.844,-1.939,-1.249,1.929,-1.348,441.7,,-4.497,-7.623,1.791,-1.517,8.315,4.493,-4.393,-7.693,25,4.602,4.596,4.569,4.635,1.753,1.567,2.015,1.405,25,4.396,5.081,40,335.981565712,norm,0,91,91,91,342.952,342.962,342.9707291,342.971,342.973,342.975,down,1,3.33937648904,6.66062351096,001,330,1920_1200,Intel(R) Core(TM) i5-3570 CPU @ 3.40GHz,orientation_search,LEPPC096,Intel(R) HD Graphics 2500,2019_Jan_26_1138,testMonitor,
441.8,432.7,437.2,448.7,36,-60,436.0,451.7,449.2,441.3,7.836,8.433,8.272,7.719,8.256,8.336,8.041,4.762,-4.6,-7.579,1.938,-1.212,8.291,4.589,-4.923,-7.773,442.1,443.6,-8.487,432.7,,438.2,445.4,438.4,36,452.7,5,5,probe,5,0,62,norm,36,-5.071,down,norm,442.739107993,441.2,441.8,446.9,443.8,0,440.8,437.2,446.1,10,6,8.039,5.005,1.99,-1.698,-4.993,-7.843,441.6,2,380.7,-7.738,-8.195,40,-8.298,-7.583,-5.069,-4.829,-4.686,-4.894,4.933,8.498,30,-1.919,1.276,4.73,8.482,-8.15,-8.21,-1.653,1.367,446.7,441.4,444.5,444.4,437.4,445.1,440.9,440.4,444.8,434.2,1,norm,1.12,1.655,-1.103,-1.143,-4.895,-5.167,-1.919,-1.949,-1.743,-1.386,1.761,-2.053,445.8,438.3,-4.318,-7.648,1.583,-1.38,8.432,4.52,-4.579,-8.138,25,4.438,4.872,5.298,4.39,1.503,1.531,1.413,1.651,25,5.212,4.835,40,335.981565712,norm,0,92,92,92,346.356,346.366,346.374598583,346.375,346.377,346.379,down,1,1.04827994636,8.95172005364,001,330,1920_1200,Intel(R) Core(TM) i5-3570 CPU @ 3.40GHz,orientation_search,LEPPC096,Intel(R) HD Graphics 2500,2019_Jan_26_1138,testMonitor,
175.3,190.5,179.3,157.3,36,-60,168.6,182.7,167.1,188.5,8.13,7.849,7.973,7.726,8.008,8.257,8.199,4.804,-4.341,-7.783,1.278,-1.904,8.16,5.089,-5.036,-8.04,170.2,185.6,-8.328,163.3,189.1,183.0,180.3,168.1,36,170.3,3,5,prime,10,0,72,norm,36,-4.53,down,norm,177.098875347,160.9,174.7,177.4,170.2,1,171.8,177.8,187.0,10,5,7.528,4.632,1.126,-1.281,-4.917,-7.662,193.5,5,249.1,-8.426,-7.626,-60,-8.465,-8.263,-4.731,-4.491,-4.804,-4.892,5.125,8.124,19,-1.646,1.501,4.72,7.816,-7.591,-7.535,-1.567,1.353,180.3,162.5,173.3,166.9,157.1,180.4,197.1,179.0,178.4,184.5,0,norm,1.778,1.515,-1.67,-1.369,-4.806,-4.962,-2.004,-1.759,-1.353,-1.8,1.856,-2.075,,185.7,-4.563,-7.661,1.599,-1.628,8.362,4.674,-4.535,-8.469,26,4.65,4.312,4.691,4.569,1.547,1.905,1.965,2.052,26,4.454,5.159,-60,335.981565712,norm,0,93,93,93,347.464,347.474,347.480173404,347.48,347.482,347.485,down,1,1.50261353254,8.49738646746,001,330,1920_1200,Intel(R) Core(TM) i5-3570 CPU @ 3.40GHz,orientation_search,LEPPC096,Intel(R) HD Graphics 2500,2019_Jan_26_1138,testMonitor,
157.1,166.0,165.8,185.0,36,-60,164.7,172.7,160.4,187.4,8.142,7.696,7.767,8.188,7.824,8.006,7.689,4.373,-5.275,-7.792,2.017,-1.618,7.697,4.641,-4.404,-8.147,174.2,175.5,-8.252,187.7,183.5,187.6,192.0,184.9,36,188.5,1,5,prime,10,0,63,norm,36,-4.557,up,norm,177.098875347,179.9,186.4,169.3,180.2,5,,191.7,174.0,10,5,8.307,4.569,1.334,-1.326,-5.073,-7.667,186.8,5,240.1,-7.785,-7.679,-60,-8.367,-8.37,-4.36,-4.995,-4.323,-4.302,4.586,8.05,11,-1.984,2.021,4.327,7.819,-8.121,-7.826,-1.164,1.395,171.7,169.5,170.3,175.4,184.7,181.5,182.0,188.4,177.1,183.5,1,norm,1.19,1.915,-1.557,-1.138,-4.977,-4.639,-1.471,-2.036,-2.073,-1.928,1.424,-1.553,165.2,197.1,-4.948,-7.923,1.38,-1.685,8.101,4.531,-5.2,-7.831,26,5.281,4.727,4.877,4.384,1.645,1.543,1.499,1.685,26,5.069,5.215,-60,335.981565712,norm,0,94,94,94,349.024,349.033,349.040102338,349.04,349.042,349.045,up,1,1.48640350334,8.51359649666,001,330,1920_1200,Intel(R) Core(TM) i5-3570 CPU @ 3.40GHz,orientation_search,LEPPC096,Intel(R) HD Graphics 2500,2019_Jan_26_1138,testMonitor,
177.1,183.8,167.3,169.7,36,-60,172.3,169.3,157.1,174.3,7.72,7.839,7.935,8.483,8.455,8.237,7.595,4.837,-4.394,-7.71,1.963,-1.454,8.197,5.195,-4.979,-7.674,167.0,186.5,-7.77,170.8,183.7,166.0,177.6,167.8,36,172.1,1,5,prime,10,0,102,norm,36,-5.214,up,norm,177.098875347,175.4,193.0,166.9,159.9,3,175.9,169.0,163.5,10,5,8.008,5.049,1.279,-1.644,-4.612,-8.282,197.1,5,279.1,-8.108,-7.634,-60,-8.34,-7.797,-4.497,-4.777,-4.592,-4.723,4.464,7.659,9,-1.801,1.775,5.047,8.497,-7.961,-8.206,-1.696,1.804,,162.8,175.6,166.3,169.9,183.8,168.9,182.1,172.4,165.4,2,norm,2.009,1.582,-1.893,-2.082,-4.586,-4.811,-1.642,-1.41,-1.96,-2.006,1.986,-1.885,187.5,189.2,-5.228,-8.495,1.539,-1.772,8.058,4.944,-5.113,-8.363,26,4.764,4.306,4.741,5.054,1.417,1.542,1.381,1.512,26,4.765,4.904,-60,335.981565712,norm,0,95,95,95,350.568,350.581,350.601475,350.602,350.604,350.607,up,1,3.28553805084,6.71446194916,001,330,1920_1200,Intel(R) Core(TM) i5-3570 CPU @ 3.40GHz,orientation_search,LEPPC096,Intel(R) HD Graphics 2500,2019_Jan_26_1138,testMonitor,
