d_ori_22,d_ori_23,d_ori_20,d_ori_21,set_size,ctpd,d_ori_24,d_ori_25,d_ori_28,d_ori_29,stim_pos_x_30,stim_pos_x_31,stim_pos_x_32,stim_pos_x_33,stim_pos_x_34,stim_pos_x_35,stim_pos_y_11,stim_pos_y_10,stim_pos_y_13,stim_pos_y_12,stim_pos_y_15,stim_pos_y_14,stim_pos_y_17,stim_pos_y_16,stim_pos_y_19,stim_pos_y_18,d_ori_35,d_ori_34,stim_pos_x_3,d_ori_31,d_ori_30,d_ori_33,d_ori_32,d_ori_26,test_set_size,d_ori_27,targetCol,dsd_test,seq_type,dsd,blockRepN,targetDist,dtype_test,prime_set_size,stim_pos_y_25,correctResponse,dtype,distrMean,d_ori_17,d_ori_16,d_ori_15,d_ori_14,targetRow,d_ori_11,d_ori_13,d_ori_12,dsd_prime,streak_length_prime,stim_pos_y_35,stim_pos_y_34,stim_pos_y_33,stim_pos_y_32,stim_pos_y_31,stim_pos_y_30,d_ori_10,nextProbe,targetOri,stim_pos_x_1,stim_pos_x_2,ctpd_prime,stim_pos_x_4,stim_pos_x_5,stim_pos_x_6,stim_pos_x_7,stim_pos_x_8,stim_pos_x_9,stim_pos_y_28,stim_pos_y_29,targetPos,stim_pos_y_20,stim_pos_y_21,stim_pos_y_22,stim_pos_y_23,stim_pos_y_24,stim_pos_x_0,stim_pos_y_26,stim_pos_y_27,d_ori_9,d_ori_8,d_ori_3,d_ori_2,d_ori_1,d_ori_0,d_ori_7,d_ori_6,d_ori_5,d_ori_4,trialN,dtype_prime,stim_pos_x_18,stim_pos_x_19,stim_pos_x_12,stim_pos_x_13,stim_pos_x_10,stim_pos_x_11,stim_pos_x_16,stim_pos_x_17,stim_pos_x_14,stim_pos_x_15,stim_pos_y_9,stim_pos_y_8,d_ori_19,d_ori_18,stim_pos_y_1,stim_pos_y_0,stim_pos_y_3,stim_pos_y_2,stim_pos_y_5,stim_pos_y_4,stim_pos_y_7,stim_pos_y_6,totBlockN,stim_pos_x_27,stim_pos_x_26,stim_pos_x_25,stim_pos_x_24,stim_pos_x_23,stim_pos_x_22,stim_pos_x_21,stim_pos_x_20,blockN,stim_pos_x_29,stim_pos_x_28,prevDistrCTPD,prevDistrMean,prevDistrType,trials.thisRepN,trials.thisTrialN,trials.thisN,trials.thisIndex,timeStart,timeBeforeDraw,timeDraw,timeAfterSaving,timeAfterWritingToTemp,timeAfterPreparingNext,answer,correct,rt,trialScore,session,participant,resolution,cpu_info,expName,pc_name,graphic_card,date,monitorName,
-10.8,10.3,-4.8,9.0,36,-30,4.7,1.4,1.5,13.9,8.128,8.426,7.626,8.411,8.033,8.446,7.709,4.796,-5.269,-7.51,2.063,-1.262,8.41,4.871,-4.586,-7.743,-17.1,20.4,-8.379,2.2,-13.2,2.1,2.6,-4.4,36,8.3,3,5,prime,10,0,111,norm,36,-4.797,down,norm,0.35975654735,-0.9,4.9,19.5,2.5,1,-8.7,-12.8,6.0,10,5,7.598,4.974,1.162,-2.088,-5.03,-8.237,6.9,5,111.4,-7.547,-7.93,-30,-7.894,-7.529,-4.807,-4.644,-4.591,-4.396,5.009,7.72,19,-1.467,1.123,5.113,8.059,-8.207,-7.926,-1.31,1.517,-19.6,-18.5,14.1,8.6,4.2,7.4,5.6,-9.6,-8.9,-18.6,0,norm,1.923,1.275,-2.043,-1.831,-4.824,-4.437,-1.906,-1.884,-2.086,-1.286,1.945,-1.43,,11.6,-4.991,-7.77,1.593,-1.702,7.982,4.933,-4.483,-7.92,0,5.113,4.416,5.168,4.707,1.782,1.395,1.648,1.779,0,4.593,4.941,,,,0,0,0,0,676.667,676.696,676.714133063,676.714,676.715,676.718,down,1,3.06127961626,6.93872038374,001,314,1366_768,Intel(R) Core(TM) i5-3230M CPU @ 2.60GHz,orientation_search,DESKTOP-3MLAIPL,GeForce GT 635M/PCIe/SSE2,2018_Nov_08_1358,testMonitor,
-11.2,8.5,-3.8,-0.7,36,-30,9.6,-0.5,-7.2,5.7,7.803,7.848,8.27,8.193,7.507,8.414,8.414,4.592,-5.267,-8.498,1.163,-1.608,8.006,5.179,-5.285,-7.614,6.3,-2.4,-7.59,-13.5,8.4,2.5,-0.6,5.7,36,20.4,3,5,prime,10,0,75,norm,36,-4.912,down,norm,0.35975654735,-9.3,5.1,-7.1,-3.0,1,-2.6,-19.6,3.7,10,5,8.396,4.313,1.806,-1.779,-5.24,-8.434,-7.6,5,75.4,-8.161,-7.634,-30,-8.287,-8.432,-4.446,-4.669,-4.815,-5.235,4.964,8.329,19,-1.312,1.752,5.109,7.513,-8.321,-7.546,-1.752,1.863,-9.7,18.8,3.8,-10.5,-6.7,-5.3,7.3,16.9,9.1,0.8,1,norm,1.688,1.316,-1.183,-1.852,-5.188,-4.663,-1.589,-1.504,-1.768,-1.938,1.121,-1.654,,-1.9,-4.325,-7.967,2.022,-1.866,7.63,4.826,-5.174,-7.839,0,5.123,4.689,4.882,4.638,1.119,2.095,1.456,1.698,0,5.025,4.67,,,,0,1,1,1,679.8,679.813,679.827423833,679.828,679.829,679.833,down,1,2.84342890477,7.15657109523,001,314,1366_768,Intel(R) Core(TM) i5-3230M CPU @ 2.60GHz,orientation_search,DESKTOP-3MLAIPL,GeForce GT 635M/PCIe/SSE2,2018_Nov_08_1358,testMonitor,
-7.0,-11.2,-9.2,-15.4,36,-30,-6.6,-3.0,10.5,6.4,7.504,8.019,8.219,8.004,8.095,7.538,8.16,5.139,-4.566,-7.602,1.596,-1.3,7.617,4.505,-4.739,-7.566,12.7,2.9,-8.285,-8.1,6.7,10.7,4.4,-4.3,36,5.9,1,5,prime,10,0,105,norm,36,-4.39,down,norm,0.35975654735,-1.9,20.4,-10.2,-5.8,0,-7.9,-0.2,-3.5,10,5,8.254,4.765,1.772,-2.018,-5.005,-7.979,-2.4,5,105.4,-7.578,-8.023,-30,-7.852,-8.0,-5.01,-4.472,-4.833,-4.777,4.679,8.368,6,-1.791,1.557,4.514,8.284,-8.059,-8.235,-1.309,1.498,18.5,6.3,-0.8,-2.3,4.9,-19.6,-2.1,,-9.1,9.1,2,norm,1.253,1.356,-1.821,-1.652,-4.701,-4.386,-1.717,-1.787,-1.772,-1.516,1.442,-1.674,9.5,13.4,-5.036,-8.045,1.636,-1.662,7.856,4.778,-4.744,-7.944,0,4.839,4.485,4.537,4.949,1.609,1.4,2.017,1.426,0,4.305,5.291,,,,0,2,2,2,682.696,682.707,682.724202845,682.725,682.727,682.729,down,1,15.2633806519,-5.26338065194,001,314,1366_768,Intel(R) Core(TM) i5-3230M CPU @ 2.60GHz,orientation_search,DESKTOP-3MLAIPL,GeForce GT 635M/PCIe/SSE2,2018_Nov_08_1358,testMonitor,
15.1,20.4,3.8,0.4,36,-30,-19.6,-5.0,-1.0,-7.3,8.08,8.42,7.786,7.991,7.541,7.93,8.462,5.085,-5.004,-7.544,1.54,-1.996,7.899,4.519,-5.257,-8.269,-9.9,6.7,-8.406,-3.1,7.1,-15.3,-0.7,6.4,36,3.8,3,5,prime,10,0,84,norm,36,-4.945,down,norm,0.35975654735,7.5,-4.1,-8.9,-1.6,1,-10.7,15.9,-0.9,10,5,7.619,4.375,1.917,-1.896,-4.653,-8.142,-10.9,5,84.4,-8.271,-8.004,-30,-8.033,-7.845,-5.219,-4.637,-4.72,-4.643,4.712,8.153,19,-1.733,1.235,4.94,7.604,-7.614,-7.736,-2.055,1.562,8.5,-1.1,-9.0,-0.5,-6.2,4.0,5.8,1.4,10.4,12.0,3,norm,1.743,1.346,-1.522,-1.137,-4.754,-4.313,-1.663,-1.94,-2.061,-1.716,1.336,-1.395,,-2.0,-5.139,-8.203,1.431,-1.438,8.18,4.434,-5.289,-7.899,0,4.52,4.755,4.679,4.391,1.478,1.373,1.141,1.139,0,5.055,5.284,,,,0,3,3,3,698.012,698.021,698.041186237,698.041,698.044,698.046,down,1,5.00739542785,4.99260457215,001,314,1366_768,Intel(R) Core(TM) i5-3230M CPU @ 2.60GHz,orientation_search,DESKTOP-3MLAIPL,GeForce GT 635M/PCIe/SSE2,2018_Nov_08_1358,testMonitor,
,18.0,6.7,-10.7,36,-30,2.9,-11.2,16.0,20.4,7.81,8.468,8.12,7.732,7.536,8.385,8.034,4.995,-4.727,-7.686,1.581,-1.82,8.217,4.862,-4.811,-7.702,-2.8,15.2,-8.362,7.1,-3.8,7.5,9.2,-8.4,36,6.0,3,5,prime,10,0,94,norm,36,-5.28,up,norm,0.35975654735,-4.0,0.1,-7.0,-10.3,4,-5.4,5.9,-13.2,10,5,7.643,4.995,1.187,-1.206,-4.668,-8.471,9.3,5,94.4,-7.513,-7.86,-30,-7.569,-8.399,-5.021,-5.174,-5.026,-4.619,4.621,7.955,22,-1.514,1.463,5.124,7.513,-8.393,-7.954,-1.445,1.311,4.0,-1.8,-10.4,-17.2,-4.9,-6.7,-19.6,-17.1,-3.3,5.7,4,norm,1.584,1.468,-1.936,-1.835,-4.989,-4.537,-1.801,-1.189,-1.721,-1.999,1.37,-1.684,-8.6,1.8,-4.987,-8.187,1.778,-1.859,8.386,4.923,-4.546,-8.163,0,4.732,4.832,4.554,5.125,1.126,1.409,1.723,1.607,0,4.772,4.312,,,,0,4,4,4,703.072,703.082,703.102169404,703.102,703.105,703.108,up,1,4.22465008392,5.77534991608,001,314,1366_768,Intel(R) Core(TM) i5-3230M CPU @ 2.60GHz,orientation_search,DESKTOP-3MLAIPL,GeForce GT 635M/PCIe/SSE2,2018_Nov_08_1358,testMonitor,
63.3,64.4,68.1,51.0,36,20,56.1,62.0,53.3,63.6,7.507,8.024,7.708,8.107,7.634,7.786,8.251,5.191,-4.998,-7.777,2.0,-1.793,8.464,4.889,-5.238,-8.037,65.4,54.5,-8.318,54.3,65.4,55.7,60.3,60.5,36,58.5,0,5,probe,5,0,86,norm,36,-5.077,down,norm,58.0931989399,67.7,53.2,55.8,57.0,1,49.8,62.5,55.6,10,5,7.604,4.706,2.015,-1.655,-4.426,-8.036,53.1,2,-27.9,-7.835,-7.824,-30,-8.383,-8.48,-4.564,-4.75,-5.174,-4.624,4.675,7.888,1,-1.438,1.991,4.545,8.364,-7.667,-7.831,-1.728,2.054,57.0,59.5,52.1,49.2,,53.0,61.7,64.2,53.3,57.6,0,norm,1.329,1.333,-1.745,-2.099,-5.108,-4.553,-1.419,-2.032,-1.652,-1.964,1.558,-1.888,48.1,52.3,-4.945,-7.743,1.981,-1.429,8.113,4.702,-4.36,-7.5,1,5.089,4.895,4.56,4.389,1.463,1.859,1.762,1.289,1,5.128,4.793,-30,0.35975654735,norm,0,5,5,5,707.351,707.36,707.369262968,707.37,707.372,707.375,down,1,2.90445154626,7.09554845374,001,314,1366_768,Intel(R) Core(TM) i5-3230M CPU @ 2.60GHz,orientation_search,DESKTOP-3MLAIPL,GeForce GT 635M/PCIe/SSE2,2018_Nov_08_1358,testMonitor,
54.4,60.2,46.1,53.5,36,20,49.8,63.9,55.2,51.2,8.374,7.855,7.874,8.292,8.146,8.261,7.587,5.198,-4.439,-7.973,1.367,-1.911,7.896,5.235,-4.961,-8.294,57.6,61.3,-7.87,57.9,62.8,60.0,58.9,,36,58.2,4,5,probe,5,0,84,norm,36,-4.982,down,norm,56.0931989399,61.0,52.8,57.2,66.1,2,53.5,58.7,59.7,10,5,8.299,4.448,1.919,-1.332,-4.787,-8.496,61.8,2,-27.9,-8.153,-7.814,-30,-7.752,-8.219,-4.568,-4.765,-4.703,-4.549,5.223,7.673,26,-2.028,2.077,5.117,7.836,-8.376,-8.094,-1.218,1.67,59.5,53.7,64.8,61.4,57.6,61.9,61.5,63.1,57.1,56.9,1,norm,1.239,1.336,-1.608,-1.952,-4.961,-5.25,-1.117,-1.466,-1.35,-2.054,1.893,-1.17,54.8,61.1,-5.003,-7.574,1.454,-1.822,7.824,4.322,-5.242,-7.618,1,4.486,4.797,4.646,4.99,2.03,2.089,1.81,1.374,1,4.432,4.598,-30,0.35975654735,norm,0,6,6,6,710.312,710.323,710.33234346,710.333,710.335,710.338,up,0,2.80522097077,-10,001,314,1366_768,Intel(R) Core(TM) i5-3230M CPU @ 2.60GHz,orientation_search,DESKTOP-3MLAIPL,GeForce GT 635M/PCIe/SSE2,2018_Nov_08_1358,testMonitor,
268.7,260.6,279.5,268.8,36,-40,276.4,275.4,278.1,280.8,7.838,7.672,7.854,8.464,8.083,8.101,7.795,4.731,-4.379,-7.558,1.693,-1.309,7.564,5.053,-4.558,-8.024,273.1,273.2,-8.098,280.5,277.6,270.0,276.7,262.5,36,268.2,1,5,prime,10,0,99,norm,36,-4.679,down,norm,275.753290873,275.5,277.8,278.8,274.0,2,288.2,264.0,281.3,10,6,7.555,5.177,1.586,-1.902,-4.536,-7.885,283.4,6,374.8,-7.52,-7.83,-40,-7.747,-8.158,-4.352,-4.496,-4.768,-4.78,4.457,8.128,8,-2.088,1.126,5.121,7.709,-8.23,-8.05,-1.535,1.843,285.9,,295.8,280.2,274.5,285.0,282.8,260.4,262.1,255.8,0,norm,1.171,1.619,-1.659,-1.457,-5.024,-4.588,-1.812,-1.837,-1.268,-1.124,1.732,-1.443,273.5,270.6,-4.724,-7.822,1.906,-2.068,8.087,5.268,-4.931,-7.556,2,5.075,4.759,4.428,5.102,2.026,2.044,2.001,1.825,2,4.655,4.494,20,0.35975654735,norm,0,7,7,7,714.178,714.187,714.206794873,714.207,714.209,714.212,down,1,1.2948953982,8.7051046018,001,314,1366_768,Intel(R) Core(TM) i5-3230M CPU @ 2.60GHz,orientation_search,DESKTOP-3MLAIPL,GeForce GT 635M/PCIe/SSE2,2018_Nov_08_1358,testMonitor,
255.8,273.7,272.7,287.2,36,-40,270.9,264.4,284.3,277.3,8.027,7.893,8.237,7.76,7.924,7.853,7.588,4.379,-4.332,-7.548,1.498,-1.184,8.446,4.899,-4.337,-8.157,270.1,268.8,-8.092,279.6,295.8,264.7,265.7,266.0,36,273.8,0,5,prime,10,0,109,norm,36,-4.826,up,norm,275.753290873,290.7,292.1,271.9,273.7,3,286.1,275.9,272.3,10,6,7.964,5.203,1.303,-1.624,-5.079,-7.53,271.1,6,384.8,-8.412,-8.116,-40,-8.475,-7.976,-5.089,-5.148,-5.165,-5.233,5.291,7.914,3,-1.617,1.223,4.312,8.124,-7.582,-7.52,-1.469,2.099,286.2,287.7,,290.6,279.7,280.6,268.5,287.4,287.4,274.9,1,norm,1.599,2.07,-1.127,-1.299,-4.541,-4.7,-1.948,-1.533,-1.351,-1.819,1.656,-1.875,269.8,268.3,-5.107,-8.271,1.792,-1.966,7.513,4.707,-4.824,-8.327,2,5.255,4.908,5.072,5.171,1.426,1.154,1.359,1.66,2,4.688,4.69,20,0.35975654735,norm,0,8,8,8,715.527,715.536,715.555279589,715.556,715.558,715.561,up,1,1.96069508733,8.03930491267,001,314,1366_768,Intel(R) Core(TM) i5-3230M CPU @ 2.60GHz,orientation_search,DESKTOP-3MLAIPL,GeForce GT 635M/PCIe/SSE2,2018_Nov_08_1358,testMonitor,
267.6,295.4,267.6,,36,-40,266.2,257.6,283.7,279.9,8.354,7.615,7.542,8.234,8.196,8.376,8.078,4.771,-4.465,-8.369,1.97,-1.351,7.809,4.61,-4.913,-7.745,276.2,280.9,-7.938,270.6,282.5,280.3,270.0,267.0,36,274.3,3,5,prime,10,0,106,norm,36,-4.377,up,norm,275.753290873,276.3,274.5,295.8,263.7,3,286.9,288.1,258.8,10,6,8.005,4.767,1.182,-1.874,-5.097,-7.743,271.8,6,381.8,-8.239,-7.784,-40,-7.713,-8.388,-5.149,-5.071,-5.097,-4.454,4.721,7.614,21,-1.368,1.539,4.369,7.851,-8.381,-7.756,-1.718,1.99,271.5,276.5,276.8,267.7,255.8,268.7,276.7,276.1,273.5,277.3,2,norm,1.133,1.583,-1.784,-1.429,-5.233,-4.461,-1.37,-1.554,-1.539,-1.284,1.536,-1.806,265.9,279.3,-4.667,-8.18,1.2,-1.299,8.247,5.067,-4.621,-7.596,2,4.565,4.563,5.146,5.147,1.935,1.463,1.106,1.779,2,4.646,4.899,20,0.35975654735,norm,0,9,9,9,717.54,717.549,717.558573683,717.559,717.561,717.564,up,1,2.22133862181,7.77866137819,001,314,1366_768,Intel(R) Core(TM) i5-3230M CPU @ 2.60GHz,orientation_search,DESKTOP-3MLAIPL,GeForce GT 635M/PCIe/SSE2,2018_Nov_08_1358,testMonitor,
274.5,269.8,269.3,288.1,36,-40,255.8,267.6,290.7,285.0,8.25,8.043,8.385,8.097,7.632,8.445,7.554,4.814,-4.912,-7.891,1.759,-1.361,7.624,4.883,-4.942,-8.045,270.2,276.6,-8.49,280.5,266.7,287.7,286.6,292.7,36,271.5,1,5,prime,10,0,80,norm,36,-4.553,up,norm,275.753290873,295.8,263.0,276.9,260.8,3,281.8,273.9,276.5,10,6,7.67,5.013,1.381,-1.333,-4.955,-8.095,268.4,6,355.8,-7.764,-7.731,-40,-7.93,-7.964,-4.792,-4.337,-4.525,-4.543,4.786,8.47,9,-1.869,1.362,4.978,7.832,-7.915,-7.705,-2.089,1.708,,284.4,285.9,264.6,273.9,266.3,267.3,288.3,282.7,261.4,3,norm,1.702,1.802,-1.565,-1.539,-5.172,-4.879,-1.881,-1.879,-1.679,-1.238,1.748,-2.068,276.7,277.4,-5.106,-7.904,1.826,-1.958,7.585,4.533,-4.56,-8.175,2,5.253,4.484,5.072,4.866,2.056,1.817,1.806,1.213,2,5.26,4.725,20,0.35975654735,norm,0,10,10,10,719.804,719.813,719.822487627,719.823,719.825,719.828,up,1,6.46791564598,3.53208435402,001,314,1366_768,Intel(R) Core(TM) i5-3230M CPU @ 2.60GHz,orientation_search,DESKTOP-3MLAIPL,GeForce GT 635M/PCIe/SSE2,2018_Nov_08_1358,testMonitor,
283.9,268.3,263.5,291.1,36,-40,295.8,,271.0,287.2,8.3,7.761,8.314,7.881,8.231,8.282,8.24,4.72,-4.557,-7.909,1.984,-1.201,7.863,5.266,-4.609,-7.866,276.7,283.4,-7.734,277.4,265.2,280.2,277.8,269.2,36,283.0,4,5,prime,10,0,77,norm,36,-4.478,down,norm,275.753290873,287.7,270.9,266.9,281.7,1,271.0,274.0,260.1,10,6,7.586,4.772,1.543,-2.092,-4.493,-8.025,276.8,6,352.8,-7.532,-8.113,-40,-7.563,-8.216,-4.576,-4.871,-4.392,-4.641,4.748,8.082,25,-1.585,1.256,4.447,8.279,-8.389,-7.956,-1.223,1.473,289.5,272.2,276.8,279.2,286.7,272.4,255.8,275.6,274.0,258.6,4,norm,1.489,1.868,-1.158,-1.397,-5.056,-4.601,-2.023,-1.702,-1.524,-2.02,2.039,-1.866,262.9,283.3,-4.38,-7.68,1.862,-1.624,8.064,4.548,-4.721,-8.081,2,4.816,4.802,4.879,4.453,1.42,1.626,1.248,1.772,2,4.417,4.541,20,0.35975654735,norm,0,11,11,11,726.328,726.337,726.346514971,726.347,726.349,726.352,up,0,10.7151072781,-10,001,314,1366_768,Intel(R) Core(TM) i5-3230M CPU @ 2.60GHz,orientation_search,DESKTOP-3MLAIPL,GeForce GT 635M/PCIe/SSE2,2018_Nov_08_1358,testMonitor,
277.0,279.9,269.5,278.4,36,-40,272.0,275.8,266.6,275.8,7.628,7.566,7.893,8.028,8.051,7.57,7.527,4.746,-5.002,-7.566,1.373,-1.803,7.812,4.474,-4.827,-7.634,266.2,269.0,-7.723,268.4,276.8,277.0,274.5,257.0,36,281.1,1,5,prime,10,0,62,norm,36,-4.774,down,norm,275.753290873,291.4,270.4,278.3,288.3,2,289.1,278.5,255.8,10,6,8.042,4.381,1.35,-1.521,-5.263,-7.795,278.8,6,337.8,-8.067,-7.937,-40,-8.119,-7.736,-4.968,-4.387,-4.42,-4.757,4.896,7.509,8,-1.373,1.705,4.912,8.054,-7.655,-8.228,-2.07,2.022,271.1,,258.7,272.7,271.3,273.8,276.2,295.8,292.2,280.6,5,norm,1.608,1.946,-2.005,-1.235,-4.789,-4.814,-1.41,-1.596,-1.767,-2.051,1.952,-1.617,286.2,287.5,-4.545,-8.038,1.585,-1.699,8.17,4.312,-4.826,-7.847,2,5.05,5.203,4.446,5.181,1.131,1.457,1.632,1.74,2,4.883,4.328,20,0.35975654735,norm,0,12,12,12,738.115,738.125,738.133898099,738.134,738.136,738.139,down,1,4.65434161155,5.34565838845,001,314,1366_768,Intel(R) Core(TM) i5-3230M CPU @ 2.60GHz,orientation_search,DESKTOP-3MLAIPL,GeForce GT 635M/PCIe/SSE2,2018_Nov_08_1358,testMonitor,
285.4,292.9,284.5,291.0,36,-60,285.7,291.8,290.3,289.0,7.68,7.732,7.887,8.221,8.488,8.157,7.59,4.839,-4.581,-8.421,1.92,-1.709,8.431,4.565,-4.507,-7.824,290.5,286.0,-8.197,281.8,288.7,,290.8,291.9,36,299.6,5,5,probe,5,0,65,norm,36,-4.457,up,norm,291.783817695,301.8,289.8,290.0,288.9,3,295.0,292.5,300.0,10,6,7.718,4.564,1.469,-1.373,-4.518,-7.913,282.2,2,226.8,-8.344,-7.606,-40,-8.046,-7.646,-4.885,-4.404,-4.396,-5.098,4.682,8.397,33,-1.344,1.448,4.415,8.338,-8.303,-8.283,-1.628,1.609,298.1,296.9,288.9,291.6,297.0,289.2,287.2,285.6,295.1,296.4,0,norm,1.344,2.004,-1.874,-1.175,-4.637,-4.713,-1.82,-1.477,-1.959,-1.968,1.816,-1.366,284.9,291.0,-5.047,-8.277,1.303,-1.34,7.961,4.772,-4.525,-8.075,3,4.964,4.319,4.341,4.737,1.15,1.263,1.282,1.415,3,5.087,4.758,-40,275.753290873,norm,0,13,13,13,742.812,742.822,742.830947665,742.831,742.834,742.837,up,1,2.8872898905,7.1127101095,001,314,1366_768,Intel(R) Core(TM) i5-3230M CPU @ 2.60GHz,orientation_search,DESKTOP-3MLAIPL,GeForce GT 635M/PCIe/SSE2,2018_Nov_08_1358,testMonitor,
294.5,290.2,294.8,288.5,36,-60,281.8,282.2,296.1,301.8,7.638,8.172,7.602,7.613,7.574,7.689,7.62,4.764,-4.908,-7.824,1.514,-1.209,8.44,5.284,-5.214,-7.98,,291.1,-7.58,289.3,294.3,287.9,281.9,295.9,36,294.7,5,5,probe,5,0,65,norm,36,-4.874,up,norm,291.783817695,289.0,288.2,291.3,290.7,5,287.3,293.2,293.1,10,6,7.682,4.736,1.568,-1.482,-5.118,-7.736,293.9,2,226.8,-8.083,-8.234,-40,-7.869,-7.863,-4.416,-5.291,-4.69,-4.748,4.517,8.158,35,-1.694,1.914,4.439,8.119,-8.467,-7.501,-1.393,1.106,300.2,283.6,295.7,297.8,290.1,293.7,298.2,286.8,284.9,292.0,1,norm,2.02,1.371,-1.376,-1.922,-4.919,-4.507,-1.244,-1.469,-1.253,-2.002,1.27,-1.345,287.7,295.5,-4.791,-8.019,1.701,-1.391,7.547,4.921,-4.782,-7.666,3,4.484,4.625,4.893,4.809,1.534,1.396,1.542,1.288,3,4.555,4.316,-40,275.753290873,norm,0,14,14,14,745.742,745.753,745.772388982,745.773,745.775,745.778,up,1,1.11176313157,8.88823686843,001,314,1366_768,Intel(R) Core(TM) i5-3230M CPU @ 2.60GHz,orientation_search,DESKTOP-3MLAIPL,GeForce GT 635M/PCIe/SSE2,2018_Nov_08_1358,testMonitor,
371.0,331.6,350.8,354.3,36,30,350.1,346.1,362.4,371.6,8.449,8.21,7.707,7.904,8.254,7.984,7.565,4.854,-4.467,-7.91,1.802,-1.151,8.184,4.46,-4.505,-8.226,365.9,367.4,-7.704,343.6,371.2,349.0,352.6,344.8,36,341.8,1,5,prime,10,0,98,norm,36,-4.91,down,norm,351.62404288,349.8,358.6,357.3,361.3,1,344.3,360.5,346.1,10,6,8.033,4.721,1.645,-1.322,-4.389,-8.039,334.9,6,449.6,-7.953,-8.149,30,-8.196,-8.481,-5.295,-4.803,-5.062,-4.839,4.834,7.638,7,-1.677,2.039,4.958,7.595,-8.418,-8.127,-1.318,2.028,350.9,351.4,348.6,346.5,333.1,341.8,,350.6,350.8,355.6,0,norm,1.724,1.577,-1.167,-1.955,-4.824,-5.194,-1.679,-1.131,-1.315,-1.75,1.775,-1.909,359.5,355.7,-5.221,-8.373,1.589,-1.81,8.262,4.817,-4.483,-7.699,4,5.154,5.031,4.383,5.038,1.159,1.112,1.76,1.606,4,5.173,4.566,-60,275.753290873,norm,0,15,15,15,746.908,746.919,746.937955775,746.938,746.941,746.943,down,1,1.66075848235,8.33924151765,001,314,1366_768,Intel(R) Core(TM) i5-3230M CPU @ 2.60GHz,orientation_search,DESKTOP-3MLAIPL,GeForce GT 635M/PCIe/SSE2,2018_Nov_08_1358,testMonitor,
351.2,348.0,346.2,356.8,36,30,355.2,359.4,342.0,349.5,8.492,8.311,8.111,8.256,7.766,7.68,7.779,5.01,-5.093,-7.84,1.292,-2.039,7.917,4.34,-4.456,-7.503,358.2,352.7,-8.443,371.6,332.0,352.7,344.9,333.8,36,352.3,2,5,prime,10,0,72,norm,36,-5.109,up,norm,351.62404288,353.8,,354.5,348.9,4,331.6,334.0,364.1,10,6,7.643,4.79,1.799,-1.701,-4.963,-8.469,341.1,6,423.6,-7.66,-7.734,30,-8.235,-7.863,-5.107,-4.749,-4.504,-5.116,4.888,8.421,16,-1.856,1.158,5.047,7.926,-7.726,-7.558,-1.481,1.764,337.8,349.2,353.0,352.8,363.8,362.9,344.5,350.1,334.9,346.4,1,norm,1.578,1.954,-1.81,-1.32,-4.348,-4.951,-1.941,-1.356,-1.697,-2.03,1.236,-1.782,353.8,358.6,-5.259,-8.068,1.811,-1.13,7.66,4.703,-5.134,-8.002,4,4.521,4.94,4.492,4.343,1.918,1.318,1.599,2.0,4,4.495,4.855,-60,275.753290873,norm,0,16,16,16,748.622,748.632,748.641165632,748.641,748.644,748.647,up,1,4.45261676173,5.54738323827,001,314,1366_768,Intel(R) Core(TM) i5-3230M CPU @ 2.60GHz,orientation_search,DESKTOP-3MLAIPL,GeForce GT 635M/PCIe/SSE2,2018_Nov_08_1358,testMonitor,
354.8,357.1,339.1,357.8,36,30,358.8,351.7,357.0,357.8,7.596,7.738,8.003,7.524,8.125,7.934,8.014,4.392,-5.105,-7.856,1.467,-1.579,7.915,4.559,-4.418,-7.734,353.0,352.2,-7.574,361.8,,368.1,358.9,358.4,36,333.4,5,5,prime,10,0,64,norm,36,-5.184,down,norm,351.62404288,365.3,352.3,331.6,359.0,0,350.1,371.6,344.9,10,6,8.018,4.343,1.996,-1.26,-5.127,-8.312,368.2,6,415.6,-8.204,-7.81,30,-7.948,-7.945,-4.908,-4.698,-4.977,-5.088,4.484,7.818,30,-1.99,1.653,5.2,7.891,-7.875,-8.166,-2.002,1.56,363.1,346.2,364.9,360.0,360.9,348.4,346.8,359.2,352.8,345.2,2,norm,1.559,1.298,-1.884,-1.709,-4.565,-5.089,-1.526,-1.853,-1.922,-1.879,2.087,-1.388,359.1,352.5,-5.027,-7.667,1.762,-1.147,7.987,4.424,-4.702,-7.571,4,4.984,4.516,4.793,4.935,1.14,1.668,1.534,1.996,4,4.398,4.622,-60,275.753290873,norm,0,17,17,17,753.118,753.128,753.147635792,753.148,753.15,753.153,down,1,26.4004275809,-16.4004275809,001,314,1366_768,Intel(R) Core(TM) i5-3230M CPU @ 2.60GHz,orientation_search,DESKTOP-3MLAIPL,GeForce GT 635M/PCIe/SSE2,2018_Nov_08_1358,testMonitor,
352.2,342.4,353.6,357.5,36,30,346.8,356.0,357.2,355.8,8.475,8.22,7.507,8.328,7.527,8.116,7.628,4.516,-5.235,-8.134,1.504,-1.272,7.738,4.515,-5.287,-8.102,341.7,351.4,-8.484,350.1,331.6,371.6,345.6,334.1,36,,4,5,prime,10,0,69,norm,36,-4.787,up,norm,351.62404288,365.0,334.9,358.7,345.3,3,366.2,353.5,346.7,10,6,8.319,4.823,1.379,-1.868,-5.117,-8.313,353.0,6,420.6,-7.557,-7.605,30,-8.085,-7.507,-4.366,-5.01,-4.685,-4.874,4.487,7.644,27,-2.0,1.767,4.987,8.14,-7.586,-8.084,-1.364,1.227,360.2,355.4,355.1,345.8,360.9,355.0,348.9,359.2,342.9,346.1,3,norm,1.964,2.065,-1.871,-2.057,-4.528,-5.038,-1.364,-1.92,-1.39,-1.103,1.576,-1.365,362.5,364.5,-4.457,-8.172,2.067,-1.301,7.755,4.542,-4.813,-7.999,4,5.138,5.015,4.854,4.889,1.318,1.776,1.382,1.432,4,4.736,4.754,-60,275.753290873,norm,0,18,18,18,779.572,779.583,779.602569275,779.603,779.605,779.608,up,1,2.80938901566,7.19061098434,001,314,1366_768,Intel(R) Core(TM) i5-3230M CPU @ 2.60GHz,orientation_search,DESKTOP-3MLAIPL,GeForce GT 635M/PCIe/SSE2,2018_Nov_08_1358,testMonitor,
357.1,355.9,371.6,357.5,36,30,358.0,346.9,349.4,339.5,7.968,7.539,8.289,7.546,7.944,7.661,8.47,4.634,-4.702,-8.029,1.7,-1.659,7.862,5.207,-4.423,-7.691,352.6,360.2,-8.335,367.3,350.0,349.1,337.1,352.0,36,360.5,2,5,prime,10,0,114,norm,36,-5.171,down,norm,351.62404288,356.7,331.6,361.5,,2,354.1,350.0,352.7,10,6,7.906,4.357,1.365,-1.523,-4.6,-8.094,356.5,6,465.6,-7.559,-7.939,30,-7.534,-7.852,-4.58,-5.172,-4.905,-4.633,5.192,8.475,14,-1.215,1.762,4.851,8.201,-8.181,-8.362,-1.812,2.049,358.9,354.4,357.8,352.8,354.8,370.9,363.3,351.1,355.2,350.0,4,norm,1.242,1.51,-1.371,-1.185,-5.013,-4.998,-1.436,-1.6,-1.186,-1.494,1.995,-1.153,364.5,362.9,-5.024,-7.766,2.095,-1.898,7.873,4.382,-4.392,-7.505,4,4.453,5.107,4.653,4.582,1.837,1.981,1.878,1.476,4,5.063,5.238,-60,275.753290873,norm,0,19,19,19,782.436,782.445,782.454483875,782.455,782.457,782.46,down,1,1.40719813743,8.59280186257,001,314,1366_768,Intel(R) Core(TM) i5-3230M CPU @ 2.60GHz,orientation_search,DESKTOP-3MLAIPL,GeForce GT 635M/PCIe/SSE2,2018_Nov_08_1358,testMonitor,
358.1,353.2,347.1,356.2,36,30,347.1,359.1,365.7,343.4,7.846,7.609,7.69,7.533,8.367,8.301,7.679,4.325,-4.561,-7.782,1.769,-1.481,7.505,5.051,-4.331,-7.576,349.1,350.4,-7.648,345.3,355.9,352.9,352.1,344.2,36,351.8,2,5,prime,10,0,81,norm,36,-4.62,down,norm,351.62404288,343.7,350.4,342.5,,2,348.3,340.8,354.9,10,6,8.356,4.631,1.198,-1.851,-4.599,-8.407,353.5,6,432.6,-8.019,-8.112,30,-7.656,-8.389,-4.429,-4.408,-4.663,-4.719,4.933,7.992,14,-1.276,1.602,4.501,7.957,-7.61,-8.433,-1.207,1.934,356.8,342.9,366.0,347.6,350.9,339.1,355.7,359.7,351.6,358.1,5,norm,1.56,1.721,-1.998,-1.168,-4.318,-4.381,-1.462,-1.133,-1.61,-1.75,1.553,-1.104,348.2,371.6,-4.536,-8.113,1.535,-1.254,7.915,4.76,-4.959,-7.591,4,4.785,4.446,5.145,4.493,2.039,1.211,1.609,1.434,4,5.09,4.426,-60,275.753290873,norm,0,20,20,20,783.886,783.896,783.914186195,783.914,783.917,783.92,down,1,1.22816602071,8.77183397929,001,314,1366_768,Intel(R) Core(TM) i5-3230M CPU @ 2.60GHz,orientation_search,DESKTOP-3MLAIPL,GeForce GT 635M/PCIe/SSE2,2018_Nov_08_1358,testMonitor,
448.2,442.6,446.9,445.5,36,-80,449.1,,447.4,446.6,7.971,8.074,8.365,7.717,8.479,8.361,8.434,5.171,-4.351,-7.677,2.068,-1.867,8.459,4.583,-4.695,-8.123,450.1,448.8,-8.111,442.4,445.2,439.5,444.2,448.6,36,448.7,4,5,probe,5,0,65,norm,36,-5.191,down,norm,445.159132544,435.2,446.4,455.2,451.8,1,448.3,440.8,447.5,10,6,8.211,4.536,1.726,-1.199,-4.382,-8.122,436.9,1,380.2,-8.261,-7.769,30,-7.557,-7.506,-4.888,-5.052,-5.215,-4.937,5.254,7.505,25,-1.411,1.456,5.117,8.5,-7.897,-8.114,-1.593,1.688,447.8,438.3,439.3,436.4,446.6,438.9,441.4,440.2,436.2,448.3,0,norm,2.059,1.681,-1.507,-1.543,-5.019,-4.974,-1.143,-1.307,-1.527,-1.312,1.683,-2.03,442.8,443.6,-5.207,-7.788,1.895,-2.049,7.755,4.73,-4.525,-8.181,5,4.643,4.941,4.928,4.47,1.956,1.994,1.246,1.668,5,4.575,4.511,30,351.62404288,norm,0,21,21,21,785.166,785.176,785.184715168,785.185,785.187,785.19,down,1,1.52243023197,8.47756976803,001,314,1366_768,Intel(R) Core(TM) i5-3230M CPU @ 2.60GHz,orientation_search,DESKTOP-3MLAIPL,GeForce GT 635M/PCIe/SSE2,2018_Nov_08_1358,testMonitor,
262.6,252.3,244.4,248.9,36,-10,239.8,246.6,261.0,246.8,7.721,8.108,7.844,7.538,7.788,8.254,7.872,5.195,-4.541,-7.816,1.473,-1.526,8.143,4.801,-4.48,-8.042,251.5,256.3,-8.302,243.8,247.0,253.7,269.7,239.1,36,237.2,1,5,prime,10,0,98,norm,36,-4.654,up,norm,251.448674095,245.7,251.2,265.6,271.4,3,244.6,236.9,231.4,10,6,7.743,4.644,1.23,-1.798,-4.956,-7.628,243.5,6,349.4,-8.078,-7.792,-10,-7.661,-7.976,-4.545,-5.072,-5.027,-4.788,5.086,8.432,9,-1.378,1.904,4.877,8.226,-8.025,-8.495,-1.263,1.598,,261.8,260.1,252.3,257.9,268.5,251.5,268.4,261.4,239.7,0,norm,1.953,1.262,-1.482,-1.665,-4.786,-5.042,-1.685,-1.491,-1.853,-1.472,2.049,-1.298,238.4,248.3,-4.426,-8.377,2.011,-2.064,7.784,4.481,-4.537,-8.442,6,4.712,5.067,4.311,4.449,1.566,1.26,1.311,1.826,6,4.931,4.77,-80,351.62404288,norm,0,22,22,22,786.731,786.741,786.761324853,786.762,786.764,786.767,up,1,1.24460254161,8.75539745839,001,314,1366_768,Intel(R) Core(TM) i5-3230M CPU @ 2.60GHz,orientation_search,DESKTOP-3MLAIPL,GeForce GT 635M/PCIe/SSE2,2018_Nov_08_1358,testMonitor,
254.3,245.7,242.6,243.3,36,-10,253.1,255.6,262.7,252.7,7.688,7.895,7.71,7.856,7.697,8.325,8.24,4.834,-4.865,-7.976,1.657,-1.505,8.408,4.384,-4.731,-7.981,254.7,243.8,-8.076,255.7,261.0,257.2,266.9,251.4,36,253.0,1,5,prime,10,0,91,norm,36,-4.574,down,norm,251.448674095,248.3,237.3,255.4,248.6,1,259.1,241.7,266.8,10,6,7.537,5.259,1.411,-1.606,-4.768,-8.486,248.1,6,342.4,-8.359,-8.254,-10,-8.281,-8.17,-5.151,-5.01,-4.991,-4.584,5.078,8.432,7,-2.036,2.003,4.712,8.065,-7.771,-8.405,-2.014,1.815,271.4,249.3,260.2,231.9,246.0,245.9,,239.8,240.4,233.0,1,norm,1.764,2.034,-2.078,-1.724,-5.083,-4.542,-1.645,-1.149,-1.509,-1.368,1.232,-1.202,249.6,233.5,-4.926,-7.61,1.479,-1.684,7.782,4.646,-5.288,-8.218,6,5.061,5.138,4.32,4.641,1.643,1.513,1.944,1.503,6,4.688,4.879,-80,351.62404288,norm,0,23,23,23,788.03,788.04,788.059696714,788.06,788.062,788.065,down,1,0.978369903227,9.02163009677,001,314,1366_768,Intel(R) Core(TM) i5-3230M CPU @ 2.60GHz,orientation_search,DESKTOP-3MLAIPL,GeForce GT 635M/PCIe/SSE2,2018_Nov_08_1358,testMonitor,
247.6,257.3,235.1,242.2,36,-10,255.0,258.4,243.5,245.6,8.163,7.759,7.796,7.568,7.956,7.631,7.773,4.872,-5.13,-8.418,1.224,-1.573,8.315,4.785,-4.688,-8.37,248.3,246.0,-8.004,268.8,264.4,240.0,237.6,244.6,36,259.2,1,5,prime,10,0,70,norm,36,-5.274,up,norm,251.448674095,254.4,263.0,231.4,252.3,5,,252.3,253.6,10,6,7.973,4.535,1.55,-1.662,-4.781,-7.628,271.4,6,321.4,-8.485,-8.27,-10,-8.4,-7.599,-4.915,-4.569,-4.739,-4.757,4.595,8.445,11,-1.989,1.35,4.83,7.815,-7.822,-7.935,-1.859,1.424,237.0,243.2,243.7,241.5,247.9,254.2,254.6,251.8,263.6,243.4,2,norm,1.223,1.42,-1.581,-1.858,-4.459,-4.304,-1.962,-1.364,-1.688,-1.295,1.772,-1.189,265.7,258.2,-4.446,-7.899,1.837,-1.919,8.368,4.611,-5.182,-7.797,6,4.354,4.454,4.956,4.922,1.755,2.015,1.43,1.839,6,5.079,4.931,-80,351.62404288,norm,0,24,24,24,789.062,789.072,789.091864753,789.092,789.094,789.097,up,1,1.04525954457,8.95474045543,001,314,1366_768,Intel(R) Core(TM) i5-3230M CPU @ 2.60GHz,orientation_search,DESKTOP-3MLAIPL,GeForce GT 635M/PCIe/SSE2,2018_Nov_08_1358,testMonitor,
248.3,248.6,271.4,259.2,36,-10,255.8,247.6,253.9,245.9,8.388,7.974,8.498,8.164,7.875,7.867,7.864,5.075,-4.767,-7.826,1.877,-1.553,8.466,4.799,-5.264,-8.171,256.4,241.2,-7.715,262.2,252.6,257.6,262.6,248.1,36,250.9,3,5,prime,10,0,97,norm,36,-4.352,down,norm,251.448674095,259.2,249.8,240.6,241.1,1,250.7,256.8,231.8,10,6,8.127,4.433,1.352,-1.841,-4.833,-7.62,259.7,6,348.4,-8.244,-7.577,-10,-7.849,-8.134,-4.79,-4.991,-4.985,-4.613,4.719,7.791,19,-1.394,2.055,4.842,7.87,-7.895,-8.075,-1.11,1.667,246.7,254.9,250.8,265.7,239.3,252.1,248.7,252.4,266.2,238.7,3,norm,1.859,1.862,-1.476,-1.627,-5.04,-4.608,-1.265,-1.18,-2.089,-1.609,1.36,-1.408,,231.4,-5.287,-7.875,1.337,-1.722,8.488,4.971,-5.087,-7.565,6,4.754,4.349,4.313,4.343,1.491,1.381,1.163,1.381,6,5.087,4.643,-80,351.62404288,norm,0,25,25,25,790.161,790.171,790.190622826,790.191,790.193,790.196,down,1,1.16123690555,8.83876309445,001,314,1366_768,Intel(R) Core(TM) i5-3230M CPU @ 2.60GHz,orientation_search,DESKTOP-3MLAIPL,GeForce GT 635M/PCIe/SSE2,2018_Nov_08_1358,testMonitor,
238.9,231.4,248.8,249.1,36,-10,249.1,247.7,256.4,268.1,7.672,8.322,7.706,8.1,7.637,7.659,8.087,5.245,-4.537,-7.649,2.036,-1.907,8.317,4.338,-4.375,-7.679,253.0,254.8,-8.499,249.2,246.5,253.7,262.1,251.3,36,235.4,1,5,prime,10,0,92,norm,36,-4.596,up,norm,251.448674095,246.0,264.7,254.9,249.3,3,245.8,271.4,244.5,10,6,8.073,5.123,1.66,-1.874,-4.3,-7.854,252.0,6,343.4,-8.027,-8.063,-10,-7.737,-7.988,-5.02,-4.913,-5.202,-4.372,4.428,7.929,9,-1.388,1.478,4.562,8.015,-8.228,-8.471,-1.996,1.388,,238.8,250.1,262.6,265.5,255.6,241.0,246.3,239.5,245.2,4,norm,1.354,1.679,-1.901,-1.396,-4.958,-5.013,-1.137,-1.645,-1.89,-1.534,1.723,-1.695,244.9,257.0,-4.692,-7.71,1.944,-1.436,7.589,4.736,-5.057,-7.807,6,5.145,4.708,4.888,4.311,1.541,1.808,1.684,1.916,6,5.012,4.346,-80,351.62404288,norm,0,26,26,26,791.376,791.387,791.406214449,791.407,791.409,791.412,up,1,3.79208564881,6.20791435119,001,314,1366_768,Intel(R) Core(TM) i5-3230M CPU @ 2.60GHz,orientation_search,DESKTOP-3MLAIPL,GeForce GT 635M/PCIe/SSE2,2018_Nov_08_1358,testMonitor,
256.0,255.9,262.9,254.0,36,-10,271.4,257.6,265.0,268.5,8.178,8.117,8.342,8.162,8.161,8.37,8.192,4.845,-5.244,-7.973,1.183,-1.922,7.736,4.615,-4.393,-8.205,261.8,,-7.936,243.4,236.3,256.3,249.8,268.7,36,264.7,5,5,prime,10,0,74,norm,36,-4.564,up,norm,251.448674095,236.2,247.0,253.0,267.3,4,255.6,248.2,244.9,10,6,7.974,4.758,2.048,-1.288,-4.968,-7.541,249.8,6,325.4,-7.697,-7.65,-10,-8.424,-8.138,-4.968,-5.088,-4.94,-5.288,4.797,8.151,34,-1.531,1.441,5.176,7.681,-8.191,-8.273,-1.708,1.997,254.6,262.9,251.2,239.7,239.3,254.7,250.2,240.1,231.4,266.1,5,norm,1.656,1.337,-1.312,-1.76,-5.218,-5.024,-1.979,-2.09,-1.716,-1.68,1.197,-1.394,267.1,264.9,-5.075,-8.347,1.448,-1.167,8.345,4.736,-4.423,-8.447,6,4.702,4.444,4.33,4.77,1.422,1.351,1.822,1.37,6,5.167,4.584,-80,351.62404288,norm,0,27,27,27,795.222,795.232,795.25203547,795.252,795.254,795.257,up,1,1.09467726568,8.90532273432,001,314,1366_768,Intel(R) Core(TM) i5-3230M CPU @ 2.60GHz,orientation_search,DESKTOP-3MLAIPL,GeForce GT 635M/PCIe/SSE2,2018_Nov_08_1358,testMonitor,
341.2,340.0,337.0,346.6,36,60,338.3,334.0,342.9,330.4,7.681,7.734,8.038,7.708,7.644,7.597,8.413,4.763,-4.528,-7.717,1.437,-1.552,8.061,4.376,-4.646,-8.384,344.5,343.2,-8.413,345.5,340.9,,336.2,344.1,36,339.6,5,5,probe,5,0,99,norm,36,-5.233,up,norm,339.284239835,338.4,343.9,334.7,341.2,3,335.3,339.4,331.5,10,6,8.276,4.416,1.786,-1.219,-4.859,-8.382,340.5,2,240.3,-7.813,-7.56,-10,-7.78,-8.246,-5.217,-4.92,-4.948,-5.209,4.707,8.233,33,-2.016,1.526,4.752,7.953,-8.24,-7.698,-1.707,1.611,349.3,337.8,341.7,334.7,339.3,338.8,334.2,339.9,337.6,329.3,0,norm,1.561,1.905,-1.527,-1.908,-5.043,-4.928,-2.026,-1.892,-1.746,-1.602,1.951,-1.484,342.5,341.0,-4.369,-8.01,1.884,-1.55,7.852,4.572,-4.723,-7.749,7,4.913,4.607,4.409,5.088,2.029,1.124,1.329,1.106,7,4.508,4.415,-10,251.448674095,norm,0,28,28,28,796.371,796.381,796.400557055,796.401,796.403,796.407,up,1,1.04425730329,8.95574269671,001,314,1366_768,Intel(R) Core(TM) i5-3230M CPU @ 2.60GHz,orientation_search,DESKTOP-3MLAIPL,GeForce GT 635M/PCIe/SSE2,2018_Nov_08_1358,testMonitor,
315.4,315.8,320.3,317.3,36,60,310.6,318.6,314.0,312.0,7.844,7.664,7.67,8.397,8.424,7.524,8.373,5.201,-4.434,-8.408,1.164,-1.167,8.368,4.881,-5.006,-8.126,314.3,319.9,-8.256,308.3,312.8,316.9,310.3,310.4,36,311.9,1,5,probe,5,0,74,norm,36,-5.023,down,norm,314.284239835,305.5,306.6,312.0,308.6,2,313.8,324.3,315.0,10,6,8.15,5.166,1.493,-1.239,-5.239,-7.636,316.6,2,240.3,-7.52,-7.933,-10,-7.801,-7.703,-4.537,-4.598,-4.763,-4.339,5.267,8.227,8,-1.813,1.859,4.357,7.927,-7.618,-7.637,-1.485,1.896,314.2,,316.4,304.3,313.6,310.9,310.6,319.4,312.6,319.2,1,norm,1.232,1.115,-1.114,-1.198,-5.193,-5.242,-1.814,-1.197,-1.161,-1.8,1.166,-2.099,316.4,318.7,-4.82,-8.283,1.561,-1.978,8.105,4.403,-5.087,-8.067,7,4.962,4.42,5.148,5.286,1.597,1.744,1.706,1.211,7,4.459,4.772,-10,251.448674095,norm,0,29,29,29,797.47,797.48,797.499576445,797.5,797.502,797.505,down,1,1.59419134242,8.40580865758,001,314,1366_768,Intel(R) Core(TM) i5-3230M CPU @ 2.60GHz,orientation_search,DESKTOP-3MLAIPL,GeForce GT 635M/PCIe/SSE2,2018_Nov_08_1358,testMonitor,
,330.2,329.7,337.8,36,60,303.3,318.0,312.9,313.5,8.265,7.721,7.798,7.752,8.442,7.716,7.518,4.967,-4.327,-8.464,1.338,-1.278,8.472,4.366,-4.732,-8.12,317.7,308.3,-8.022,330.4,312.0,314.0,336.5,325.3,36,326.3,3,5,prime,10,0,114,norm,36,-5.219,up,norm,317.824391421,316.0,316.1,313.8,328.7,4,304.4,320.2,320.0,10,6,8.123,4.501,1.754,-1.504,-5.295,-8.326,319.8,6,431.8,-8.122,-8.083,60,-8.467,-8.151,-5.128,-4.315,-4.459,-5.282,4.561,7.744,22,-1.138,1.439,5.119,7.7,-7.676,-8.119,-1.819,1.131,321.4,311.1,314.4,325.6,329.3,319.8,332.7,334.5,311.5,303.0,0,norm,1.131,1.704,-1.539,-1.896,-4.533,-5.293,-2.098,-1.548,-1.253,-1.942,2.06,-1.162,326.7,307.7,-4.36,-7.573,1.619,-1.181,8.171,5.089,-5.228,-7.525,8,4.593,4.638,5.033,5.197,2.074,1.375,1.982,1.153,8,4.311,4.951,60,251.448674095,norm,0,30,30,30,799.118,799.127,799.136275215,799.137,799.139,799.142,up,1,3.88630580716,6.11369419284,001,314,1366_768,Intel(R) Core(TM) i5-3230M CPU @ 2.60GHz,orientation_search,DESKTOP-3MLAIPL,GeForce GT 635M/PCIe/SSE2,2018_Nov_08_1358,testMonitor,
316.5,324.8,334.8,337.8,36,60,306.4,325.7,316.5,332.6,8.071,7.765,7.896,8.354,8.156,8.419,7.699,4.661,-4.946,-8.498,1.203,-1.129,8.279,4.422,-4.872,-7.831,315.2,320.6,-7.975,322.7,319.0,314.2,297.8,310.4,36,307.5,3,5,prime,10,0,66,norm,36,-5.285,down,norm,317.824391421,330.8,311.6,309.9,313.2,1,298.7,324.8,302.9,10,6,7.775,4.492,1.682,-1.461,-4.464,-7.868,318.5,6,383.8,-8.153,-8.377,60,-7.956,-7.834,-4.535,-4.78,-5.158,-4.979,4.689,8.079,19,-1.495,1.824,4.599,8.036,-8.009,-7.752,-1.667,2.097,302.5,317.9,321.5,311.1,324.8,320.3,313.9,308.7,315.7,315.4,1,norm,1.749,1.414,-1.802,-1.316,-5.149,-4.534,-1.847,-1.291,-1.67,-2.052,1.198,-1.902,,310.2,-5.018,-7.956,1.699,-1.607,8.244,4.835,-5.234,-7.688,8,5.214,4.753,4.485,4.435,1.663,1.112,1.936,1.11,8,4.939,4.851,60,251.448674095,norm,0,31,31,31,803.047,803.057,803.076641264,803.077,803.079,803.082,down,1,0.995125372952,9.00487462705,001,314,1366_768,Intel(R) Core(TM) i5-3230M CPU @ 2.60GHz,orientation_search,DESKTOP-3MLAIPL,GeForce GT 635M/PCIe/SSE2,2018_Nov_08_1358,testMonitor,
,318.1,321.3,324.6,36,60,318.7,326.0,320.2,324.1,7.809,8.436,7.625,8.277,7.69,7.625,8.218,4.462,-4.958,-7.981,2.051,-1.63,7.935,4.491,-5.117,-8.057,314.4,329.9,-8.498,310.3,301.8,317.1,327.9,324.6,36,305.6,3,5,prime,10,0,91,norm,36,-4.775,up,norm,317.824391421,307.9,325.4,312.4,313.3,4,319.8,316.2,331.8,10,6,7.854,5.201,1.169,-1.791,-4.393,-8.377,298.2,6,408.8,-7.934,-8.005,60,-8.256,-7.584,-5.178,-5.172,-4.373,-5.27,4.782,7.856,22,-1.685,1.882,5.014,8.286,-8.393,-8.377,-1.965,1.144,304.7,318.0,316.7,302.2,322.1,317.8,337.8,297.8,311.0,314.2,2,norm,2.027,2.013,-1.568,-1.461,-4.862,-5.293,-2.059,-1.376,-1.301,-1.856,2.015,-1.242,332.9,314.6,-4.641,-8.101,1.259,-1.395,7.885,4.352,-4.913,-7.885,8,4.501,4.982,4.449,5.241,1.176,1.262,1.697,1.218,8,4.754,4.506,60,251.448674095,norm,0,32,32,32,804.11,804.12,804.129210183,804.129,804.132,804.135,up,1,0.974668044597,9.0253319554,001,314,1366_768,Intel(R) Core(TM) i5-3230M CPU @ 2.60GHz,orientation_search,DESKTOP-3MLAIPL,GeForce GT 635M/PCIe/SSE2,2018_Nov_08_1358,testMonitor,
337.8,331.9,318.4,305.4,36,60,319.2,322.4,322.4,323.3,8.356,8.377,7.562,8.436,8.189,8.166,8.481,4.695,-4.74,-7.684,1.504,-1.506,8.067,4.488,-4.405,-7.601,335.7,318.2,-8.454,319.7,322.9,,323.6,309.1,36,305.6,5,5,prime,10,0,67,norm,36,-5.067,up,norm,317.824391421,319.2,322.1,318.6,324.0,3,298.0,313.0,317.5,10,6,7.581,4.538,1.827,-1.616,-5.177,-7.747,327.0,6,384.8,-7.707,-7.555,60,-8.385,-7.934,-4.514,-4.396,-4.794,-4.839,4.625,8.117,33,-1.559,1.856,4.529,8.429,-8.175,-7.68,-1.381,1.805,313.9,319.3,334.9,312.2,299.0,321.7,334.7,321.6,311.0,334.2,3,norm,1.219,2.09,-1.874,-1.176,-5.007,-4.965,-1.753,-1.86,-1.291,-1.475,2.062,-1.407,297.8,320.0,-4.596,-7.939,1.575,-1.538,8.432,4.799,-4.982,-7.67,8,4.81,4.317,5.061,4.906,1.652,1.701,1.417,1.167,8,4.711,5.299,60,251.448674095,norm,0,33,33,33,805.128,805.138,805.157928996,805.158,805.16,805.163,up,1,1.27818098129,8.72181901871,001,314,1366_768,Intel(R) Core(TM) i5-3230M CPU @ 2.60GHz,orientation_search,DESKTOP-3MLAIPL,GeForce GT 635M/PCIe/SSE2,2018_Nov_08_1358,testMonitor,
328.9,307.6,314.1,317.9,36,60,322.1,318.0,311.5,311.5,8.244,7.511,8.051,7.987,8.229,8.187,7.596,4.309,-4.927,-8.229,1.953,-2.013,8.346,5.103,-5.247,-8.118,326.0,313.7,-8.426,,318.2,302.2,324.2,297.8,36,312.3,5,5,prime,10,0,115,norm,36,-4.528,down,norm,317.824391421,319.4,303.2,320.3,337.8,1,329.5,308.8,315.9,10,6,7.935,4.539,1.162,-1.809,-4.868,-8.267,321.5,6,432.8,-8.057,-8.106,60,-7.87,-8.411,-4.701,-4.871,-5.056,-4.38,5.28,7.663,31,-1.95,2.074,5.012,8.292,-8.38,-7.62,-1.306,1.6,315.2,323.4,321.7,319.9,304.1,302.5,314.7,323.7,313.0,306.9,4,norm,1.355,2.015,-1.263,-1.658,-4.663,-4.483,-1.961,-1.579,-1.429,-1.185,1.105,-1.167,325.1,305.0,-4.567,-8.112,1.233,-1.664,8.489,4.694,-4.771,-7.954,8,4.892,5.234,5.112,4.556,2.041,1.361,1.767,1.663,8,4.953,4.728,60,251.448674095,norm,0,34,34,34,806.46,806.469,806.478421219,806.479,806.481,806.484,down,1,1.65557516972,8.34442483028,001,314,1366_768,Intel(R) Core(TM) i5-3230M CPU @ 2.60GHz,orientation_search,DESKTOP-3MLAIPL,GeForce GT 635M/PCIe/SSE2,2018_Nov_08_1358,testMonitor,
322.7,297.8,320.0,312.7,36,60,312.0,316.1,327.4,300.2,8.291,8.258,7.626,8.213,7.911,8.14,7.805,5.176,-5.068,-7.646,1.806,-1.877,7.709,4.85,-5.002,-7.865,300.8,328.0,-8.28,323.6,319.2,315.4,327.7,303.6,36,317.4,2,5,prime,10,0,100,norm,36,-5.108,up,norm,317.824391421,306.0,,324.5,320.2,4,333.1,325.0,319.8,10,6,7.889,4.313,1.579,-2.043,-4.415,-8.402,298.8,6,417.8,-8.0,-8.026,60,-8.267,-8.448,-5.215,-5.008,-4.482,-5.125,4.442,8.451,16,-1.802,1.202,5.132,8.091,-8.331,-8.063,-1.173,1.47,318.8,312.7,318.4,310.5,324.6,337.8,317.4,319.2,324.1,299.9,5,norm,1.898,1.129,-1.234,-1.432,-5.142,-5.126,-1.748,-1.975,-1.101,-1.536,1.71,-1.539,328.3,319.8,-5.072,-8.152,1.229,-1.362,8.314,4.464,-4.719,-8.122,8,4.877,4.68,4.993,5.067,1.244,1.836,1.689,1.167,8,5.077,4.32,60,251.448674095,norm,0,35,35,35,808.158,808.168,808.187790577,808.188,808.19,808.193,up,1,1.32800330949,8.67199669051,001,314,1366_768,Intel(R) Core(TM) i5-3230M CPU @ 2.60GHz,orientation_search,DESKTOP-3MLAIPL,GeForce GT 635M/PCIe/SSE2,2018_Nov_08_1358,testMonitor,
450.2,447.9,461.9,452.2,36,-10,453.0,450.2,447.2,452.2,8.285,7.797,8.382,8.125,7.796,7.97,7.608,4.951,-4.527,-8.081,1.137,-1.848,7.917,4.493,-4.72,-7.866,451.8,447.5,-7.94,455.1,459.0,453.0,450.6,460.1,36,448.9,1,5,probe,5,0,81,norm,36,-4.407,down,norm,451.866998254,449.4,447.1,455.3,444.6,1,451.1,445.5,447.1,10,6,8.38,4.356,1.473,-1.682,-4.467,-8.111,442.5,2,370.9,-7.972,-7.604,60,-7.767,-8.418,-4.302,-5.032,-5.21,-5.018,5.169,7.686,7,-1.744,1.419,4.446,8.147,-8.296,-8.037,-2.085,1.97,447.0,453.0,453.1,446.1,449.4,446.7,,450.0,456.5,453.4,0,norm,1.751,1.729,-1.616,-1.569,-4.658,-4.699,-2.058,-2.002,-1.419,-1.672,1.96,-2.064,441.9,451.6,-5.205,-8.029,1.479,-1.797,8.434,5.196,-4.617,-7.676,9,5.238,4.76,4.925,4.395,1.853,1.814,1.873,1.569,9,5.035,4.616,60,317.824391421,norm,0,36,36,36,809.54,809.55,809.56976097,809.57,809.572,809.575,down,1,1.26127708994,8.73872291006,001,314,1366_768,Intel(R) Core(TM) i5-3230M CPU @ 2.60GHz,orientation_search,DESKTOP-3MLAIPL,GeForce GT 635M/PCIe/SSE2,2018_Nov_08_1358,testMonitor,
459.2,453.9,461.2,465.4,36,-10,457.4,457.3,455.9,462.4,8.444,8.27,8.343,7.822,7.644,7.713,8.448,4.6,-4.378,-7.855,1.62,-1.56,7.61,4.631,-4.317,-8.218,461.7,462.7,-8.455,463.7,462.4,468.1,467.6,457.0,36,462.7,2,5,probe,5,0,88,norm,36,-4.781,down,norm,458.866998254,457.8,453.1,453.7,452.6,1,449.2,,468.9,10,6,7.71,5.095,1.293,-1.585,-4.635,-8.365,456.4,2,370.9,-8.027,-7.83,60,-8.336,-8.119,-5.054,-4.935,-5.156,-4.957,4.333,7.902,13,-1.85,1.808,4.516,7.874,-8.44,-8.204,-1.962,1.663,461.2,459.2,448.9,456.5,463.8,466.4,459.0,458.0,452.6,460.8,1,norm,1.906,1.475,-2.074,-1.6,-4.472,-4.3,-1.509,-2.096,-1.328,-1.174,1.896,-1.278,450.3,461.7,-4.863,-7.856,1.884,-1.616,8.11,4.71,-4.69,-7.563,9,4.492,4.54,4.479,4.945,1.937,1.99,1.249,1.832,9,4.732,5.071,60,317.824391421,norm,0,37,37,37,810.855,810.865,810.88488909,810.885,810.887,810.89,up,0,1.41135631397,-10,001,314,1366_768,Intel(R) Core(TM) i5-3230M CPU @ 2.60GHz,orientation_search,DESKTOP-3MLAIPL,GeForce GT 635M/PCIe/SSE2,2018_Nov_08_1358,testMonitor,
83.1,88.8,71.3,80.7,36,80,64.0,57.0,65.3,54.6,7.814,8.188,8.063,8.024,8.307,7.74,8.257,4.997,-4.506,-7.91,1.328,-1.699,7.902,5.173,-5.217,-8.324,77.6,73.4,-7.917,83.8,74.3,90.5,66.1,84.6,36,62.2,2,5,prime,10,0,110,norm,36,-5.119,down,norm,72.7979471353,81.4,66.6,59.4,,2,80.2,69.8,72.8,10,5,8.12,4.575,2.094,-2.066,-4.79,-8.335,87.4,5,182.8,-7.528,-7.99,80,-8.299,-8.288,-4.713,-4.674,-5.195,-4.39,5.289,8.313,14,-1.588,1.481,4.616,7.965,-8.294,-8.382,-2.038,1.189,52.8,72.1,92.8,78.6,72.9,64.4,68.1,70.1,67.0,77.7,0,norm,2.017,1.311,-2.038,-1.787,-5.017,-5.279,-1.772,-1.374,-1.651,-1.306,1.293,-1.82,66.9,77.8,-4.389,-7.861,1.773,-1.673,8.282,4.445,-4.696,-8.095,10,4.372,4.618,4.836,4.654,1.872,1.197,1.11,1.294,10,4.679,5.153,-10,317.824391421,norm,0,38,38,38,813.333,813.343,813.351977759,813.352,813.355,813.358,down,1,2.42352610524,7.57647389476,001,314,1366_768,Intel(R) Core(TM) i5-3230M CPU @ 2.60GHz,orientation_search,DESKTOP-3MLAIPL,GeForce GT 635M/PCIe/SSE2,2018_Nov_08_1358,testMonitor,
83.5,87.7,67.9,67.2,36,80,70.6,66.7,69.8,65.6,7.646,7.567,7.561,8.49,8.007,8.032,7.566,4.45,-5.117,-8.297,1.664,-1.712,7.75,5.173,-5.029,-7.909,74.0,81.5,-7.981,92.0,92.8,62.6,69.3,61.3,36,56.6,1,5,prime,10,0,111,norm,36,-4.877,down,norm,72.7979471353,73.2,85.1,85.3,86.0,1,85.2,70.1,69.0,10,5,8.175,4.336,1.56,-1.361,-4.308,-8.312,69.0,5,183.8,-7.747,-7.762,80,-8.356,-7.516,-4.598,-4.652,-4.756,-4.611,4.444,8.428,7,-1.78,1.818,4.722,7.9,-8.492,-8.308,-1.317,1.636,67.1,92.4,87.0,78.8,64.9,70.8,,73.8,52.8,78.1,1,norm,1.947,1.643,-1.324,-1.507,-4.977,-4.765,-1.463,-1.579,-2.073,-1.306,1.929,-1.394,67.2,67.6,-4.809,-8.255,1.423,-1.759,8.337,4.594,-4.487,-8.122,10,4.997,4.692,5.228,4.957,2.006,1.331,1.379,1.168,10,4.647,5.223,-10,317.824391421,norm,0,39,39,39,815.8,815.81,815.829785949,815.83,815.832,815.835,down,1,1.1279762304,8.8720237696,001,314,1366_768,Intel(R) Core(TM) i5-3230M CPU @ 2.60GHz,orientation_search,DESKTOP-3MLAIPL,GeForce GT 635M/PCIe/SSE2,2018_Nov_08_1358,testMonitor,
63.8,81.9,73.7,,36,80,75.1,92.8,64.5,76.7,8.248,7.657,7.939,8.46,8.004,7.711,7.838,5.274,-4.419,-8.342,1.351,-1.703,8.344,5.005,-5.015,-8.058,78.9,68.5,-8.44,59.6,55.4,60.8,89.2,60.2,36,62.8,3,5,prime,10,0,67,norm,36,-5.089,up,norm,72.7979471353,66.0,66.4,69.0,72.6,3,52.8,71.6,74.3,10,5,8.463,4.9,1.624,-1.932,-4.527,-8.382,81.6,5,139.8,-8.334,-8.384,80,-7.819,-8.42,-4.471,-5.229,-4.854,-4.495,5.097,7.714,21,-1.964,1.96,4.694,7.68,-8.421,-7.968,-1.39,2.028,82.7,69.4,68.4,66.3,58.6,79.9,62.4,79.3,56.7,79.9,2,norm,2.043,1.496,-1.267,-1.973,-4.435,-4.612,-1.992,-1.856,-1.617,-1.754,1.432,-1.69,80.8,73.4,-4.96,-8.244,1.997,-1.14,8.003,4.912,-5.154,-7.838,10,4.625,4.301,4.937,4.653,1.493,1.402,1.988,1.429,10,5.177,4.893,-10,317.824391421,norm,0,40,40,40,816.982,816.992,817.011676368,817.012,817.014,817.017,up,1,1.27813361271,8.72186638729,001,314,1366_768,Intel(R) Core(TM) i5-3230M CPU @ 2.60GHz,orientation_search,DESKTOP-3MLAIPL,GeForce GT 635M/PCIe/SSE2,2018_Nov_08_1358,testMonitor,
89.0,58.2,59.4,74.4,36,80,52.8,82.7,80.8,74.6,7.673,8.141,8.467,7.564,7.96,8.41,8.449,4.483,-4.563,-8.064,1.956,-2.052,7.574,4.319,-4.668,-8.278,65.8,74.2,-7.99,73.7,89.2,74.5,78.4,76.9,36,87.6,1,5,prime,10,0,78,norm,36,-5.26,up,norm,72.7979471353,79.5,62.2,72.9,65.6,4,74.7,84.3,66.8,10,5,8.457,4.375,1.823,-1.685,-4.645,-8.473,,5,150.8,-8.416,-8.079,80,-8.225,-8.109,-4.877,-4.761,-4.854,-5.299,4.339,7.839,10,-1.541,1.297,5.232,8.088,-8.458,-8.048,-2.039,1.356,78.4,84.2,92.8,77.6,56.0,69.3,67.7,73.2,62.6,65.2,3,norm,1.421,1.204,-1.56,-1.808,-5.085,-4.986,-1.28,-1.241,-1.325,-1.525,1.353,-1.628,84.4,55.1,-5.091,-7.541,1.261,-1.831,7.799,5.051,-5.141,-7.731,10,4.371,5.013,4.513,5.053,1.133,1.876,1.175,1.151,10,4.667,5.077,-10,317.824391421,norm,0,41,41,41,818.315,818.324,818.343423773,818.344,818.346,818.349,up,1,2.74312266661,7.25687733339,001,314,1366_768,Intel(R) Core(TM) i5-3230M CPU @ 2.60GHz,orientation_search,DESKTOP-3MLAIPL,GeForce GT 635M/PCIe/SSE2,2018_Nov_08_1358,testMonitor,
91.8,62.8,85.6,92.8,36,80,76.1,64.7,83.8,70.9,8.164,7.578,7.938,8.439,8.061,8.129,7.961,4.857,-4.437,-7.695,1.806,-1.835,7.577,4.344,-4.744,-8.027,59.3,86.0,-7.51,82.8,75.5,88.0,65.3,52.8,36,,4,5,prime,10,0,95,norm,36,-4.453,up,norm,72.7979471353,67.8,57.4,77.6,57.1,3,73.4,73.1,78.8,10,5,8.008,4.403,1.172,-1.582,-4.79,-7.88,73.7,5,167.8,-8.389,-8.168,80,-8.067,-8.386,-4.682,-5.298,-4.836,-4.9,4.987,7.706,27,-1.275,1.395,4.587,8.383,-7.705,-8.451,-1.483,1.517,68.5,64.3,68.2,62.3,63.4,78.5,78.5,84.1,78.5,65.9,4,norm,1.836,1.97,-1.213,-1.28,-4.568,-4.794,-1.368,-1.625,-1.448,-1.418,1.32,-1.612,88.4,64.8,-5.286,-7.705,1.171,-1.469,7.594,4.695,-5.279,-8.37,10,4.92,4.897,4.756,5.198,1.806,1.578,1.202,1.714,10,4.997,4.82,-10,317.824391421,norm,0,42,42,42,821.111,821.12,821.140297601,821.141,821.143,821.146,up,1,1.94387093309,8.05612906691,001,314,1366_768,Intel(R) Core(TM) i5-3230M CPU @ 2.60GHz,orientation_search,DESKTOP-3MLAIPL,GeForce GT 635M/PCIe/SSE2,2018_Nov_08_1358,testMonitor,
223.0,220.7,222.4,225.7,36,0,218.9,218.4,220.0,218.8,8.371,7.601,7.853,7.723,7.801,7.816,7.564,4.921,-4.585,-8.055,1.586,-1.745,8.444,4.476,-5.09,-8.114,214.5,218.0,-8.172,215.3,225.7,214.1,212.2,213.9,36,224.6,0,5,probe,5,0,70,norm,36,-5.148,up,norm,221.948004771,224.4,216.0,218.1,224.2,4,226.7,211.9,219.6,10,5,7.898,5.168,1.636,-1.585,-5.184,-7.531,222.8,2,151.9,-8.411,-8.421,80,-8.196,-7.55,-5.229,-4.884,-4.368,-5.194,5.1,7.694,4,-1.399,2.099,4.644,7.845,-7.945,-8.354,-1.581,1.121,226.4,222.7,221.8,222.2,231.9,228.4,225.4,228.6,217.7,,0,norm,1.707,2.066,-1.941,-1.187,-4.696,-4.475,-1.327,-1.442,-1.403,-1.793,1.65,-1.941,221.6,230.9,-5.095,-7.691,1.177,-1.957,8.277,4.699,-4.948,-7.998,11,4.786,4.548,4.49,4.977,1.267,1.433,1.869,2.018,11,4.655,4.335,80,72.7979471353,norm,0,43,43,43,823.108,823.12,823.138311277,823.139,823.141,823.144,up,1,1.12809780991,8.87190219009,001,314,1366_768,Intel(R) Core(TM) i5-3230M CPU @ 2.60GHz,orientation_search,DESKTOP-3MLAIPL,GeForce GT 635M/PCIe/SSE2,2018_Nov_08_1358,testMonitor,
212.4,,219.3,213.8,36,0,214.5,223.9,206.7,206.7,7.958,7.662,7.51,8.082,8.084,8.358,8.128,4.38,-4.79,-8.053,1.812,-2.03,8.173,4.427,-4.622,-7.713,216.0,216.6,-8.473,218.9,223.1,215.6,212.6,209.7,36,216.6,3,5,probe,5,0,62,norm,36,-5.236,up,norm,213.948004771,214.1,209.9,211.3,212.8,5,219.5,213.9,214.5,10,5,8.025,4.888,1.109,-1.187,-4.53,-8.273,214.2,2,151.9,-7.842,-8.293,80,-8.208,-8.257,-4.348,-4.322,-4.33,-4.795,5.279,7.881,23,-1.583,1.771,4.563,8.471,-8.041,-8.324,-1.791,1.91,217.6,211.4,215.2,203.9,219.2,216.0,209.7,211.2,210.6,205.0,1,norm,1.241,1.336,-1.509,-1.821,-4.352,-4.899,-1.86,-1.471,-1.841,-1.626,1.67,-2.098,212.3,219.5,-4.417,-8.383,1.116,-1.279,7.785,5.172,-4.417,-8.074,11,4.876,4.664,5.077,4.49,1.488,1.423,1.917,1.432,11,4.332,4.534,80,72.7979471353,norm,0,44,44,44,824.29,824.3,824.320224985,824.321,824.324,824.331,up,1,0.973332249094,9.02666775091,001,314,1366_768,Intel(R) Core(TM) i5-3230M CPU @ 2.60GHz,orientation_search,DESKTOP-3MLAIPL,GeForce GT 635M/PCIe/SSE2,2018_Nov_08_1358,testMonitor,
15.6,36.7,39.5,32.7,36,10,49.9,25.2,34.3,35.3,8.295,8.203,8.25,7.812,7.863,8.378,7.897,4.587,-4.322,-7.607,1.902,-1.104,7.908,4.517,-4.425,-7.578,,55.6,-8.384,23.1,42.0,36.1,36.2,31.2,36,38.6,5,5,prime,10,0,81,norm,36,-5.275,up,norm,35.6151653166,20.7,34.5,36.0,35.1,5,44.5,17.1,36.1,10,5,7.901,4.669,1.531,-1.794,-4.421,-8.29,40.1,5,116.6,-8.322,-7.961,10,-7.844,-8.183,-4.734,-5.04,-5.253,-5.244,4.874,7.909,35,-1.636,1.901,4.419,7.555,-8.192,-8.298,-1.971,1.686,23.3,30.2,35.9,42.1,49.0,53.7,34.9,36.1,22.1,46.8,0,norm,1.335,1.716,-1.748,-1.173,-4.306,-4.809,-1.537,-1.232,-1.131,-1.909,2.099,-1.628,22.9,28.3,-4.959,-7.879,1.864,-1.109,8.48,5.233,-4.714,-7.739,12,4.916,4.406,4.686,4.978,1.157,1.632,1.102,1.402,12,4.334,4.892,0,72.7979471353,norm,0,45,45,45,825.337,825.346,825.355511064,825.356,825.358,825.361,up,1,0.742251478485,9.25774852152,001,314,1366_768,Intel(R) Core(TM) i5-3230M CPU @ 2.60GHz,orientation_search,DESKTOP-3MLAIPL,GeForce GT 635M/PCIe/SSE2,2018_Nov_08_1358,testMonitor,
36.0,35.3,38.5,44.6,36,10,25.9,50.4,29.5,25.8,8.033,7.668,7.991,8.383,7.546,7.842,7.925,4.719,-4.857,-8.426,1.696,-1.653,7.672,4.508,-4.545,-7.741,,34.1,-8.345,32.9,39.3,30.7,15.6,29.6,36,28.8,5,5,prime,10,0,84,norm,36,-4.923,up,norm,35.6151653166,36.7,51.8,19.6,43.3,5,27.9,55.6,37.8,10,5,8.265,5.224,1.552,-1.66,-5.151,-7.674,44.1,5,119.6,-8.069,-7.742,10,-8.124,-7.98,-4.341,-4.838,-4.833,-4.37,4.433,8.197,35,-2.057,1.804,5.063,7.961,-8.123,-7.684,-1.254,1.91,45.3,26.6,32.4,33.1,25.7,20.5,34.2,50.0,52.0,26.5,1,norm,1.122,1.649,-1.601,-1.316,-5.088,-4.506,-1.109,-1.955,-1.618,-1.292,1.781,-1.324,37.5,44.3,-5.145,-8.278,1.85,-1.663,8.172,5.252,-5.281,-8.168,12,4.541,4.445,4.596,5.245,1.723,1.474,1.648,1.95,12,4.964,5.113,0,72.7979471353,norm,0,46,46,46,826.122,826.132,826.151541336,826.152,826.154,826.157,up,1,0.811905474286,9.18809452571,001,314,1366_768,Intel(R) Core(TM) i5-3230M CPU @ 2.60GHz,orientation_search,DESKTOP-3MLAIPL,GeForce GT 635M/PCIe/SSE2,2018_Nov_08_1358,testMonitor,
32.4,27.0,33.5,23.4,36,10,35.0,37.2,47.0,32.0,7.747,7.54,8.084,7.619,7.869,7.761,8.347,5.052,-4.875,-7.973,1.455,-1.243,8.464,5.03,-5.235,-8.075,44.1,43.9,-8.114,54.1,53.7,39.7,23.9,35.7,36,39.6,0,5,prime,10,0,104,norm,36,-4.545,up,norm,35.6151653166,43.9,43.2,44.6,35.6,4,50.3,29.8,39.9,10,5,8.136,5.051,1.166,-1.56,-5.012,-7.678,15.6,5,139.6,-8.476,-7.696,10,-8.036,-8.484,-4.74,-4.434,-5.238,-4.403,4.471,8.282,4,-1.289,1.56,5.282,7.622,-8.07,-8.143,-1.753,2.094,26.4,29.5,33.6,30.5,35.9,24.8,22.8,42.2,46.7,,2,norm,1.172,2.05,-1.737,-1.906,-4.746,-4.859,-1.384,-1.645,-2.019,-1.354,1.389,-1.453,39.1,16.9,-4.612,-7.841,1.96,-1.67,8.073,4.366,-5.277,-8.018,12,4.336,4.475,4.968,4.525,1.58,2.077,1.185,1.94,12,4.672,4.762,0,72.7979471353,norm,0,47,47,47,826.987,826.997,827.017325472,827.018,827.02,827.023,up,1,1.02790051955,8.97209948045,001,314,1366_768,Intel(R) Core(TM) i5-3230M CPU @ 2.60GHz,orientation_search,DESKTOP-3MLAIPL,GeForce GT 635M/PCIe/SSE2,2018_Nov_08_1358,testMonitor,
38.6,20.8,44.8,16.2,36,10,31.6,22.9,15.6,53.0,7.99,7.792,8.301,8.165,7.527,7.979,7.956,5.225,-5.006,-7.886,1.458,-1.331,7.807,4.912,-4.376,-7.505,55.6,25.5,-8.241,38.7,25.8,34.4,33.3,45.4,36,39.6,0,5,prime,10,0,65,norm,36,-4.903,down,norm,35.6151653166,41.2,37.7,43.2,27.2,2,33.9,25.7,39.1,10,5,8.204,4.658,1.5,-1.36,-5.163,-7.778,24.4,5,100.6,-8.314,-8.223,10,-7.949,-8.483,-4.348,-4.775,-4.775,-4.398,4.743,7.941,2,-1.602,1.48,5.131,7.911,-8.024,-7.564,-1.763,1.405,48.7,29.4,32.9,,36.8,47.1,50.0,43.8,36.2,43.9,3,norm,1.179,1.557,-1.634,-1.887,-4.46,-5.258,-1.434,-1.157,-1.396,-1.145,1.241,-1.638,41.4,30.0,-4.353,-7.609,1.865,-1.27,7.782,5.22,-4.519,-8.129,12,4.946,4.804,5.155,4.722,1.789,1.72,1.589,1.813,12,4.974,4.36,0,72.7979471353,norm,0,48,48,48,828.07,828.079,828.09961663,828.1,828.102,828.105,down,1,1.26120406325,8.73879593675,001,314,1366_768,Intel(R) Core(TM) i5-3230M CPU @ 2.60GHz,orientation_search,DESKTOP-3MLAIPL,GeForce GT 635M/PCIe/SSE2,2018_Nov_08_1358,testMonitor,
40.6,35.5,30.2,28.2,36,10,43.8,24.6,51.4,41.1,7.835,7.52,7.715,8.449,7.96,7.574,7.716,5.208,-4.417,-7.924,1.3,-1.433,7.989,4.498,-5.273,-8.192,26.6,33.1,-7.507,38.5,33.7,37.5,33.1,25.6,36,31.9,3,5,prime,10,0,98,norm,36,-5.244,down,norm,35.6151653166,28.9,37.0,44.7,15.6,1,45.7,54.1,27.3,10,5,8.015,4.428,1.376,-1.298,-5.027,-8.19,49.0,5,133.6,-8.307,-7.553,10,-7.52,-8.272,-4.606,-4.765,-4.968,-4.462,4.611,7.727,19,-1.481,1.26,5.144,7.557,-7.909,-7.909,-1.607,1.117,25.1,32.4,17.6,42.1,22.7,43.5,46.8,40.8,17.4,55.6,4,norm,1.12,1.755,-1.331,-1.195,-4.512,-4.89,-1.13,-1.208,-1.392,-1.485,2.035,-1.809,,26.8,-5.176,-8.19,1.296,-2.095,8.323,4.846,-4.389,-8.098,12,4.56,5.252,4.546,4.546,1.939,1.342,2.048,1.436,12,5.025,4.748,0,72.7979471353,norm,0,49,49,49,829.385,829.395,829.414716329,829.415,829.417,829.42,down,1,1.71095265425,8.28904734575,001,314,1366_768,Intel(R) Core(TM) i5-3230M CPU @ 2.60GHz,orientation_search,DESKTOP-3MLAIPL,GeForce GT 635M/PCIe/SSE2,2018_Nov_08_1358,testMonitor,
174.4,163.0,162.5,163.0,36,-40,167.1,165.8,161.8,166.0,7.881,8.225,8.172,8.297,8.303,7.843,8.222,4.543,-5.215,-8.373,2.098,-1.817,7.66,4.953,-4.418,-8.164,164.7,164.4,-8.218,171.4,176.6,170.0,165.9,166.7,36,165.9,0,5,probe,5,0,117,norm,36,-4.332,up,norm,166.646386232,169.4,170.7,168.2,164.5,3,165.0,175.4,160.5,10,5,7.796,4.323,1.111,-1.803,-5.244,-7.914,175.9,1,49.6,-8.113,-8.229,10,-7.615,-8.099,-4.576,-4.76,-4.58,-5.017,4.695,7.58,3,-1.429,1.851,4.913,7.803,-8.196,-7.584,-1.7,1.755,162.8,167.0,,158.4,168.9,171.7,160.7,167.0,156.6,173.0,0,norm,1.97,2.01,-2.033,-1.723,-4.395,-4.839,-1.118,-1.139,-1.255,-1.554,1.767,-1.416,159.8,170.0,-4.549,-7.683,2.07,-1.541,7.968,4.45,-4.76,-8.296,13,4.643,4.863,5.018,5.018,1.749,1.873,1.497,2.036,13,4.569,5.129,10,35.6151653166,norm,0,50,50,50,831.15,831.159,831.179632119,831.18,831.182,831.185,up,1,1.39472281846,8.60527718154,001,314,1366_768,Intel(R) Core(TM) i5-3230M CPU @ 2.60GHz,orientation_search,DESKTOP-3MLAIPL,GeForce GT 635M/PCIe/SSE2,2018_Nov_08_1358,testMonitor,
258.1,260.2,,266.0,36,10,269.1,269.4,257.5,251.1,8.171,7.952,7.579,8.058,7.966,7.824,8.018,4.366,-5.227,-8.057,1.369,-1.368,7.633,4.924,-4.302,-8.415,275.0,264.6,-8.336,266.7,270.2,270.5,269.7,244.1,36,284.1,3,5,prime,10,0,85,norm,36,-4.674,down,norm,264.072167232,254.2,269.5,269.8,267.0,2,257.5,261.0,250.2,10,6,7.712,4.962,1.682,-1.721,-5.219,-8.247,255.0,6,349.1,-8.199,-8.324,10,-8.345,-8.471,-5.283,-4.552,-4.557,-4.969,5.07,7.546,20,-1.502,1.444,4.863,8.035,-7.941,-8.052,-1.686,1.357,251.4,261.3,247.6,267.4,265.5,262.0,248.7,261.2,254.5,260.7,0,norm,1.409,1.91,-1.874,-1.798,-5.217,-5.069,-1.597,-1.489,-1.218,-1.151,1.354,-1.171,271.6,258.5,-4.305,-8.156,2.089,-1.548,8.116,4.358,-5.05,-8.11,14,4.625,4.923,4.767,4.412,1.847,2.04,1.513,1.293,14,4.55,4.418,-40,35.6151653166,norm,0,51,51,51,832.598,832.608,832.628039783,832.628,832.63,832.633,down,1,2.04391151224,7.95608848776,001,314,1366_768,Intel(R) Core(TM) i5-3230M CPU @ 2.60GHz,orientation_search,DESKTOP-3MLAIPL,GeForce GT 635M/PCIe/SSE2,2018_Nov_08_1358,testMonitor,
249.1,246.2,270.0,269.2,36,10,272.8,270.9,245.1,263.6,7.553,7.822,7.917,7.511,8.202,8.021,7.696,5.251,-5.28,-7.598,1.17,-1.942,8.459,4.625,-4.858,-7.792,244.1,268.7,-7.817,260.9,275.4,276.2,278.7,249.1,36,264.9,1,5,prime,10,0,100,norm,36,-4.967,up,norm,264.072167232,274.9,255.3,259.0,258.1,4,258.8,278.3,263.7,10,6,7.908,4.338,1.877,-1.379,-4.735,-8.406,,6,364.1,-7.693,-8.439,10,-7.686,-7.657,-5.01,-4.613,-5.004,-4.331,4.861,8.209,10,-1.764,1.706,4.841,7.974,-8.121,-8.337,-1.628,1.138,267.3,262.3,275.2,269.5,278.3,273.7,272.3,271.2,284.1,258.2,1,norm,1.234,2.023,-1.521,-1.867,-5.146,-5.268,-1.47,-1.796,-1.954,-1.152,1.496,-1.792,271.5,274.3,-5.158,-8.079,1.987,-1.508,8.159,4.36,-4.401,-7.88,14,4.331,5.205,5.134,4.824,1.399,1.362,1.671,1.924,14,4.852,4.373,-40,35.6151653166,norm,0,52,52,52,834.696,834.706,834.725603378,834.726,834.728,834.731,down,0,11.76659264,-10,001,314,1366_768,Intel(R) Core(TM) i5-3230M CPU @ 2.60GHz,orientation_search,DESKTOP-3MLAIPL,GeForce GT 635M/PCIe/SSE2,2018_Nov_08_1358,testMonitor,
278.3,260.9,253.1,267.3,36,10,259.9,254.8,266.9,254.6,7.842,7.554,8.44,7.857,8.414,8.212,7.592,5.14,-4.395,-7.924,1.365,-1.409,8.218,4.798,-4.512,-8.356,,261.1,-7.834,246.6,252.5,271.9,264.7,248.2,36,256.2,5,5,prime,10,0,88,norm,36,-5.022,up,norm,264.072167232,260.8,254.4,270.3,258.8,5,257.7,277.1,247.0,10,6,7.743,5.293,1.671,-1.185,-5.178,-7.959,254.3,6,352.1,-7.97,-8.055,10,-7.994,-8.198,-4.538,-4.605,-4.941,-4.898,4.975,7.649,35,-1.359,1.267,4.823,7.809,-8.246,-8.137,-1.342,2.083,268.7,273.2,284.1,244.1,261.6,271.3,273.6,254.7,267.9,274.2,2,norm,1.424,1.112,-1.977,-1.676,-4.66,-4.35,-1.179,-1.821,-1.657,-1.574,1.415,-1.325,266.2,256.9,-4.365,-8.328,1.565,-1.69,8.009,4.58,-4.468,-7.842,14,4.589,4.609,5.171,4.949,1.668,1.595,1.55,1.492,14,4.675,5.086,-40,35.6151653166,norm,0,53,53,53,847.547,847.559,847.578200481,847.579,847.581,847.585,up,1,0.794268158555,9.20573184144,001,314,1366_768,Intel(R) Core(TM) i5-3230M CPU @ 2.60GHz,orientation_search,DESKTOP-3MLAIPL,GeForce GT 635M/PCIe/SSE2,2018_Nov_08_1358,testMonitor,
270.5,269.1,262.0,264.9,36,10,269.3,278.3,265.8,259.4,8.22,8.291,8.203,8.466,7.763,8.125,8.383,4.818,-5.167,-8.443,1.644,-1.265,7.515,4.794,-4.437,-8.39,276.5,267.2,-7.885,268.5,268.7,264.9,283.1,263.4,36,244.1,1,5,prime,10,0,79,norm,36,-4.794,down,norm,264.072167232,268.2,261.7,255.2,269.4,0,267.3,263.8,284.1,10,6,7.67,4.709,1.489,-1.207,-4.34,-8.245,254.2,6,343.1,-8.423,-8.459,10,-7.902,-8.373,-4.355,-4.724,-4.399,-4.587,5.132,8.118,6,-1.226,1.211,4.748,8.394,-8.397,-8.284,-1.461,1.247,252.8,253.4,268.8,263.8,260.5,269.6,277.0,,255.6,277.0,3,norm,1.514,1.462,-1.888,-1.49,-4.768,-4.985,-1.492,-2.005,-1.266,-1.515,1.169,-1.938,252.8,248.3,-4.658,-8.33,1.995,-1.886,7.612,5.02,-4.622,-8.132,14,4.748,5.276,4.349,4.573,1.231,1.722,1.35,1.717,14,5.281,4.991,-40,35.6151653166,norm,0,54,54,54,848.412,848.423,848.432609435,848.433,848.436,848.439,down,1,8.79693580209,1.20306419791,001,314,1366_768,Intel(R) Core(TM) i5-3230M CPU @ 2.60GHz,orientation_search,DESKTOP-3MLAIPL,GeForce GT 635M/PCIe/SSE2,2018_Nov_08_1358,testMonitor,
254.0,263.0,268.4,273.9,36,10,269.6,271.0,,260.9,7.891,8.331,8.319,8.208,8.348,8.31,7.955,5.195,-5.274,-7.613,1.404,-2.009,7.722,5.038,-4.832,-8.377,271.3,258.1,-7.654,255.6,264.5,284.1,273.3,269.5,36,278.7,4,5,prime,10,0,106,norm,36,-4.689,up,norm,264.072167232,274.6,273.8,258.0,280.4,4,265.0,264.6,282.3,10,6,7.935,4.791,1.179,-1.35,-4.608,-8.127,258.0,6,370.1,-8.093,-7.91,10,-8.317,-7.896,-5.285,-4.44,-4.469,-4.631,5.055,8.47,28,-1.372,1.63,5.133,7.723,-8.471,-7.705,-1.655,1.769,262.6,257.1,267.2,260.0,271.9,275.7,261.1,273.6,262.1,268.2,4,norm,1.681,1.316,-1.887,-1.287,-4.768,-4.584,-1.619,-1.735,-1.403,-1.261,1.937,-1.744,276.0,264.2,-4.512,-8.179,2.053,-2.048,7.845,4.877,-4.716,-7.576,14,5.107,4.625,4.609,4.701,2.045,1.886,1.496,1.534,14,5.188,4.673,-40,35.6151653166,norm,0,55,55,55,857.269,857.281,857.301208058,857.302,857.304,857.308,up,1,3.22481547942,6.77518452058,001,314,1366_768,Intel(R) Core(TM) i5-3230M CPU @ 2.60GHz,orientation_search,DESKTOP-3MLAIPL,GeForce GT 635M/PCIe/SSE2,2018_Nov_08_1358,testMonitor,
257.5,257.2,267.2,269.2,36,10,258.1,254.1,244.1,271.2,8.136,8.157,7.699,7.643,8.021,7.518,8.065,5.179,-4.581,-8.137,1.563,-1.295,7.774,4.614,-4.4,-7.66,268.6,251.9,-8.234,269.8,260.7,254.9,264.2,273.2,36,267.9,0,5,prime,10,0,86,norm,36,-4.451,up,norm,264.072167232,264.8,284.1,264.1,268.4,4,270.8,261.0,255.3,10,6,8.037,4.96,1.649,-1.693,-5.117,-7.603,245.1,6,350.1,-8.482,-8.392,10,-8.176,-8.326,-4.322,-4.936,-4.615,-4.94,4.43,7.8,4,-1.147,1.49,4.673,8.298,-7.71,-7.819,-1.815,1.861,263.6,254.1,269.7,260.1,269.9,252.0,279.4,247.4,269.9,,5,norm,1.848,1.351,-1.868,-1.483,-5.1,-4.628,-2.075,-1.64,-1.497,-1.992,1.379,-1.634,256.1,259.7,-4.317,-7.506,1.234,-1.477,8.051,4.876,-4.717,-7.801,14,4.424,4.76,4.36,4.605,1.903,2.069,2.045,1.552,14,4.327,4.865,-40,35.6151653166,norm,0,56,56,56,860.565,860.577,860.597639779,860.598,860.601,860.604,up,1,5.55560564349,4.44439435651,001,314,1366_768,Intel(R) Core(TM) i5-3230M CPU @ 2.60GHz,orientation_search,DESKTOP-3MLAIPL,GeForce GT 635M/PCIe/SSE2,2018_Nov_08_1358,testMonitor,
365.7,379.4,365.5,369.6,36,0,361.8,372.6,366.9,368.6,8.003,8.065,8.391,8.214,8.163,8.325,7.509,4.915,-4.414,-7.697,1.664,-1.194,7.774,4.919,-5.034,-7.789,374.6,379.3,-8.171,370.0,374.8,369.2,360.0,366.0,36,373.6,1,5,probe,5,0,93,norm,36,-4.88,up,norm,369.371255581,373.1,359.4,375.8,367.9,5,,365.9,366.8,10,6,8.494,4.609,1.646,-2.004,-4.872,-8.037,368.3,2,276.4,-7.923,-7.523,10,-7.776,-8.42,-4.418,-4.908,-4.693,-4.793,4.85,7.667,11,-1.984,1.55,4.894,7.874,-7.633,-7.57,-1.338,1.765,369.8,375.7,372.8,370.4,366.8,375.6,375.7,374.6,367.0,369.4,0,norm,1.751,1.61,-1.101,-1.434,-5.149,-4.874,-1.22,-1.939,-1.319,-1.629,2.063,-1.137,371.4,366.4,-4.331,-8.277,1.639,-1.602,7.83,5.259,-4.901,-8.138,15,4.457,4.766,4.384,4.426,1.394,1.807,1.464,1.816,15,4.359,4.584,10,264.072167232,norm,0,57,57,57,866.192,866.204,866.224788242,866.225,866.228,866.231,up,1,9.5178974485,0.482102551498,001,314,1366_768,Intel(R) Core(TM) i5-3230M CPU @ 2.60GHz,orientation_search,DESKTOP-3MLAIPL,GeForce GT 635M/PCIe/SSE2,2018_Nov_08_1358,testMonitor,
365.6,363.5,367.2,375.4,36,0,371.4,370.3,368.5,362.0,7.879,8.184,8.381,7.589,8.396,7.969,8.294,5.167,-4.623,-8.086,1.839,-1.282,8.163,4.46,-5.091,-7.576,368.0,367.9,-8.067,356.8,363.3,373.2,361.0,359.3,36,358.9,2,5,probe,5,0,89,norm,36,-4.783,down,norm,365.371255581,367.5,365.6,360.4,,2,367.4,372.0,355.4,10,6,8.222,5.09,1.651,-1.402,-4.538,-8.023,365.4,2,276.4,-7.611,-8.016,10,-8.495,-7.817,-5.188,-4.651,-4.735,-4.649,4.967,7.875,14,-1.11,1.134,5.011,7.521,-7.648,-8.278,-1.962,1.736,358.3,357.5,367.1,368.0,360.3,371.1,364.7,369.0,366.3,356.0,1,norm,1.921,1.392,-1.511,-1.905,-5.153,-4.866,-1.968,-1.337,-1.733,-1.135,1.942,-1.524,363.2,362.0,-4.673,-8.226,1.741,-1.439,8.115,4.62,-4.487,-8.236,15,4.724,4.984,4.852,5.106,1.832,1.965,1.504,1.512,15,4.981,4.477,10,264.072167232,norm,0,58,58,58,875.765,875.777,875.786227333,875.787,875.789,875.793,down,1,1.68800057785,8.31199942215,001,314,1366_768,Intel(R) Core(TM) i5-3230M CPU @ 2.60GHz,orientation_search,DESKTOP-3MLAIPL,GeForce GT 635M/PCIe/SSE2,2018_Nov_08_1358,testMonitor,
325.4,313.1,330.4,328.2,36,30,334.4,327.9,316.2,343.7,7.618,8.084,8.091,8.082,8.413,8.408,8.423,5.141,-5.281,-8.488,1.497,-1.53,7.625,4.945,-4.977,-8.482,333.3,332.4,-8.212,332.3,320.8,337.7,319.1,325.7,36,335.8,1,5,prime,10,0,109,norm,36,-4.614,up,norm,323.714363116,312.5,325.7,324.0,337.1,5,,317.6,325.8,10,5,8.423,4.978,1.945,-1.858,-5.082,-8.193,329.5,5,432.7,-8.134,-8.446,30,-7.579,-7.555,-4.344,-4.819,-5.01,-5.2,4.761,8.166,11,-1.727,1.608,4.642,8.006,-7.594,-8.474,-1.69,1.102,336.9,313.1,303.7,322.5,326.9,315.3,328.5,326.5,331.6,329.7,0,norm,1.559,1.543,-1.143,-1.334,-4.908,-4.839,-1.253,-1.873,-1.876,-1.871,1.358,-1.281,332.4,338.3,-4.805,-7.653,1.961,-1.238,7.626,4.496,-4.444,-8.069,16,4.832,4.924,5.073,5.057,1.144,1.871,1.179,1.488,16,4.324,5.14,0,264.072167232,norm,0,59,59,59,877.513,877.525,877.545828363,877.546,877.549,877.552,up,1,1.62655398721,8.37344601279,001,314,1366_768,Intel(R) Core(TM) i5-3230M CPU @ 2.60GHz,orientation_search,DESKTOP-3MLAIPL,GeForce GT 635M/PCIe/SSE2,2018_Nov_08_1358,testMonitor,
320.5,326.6,331.7,306.6,36,30,336.5,303.7,322.5,309.9,7.521,7.847,7.648,8.447,8.058,7.822,7.74,5.073,-4.548,-7.836,1.218,-1.975,8.331,5.053,-4.375,-7.734,340.6,332.7,-7.736,342.1,328.5,329.1,316.5,343.7,36,325.8,0,5,prime,10,0,83,norm,36,-5.151,down,norm,323.714363116,331.6,338.5,328.0,330.2,1,324.6,328.9,322.9,10,5,7.985,4.939,1.6,-1.676,-4.847,-7.841,331.6,5,406.7,-7.568,-7.717,30,-8.21,-8.46,-5.188,-4.961,-4.406,-4.558,5.104,8.329,1,-1.243,1.363,4.881,7.92,-7.89,-8.474,-1.934,1.389,305.9,311.5,333.3,305.3,,331.7,325.1,322.9,335.0,331.0,1,norm,1.498,1.804,-1.353,-1.999,-4.865,-4.531,-1.251,-1.395,-1.575,-1.53,1.349,-1.292,317.7,331.0,-4.449,-8.403,1.322,-1.119,8.373,5.018,-5.087,-7.563,16,5.294,4.625,5.216,4.86,1.944,1.151,1.532,1.166,16,5.163,4.676,0,264.072167232,norm,0,60,60,60,879.212,879.223,879.24395517,879.244,879.247,879.251,down,1,1.21028554603,8.78971445397,001,314,1366_768,Intel(R) Core(TM) i5-3230M CPU @ 2.60GHz,orientation_search,DESKTOP-3MLAIPL,GeForce GT 635M/PCIe/SSE2,2018_Nov_08_1358,testMonitor,
333.0,331.3,328.6,324.1,36,30,340.0,303.7,326.7,323.3,7.723,8.217,8.326,7.668,7.961,8.167,7.95,5.097,-5.197,-8.347,1.684,-1.71,7.654,4.742,-4.374,-7.869,,326.5,-8.388,316.6,341.4,337.0,318.4,328.4,36,316.1,5,5,prime,10,0,66,norm,36,-4.357,up,norm,323.714363116,325.6,332.1,321.5,334.3,5,338.7,320.1,343.2,10,5,7.973,5.238,1.747,-1.172,-4.771,-8.277,338.7,5,389.7,-7.819,-7.564,30,-7.784,-8.239,-5.032,-4.362,-5.243,-4.952,5.282,8.202,35,-1.47,1.713,4.325,8.417,-7.565,-7.681,-2.041,1.487,338.6,313.3,305.7,335.2,309.1,322.8,326.0,343.7,323.4,314.3,2,norm,1.562,1.775,-1.265,-1.719,-4.704,-4.41,-1.594,-1.136,-1.83,-2.047,1.325,-1.135,322.0,324.9,-4.465,-7.99,1.363,-1.694,8.475,5.0,-4.521,-7.656,16,5.2,4.922,5.033,4.401,1.506,1.958,1.9,1.533,16,4.477,5.233,0,264.072167232,norm,0,61,61,61,880.493,880.505,880.525921695,880.526,880.529,880.532,up,1,1.26039603335,8.73960396665,001,314,1366_768,Intel(R) Core(TM) i5-3230M CPU @ 2.60GHz,orientation_search,DESKTOP-3MLAIPL,GeForce GT 635M/PCIe/SSE2,2018_Nov_08_1358,testMonitor,
315.5,315.3,314.5,319.7,36,30,325.1,333.5,332.5,307.8,8.143,8.376,8.012,8.168,8.422,8.496,8.298,4.955,-4.886,-7.902,1.78,-1.177,8.199,5.226,-5.013,-8.457,317.5,321.6,-8.469,303.8,311.3,343.7,329.2,340.6,36,325.5,2,5,prime,10,0,117,norm,36,-5.252,up,norm,323.714363116,303.7,,318.8,319.9,4,329.1,323.2,336.6,10,5,8.213,5.065,1.749,-1.721,-4.736,-8.292,314.2,5,440.7,-7.516,-7.917,30,-7.732,-8.264,-4.573,-5.001,-4.667,-5.277,4.79,7.872,16,-2.069,1.754,5.177,8.12,-8.103,-7.862,-1.873,1.867,313.0,321.0,317.8,326.1,312.4,317.6,323.4,319.1,335.4,335.9,3,norm,1.754,1.599,-1.748,-1.12,-4.834,-5.093,-1.802,-1.288,-1.86,-1.159,1.954,-1.69,332.6,310.4,-4.467,-8.331,1.724,-1.14,7.817,5.151,-4.406,-7.728,16,4.846,4.991,4.931,4.899,1.955,1.417,2.07,1.266,16,4.715,4.629,0,264.072167232,norm,0,62,62,62,881.825,881.838,881.85777489,881.858,881.861,881.869,up,1,1.78849313274,8.21150686726,001,314,1366_768,Intel(R) Core(TM) i5-3230M CPU @ 2.60GHz,orientation_search,DESKTOP-3MLAIPL,GeForce GT 635M/PCIe/SSE2,2018_Nov_08_1358,testMonitor,
312.4,328.3,314.1,340.7,36,30,326.8,307.4,322.6,315.7,8.339,7.745,8.462,8.273,7.644,7.753,8.229,5.052,-5.205,-8.464,1.817,-1.536,8.077,4.821,-5.052,-7.636,329.4,317.3,-8.292,332.3,303.7,325.4,330.4,339.9,36,316.5,0,5,prime,10,0,85,norm,36,-4.996,down,norm,323.714363116,324.5,339.0,319.5,323.5,2,325.4,336.9,315.6,10,5,7.737,5.13,2.072,-1.717,-4.419,-8.432,334.6,5,408.7,-8.389,-8.214,30,-8.173,-7.966,-4.323,-5.19,-4.802,-4.792,4.802,8.017,2,-1.146,1.291,4.659,7.896,-7.573,-7.62,-1.521,1.559,337.0,309.2,326.7,,332.6,329.0,311.6,329.0,335.8,337.8,4,norm,1.874,1.321,-1.24,-2.049,-5.151,-4.684,-1.339,-1.185,-1.622,-1.537,1.532,-1.599,343.7,330.2,-4.56,-7.535,1.363,-1.997,8.443,4.642,-4.799,-8.438,16,5.222,5.213,5.138,4.643,2.098,1.652,2.037,1.502,16,4.742,4.906,0,264.072167232,norm,0,63,63,63,883.69,883.702,883.722330205,883.723,883.725,883.729,down,1,3.67439078016,6.32560921984,001,314,1366_768,Intel(R) Core(TM) i5-3230M CPU @ 2.60GHz,orientation_search,DESKTOP-3MLAIPL,GeForce GT 635M/PCIe/SSE2,2018_Nov_08_1358,testMonitor,
409.4,417.5,414.6,420.8,36,20,418.5,416.1,,419.5,7.734,7.714,8.167,8.127,8.001,7.877,7.743,4.412,-5.03,-8.359,2.029,-1.454,7.6,5.079,-5.116,-8.167,413.7,412.7,-8.364,413.9,405.8,411.2,416.1,415.5,36,414.4,4,5,probe,5,0,60,norm,36,-4.687,up,norm,415.760072075,419.3,416.2,420.4,407.8,4,416.6,415.1,425.8,10,5,8.425,4.647,1.473,-1.738,-5.147,-7.606,417.7,1,355.8,-8.284,-8.093,30,-8.362,-8.158,-5.186,-4.985,-4.902,-4.517,5.137,7.724,28,-1.621,1.427,5.067,7.867,-8.297,-8.032,-1.73,1.112,418.8,420.4,416.8,417.2,417.6,422.6,409.3,411.5,418.4,417.1,0,norm,1.665,2.098,-1.819,-2.028,-4.899,-5.219,-1.849,-1.822,-1.57,-1.15,1.874,-1.852,412.6,414.0,-5.11,-8.379,1.975,-1.721,8.442,5.146,-4.51,-8.362,17,4.346,4.582,5.023,4.498,1.626,1.709,1.576,1.512,17,5.158,4.833,30,323.714363116,norm,0,64,64,64,887.436,887.448,887.468434727,887.469,887.471,887.475,up,1,1.95994587347,8.04005412653,001,314,1366_768,Intel(R) Core(TM) i5-3230M CPU @ 2.60GHz,orientation_search,DESKTOP-3MLAIPL,GeForce GT 635M/PCIe/SSE2,2018_Nov_08_1358,testMonitor,
213.5,207.1,223.3,189.7,36,80,214.7,212.0,192.8,206.8,7.518,8.019,8.286,8.305,7.857,7.653,8.092,4.927,-4.846,-7.738,1.581,-1.874,7.51,5.054,-4.795,-8.038,183.3,211.7,-8.091,195.3,218.2,197.9,212.1,188.5,36,187.4,3,5,prime,10,0,86,norm,36,-5.292,down,norm,203.252969819,212.4,191.7,196.2,189.3,0,207.5,218.9,203.6,10,6,8.193,5.181,1.238,-1.972,-4.845,-7.653,204.5,6,289.3,-8.377,-8.269,80,-8.256,-8.336,-4.421,-5.122,-5.142,-4.813,5.295,7.57,18,-2.067,1.537,4.595,7.746,-8.195,-8.01,-1.456,2.079,208.3,183.4,196.1,189.9,183.5,206.0,202.7,200.2,202.3,216.3,0,norm,1.28,2.035,-2.079,-1.174,-5.13,-5.259,-1.315,-1.649,-2.057,-1.122,2.018,-1.572,208.5,,-5.159,-8.03,1.603,-1.286,7.8,5.133,-4.566,-7.564,18,4.943,4.679,4.957,4.622,1.482,2.016,1.238,2.067,18,4.383,5.216,20,323.714363116,norm,0,65,65,65,889.467,898.733,898.742485953,898.743,898.745,898.748,up,0,2.90616155387,-10,001,314,1366_768,Intel(R) Core(TM) i5-3230M CPU @ 2.60GHz,orientation_search,DESKTOP-3MLAIPL,GeForce GT 635M/PCIe/SSE2,2018_Nov_08_1358,testMonitor,
193.2,206.3,188.9,188.2,36,80,203.3,196.5,210.7,188.2,8.466,8.077,7.791,7.798,7.96,8.044,8.439,4.8,-5.21,-7.565,1.9,-1.689,7.771,4.767,-4.62,-8.452,192.0,206.9,-7.706,,204.3,211.5,201.5,198.0,36,223.3,5,5,prime,10,0,80,norm,36,-4.983,down,norm,203.252969819,202.4,183.3,210.3,189.9,1,196.8,205.7,201.6,10,6,8.177,4.821,2.016,-1.214,-4.78,-8.403,203.2,6,283.3,-7.678,-7.676,80,-7.753,-8.389,-5.165,-4.462,-4.733,-5.151,5.186,7.664,31,-1.771,1.498,4.498,7.908,-8.403,-8.489,-1.415,1.529,199.5,184.3,196.6,195.2,199.1,215.1,210.1,203.2,203.8,201.8,1,norm,1.398,1.493,-2.026,-1.907,-5.049,-5.068,-1.496,-1.904,-1.968,-1.934,1.759,-1.517,206.4,194.2,-4.897,-8.047,1.412,-1.488,8.012,5.012,-4.896,-7.953,18,4.439,4.58,5.251,4.673,2.062,1.997,2.097,1.746,18,4.975,4.605,20,323.714363116,norm,0,66,66,66,902.702,902.712,902.721261648,902.722,902.724,902.727,down,1,2.82340065733,7.17659934267,001,314,1366_768,Intel(R) Core(TM) i5-3230M CPU @ 2.60GHz,orientation_search,DESKTOP-3MLAIPL,GeForce GT 635M/PCIe/SSE2,2018_Nov_08_1358,testMonitor,
223.3,221.2,199.6,203.3,36,80,205.0,189.3,211.2,209.0,8.364,7.823,7.564,8.11,8.246,8.033,8.117,4.943,-4.956,-7.617,1.747,-1.469,7.762,5.139,-4.447,-8.411,194.5,210.0,-7.559,216.8,195.3,200.9,203.8,199.4,36,194.5,1,5,prime,10,0,61,norm,36,-4.327,up,norm,203.252969819,185.5,209.2,195.1,196.8,4,215.5,214.6,219.4,10,6,8.46,4.885,1.905,-1.555,-5.248,-8.035,,6,264.3,-7.727,-8.406,80,-8.133,-8.365,-4.365,-4.722,-4.697,-4.422,4.633,8.259,10,-1.668,1.735,4.342,8.056,-8.418,-7.677,-2.088,1.426,183.3,202.4,195.8,197.8,212.5,212.0,208.7,191.4,197.4,220.8,2,norm,1.568,1.667,-1.916,-1.215,-4.618,-4.954,-1.291,-1.28,-1.613,-1.531,1.874,-1.986,202.8,209.2,-4.358,-8.416,1.481,-1.157,8.069,5.15,-4.911,-8.143,18,5.065,4.716,5.058,4.928,1.411,1.653,1.494,1.336,18,4.848,4.971,20,323.714363116,norm,0,67,67,67,905.569,905.579,905.598400045,905.599,905.601,905.604,up,1,3.92518637585,6.07481362415,001,314,1366_768,Intel(R) Core(TM) i5-3230M CPU @ 2.60GHz,orientation_search,DESKTOP-3MLAIPL,GeForce GT 635M/PCIe/SSE2,2018_Nov_08_1358,testMonitor,
202.6,191.4,214.8,200.5,36,80,196.6,195.5,193.4,208.9,8.477,8.269,8.151,7.723,7.977,7.883,8.357,4.348,-4.745,-7.618,1.285,-1.339,8.279,4.363,-5.222,-7.888,210.6,208.9,-8.317,197.2,183.3,204.3,192.3,201.2,36,200.1,0,5,prime,10,0,94,norm,36,-4.624,up,norm,203.252969819,194.8,217.1,208.3,212.6,3,209.8,205.1,209.6,10,6,8.055,4.519,1.515,-2.096,-4.81,-8.044,205.0,6,297.3,-8.358,-8.416,80,-8.116,-8.072,-4.606,-4.552,-4.806,-4.689,4.7,8.361,3,-1.483,1.583,5.284,8.296,-7.844,-8.281,-1.488,1.276,209.0,205.0,,201.5,207.5,204.3,189.9,191.1,199.8,209.9,3,norm,1.599,1.824,-1.142,-1.734,-4.597,-4.516,-1.795,-1.839,-1.538,-1.154,1.644,-1.967,207.8,223.3,-4.773,-8.334,1.173,-2.084,8.338,4.714,-4.674,-8.009,18,5.255,4.537,5.111,4.849,2.037,1.728,1.539,1.827,18,4.671,4.341,20,323.714363116,norm,0,68,68,68,909.548,909.558,909.577699953,909.578,909.58,909.583,up,1,1.47759345238,8.52240654762,001,314,1366_768,Intel(R) Core(TM) i5-3230M CPU @ 2.60GHz,orientation_search,DESKTOP-3MLAIPL,GeForce GT 635M/PCIe/SSE2,2018_Nov_08_1358,testMonitor,
196.5,187.2,196.5,201.2,36,80,201.2,191.6,209.0,199.3,7.916,8.2,7.899,8.106,7.593,8.251,7.843,4.778,-4.945,-7.865,1.89,-1.768,8.442,4.515,-4.961,-8.451,183.3,216.0,-8.463,198.9,197.1,212.1,187.1,185.0,36,216.4,0,5,prime,10,0,87,norm,36,-5.082,up,norm,203.252969819,207.5,205.6,204.1,197.0,3,223.3,197.3,200.1,10,6,8.037,4.806,2.0,-1.383,-4.768,-8.016,197.5,6,290.3,-8.334,-8.079,80,-8.321,-8.212,-4.974,-4.324,-5.29,-5.242,4.913,7.628,3,-1.808,1.753,5.289,8.349,-8.136,-7.719,-1.372,2.085,207.8,194.1,,209.3,207.0,186.8,198.9,188.9,183.6,205.1,4,norm,1.552,1.309,-2.098,-1.39,-5.028,-4.841,-1.748,-1.466,-1.833,-1.804,1.287,-1.523,214.8,207.5,-5.259,-7.93,1.314,-1.514,7.749,5.285,-4.986,-7.537,18,4.351,4.566,4.313,4.588,1.901,1.265,1.54,1.696,18,4.893,5.266,20,323.714363116,norm,0,69,69,69,911.079,911.089,911.109061935,911.109,911.112,911.115,up,1,2.34342337848,7.65657662152,001,314,1366_768,Intel(R) Core(TM) i5-3230M CPU @ 2.60GHz,orientation_search,DESKTOP-3MLAIPL,GeForce GT 635M/PCIe/SSE2,2018_Nov_08_1358,testMonitor,
201.7,215.4,204.2,200.3,36,80,223.3,208.3,,188.7,8.4,7.699,7.979,8.444,7.922,8.079,8.012,4.514,-5.181,-8.086,1.618,-1.701,8.117,4.881,-4.596,-8.363,203.0,204.9,-7.857,222.0,195.2,210.2,198.5,215.6,36,190.3,4,5,prime,10,0,105,norm,36,-5.239,up,norm,203.252969819,206.5,200.1,202.5,183.3,4,200.3,205.2,210.3,10,6,7.793,5.052,1.246,-1.302,-4.318,-8.495,200.9,6,308.3,-8.137,-7.74,80,-8.229,-7.857,-5.166,-4.684,-4.373,-4.862,4.895,7.799,28,-1.396,2.089,4.939,8.445,-8.034,-7.922,-1.59,1.702,214.3,201.6,187.4,214.5,205.2,212.9,208.1,209.3,214.5,192.4,5,norm,1.336,1.118,-1.197,-1.22,-5.203,-4.508,-1.665,-1.745,-1.841,-1.671,1.974,-1.482,191.1,203.9,-5.037,-7.953,1.667,-1.978,7.57,5.108,-5.288,-7.574,18,4.86,5.094,4.378,4.526,1.46,1.16,1.48,1.296,18,4.786,4.949,20,323.714363116,norm,0,70,70,70,913.477,913.486,913.506468976,913.507,913.509,913.512,up,1,1.27770413709,8.72229586291,001,314,1366_768,Intel(R) Core(TM) i5-3230M CPU @ 2.60GHz,orientation_search,DESKTOP-3MLAIPL,GeForce GT 635M/PCIe/SSE2,2018_Nov_08_1358,testMonitor,
353.6,352.1,355.4,351.1,36,-80,359.5,343.5,352.7,349.4,7.895,8.176,7.515,8.417,7.632,7.547,7.693,5.298,-4.582,-8.158,1.105,-1.198,7.572,4.649,-4.687,-8.128,350.7,357.3,-8.263,352.5,351.0,360.4,354.2,351.7,36,354.3,1,5,probe,5,0,74,norm,36,-5.078,up,norm,352.97419357,343.0,350.8,349.4,363.0,3,359.0,353.9,357.5,10,6,8.005,5.058,1.759,-1.274,-4.723,-7.678,358.3,2,279.0,-7.504,-8.415,80,-7.983,-8.316,-4.754,-4.346,-4.464,-4.699,4.384,7.918,9,-1.271,1.911,4.587,8.021,-8.301,-7.742,-1.183,1.177,,348.4,357.2,354.8,353.0,353.6,347.3,358.9,349.3,349.2,0,norm,1.401,1.299,-1.792,-1.468,-4.704,-4.521,-1.554,-1.323,-1.91,-1.982,1.824,-1.439,352.2,348.4,-4.855,-8.267,1.154,-2.063,7.552,4.382,-4.913,-8.114,19,4.47,4.465,4.869,4.41,1.364,1.12,1.342,1.456,19,5.131,4.404,80,203.252969819,norm,0,71,71,71,914.809,914.818,914.838605988,914.839,914.842,914.845,up,1,10.2342513112,-0.234251311165,001,314,1366_768,Intel(R) Core(TM) i5-3230M CPU @ 2.60GHz,orientation_search,DESKTOP-3MLAIPL,GeForce GT 635M/PCIe/SSE2,2018_Nov_08_1358,testMonitor,
375.9,375.0,385.7,376.2,36,-80,,380.8,378.4,377.6,7.688,8.304,7.789,7.556,7.847,7.584,8.342,5.011,-4.662,-8.009,1.827,-1.206,8.245,5.27,-4.556,-7.756,384.9,386.6,-7.614,379.1,382.0,375.2,377.0,372.3,36,379.2,4,5,probe,5,0,100,norm,36,-4.32,down,norm,378.97419357,373.4,389.0,376.8,372.6,0,374.9,369.0,383.3,10,6,7.855,4.354,1.467,-1.794,-5.201,-7.817,375.0,2,279.0,-7.932,-8.089,80,-7.593,-8.465,-4.778,-4.526,-4.728,-4.341,5.069,8.225,24,-2.099,1.421,5.027,7.579,-8.356,-7.704,-1.953,1.726,384.7,378.7,388.7,388.9,388.4,375.6,372.5,372.2,377.5,382.9,1,norm,1.49,1.596,-1.866,-1.275,-4.866,-4.749,-1.544,-1.614,-1.985,-1.618,1.211,-1.133,378.3,375.7,-4.328,-7.624,1.391,-1.634,7.657,4.552,-4.372,-8.33,19,4.394,4.303,4.426,5.126,2.073,1.425,1.198,1.444,19,4.552,4.835,80,203.252969819,norm,0,72,72,72,925.095,925.104,925.113216164,925.113,925.116,925.119,down,1,1.45844784041,8.54155215959,001,314,1366_768,Intel(R) Core(TM) i5-3230M CPU @ 2.60GHz,orientation_search,DESKTOP-3MLAIPL,GeForce GT 635M/PCIe/SSE2,2018_Nov_08_1358,testMonitor,
352.0,339.9,346.4,324.4,36,40,339.4,320.0,,357.4,8.174,7.662,7.79,8.292,7.897,8.398,7.628,4.786,-5.022,-8.428,1.77,-2.074,8.105,4.829,-5.222,-7.885,335.4,342.6,-8.18,334.3,345.0,339.8,330.2,328.3,36,335.1,4,5,prime,10,0,90,norm,36,-5.267,up,norm,337.420043038,330.0,324.8,350.3,322.5,4,332.9,332.3,347.5,10,5,8.381,4.309,1.156,-1.79,-5.023,-7.582,325.4,5,427.4,-8.336,-7.548,40,-7.905,-7.936,-5.091,-4.392,-4.562,-5.236,5.082,7.883,28,-2.078,1.493,4.325,8.254,-8.422,-7.596,-1.203,1.346,340.5,337.1,342.2,352.0,341.0,336.3,335.9,344.1,340.7,349.9,0,norm,1.611,1.234,-1.421,-1.506,-5.002,-4.54,-2.069,-1.978,-1.398,-2.068,1.184,-1.577,351.0,317.4,-4.349,-7.8,1.221,-1.498,7.951,5.282,-5.09,-7.762,20,4.45,5.021,5.067,5.06,1.204,1.917,1.619,1.998,20,4.608,5.263,-80,203.252969819,norm,0,73,73,73,926.596,926.606,926.625534377,926.626,926.628,926.631,up,1,2.42666625086,7.57333374914,001,314,1366_768,Intel(R) Core(TM) i5-3230M CPU @ 2.60GHz,orientation_search,DESKTOP-3MLAIPL,GeForce GT 635M/PCIe/SSE2,2018_Nov_08_1358,testMonitor,
341.9,338.7,349.6,327.0,36,40,334.5,328.4,,331.9,8.39,8.028,7.879,8.345,8.467,7.881,8.034,5.141,-4.856,-8.395,1.1,-1.146,7.625,4.748,-4.851,-7.532,344.9,317.4,-8.191,332.8,335.5,343.5,330.0,337.8,36,336.2,4,5,prime,10,0,112,norm,36,-4.813,up,norm,337.420043038,343.2,327.9,352.0,344.6,4,345.7,333.8,324.6,10,5,8.265,5.236,1.526,-1.975,-5.021,-8.131,326.4,5,449.4,-8.128,-8.095,40,-8.256,-7.519,-5.013,-4.95,-4.697,-4.446,4.923,8.261,28,-1.909,1.71,4.32,8.177,-7.583,-7.605,-1.265,2.042,357.4,343.7,333.4,329.5,335.5,341.7,327.3,339.0,326.0,350.4,1,norm,1.646,1.595,-2.028,-1.548,-4.641,-4.356,-2.085,-1.507,-1.575,-1.123,1.413,-1.764,326.8,350.5,-4.839,-8.328,2.031,-1.677,7.898,4.927,-5.189,-7.553,20,4.641,5.043,5.165,4.48,1.792,1.595,1.117,1.527,20,4.797,4.636,-80,203.252969819,norm,0,74,74,74,929.09,929.1,929.109324436,929.11,929.112,929.115,up,1,1.97390777798,8.02609222202,001,314,1366_768,Intel(R) Core(TM) i5-3230M CPU @ 2.60GHz,orientation_search,DESKTOP-3MLAIPL,GeForce GT 635M/PCIe/SSE2,2018_Nov_08_1358,testMonitor,
,348.1,348.5,337.8,36,40,343.2,333.3,345.1,331.9,8.192,7.792,8.243,8.166,8.116,7.815,8.179,5.255,-4.917,-8.411,1.519,-1.876,8.289,4.697,-4.427,-7.797,346.3,337.0,-8.326,318.2,335.2,325.2,335.8,341.0,36,317.4,3,5,prime,10,0,90,norm,36,-5.085,up,norm,337.420043038,351.6,338.4,336.9,336.7,4,331.6,333.3,341.3,10,5,8.221,5.044,1.32,-1.46,-4.564,-8.344,337.1,5,427.4,-8.31,-8.316,40,-8.08,-7.736,-5.241,-4.713,-5.283,-4.535,4.42,8.465,22,-1.278,1.32,5.271,8.375,-8.106,-8.09,-1.267,1.242,353.2,331.7,352.7,336.5,327.3,336.3,357.4,329.5,354.9,334.9,2,norm,1.689,1.3,-2.008,-1.407,-5.25,-4.336,-1.488,-1.295,-1.965,-1.555,1.708,-1.378,327.0,327.6,-5.095,-7.997,1.107,-2.039,7.956,4.587,-5.235,-8.473,20,4.54,5.045,4.644,4.543,1.352,1.802,1.129,1.587,20,5.144,4.514,-80,203.252969819,norm,0,75,75,75,931.107,931.117,931.137230482,931.138,931.14,931.143,up,1,1.96068916621,8.03931083379,001,314,1366_768,Intel(R) Core(TM) i5-3230M CPU @ 2.60GHz,orientation_search,DESKTOP-3MLAIPL,GeForce GT 635M/PCIe/SSE2,2018_Nov_08_1358,testMonitor,
331.3,342.8,348.5,319.7,36,40,336.9,342.1,343.5,327.1,7.738,7.849,7.691,7.601,7.566,7.587,8.404,4.756,-4.851,-7.896,1.163,-1.9,8.417,4.827,-5.16,-8.336,325.0,349.9,-7.951,343.0,340.4,338.6,344.8,324.8,36,329.5,2,5,prime,10,0,79,norm,36,-4.667,down,norm,337.420043038,346.0,333.3,322.9,351.0,1,344.2,,317.4,10,5,7.648,5.005,1.638,-1.697,-4.825,-7.989,332.8,5,416.4,-8.209,-8.482,40,-7.778,-8.141,-4.695,-5.144,-4.537,-4.797,4.987,8.472,13,-1.103,1.363,4.995,7.973,-7.916,-7.968,-1.209,1.639,333.3,350.1,324.1,324.9,343.7,339.6,339.5,336.7,336.0,319.1,3,norm,1.406,2.082,-1.167,-1.766,-4.906,-5.031,-1.586,-1.87,-1.675,-1.912,1.315,-1.234,327.6,357.4,-4.95,-7.608,1.623,-1.431,7.653,5.179,-4.544,-7.908,20,4.602,4.763,5.206,4.611,2.019,1.126,1.53,1.572,20,4.632,4.392,-80,203.252969819,norm,0,76,76,76,933.122,933.132,933.151955022,933.152,933.154,933.157,down,1,1.49432602728,8.50567397272,001,314,1366_768,Intel(R) Core(TM) i5-3230M CPU @ 2.60GHz,orientation_search,DESKTOP-3MLAIPL,GeForce GT 635M/PCIe/SSE2,2018_Nov_08_1358,testMonitor,
326.2,336.2,343.8,317.5,36,40,346.0,318.5,326.9,331.1,8.058,7.778,8.173,7.575,8.225,8.128,8.103,5.062,-4.433,-8.215,1.823,-1.436,8.312,4.593,-4.598,-8.073,340.0,332.5,-7.752,342.1,336.1,353.2,325.9,344.8,36,347.4,1,5,prime,10,0,91,norm,36,-4.919,down,norm,337.420043038,323.5,347.9,336.3,345.0,0,331.1,345.9,329.6,10,5,8.182,4.605,1.96,-1.161,-4.577,-7.977,333.4,5,428.4,-7.947,-7.926,40,-7.847,-7.937,-5.113,-4.587,-4.907,-4.715,4.666,7.931,6,-1.102,1.71,4.87,8.201,-7.598,-8.186,-2.075,1.297,357.4,317.4,323.6,333.8,339.0,331.7,330.9,,335.2,342.1,4,norm,1.112,1.552,-1.231,-1.505,-4.811,-4.595,-1.565,-1.886,-1.254,-1.78,1.859,-1.247,339.8,339.0,-4.75,-8.333,1.607,-1.962,8.379,5.204,-4.663,-8.085,20,5.243,4.566,5.051,4.467,1.727,1.92,1.954,1.598,20,4.928,5.093,-80,203.252969819,norm,0,77,77,77,934.671,934.681,934.700031816,934.7,934.702,934.705,down,1,1.22819483664,8.77180516336,001,314,1366_768,Intel(R) Core(TM) i5-3230M CPU @ 2.60GHz,orientation_search,DESKTOP-3MLAIPL,GeForce GT 635M/PCIe/SSE2,2018_Nov_08_1358,testMonitor,
455.8,466.9,464.1,464.9,36,-20,464.0,467.8,467.6,458.4,7.616,7.632,8.239,8.349,8.313,8.123,8.235,4.551,-5.11,-8.297,1.115,-1.499,8.167,4.575,-4.639,-7.607,460.0,465.2,-7.722,465.1,468.5,463.3,463.1,463.9,36,470.5,1,5,probe,5,0,88,norm,36,-5.269,up,norm,463.004658844,459.6,466.3,468.2,463.0,5,,470.0,473.0,10,5,8.163,4.312,1.375,-1.571,-4.62,-7.95,464.0,2,375.0,-7.728,-7.581,40,-7.856,-7.585,-4.644,-4.943,-4.432,-5.135,5.006,8.428,11,-1.508,1.776,4.404,7.758,-7.768,-8.245,-1.896,1.604,467.3,460.3,466.4,460.4,453.0,463.9,458.0,462.6,463.4,465.6,0,norm,1.863,1.345,-1.284,-1.239,-4.821,-5.181,-1.427,-1.838,-1.859,-1.447,1.808,-1.205,455.3,461.1,-4.45,-8.137,1.392,-1.1,8.19,4.573,-5.17,-8.376,21,5.151,5.231,5.153,4.594,1.561,1.356,1.186,1.747,21,4.73,5.262,40,337.420043038,norm,0,78,78,78,935.952,935.963,935.981986104,935.982,935.984,935.987,up,1,1.9438306698,8.0561693302,001,314,1366_768,Intel(R) Core(TM) i5-3230M CPU @ 2.60GHz,orientation_search,DESKTOP-3MLAIPL,GeForce GT 635M/PCIe/SSE2,2018_Nov_08_1358,testMonitor,
472.0,471.7,460.0,460.6,36,-20,468.2,471.8,471.8,464.9,8.402,7.856,7.692,7.863,8.206,8.303,8.113,4.837,-4.897,-8.456,1.749,-1.186,7.53,5.105,-4.599,-8.499,463.4,463.6,-8.071,472.2,474.3,478.8,465.0,468.5,36,475.3,1,5,probe,5,0,95,norm,36,-5.035,down,norm,470.004658844,461.9,473.8,466.9,474.0,0,475.2,470.0,477.2,10,5,7.557,4.349,1.896,-1.958,-4.434,-8.399,473.4,2,375.0,-7.853,-7.567,40,-8.369,-7.922,-4.959,-4.953,-5.264,-5.159,4.437,8.389,6,-1.243,1.95,5.179,8.003,-7.57,-8.305,-2.01,1.75,471.6,475.1,468.2,474.3,470.6,480.0,474.2,,463.4,477.7,1,norm,1.948,1.463,-1.267,-1.52,-4.912,-4.849,-1.585,-1.918,-1.29,-1.717,1.681,-1.941,476.8,462.0,-4.376,-7.542,1.957,-1.265,8.279,4.661,-4.479,-7.89,21,4.869,4.82,4.846,4.495,1.716,1.646,1.385,1.157,21,4.31,4.762,40,337.420043038,norm,0,79,79,79,937.95,937.96,937.979852147,937.98,937.982,937.985,up,0,1.64417590818,-10,001,314,1366_768,Intel(R) Core(TM) i5-3230M CPU @ 2.60GHz,orientation_search,DESKTOP-3MLAIPL,GeForce GT 635M/PCIe/SSE2,2018_Nov_08_1358,testMonitor,
319.2,318.9,329.7,310.6,36,-20,326.3,324.8,323.4,323.1,8.088,8.21,7.723,7.847,8.046,7.651,8.398,4.855,-5.059,-7.646,1.337,-1.801,8.336,4.852,-4.485,-8.046,335.1,339.8,-7.642,344.1,333.4,334.8,318.2,325.3,36,319.4,2,5,prime,10,0,116,norm,36,-4.918,up,norm,324.128178984,330.8,,304.1,326.9,4,329.3,343.4,332.7,10,6,7.98,4.535,2.054,-1.843,-4.603,-8.397,341.2,6,440.1,-8.349,-7.674,-20,-7.636,-7.7,-4.577,-4.386,-4.542,-5.151,4.602,7.611,16,-1.264,1.547,4.582,7.767,-7.643,-7.728,-1.108,1.607,313.3,307.6,323.0,315.2,317.9,314.0,324.8,321.9,326.7,326.7,0,norm,1.345,1.995,-1.975,-1.961,-4.715,-5.186,-1.801,-1.847,-2.014,-1.298,1.257,-1.54,309.1,310.1,-4.897,-8.195,1.195,-1.277,8.463,4.758,-4.319,-7.908,22,4.329,5.035,4.466,4.866,1.197,1.621,1.536,1.184,22,4.916,5.002,-20,337.420043038,norm,0,80,80,80,940.683,940.695,940.710179756,940.71,940.713,940.717,up,1,5.77192674286,4.22807325714,001,314,1366_768,Intel(R) Core(TM) i5-3230M CPU @ 2.60GHz,orientation_search,DESKTOP-3MLAIPL,GeForce GT 635M/PCIe/SSE2,2018_Nov_08_1358,testMonitor,
326.5,326.0,334.4,319.4,36,-20,320.2,322.5,320.0,335.7,8.035,8.407,7.912,8.291,8.292,8.09,8.2,4.965,-5.084,-8.165,1.373,-1.883,7.933,4.749,-5.219,-7.893,332.3,318.2,-7.989,319.3,329.3,344.1,329.6,317.7,36,319.6,1,5,prime,10,0,95,norm,36,-4.498,up,norm,324.128178984,326.2,332.6,330.5,328.2,5,,323.5,304.1,10,6,8.334,5.208,1.242,-1.689,-4.627,-8.476,329.4,6,419.1,-8.422,-7.656,-20,-8.024,-7.75,-4.898,-4.716,-4.398,-4.6,5.129,8.165,11,-2.064,1.331,5.167,7.709,-8.464,-7.6,-1.163,1.652,320.4,327.0,331.1,330.3,318.3,327.5,327.3,325.0,333.5,309.8,1,norm,1.378,1.643,-1.98,-1.994,-4.856,-5.107,-1.839,-1.918,-1.201,-1.454,1.363,-1.28,321.2,329.4,-4.746,-7.793,1.388,-1.57,7.983,5.165,-4.937,-8.356,22,4.523,4.383,4.398,4.805,1.147,1.482,1.11,2.088,22,4.413,4.466,-20,337.420043038,norm,0,81,81,81,946.508,946.517,946.537345036,946.538,946.54,946.543,up,1,2.7429809554,7.2570190446,001,314,1366_768,Intel(R) Core(TM) i5-3230M CPU @ 2.60GHz,orientation_search,DESKTOP-3MLAIPL,GeForce GT 635M/PCIe/SSE2,2018_Nov_08_1358,testMonitor,
317.6,332.6,330.6,322.3,36,-20,330.8,310.7,314.9,336.8,8.42,7.605,8.346,7.824,8.473,8.43,7.559,5.255,-5.04,-7.52,1.911,-2.078,7.541,4.874,-4.505,-8.118,,328.1,-7.53,335.9,328.4,304.1,319.7,330.0,36,330.6,5,5,prime,10,0,74,norm,36,-5.108,up,norm,324.128178984,317.1,338.4,343.3,336.4,5,328.1,327.6,321.1,10,6,7.752,5.047,1.698,-1.638,-5.209,-8.166,322.3,6,398.1,-8.383,-7.797,-20,-7.503,-7.925,-5.235,-4.323,-4.898,-4.862,4.794,8.488,35,-1.141,1.324,4.564,8.348,-8.464,-8.016,-1.461,1.98,322.7,329.8,344.1,333.4,307.7,326.0,306.9,319.5,330.7,326.1,2,norm,1.294,1.193,-1.382,-1.211,-4.362,-5.186,-1.209,-1.741,-1.598,-1.227,1.148,-1.271,322.8,331.4,-5.058,-8.021,1.511,-1.803,8.16,4.732,-4.373,-8.276,22,4.786,4.795,4.766,5.129,2.051,1.525,1.345,2.053,22,4.426,4.662,-20,337.420043038,norm,0,82,82,82,949.305,949.316,949.334155311,949.334,949.337,949.34,up,1,5.85605817183,4.14394182817,001,314,1366_768,Intel(R) Core(TM) i5-3230M CPU @ 2.60GHz,orientation_search,DESKTOP-3MLAIPL,GeForce GT 635M/PCIe/SSE2,2018_Nov_08_1358,testMonitor,
322.1,318.1,335.2,326.3,36,-20,326.8,343.1,332.3,312.6,8.21,7.795,7.744,7.853,7.564,8.125,7.615,4.349,-5.072,-7.886,2.097,-1.827,7.737,4.413,-5.193,-7.714,324.5,324.6,-8.332,344.1,314.5,335.8,312.5,312.7,36,322.6,1,5,prime,10,0,72,norm,36,-5.016,down,norm,324.128178984,320.1,327.1,311.5,317.0,1,332.0,327.8,322.8,10,6,8.096,5.027,1.506,-1.112,-5.114,-8.195,308.2,6,396.1,-8.314,-8.222,-20,-7.864,-7.842,-4.525,-4.388,-4.484,-5.023,4.34,7.765,7,-1.836,1.336,5.077,8.125,-7.72,-7.685,-1.97,2.028,331.1,338.0,329.5,328.4,331.4,322.7,,304.1,314.7,313.7,3,norm,1.938,1.359,-1.116,-1.2,-5.161,-4.564,-1.487,-1.309,-1.317,-1.397,1.49,-1.571,328.0,320.5,-4.506,-8.07,1.486,-2.051,8.193,4.351,-4.66,-7.716,22,4.665,4.515,4.718,5.085,1.482,1.499,1.96,1.743,22,4.566,4.524,-20,337.420043038,norm,0,83,83,83,955.214,955.289,955.299301865,955.3,955.302,955.305,down,1,4.8522331547,5.1477668453,001,314,1366_768,Intel(R) Core(TM) i5-3230M CPU @ 2.60GHz,orientation_search,DESKTOP-3MLAIPL,GeForce GT 635M/PCIe/SSE2,2018_Nov_08_1358,testMonitor,
314.5,324.5,333.3,339.8,36,-20,337.1,321.0,331.5,326.7,7.904,7.886,8.241,7.845,7.967,8.292,8.321,4.654,-4.893,-7.893,1.764,-2.06,7.676,4.926,-4.357,-8.479,333.4,,-8.495,318.7,319.1,307.2,342.4,326.3,36,328.4,5,5,prime,10,0,105,norm,36,-4.986,up,norm,324.128178984,337.3,326.0,336.6,322.7,4,320.3,309.3,335.5,10,6,8.1,4.753,1.387,-1.259,-5.073,-8.323,313.4,6,429.1,-8.421,-7.625,-20,-8.2,-7.841,-4.83,-4.75,-5.265,-4.665,5.277,8.062,34,-1.904,1.266,4.342,8.49,-8.486,-7.877,-1.341,1.525,310.7,322.5,316.3,320.1,312.7,323.0,340.7,344.1,331.7,329.9,4,norm,1.725,1.856,-1.404,-2.1,-4.676,-5.148,-1.512,-1.905,-1.973,-1.227,1.159,-1.707,308.8,327.8,-4.685,-7.584,1.571,-1.984,8.071,4.495,-5.024,-7.932,22,4.655,5.024,4.51,4.666,1.46,1.716,1.439,1.401,22,5.086,5.274,-20,337.420043038,norm,0,84,84,84,960.176,960.185,960.205825789,960.206,960.208,960.211,up,1,1.1616178283,8.8383821717,001,314,1366_768,Intel(R) Core(TM) i5-3230M CPU @ 2.60GHz,orientation_search,DESKTOP-3MLAIPL,GeForce GT 635M/PCIe/SSE2,2018_Nov_08_1358,testMonitor,
317.9,332.8,327.2,323.6,36,-20,317.9,323.6,325.2,310.0,8.033,7.843,8.146,7.835,8.462,8.486,8.324,5.224,-4.846,-7.611,2.099,-1.684,7.835,4.896,-5.225,-7.889,337.3,312.1,-7.941,307.2,329.0,323.0,304.1,326.8,36,343.0,1,5,prime,10,0,111,norm,36,-4.334,down,norm,324.128178984,326.2,344.1,326.1,328.2,1,324.1,338.6,305.3,10,6,8.105,4.442,1.389,-1.497,-5.091,-8.368,328.1,6,435.1,-8.242,-7.598,-20,-8.44,-8.344,-5.189,-4.396,-4.974,-4.409,4.801,7.628,7,-1.915,1.127,4.38,8.453,-7.76,-7.787,-1.328,1.922,314.0,339.7,329.6,329.8,332.0,317.1,,323.8,306.2,331.4,5,norm,1.366,1.746,-1.31,-1.12,-4.879,-4.507,-1.596,-1.976,-1.835,-1.989,1.677,-1.521,328.9,326.0,-4.763,-8.132,1.754,-1.677,8.404,4.694,-4.434,-8.488,22,4.341,4.651,5.134,4.75,1.656,1.446,1.544,2.071,22,5.248,4.463,-20,337.420043038,norm,0,85,85,85,961.392,961.402,961.421191621,961.421,961.424,961.427,down,1,1.6118527372,8.3881472628,001,314,1366_768,Intel(R) Core(TM) i5-3230M CPU @ 2.60GHz,orientation_search,DESKTOP-3MLAIPL,GeForce GT 635M/PCIe/SSE2,2018_Nov_08_1358,testMonitor,
382.3,377.7,371.7,389.7,36,-30,384.9,385.7,376.6,384.5,7.849,7.532,8.044,8.387,7.717,8.102,7.782,5.036,-4.701,-8.131,1.353,-1.372,7.566,4.861,-4.923,-7.757,376.7,377.6,-7.976,382.6,391.7,382.1,381.9,388.7,36,383.3,0,5,probe,5,0,75,norm,36,-4.715,up,norm,381.727177071,375.2,380.4,378.4,383.9,3,380.6,383.6,378.5,10,6,7.742,4.752,2.047,-1.482,-5.047,-7.564,384.0,1,306.7,-7.886,-7.704,-20,-7.798,-7.726,-4.814,-4.813,-5.038,-4.916,4.532,8.46,3,-1.313,1.823,5.164,8.137,-7.791,-7.983,-1.398,1.802,377.5,376.8,,382.2,375.3,377.4,376.5,388.1,386.6,383.4,0,norm,2.0,1.588,-1.3,-1.813,-5.155,-5.091,-1.727,-1.517,-1.406,-1.412,1.836,-1.763,385.3,385.8,-4.993,-8.135,1.51,-1.347,7.922,4.731,-5.054,-8.453,23,4.699,4.992,4.778,4.585,1.317,1.24,1.449,1.576,23,5.178,4.976,-20,324.128178984,norm,0,86,86,86,963.071,963.092,963.104304546,963.105,963.108,963.111,up,1,1.85783765349,8.14216234651,001,314,1366_768,Intel(R) Core(TM) i5-3230M CPU @ 2.60GHz,orientation_search,DESKTOP-3MLAIPL,GeForce GT 635M/PCIe/SSE2,2018_Nov_08_1358,testMonitor,
12.0,15.9,7.0,18.6,36,40,1.6,0.7,7.3,25.8,8.057,7.552,7.929,7.923,8.277,8.381,7.555,4.754,-4.796,-8.106,1.922,-1.143,7.932,4.823,-4.621,-8.094,1.0,8.3,-7.917,8.6,5.4,15.7,32.0,15.6,36,14.6,0,5,prime,10,0,77,norm,36,-4.826,up,norm,11.9894848569,9.2,18.4,11.3,-2.6,3,-3.9,13.0,10.6,10,6,8.373,5.084,1.236,-1.396,-4.322,-8.217,7.6,6,89.0,-8.326,-7.81,40,-7.658,-7.529,-4.991,-4.605,-5.169,-4.373,5.19,8.03,3,-1.571,1.427,4.55,8.378,-7.599,-8.415,-1.267,1.681,9.0,16.6,,23.2,4.6,13.2,15.0,9.5,20.7,-8.0,0,norm,1.718,1.975,-1.75,-1.122,-4.733,-5.156,-1.901,-2.05,-1.805,-1.516,1.725,-2.017,3.0,17.8,-4.862,-8.377,1.456,-1.347,8.036,5.093,-5.205,-8.035,24,5.253,4.501,4.413,4.351,1.545,2.028,1.852,1.822,24,4.802,5.195,-30,324.128178984,norm,0,87,87,87,964.988,964.997,965.017255209,965.018,965.02,965.023,up,1,2.01048583636,7.98951416364,001,314,1366_768,Intel(R) Core(TM) i5-3230M CPU @ 2.60GHz,orientation_search,DESKTOP-3MLAIPL,GeForce GT 635M/PCIe/SSE2,2018_Nov_08_1358,testMonitor,
19.9,19.4,19.3,9.9,36,40,13.3,15.9,10.0,11.3,7.692,7.759,7.842,7.641,8.356,8.146,7.944,5.277,-4.937,-7.554,1.978,-2.035,7.988,4.605,-5.251,-8.127,0.1,25.9,-8.442,-2.9,18.0,19.0,28.5,-1.2,36,-0.1,2,5,prime,10,0,105,norm,36,-4.854,up,norm,11.9894848569,17.2,,12.9,11.6,4,9.1,-6.5,18.5,10,6,8.116,4.772,2.03,-2.017,-4.306,-7.687,32.0,6,117.0,-8.12,-8.417,40,-7.546,-7.846,-4.776,-4.864,-4.807,-4.837,4.355,8.253,16,-1.4,1.911,4.593,8.136,-8.08,-8.413,-1.891,1.738,14.8,20.2,26.8,18.0,-8.0,8.3,17.9,11.2,7.4,3.7,1,norm,1.367,1.542,-1.327,-1.744,-5.194,-4.352,-1.865,-1.726,-1.949,-1.214,1.111,-1.381,-2.0,15.6,-4.645,-8.21,1.833,-1.264,8.063,4.642,-4.597,-8.182,24,5.265,4.413,5.183,5.131,1.931,1.657,1.26,1.9,24,5.249,4.761,-30,324.128178984,norm,0,88,88,88,967.052,967.062,967.081516286,967.082,967.084,967.087,up,1,1.2448409638,8.7551590362,001,314,1366_768,Intel(R) Core(TM) i5-3230M CPU @ 2.60GHz,orientation_search,DESKTOP-3MLAIPL,GeForce GT 635M/PCIe/SSE2,2018_Nov_08_1358,testMonitor,
18.1,-8.0,2.5,15.8,36,40,23.8,10.6,-1.5,1.8,7.7,8.121,8.456,7.81,7.58,7.826,7.685,4.332,-4.396,-7.731,2.001,-1.931,7.996,5.15,-4.347,-8.49,7.3,6.5,-8.245,7.0,21.0,,32.0,2.2,36,8.5,5,5,prime,10,0,64,norm,36,-5.238,up,norm,11.9894848569,4.0,-2.7,11.9,20.9,3,29.4,6.4,12.9,10,6,8.469,4.349,1.344,-1.41,-4.881,-7.769,0.7,6,76.0,-7.85,-7.917,40,-8.201,-7.832,-4.587,-4.605,-4.717,-4.509,5.02,8.427,33,-1.997,1.233,4.521,7.739,-8.446,-8.24,-1.46,2.083,23.6,31.7,3.7,4.3,5.2,14.8,14.6,13.1,11.9,6.3,2,norm,1.28,1.404,-1.618,-1.839,-4.465,-5.154,-1.584,-1.941,-1.298,-1.16,2.062,-1.94,26.5,27.4,-4.976,-8.029,1.145,-1.38,7.734,5.0,-4.692,-7.727,24,4.306,4.822,4.848,4.624,1.74,1.234,1.615,1.498,24,4.709,5.167,-30,324.128178984,norm,0,89,89,89,968.351,968.361,968.38007249,968.38,968.382,968.385,up,1,1.54451901495,8.45548098505,001,314,1366_768,Intel(R) Core(TM) i5-3230M CPU @ 2.60GHz,orientation_search,DESKTOP-3MLAIPL,GeForce GT 635M/PCIe/SSE2,2018_Nov_08_1358,testMonitor,
8.7,4.3,7.3,4.2,36,40,9.4,11.0,12.8,16.0,8.269,8.37,7.565,8.163,7.527,8.08,8.21,4.366,-4.305,-7.761,1.854,-1.696,8.113,5.083,-5.051,-7.88,7.1,8.9,-7.951,-1.9,14.1,6.7,26.1,6.1,36,20.0,1,5,prime,10,0,97,norm,36,-5.226,up,norm,11.9894848569,16.3,17.0,4.6,-0.1,3,20.9,15.1,32.0,10,6,8.012,4.634,1.858,-1.775,-4.749,-7.814,12.8,6,109.0,-7.818,-8.419,40,-7.923,-8.25,-4.652,-4.328,-5.071,-4.458,4.78,8.397,9,-1.85,1.342,4.888,7.509,-8.334,-8.207,-1.159,1.703,,-2.1,6.2,27.1,15.1,-8.0,28.2,13.2,6.3,13.7,3,norm,1.263,1.251,-1.644,-1.183,-4.743,-4.621,-1.993,-1.853,-1.731,-1.258,2.022,-2.054,21.3,10.6,-4.995,-7.792,1.579,-1.979,7.529,4.838,-4.427,-7.548,24,4.596,4.999,4.732,4.323,1.722,1.453,1.515,1.92,24,4.855,4.649,-30,324.128178984,norm,0,90,90,90,969.949,969.958,969.978313061,969.979,969.981,969.984,up,1,2.50982938608,7.49017061392,001,314,1366_768,Intel(R) Core(TM) i5-3230M CPU @ 2.60GHz,orientation_search,DESKTOP-3MLAIPL,GeForce GT 635M/PCIe/SSE2,2018_Nov_08_1358,testMonitor,
11.5,2.7,5.1,21.1,36,40,0.1,15.9,2.5,-2.5,8.216,7.945,7.788,7.749,7.52,8.352,7.755,4.432,-5.129,-8.366,2.0,-1.874,7.53,4.899,-4.678,-7.858,21.3,16.7,-8.219,13.0,13.2,32.0,28.0,20.5,36,10.3,1,5,prime,10,0,65,norm,36,-4.797,down,norm,11.9894848569,31.2,-1.6,2.4,10.4,2,21.9,11.9,17.8,10,6,7.563,4.835,1.983,-1.694,-4.618,-8.282,16.7,6,77.0,-7.509,-7.675,40,-8.057,-8.109,-4.342,-4.329,-4.826,-4.538,5.225,7.791,8,-1.577,1.353,4.423,7.711,-7.861,-7.86,-1.287,1.232,15.2,,2.2,26.1,23.5,21.1,27.6,17.8,-8.0,5.3,4,norm,1.546,1.349,-2.043,-1.144,-4.351,-4.969,-1.883,-1.468,-1.374,-2.019,1.604,-1.845,-1.1,10.9,-4.788,-7.666,1.222,-1.395,7.836,4.575,-5.015,-8.442,24,4.714,4.593,4.349,4.667,2.035,1.94,1.248,1.877,24,4.517,4.604,-30,324.128178984,norm,0,91,91,91,972.513,972.523,972.54216282,972.543,972.545,972.548,up,0,1.19466652878,-10,001,314,1366_768,Intel(R) Core(TM) i5-3230M CPU @ 2.60GHz,orientation_search,DESKTOP-3MLAIPL,GeForce GT 635M/PCIe/SSE2,2018_Nov_08_1358,testMonitor,
16.2,6.0,23.8,2.4,36,40,18.2,32.0,-6.1,-0.2,8.36,7.983,7.511,7.891,8.386,7.588,8.231,5.125,-4.714,-8.19,1.314,-1.674,7.659,4.946,-4.833,-7.937,3.6,6.0,-7.934,24.3,12.9,16.8,12.0,5.5,36,22.2,1,5,prime,10,0,96,norm,36,-4.463,up,norm,11.9894848569,10.0,-6.9,-8.0,3.8,3,6.0,10.7,-4.7,10,6,7.642,4.865,1.449,-1.653,-5.05,-7.98,17.1,6,108.0,-7.857,-8.123,40,-7.91,-7.721,-5.215,-4.85,-4.913,-4.961,5.28,7.625,9,-2.018,1.453,4.676,8.217,-7.549,-8.142,-1.383,1.784,,24.5,9.7,6.0,27.3,4.9,19.0,16.6,6.4,6.9,5,norm,1.988,1.253,-1.393,-1.62,-5.252,-4.808,-1.578,-1.631,-1.808,-1.477,1.585,-1.453,-0.1,17.0,-5.256,-8.428,1.676,-1.88,8.073,5.281,-4.798,-7.697,24,4.425,4.712,4.517,4.473,1.473,1.837,1.508,2.001,24,4.356,5.143,-30,324.128178984,norm,0,92,92,92,974.793,974.803,974.822974734,974.823,974.825,974.828,up,1,0.0794261448318,9.92057385517,001,314,1366_768,Intel(R) Core(TM) i5-3230M CPU @ 2.60GHz,orientation_search,DESKTOP-3MLAIPL,GeForce GT 635M/PCIe/SSE2,2018_Nov_08_1358,testMonitor,
,132.9,134.0,138.3,36,-60,141.2,145.5,133.1,132.8,8.248,8.038,7.597,7.716,7.832,7.692,8.105,5.289,-4.686,-8.303,1.795,-1.444,8.27,4.705,-4.949,-7.962,131.0,135.6,-8.032,141.8,138.3,133.4,140.1,130.2,36,138.6,3,5,probe,5,0,84,norm,36,-4.856,up,norm,136.446093423,137.9,129.9,132.3,132.7,4,138.4,139.8,138.2,10,6,8.211,4.596,1.312,-1.457,-4.817,-7.528,141.0,2,52.4,-7.556,-7.653,40,-8.346,-7.752,-5.11,-4.431,-4.402,-4.616,5.005,7.533,22,-1.473,1.719,4.516,8.378,-7.582,-7.834,-1.905,1.389,131.0,137.5,133.0,130.0,130.7,140.1,142.5,137.5,138.4,136.8,0,norm,1.149,1.591,-1.532,-1.46,-4.883,-4.952,-1.767,-1.237,-1.782,-1.89,1.142,-1.293,146.4,126.4,-4.451,-8.25,2.091,-1.425,8.131,4.592,-4.661,-8.177,25,4.936,5.279,4.881,4.838,1.544,1.453,1.509,1.725,25,5.247,4.779,40,11.9894848569,norm,0,93,93,93,974.927,974.937,974.956475726,974.957,974.959,974.962,up,1,2.17690723878,7.82309276122,001,314,1366_768,Intel(R) Core(TM) i5-3230M CPU @ 2.60GHz,orientation_search,DESKTOP-3MLAIPL,GeForce GT 635M/PCIe/SSE2,2018_Nov_08_1358,testMonitor,
111.4,116.7,119.2,117.9,36,-60,114.8,118.2,119.1,113.7,7.934,8.343,7.67,7.529,8.064,7.666,8.471,5.21,-4.74,-7.602,1.261,-1.516,8.123,4.336,-5.039,-8.041,122.3,126.1,-7.746,127.4,113.2,113.3,122.0,121.1,36,,4,5,probe,5,0,65,norm,36,-4.39,up,norm,117.446093423,111.5,116.8,122.4,124.5,3,119.0,110.9,114.6,10,6,8.463,5.168,1.292,-1.311,-5.232,-8.031,123.0,2,52.4,-8.107,-8.034,40,-8.426,-7.809,-4.84,-4.358,-4.686,-5.087,4.873,7.888,27,-1.856,1.902,4.633,8.07,-7.672,-7.657,-1.619,1.537,116.0,114.0,119.3,116.2,114.6,115.8,120.4,107.4,115.2,117.7,1,norm,1.152,1.219,-2.086,-1.3,-5.009,-4.923,-1.893,-1.292,-1.969,-1.809,1.841,-1.715,117.1,123.1,-5.201,-7.615,1.312,-2.096,8.424,4.581,-4.656,-7.784,25,5.017,4.85,4.514,5.102,1.407,1.921,1.297,1.137,25,4.709,5.261,40,11.9894848569,norm,0,94,94,94,977.158,977.168,977.187322022,977.188,977.19,977.193,up,1,0.761800513312,9.23819948669,001,314,1366_768,Intel(R) Core(TM) i5-3230M CPU @ 2.60GHz,orientation_search,DESKTOP-3MLAIPL,GeForce GT 635M/PCIe/SSE2,2018_Nov_08_1358,testMonitor,
291.0,294.0,274.0,293.1,36,-60,285.4,285.4,295.6,280.9,8.448,7.675,7.992,8.128,7.646,7.955,7.663,4.679,-5.022,-7.771,1.169,-1.486,7.734,5.035,-5.27,-8.433,293.3,293.0,-8.167,298.7,291.8,275.9,292.5,308.5,36,272.7,0,5,prime,10,0,83,norm,36,-4.337,down,norm,292.678904777,293.5,301.5,296.1,297.8,0,292.6,297.4,287.8,10,5,8.296,4.704,1.674,-1.182,-4.999,-8.23,291.6,5,375.7,-7.974,-8.451,-60,-7.935,-7.722,-4.753,-4.881,-4.411,-4.343,4.483,7.978,0,-1.688,1.802,4.309,8.346,-8.404,-7.654,-1.567,1.252,304.9,312.7,297.3,302.5,278.8,,275.2,295.6,296.7,290.8,0,norm,1.222,1.915,-2.072,-1.525,-4.458,-5.059,-1.574,-1.689,-1.32,-1.251,2.03,-1.882,294.8,294.5,-4.441,-7.927,2.073,-2.057,8.342,4.352,-4.927,-8.277,26,4.815,5.06,4.84,4.882,1.899,1.465,1.565,1.688,26,5.242,5.181,-60,11.9894848569,norm,0,95,95,95,977.974,977.984,978.002914355,978.003,978.005,978.008,up,0,1.42780901911,-10,001,314,1366_768,Intel(R) Core(TM) i5-3230M CPU @ 2.60GHz,orientation_search,DESKTOP-3MLAIPL,GeForce GT 635M/PCIe/SSE2,2018_Nov_08_1358,testMonitor,
