d_ori_22,d_ori_23,d_ori_20,d_ori_21,set_size,ctpd,d_ori_24,d_ori_25,d_ori_28,d_ori_29,stim_pos_x_30,stim_pos_x_31,stim_pos_x_32,stim_pos_x_33,stim_pos_x_34,stim_pos_x_35,stim_pos_y_11,stim_pos_y_10,stim_pos_y_13,stim_pos_y_12,stim_pos_y_15,stim_pos_y_14,stim_pos_y_17,stim_pos_y_16,stim_pos_y_19,stim_pos_y_18,d_ori_35,d_ori_34,stim_pos_x_3,d_ori_31,d_ori_30,d_ori_33,d_ori_32,d_ori_26,test_set_size,d_ori_27,targetCol,dsd_test,seq_type,dsd,blockRepN,targetDist,dtype_test,prime_set_size,stim_pos_y_25,correctResponse,dtype,distrMean,d_ori_17,d_ori_16,d_ori_15,d_ori_14,targetRow,d_ori_11,d_ori_13,d_ori_12,dsd_prime,streak_length_prime,stim_pos_y_35,stim_pos_y_34,stim_pos_y_33,stim_pos_y_32,stim_pos_y_31,stim_pos_y_30,d_ori_10,nextProbe,targetOri,stim_pos_x_1,stim_pos_x_2,ctpd_prime,stim_pos_x_4,stim_pos_x_5,stim_pos_x_6,stim_pos_x_7,stim_pos_x_8,stim_pos_x_9,stim_pos_y_28,stim_pos_y_29,targetPos,stim_pos_y_20,stim_pos_y_21,stim_pos_y_22,stim_pos_y_23,stim_pos_y_24,stim_pos_x_0,stim_pos_y_26,stim_pos_y_27,d_ori_9,d_ori_8,d_ori_3,d_ori_2,d_ori_1,d_ori_0,d_ori_7,d_ori_6,d_ori_5,d_ori_4,trialN,dtype_prime,stim_pos_x_18,stim_pos_x_19,stim_pos_x_12,stim_pos_x_13,stim_pos_x_10,stim_pos_x_11,stim_pos_x_16,stim_pos_x_17,stim_pos_x_14,stim_pos_x_15,stim_pos_y_9,stim_pos_y_8,d_ori_19,d_ori_18,stim_pos_y_1,stim_pos_y_0,stim_pos_y_3,stim_pos_y_2,stim_pos_y_5,stim_pos_y_4,stim_pos_y_7,stim_pos_y_6,totBlockN,stim_pos_x_27,stim_pos_x_26,stim_pos_x_25,stim_pos_x_24,stim_pos_x_23,stim_pos_x_22,stim_pos_x_21,stim_pos_x_20,blockN,stim_pos_x_29,stim_pos_x_28,prevDistrCTPD,prevDistrMean,prevDistrType,trials.thisRepN,trials.thisTrialN,trials.thisN,trials.thisIndex,timeStart,timeBeforeDraw,timeDraw,timeAfterSaving,timeAfterWritingToTemp,timeAfterPreparingNext,answer,correct,rt,trialScore,session,participant,resolution,cpu_info,expName,pc_name,graphic_card,date,monitorName,
62.1,44.3,46.2,64.7,36,-20,48.6,32.4,31.0,68.1,7.594,7.755,7.735,7.991,8.461,8.321,8.193,4.378,-4.802,-8.408,1.66,-1.887,8.335,5.138,-4.494,-8.431,47.1,47.1,-8.172,44.3,34.8,49.2,53.8,44.3,36,46.2,2,5,prime,10,0,74,norm,36,-4.556,down,norm,48.1225772151,37.7,47.9,60.5,,2,50.2,59.0,52.0,10,6,7.566,5.2,1.823,-1.204,-4.56,-8.336,46.4,6,122.1,-7.721,-8.37,-20,-7.905,-8.234,-4.335,-4.463,-4.478,-5.056,4.749,7.718,14,-1.262,1.129,5.149,7.639,-8.123,-8.371,-1.277,1.735,51.8,28.1,49.5,41.3,40.1,41.5,55.4,60.7,51.5,46.7,0,norm,1.879,1.315,-1.654,-1.429,-5.088,-4.302,-2.04,-1.592,-1.658,-1.924,1.168,-1.722,47.4,48.8,-5.227,-7.717,1.536,-1.809,7.692,4.472,-5.181,-8.027,0,4.833,4.34,4.886,4.732,1.134,1.116,2.083,1.561,0,4.335,4.3,,,,0,0,0,0,1698.182,1698.199,1698.20496014,1698.205,1698.205,1698.207,down,1,2.84618861933,7.15381138067,001,303,1280_720,Intel(R) Core(TM) i5-8350U CPU @ 1.70GHz,orientation_search,prilt00735,Intel(R) UHD Graphics 620,2018_Nov_08_1319,testMonitor,
49.0,45.4,32.2,41.6,36,-20,56.7,30.8,68.1,56.3,8.136,7.783,7.818,8.355,7.837,8.382,8.051,4.633,-5.051,-8.155,1.502,-1.538,7.557,4.853,-4.517,-8.146,45.4,46.8,-7.771,36.1,47.4,46.1,30.9,53.1,36,54.9,1,5,prime,10,0,109,norm,36,-4.46,down,norm,48.1225772151,62.3,39.3,43.4,38.9,0,37.6,47.5,47.1,10,6,7.843,4.943,2.001,-1.708,-4.892,-8.499,48.9,6,157.1,-7.936,-8.071,-20,-8.151,-7.898,-5.152,-4.509,-4.726,-5.019,4.567,8.302,6,-2.045,2.072,4.974,7.549,-7.576,-7.993,-1.919,1.79,51.8,59.9,61.0,50.6,46.2,44.6,43.1,,28.1,46.8,1,norm,1.944,1.324,-1.85,-1.167,-5.171,-4.341,-2.078,-2.075,-1.418,-1.902,2.076,-1.478,50.0,52.3,-4.907,-7.679,1.826,-1.926,7.924,4.622,-4.52,-8.274,0,4.629,4.761,5.07,4.539,1.487,1.843,1.634,1.125,0,4.471,5.189,,,,0,1,1,1,1701.086,1701.1,1701.1039491,1701.104,1701.112,1701.116,down,1,1.52112704962,8.47887295038,001,303,1280_720,Intel(R) Core(TM) i5-8350U CPU @ 1.70GHz,orientation_search,prilt00735,Intel(R) UHD Graphics 620,2018_Nov_08_1319,testMonitor,
47.7,56.8,34.3,47.7,36,-20,43.9,52.4,38.4,52.8,7.944,8.14,8.459,7.758,7.629,7.858,8.379,4.502,-4.371,-7.982,1.667,-1.919,8.035,5.254,-5.184,-7.776,38.0,35.1,-7.92,37.6,48.1,44.2,32.6,45.0,36,40.8,0,5,prime,10,0,82,norm,36,-4.327,down,norm,48.1225772151,33.2,32.2,67.4,42.4,1,68.1,42.8,67.2,10,6,7.86,4.727,2.017,-1.584,-5.246,-8.05,41.8,6,130.1,-8.125,-7.521,-20,-8.235,-7.921,-4.687,-4.694,-4.859,-4.683,5.106,7.963,1,-1.673,2.071,4.555,8.15,-8.037,-8.263,-1.9,1.349,53.5,37.2,61.9,44.5,,55.8,57.6,44.3,46.3,49.1,2,norm,1.691,1.853,-2.004,-1.813,-5.278,-4.375,-1.743,-1.756,-1.984,-1.837,2.004,-1.351,28.7,28.1,-4.81,-8.014,1.915,-1.821,7.73,5.136,-4.549,-8.152,0,5.102,4.521,4.53,4.654,1.313,1.198,2.031,1.409,0,5.044,4.812,,,,0,2,2,2,1702.673,1702.693,1702.69878751,1702.699,1702.702,1702.706,down,1,1.47978083346,8.52021916654,001,303,1280_720,Intel(R) Core(TM) i5-8350U CPU @ 1.70GHz,orientation_search,prilt00735,Intel(R) UHD Graphics 620,2018_Nov_08_1319,testMonitor,
60.8,50.0,43.2,55.6,36,-20,37.3,59.5,51.8,60.0,8.174,8.046,8.068,8.277,8.321,8.195,8.365,4.445,-5.195,-8.386,1.472,-2.089,7.709,4.342,-4.566,-8.156,37.6,45.2,-8.401,46.9,43.7,53.5,36.3,62.7,36,29.2,0,5,prime,10,0,112,norm,36,-4.523,up,norm,48.1225772151,67.6,49.1,46.9,55.1,4,32.6,44.9,37.2,10,6,8.435,4.96,1.513,-1.805,-4.376,-7.921,53.8,6,160.1,-7.675,-8.137,-20,-8.187,-7.65,-4.429,-5.213,-4.816,-4.848,4.346,7.974,4,-1.69,1.438,4.335,8.379,-8.212,-7.527,-1.355,1.794,62.5,46.7,33.8,58.9,28.1,47.0,68.1,42.9,51.3,,3,norm,1.417,1.57,-2.033,-1.103,-4.597,-5.266,-1.145,-1.23,-1.299,-2.077,1.305,-1.222,66.0,48.0,-4.707,-8.434,1.184,-1.491,7.696,4.778,-4.903,-7.972,0,4.699,4.507,4.688,5.056,1.202,2.038,1.943,2.033,0,5.169,5.14,,,,0,3,3,3,1704.218,1704.235,1704.24032654,1704.241,1704.244,1704.25,up,1,1.43733932468,8.56266067532,001,303,1280_720,Intel(R) Core(TM) i5-8350U CPU @ 1.70GHz,orientation_search,prilt00735,Intel(R) UHD Graphics 620,2018_Nov_08_1319,testMonitor,
55.7,39.2,54.2,40.2,36,-20,28.1,40.6,51.5,52.4,8.146,7.841,7.845,8.353,8.133,7.623,7.947,4.624,-4.595,-7.82,1.241,-1.98,7.78,5.182,-4.543,-8.284,57.4,30.1,-8.202,32.7,41.5,65.6,44.8,64.5,36,64.1,0,5,prime,10,0,119,norm,36,-5.263,up,norm,48.1225772151,48.8,47.9,42.4,57.9,4,46.0,44.7,55.8,10,6,8.054,4.774,2.082,-1.314,-4.821,-7.809,39.8,6,167.1,-8.361,-7.668,-20,-7.572,-7.653,-4.873,-5.189,-5.107,-4.677,4.905,7.989,4,-1.619,1.51,5.175,7.697,-8.348,-7.798,-1.332,1.214,58.1,28.3,46.9,54.4,54.7,38.5,53.4,55.9,34.5,,4,norm,1.163,2.052,-1.632,-1.575,-4.829,-4.365,-1.789,-1.235,-1.88,-1.479,1.821,-1.295,52.2,44.4,-4.849,-7.961,1.25,-1.962,8.268,5.261,-5.232,-7.961,0,5.084,4.857,5.265,5.017,1.403,1.393,2.036,1.194,0,4.596,5.19,,,,0,4,4,4,1705.721,1705.739,1705.74510737,1705.746,1705.754,1705.758,up,1,1.04415789929,8.95584210071,001,303,1280_720,Intel(R) Core(TM) i5-8350U CPU @ 1.70GHz,orientation_search,prilt00735,Intel(R) UHD Graphics 620,2018_Nov_08_1319,testMonitor,
56.2,53.3,50.1,44.5,36,-20,39.6,43.8,54.5,45.5,8.195,8.467,7.505,8.358,7.884,7.788,8.42,4.526,-5.274,-7.556,1.957,-1.232,7.518,4.646,-4.869,-8.051,28.1,43.5,-8.125,52.3,65.4,31.8,31.5,45.6,36,39.6,3,5,prime,10,0,113,norm,36,-5.226,down,norm,48.1225772151,38.1,47.4,40.1,44.0,1,57.7,55.4,35.5,10,6,8.194,4.341,1.602,-1.936,-5.247,-7.617,50.7,6,161.1,-8.239,-7.86,-20,-8.115,-8.203,-4.941,-4.422,-4.522,-4.365,5.127,7.911,19,-2.08,1.668,5.067,8.205,-7.517,-7.732,-1.695,1.693,32.0,62.1,68.1,51.0,49.4,40.4,61.5,50.3,50.3,54.5,5,norm,1.866,1.134,-1.146,-1.196,-4.548,-4.412,-1.738,-1.275,-1.931,-2.019,1.452,-1.88,,44.6,-4.95,-7.588,1.244,-2.04,7.591,5.22,-5.177,-7.986,0,4.849,4.639,4.706,5.298,1.454,1.142,1.625,1.674,0,5.29,4.347,,,,0,5,5,5,1706.835,1706.849,1706.85304338,1706.853,1706.855,1706.858,down,1,1.11189753504,8.88810246496,001,303,1280_720,Intel(R) Core(TM) i5-8350U CPU @ 1.70GHz,orientation_search,prilt00735,Intel(R) UHD Graphics 620,2018_Nov_08_1319,testMonitor,
115.9,98.7,107.7,103.4,36,60,107.9,112.9,111.9,111.3,8.229,8.3,7.551,7.64,8.13,7.721,7.8,5.155,-4.805,-8.328,1.928,-1.427,8.493,5.098,-4.305,-8.493,108.7,115.2,-7.861,112.9,110.3,,111.1,109.7,36,112.7,5,5,probe,5,0,85,norm,36,-4.346,up,norm,108.726194256,114.3,114.5,115.7,102.8,3,104.7,103.5,110.6,10,6,8.204,5.045,1.48,-1.848,-4.808,-7.882,110.7,1,23.7,-8.25,-7.703,-20,-8.046,-7.983,-4.886,-5.03,-4.864,-5.278,4.681,8.053,33,-1.518,1.468,4.917,7.865,-7.656,-8.307,-1.538,1.593,103.0,108.0,114.1,99.7,112.9,110.3,118.7,113.3,109.6,116.7,0,norm,1.424,1.764,-1.148,-1.362,-4.303,-5.106,-1.934,-1.161,-1.36,-2.051,1.516,-2.013,109.0,106.3,-5.272,-7.517,1.857,-1.528,7.829,5.203,-5.082,-8.375,1,4.504,4.596,4.931,4.859,1.19,1.756,1.719,1.435,1,4.59,5.293,-20,48.1225772151,norm,0,6,6,6,1707.999,1708.009,1708.01616853,1708.016,1708.018,1708.02,up,1,4.38162144355,5.61837855645,001,303,1280_720,Intel(R) Core(TM) i5-8350U CPU @ 1.70GHz,orientation_search,prilt00735,Intel(R) UHD Graphics 620,2018_Nov_08_1319,testMonitor,
339.0,323.9,337.1,331.7,36,40,341.2,357.4,336.8,347.3,7.601,7.847,8.331,8.214,7.666,8.235,8.454,5.055,-4.321,-8.06,1.656,-1.887,8.076,4.751,-4.848,-7.631,345.3,347.2,-7.908,341.9,363.1,351.2,360.1,353.9,36,346.3,0,5,prime,10,0,101,norm,36,-5.182,up,norm,343.90872749,330.2,351.1,343.7,349.6,3,363.9,347.8,343.6,10,5,8.069,4.623,1.709,-1.757,-4.758,-7.965,358.3,5,444.9,-7.895,-8.092,40,-7.851,-8.076,-4.656,-4.453,-4.914,-5.078,5.015,7.514,3,-1.156,1.507,4.561,8.499,-8.112,-8.238,-1.638,1.921,343.9,353.6,,324.5,348.8,339.8,349.7,333.1,351.4,342.5,0,norm,1.818,1.221,-2.042,-1.155,-4.996,-5.299,-1.445,-2.051,-1.173,-1.465,1.454,-1.533,324.8,353.7,-4.762,-7.684,2.045,-1.869,8.033,4.829,-4.415,-8.191,2,4.558,4.95,4.385,5.156,1.572,1.216,1.39,1.494,2,4.309,4.4,60,48.1225772151,norm,0,7,7,7,1712.432,1712.447,1712.45140368,1712.452,1712.455,1712.458,up,1,7.77596081141,2.22403918859,001,303,1280_720,Intel(R) Core(TM) i5-8350U CPU @ 1.70GHz,orientation_search,prilt00735,Intel(R) UHD Graphics 620,2018_Nov_08_1319,testMonitor,
335.6,350.8,,342.2,36,40,337.4,350.3,339.5,345.0,8.1,7.782,8.323,7.867,8.266,8.109,8.442,4.912,-4.657,-8.158,1.947,-1.96,7.749,4.412,-5.03,-8.31,360.4,343.4,-7.933,349.1,327.0,349.4,343.3,352.4,36,349.0,3,5,prime,10,0,60,norm,36,-5.119,down,norm,343.90872749,343.8,346.8,351.2,355.7,2,339.3,323.9,338.2,10,5,7.614,5.141,1.275,-1.241,-4.874,-8.423,348.3,5,403.9,-8.306,-8.447,40,-7.653,-8.217,-5.027,-4.41,-4.86,-4.583,4.848,7.71,20,-1.397,1.715,4.314,8.261,-7.802,-8.409,-1.413,1.316,363.9,335.1,334.9,332.3,348.8,335.2,330.5,352.8,337.0,357.3,1,norm,1.484,1.722,-1.621,-1.226,-5.14,-5.061,-1.137,-1.438,-1.182,-1.121,2.063,-1.154,342.1,334.1,-4.824,-7.618,1.925,-1.989,8.174,4.526,-4.872,-7.919,2,4.975,4.595,5.081,4.758,2.047,1.338,1.841,1.529,2,5.15,5.177,60,48.1225772151,norm,0,8,8,8,1720.265,1720.276,1720.281986,1720.282,1720.284,1720.287,down,1,2.68116561169,7.31883438831,001,303,1280_720,Intel(R) Core(TM) i5-8350U CPU @ 1.70GHz,orientation_search,prilt00735,Intel(R) UHD Graphics 620,2018_Nov_08_1319,testMonitor,
345.9,349.1,333.3,348.5,36,40,342.4,362.3,336.7,345.8,7.523,8.298,7.983,7.717,8.278,8.248,7.698,4.682,-4.879,-8.152,1.782,-1.546,7.943,5.05,-4.393,-8.164,349.3,348.3,-7.875,363.9,355.0,343.6,350.7,350.0,36,359.8,1,5,prime,10,0,68,norm,36,-5.27,up,norm,343.90872749,349.3,341.6,341.1,356.8,5,,345.8,336.9,10,5,8.371,4.536,1.985,-1.844,-4.41,-8.272,329.7,5,411.9,-8.374,-7.916,40,-7.643,-8.388,-4.558,-4.585,-5.079,-4.935,5.038,7.907,11,-2.02,1.491,4.591,7.973,-8.345,-7.602,-1.804,1.203,348.0,352.2,351.3,351.1,323.9,345.3,348.6,337.2,342.4,352.0,2,norm,1.325,1.523,-1.387,-1.287,-4.624,-5.262,-1.893,-1.822,-1.149,-1.356,1.875,-1.431,359.0,330.8,-4.795,-8.145,1.244,-1.887,7.545,4.97,-4.316,-7.836,2,4.945,4.526,4.989,4.707,1.339,2.097,1.479,1.39,2,4.363,5.111,60,48.1225772151,norm,0,9,9,9,1723.002,1723.02,1723.02632537,1723.027,1723.03,1723.034,up,1,3.21604052799,6.78395947201,001,303,1280_720,Intel(R) Core(TM) i5-8350U CPU @ 1.70GHz,orientation_search,prilt00735,Intel(R) UHD Graphics 620,2018_Nov_08_1319,testMonitor,
358.9,357.6,344.4,343.5,36,40,341.3,338.2,334.6,338.7,7.947,7.921,7.852,8.006,8.232,7.965,8.309,4.6,-4.961,-8.067,1.2,-1.501,8.369,5.047,-4.875,-8.228,353.2,340.8,-7.65,336.5,342.3,323.9,353.6,357.3,36,336.3,1,5,prime,10,0,93,norm,36,-5.036,up,norm,343.90872749,344.1,342.0,353.3,342.7,4,334.6,353.1,355.7,10,5,7.923,4.719,1.301,-1.639,-5.037,-7.554,,5,436.9,-7.847,-8.372,40,-8.356,-7.945,-4.93,-4.664,-4.457,-4.708,5.248,8.035,10,-1.535,1.828,4.681,7.67,-8.198,-7.66,-1.185,1.382,339.4,341.0,339.2,343.9,354.9,346.0,334.9,340.2,341.4,347.4,3,norm,1.587,1.754,-1.515,-1.509,-5.102,-5.155,-1.832,-1.469,-1.938,-1.257,1.763,-1.201,338.9,363.9,-4.809,-7.528,1.9,-2.002,8.101,4.618,-4.765,-8.35,2,5.095,4.826,4.593,5.173,1.594,1.531,1.63,1.311,2,4.663,4.383,60,48.1225772151,norm,0,10,10,10,1726.285,1726.302,1726.30834702,1726.309,1726.312,1726.316,up,1,1.53321901531,8.46678098469,001,303,1280_720,Intel(R) Core(TM) i5-8350U CPU @ 1.70GHz,orientation_search,prilt00735,Intel(R) UHD Graphics 620,2018_Nov_08_1319,testMonitor,
339.9,338.4,359.4,358.2,36,40,333.2,342.7,334.0,,8.388,7.863,7.714,8.093,7.741,8.432,8.496,4.327,-5.273,-7.686,1.458,-1.654,7.695,4.531,-4.844,-7.695,345.8,348.7,-7.902,363.9,358.2,350.3,341.0,342.1,36,336.4,4,5,prime,10,0,111,norm,36,-5.051,up,norm,343.90872749,346.9,343.2,326.2,346.4,5,357.4,345.6,360.4,10,5,7.666,4.692,1.569,-1.515,-4.631,-8.26,344.1,5,454.9,-8.483,-7.531,40,-8.418,-7.706,-4.772,-5.187,-4.592,-4.304,4.32,7.733,29,-1.352,1.986,4.671,8.329,-7.831,-7.56,-1.946,1.664,342.2,339.1,345.6,323.9,342.9,324.4,339.0,345.6,349.8,345.7,4,norm,1.36,1.719,-1.948,-1.858,-4.697,-4.801,-1.737,-1.859,-1.613,-1.926,1.525,-1.539,352.7,352.2,-4.88,-7.734,1.775,-1.819,8.278,5.098,-4.439,-8.154,2,4.694,4.624,4.561,4.699,2.092,1.801,1.818,2.082,2,4.57,4.85,60,48.1225772151,norm,0,11,11,11,1727.882,1727.893,1727.89907267,1727.9,1727.903,1727.907,up,1,3.60913932035,6.39086067965,001,303,1280_720,Intel(R) Core(TM) i5-8350U CPU @ 1.70GHz,orientation_search,prilt00735,Intel(R) UHD Graphics 620,2018_Nov_08_1319,testMonitor,
470.4,478.4,481.1,477.3,36,-10,480.1,,472.9,476.7,8.007,8.236,7.609,7.667,7.767,7.853,7.636,4.452,-4.84,-8.168,1.45,-1.432,7.843,4.485,-4.337,-8.203,485.4,482.9,-8.238,479.9,477.9,470.5,467.5,477.0,36,471.3,4,5,probe,5,0,90,norm,36,-4.491,down,norm,475.381543339,474.7,473.7,481.4,480.2,1,479.1,482.7,473.0,10,5,7.963,4.314,1.999,-1.522,-5.044,-7.84,477.2,2,385.4,-7.515,-8.004,40,-7.822,-8.416,-4.777,-5.295,-4.482,-5.181,4.548,7.524,25,-2.074,1.478,4.674,7.916,-8.286,-7.641,-1.321,1.606,476.0,465.4,472.5,468.7,478.2,470.1,480.1,470.1,472.9,481.3,0,norm,1.67,2.006,-2.076,-1.58,-4.678,-4.829,-1.214,-1.577,-1.829,-1.451,1.465,-1.565,480.9,477.5,-5.002,-7.553,1.45,-1.859,7.796,5.08,-4.964,-7.537,3,4.627,5.044,4.754,5.1,1.606,1.348,1.125,1.372,3,4.519,5.132,40,343.90872749,norm,0,12,12,12,1731.546,1731.558,1731.5653476,1731.566,1731.578,1731.582,down,1,1.96736751712,8.03263248288,001,303,1280_720,Intel(R) Core(TM) i5-8350U CPU @ 1.70GHz,orientation_search,prilt00735,Intel(R) UHD Graphics 620,2018_Nov_08_1319,testMonitor,
465.4,452.9,451.6,459.2,36,-10,468.4,454.2,455.5,451.7,8.113,7.965,7.553,7.879,7.892,8.303,8.216,5.133,-4.365,-7.718,1.166,-1.323,7.777,4.666,-5.17,-7.91,,457.6,-7.633,455.5,456.0,459.2,457.6,467.7,36,461.9,5,5,probe,5,0,73,norm,36,-4.696,up,norm,458.381543339,466.0,459.1,463.0,464.4,5,467.6,454.0,465.5,10,5,8.202,5.126,1.46,-1.255,-4.654,-7.852,458.8,2,385.4,-7.602,-7.669,40,-8.052,-7.963,-5.12,-5.128,-4.814,-5.174,4.393,7.806,35,-1.156,1.106,5.175,8.185,-7.668,-8.389,-1.319,1.868,454.8,453.1,453.9,457.5,468.3,456.5,453.9,459.5,453.2,448.4,1,norm,1.666,1.876,-1.34,-1.468,-4.39,-4.832,-2.002,-1.463,-1.631,-1.97,1.301,-1.704,453.0,453.1,-5.255,-7.918,1.945,-1.974,8.21,4.532,-5.003,-8.235,3,4.915,5.143,5.177,4.715,1.749,1.751,1.462,1.74,3,4.644,4.408,40,343.90872749,norm,0,13,13,13,1733.578,1733.587,1733.59534555,1733.596,1733.598,1733.6,up,1,1.43276642398,8.56723357602,001,303,1280_720,Intel(R) Core(TM) i5-8350U CPU @ 1.70GHz,orientation_search,prilt00735,Intel(R) UHD Graphics 620,2018_Nov_08_1319,testMonitor,
,30.5,36.1,11.4,36,-60,34.6,43.1,38.0,29.3,7.664,7.85,8.41,8.39,8.191,7.7,8.324,5.185,-5.022,-8.248,1.643,-1.761,7.824,5.067,-4.614,-7.75,21.3,29.9,-8.306,24.9,41.6,37.2,32.5,21.1,36,28.4,3,5,prime,10,0,72,norm,36,-5.214,up,norm,31.3979432689,31.2,25.8,32.5,21.8,4,51.4,40.3,42.8,10,5,8.362,4.481,1.233,-1.732,-5.248,-7.759,23.5,5,103.4,-8.286,-8.171,-60,-8.283,-8.332,-4.702,-4.622,-4.643,-5.115,5.128,8.088,22,-1.925,2.014,4.537,7.838,-7.67,-7.69,-1.654,1.19,32.0,42.3,22.5,35.3,31.2,16.7,25.8,29.1,31.9,33.2,0,norm,1.826,1.558,-1.124,-1.654,-4.364,-4.8,-1.339,-1.955,-2.009,-1.577,1.817,-1.363,41.4,37.2,-5.069,-7.62,1.912,-1.283,7.591,4.513,-4.833,-8.287,4,5.122,5.1,4.661,5.281,1.536,2.035,1.505,2.096,4,5.216,4.404,-10,343.90872749,norm,0,14,14,14,1735.069,1735.085,1735.09012616,1735.091,1735.095,1735.099,up,1,2.66637322042,7.33362677958,001,303,1280_720,Intel(R) Core(TM) i5-8350U CPU @ 1.70GHz,orientation_search,prilt00735,Intel(R) UHD Graphics 620,2018_Nov_08_1319,testMonitor,
11.4,31.5,42.4,47.7,36,-60,34.8,23.1,46.4,28.4,8.222,7.787,8.117,8.384,7.998,8.152,7.945,5.042,-4.827,-8.347,1.129,-1.456,7.981,4.497,-4.637,-8.419,22.4,33.4,-8.157,31.2,42.7,51.4,25.2,37.9,36,28.8,1,5,prime,10,0,103,norm,36,-4.444,up,norm,31.3979432689,20.2,25.0,22.2,38.0,5,,30.6,34.2,10,5,7.725,4.423,1.343,-1.581,-4.945,-7.871,35.6,5,134.4,-7.779,-8.208,-60,-8.474,-7.818,-4.743,-4.337,-5.13,-4.748,5.233,8.223,11,-1.497,1.325,4.462,8.203,-8.358,-8.1,-1.746,1.575,28.8,38.8,43.8,31.4,42.7,22.1,23.1,37.9,46.4,22.9,1,norm,1.878,1.586,-2.079,-1.953,-5.287,-4.8,-1.348,-1.499,-1.38,-1.907,1.927,-1.388,38.0,49.8,-4.926,-8.3,1.153,-1.837,8.487,4.977,-4.576,-8.156,4,5.094,5.049,5.092,4.677,1.402,1.415,1.557,1.994,4,5.115,4.914,-10,343.90872749,norm,0,15,15,15,1737.795,1737.805,1737.81255158,1737.813,1737.815,1737.817,up,1,1.6478915077,8.3521084923,001,303,1280_720,Intel(R) Core(TM) i5-8350U CPU @ 1.70GHz,orientation_search,prilt00735,Intel(R) UHD Graphics 620,2018_Nov_08_1319,testMonitor,
,36.1,32.6,41.4,36,-60,33.0,30.6,12.5,36.6,7.929,7.615,7.828,8.171,8.399,7.937,8.16,4.376,-4.377,-8.143,2.063,-1.601,7.704,4.748,-4.346,-8.17,12.3,22.5,-8.245,15.4,22.0,29.2,19.0,30.0,36,46.3,3,5,prime,10,0,103,norm,36,-4.753,up,norm,31.3979432689,36.2,28.1,51.4,31.2,4,29.6,34.3,24.4,10,5,8.432,4.991,1.434,-2.078,-4.489,-8.249,43.6,5,134.4,-7.976,-7.611,-60,-8.293,-7.666,-4.762,-5.02,-4.606,-4.938,4.315,8.199,22,-1.392,1.568,4.827,8.371,-7.936,-8.008,-2.077,1.768,35.4,11.4,23.2,35.2,29.2,28.4,46.9,16.2,41.2,27.6,2,norm,1.273,1.134,-2.044,-1.2,-5.186,-5.061,-2.044,-1.684,-1.471,-1.449,1.366,-1.715,35.4,36.8,-4.702,-7.984,1.291,-1.596,8.286,4.781,-4.921,-7.656,4,5.168,4.767,5.234,5.251,1.321,1.385,1.16,2.027,4,4.708,4.338,-10,343.90872749,norm,0,16,16,16,1739.495,1739.504,1739.52484986,1739.525,1739.529,1739.533,up,1,1.23260061786,8.76739938214,001,303,1280_720,Intel(R) Core(TM) i5-8350U CPU @ 1.70GHz,orientation_search,prilt00735,Intel(R) UHD Graphics 620,2018_Nov_08_1319,testMonitor,
27.7,38.4,23.2,25.2,36,-60,46.3,42.4,33.7,11.4,8.312,8.427,8.155,8.372,8.45,8.175,8.077,5.097,-5.096,-8.061,1.331,-1.538,8.005,5.017,-4.493,-7.544,24.7,30.5,-7.771,43.4,14.6,25.9,28.9,41.9,36,23.6,1,5,prime,10,0,72,norm,36,-5.262,down,norm,31.3979432689,47.2,42.6,39.2,27.4,1,38.2,16.1,20.6,10,5,7.676,5.255,1.601,-1.347,-4.847,-8.04,19.1,5,103.4,-7.57,-8.216,-60,-8.252,-7.945,-4.689,-4.584,-4.917,-4.354,5.292,7.524,7,-2.043,1.645,5.186,8.327,-7.899,-8.137,-1.671,2.077,32.2,49.7,46.6,51.4,31.5,17.5,,22.6,27.1,19.1,3,norm,1.65,1.861,-1.646,-1.797,-4.394,-4.974,-1.961,-1.254,-1.336,-1.714,1.414,-2.027,38.9,23.6,-4.829,-8.454,1.552,-1.236,7.682,4.971,-4.655,-8.357,4,4.725,4.454,5.023,4.937,1.886,1.664,1.65,1.835,4,4.986,4.47,-10,343.90872749,norm,0,17,17,17,1740.795,1740.805,1740.81204174,1740.812,1740.814,1740.816,down,1,1.26301767158,8.73698232842,001,303,1280_720,Intel(R) Core(TM) i5-8350U CPU @ 1.70GHz,orientation_search,prilt00735,Intel(R) UHD Graphics 620,2018_Nov_08_1319,testMonitor,
30.0,31.2,30.9,29.5,36,-60,20.9,51.4,24.1,31.1,8.003,8.27,8.304,8.092,8.439,7.975,8.45,5.246,-5.068,-8.254,1.995,-1.564,8.318,4.554,-4.671,-7.991,,22.3,-8.469,43.5,24.7,39.4,36.6,26.8,36,50.2,5,5,prime,10,0,78,norm,36,-5.084,up,norm,31.3979432689,26.9,33.6,19.9,24.9,5,26.4,28.1,38.7,10,5,8.172,4.342,2.004,-1.738,-4.566,-8.158,32.2,5,109.4,-8.187,-7.813,-60,-7.975,-8.27,-4.597,-5.282,-4.894,-4.725,4.861,7.94,35,-1.904,1.586,4.74,7.789,-7.832,-7.923,-1.963,1.615,25.3,44.3,35.0,34.9,31.0,22.6,34.1,28.5,40.6,11.4,4,norm,1.911,1.265,-1.465,-1.568,-4.57,-4.955,-1.547,-1.789,-1.831,-1.67,1.437,-2.035,27.3,36.8,-4.823,-7.7,1.103,-1.357,8.331,5.053,-5.293,-7.653,4,4.771,4.467,5.129,5.036,2.006,1.336,1.33,1.668,4,4.836,4.692,-10,343.90872749,norm,0,18,18,18,1742.106,1742.128,1742.13446607,1742.135,1742.138,1742.142,up,1,1.10551102854,8.89448897146,001,303,1280_720,Intel(R) Core(TM) i5-8350U CPU @ 1.70GHz,orientation_search,prilt00735,Intel(R) UHD Graphics 620,2018_Nov_08_1319,testMonitor,
49.5,45.0,51.6,50.1,36,-20,53.2,49.7,50.3,57.9,8.047,8.237,7.849,8.417,8.039,8.005,8.324,4.692,-4.446,-8.275,1.55,-2.02,7.664,4.752,-4.863,-7.979,41.9,43.3,-7.732,37.9,50.1,49.1,47.2,50.5,36,45.7,3,5,probe,5,0,84,norm,36,-5.011,down,norm,47.8714629409,49.1,53.6,53.8,47.3,0,44.4,46.0,46.2,10,5,7.672,4.981,1.193,-1.846,-4.998,-7.847,43.3,1,-36.1,-8.357,-8.377,-60,-7.897,-8.405,-4.873,-4.947,-4.945,-5.029,5.098,7.745,18,-1.898,1.905,4.475,7.551,-7.517,-8.187,-1.449,1.697,55.7,44.8,54.3,44.0,54.0,44.7,44.7,44.1,54.0,54.6,0,norm,1.401,1.666,-1.485,-1.831,-5.081,-5.163,-1.306,-1.747,-1.773,-1.604,1.391,-1.912,53.7,,-5.239,-8.193,1.393,-1.983,7.894,5.013,-4.352,-8.066,5,4.428,4.786,5.267,4.961,1.434,1.866,1.677,1.239,5,4.534,5.033,-60,31.3979432689,norm,0,19,19,19,1743.279,1743.297,1743.30265884,1743.303,1743.307,1743.312,down,1,1.12145704163,8.87854295837,001,303,1280_720,Intel(R) Core(TM) i5-8350U CPU @ 1.70GHz,orientation_search,prilt00735,Intel(R) UHD Graphics 620,2018_Nov_08_1319,testMonitor,
111.6,97.6,73.8,98.1,36,-40,82.2,87.8,91.6,90.1,8.134,8.398,8.159,8.196,8.312,8.465,8.157,4.485,-4.475,-8.465,1.888,-1.123,7.661,5.097,-4.848,-8.474,81.2,88.3,-7.728,73.6,91.2,81.4,106.6,82.7,36,104.5,0,5,prime,10,0,116,norm,36,-5.234,down,norm,91.5629207339,110.1,98.0,83.5,94.4,0,79.8,79.7,79.7,10,5,8.248,5.217,1.205,-1.438,-5.019,-8.104,77.8,5,207.6,-7.74,-8.285,-40,-7.774,-7.603,-5.277,-4.859,-4.354,-4.736,4.572,8.455,0,-1.468,1.352,5.021,7.55,-7.529,-8.349,-1.118,1.177,83.6,77.6,105.9,78.4,75.6,,100.9,84.4,71.6,104.2,0,norm,1.164,1.486,-1.825,-1.142,-5.07,-4.456,-1.402,-1.26,-1.916,-1.29,1.98,-1.854,91.2,91.5,-4.324,-8.062,1.505,-1.15,8.026,5.179,-5.002,-8.214,6,5.045,4.313,5.048,4.427,2.002,2.052,1.113,1.312,6,5.132,4.903,-20,31.3979432689,norm,0,20,20,20,1744.454,1744.466,1744.47098285,1744.471,1744.475,1744.478,down,1,3.01709315387,6.98290684613,001,303,1280_720,Intel(R) Core(TM) i5-8350U CPU @ 1.70GHz,orientation_search,prilt00735,Intel(R) UHD Graphics 620,2018_Nov_08_1319,testMonitor,
82.1,94.7,81.9,74.8,36,-40,100.5,100.4,109.3,78.2,8.147,8.499,7.559,8.076,8.431,8.163,8.305,5.002,-4.333,-7.699,1.617,-1.719,7.73,4.844,-4.612,-8.016,88.7,107.4,-7.504,75.2,98.0,111.6,94.2,99.0,36,98.8,2,5,prime,10,0,97,norm,36,-4.918,up,norm,91.5629207339,75.6,82.1,,89.9,3,86.2,89.8,83.1,10,5,8.334,4.752,1.208,-2.011,-5.143,-7.759,85.8,5,188.6,-8.19,-8.017,-40,-8.34,-7.954,-4.445,-5.227,-5.011,-4.819,4.645,7.854,15,-1.784,1.398,4.317,8.144,-7.535,-7.719,-2.029,1.211,82.1,71.6,85.0,88.1,93.9,105.7,97.8,85.9,104.4,81.0,1,norm,1.794,1.459,-1.961,-2.025,-4.352,-5.204,-1.846,-1.983,-2.077,-1.237,1.658,-1.629,97.2,107.0,-5.093,-7.512,1.719,-1.495,8.115,4.668,-5.212,-7.95,6,4.399,4.626,4.538,4.356,1.383,1.439,1.25,2.04,6,4.801,4.79,-20,31.3979432689,norm,0,21,21,21,1747.512,1747.521,1747.52808605,1747.528,1747.531,1747.534,up,1,6.67948972758,3.32051027242,001,303,1280_720,Intel(R) Core(TM) i5-8350U CPU @ 1.70GHz,orientation_search,prilt00735,Intel(R) UHD Graphics 620,2018_Nov_08_1319,testMonitor,
109.2,89.2,102.6,83.2,36,-40,91.6,89.4,89.2,99.9,7.596,7.924,7.923,7.595,7.91,7.843,8.19,4.515,-4.666,-8.215,1.497,-1.121,8.024,4.547,-4.326,-7.597,98.1,83.6,-8.098,106.4,99.6,106.4,,81.7,36,102.3,5,5,prime,10,0,101,norm,36,-4.495,down,norm,91.5629207339,94.4,94.8,101.9,87.3,2,90.7,85.1,97.7,10,5,8.356,4.733,1.618,-1.741,-4.344,-7.586,81.7,5,192.6,-8.175,-7.891,-40,-7.862,-8.102,-5.231,-5.0,-4.599,-4.474,5.225,7.687,32,-1.773,2.022,4.408,8.366,-8.263,-8.263,-1.869,1.959,111.6,107.8,79.9,83.5,84.1,71.6,79.3,79.1,95.3,92.2,2,norm,1.244,1.777,-1.647,-1.434,-4.47,-4.923,-1.261,-1.392,-1.574,-1.963,1.848,-1.856,98.1,85.2,-4.872,-7.634,1.105,-1.669,7.986,4.423,-4.725,-8.408,6,5.266,4.38,4.927,4.886,1.461,1.429,1.888,1.731,6,4.305,4.721,-20,31.3979432689,norm,0,22,22,22,1754.247,1754.261,1754.26489879,1754.265,1754.268,1754.271,down,1,3.10873425652,6.89126574348,001,303,1280_720,Intel(R) Core(TM) i5-8350U CPU @ 1.70GHz,orientation_search,prilt00735,Intel(R) UHD Graphics 620,2018_Nov_08_1319,testMonitor,
98.3,98.7,98.4,86.5,36,-40,106.4,100.4,83.4,87.8,8.426,7.91,7.893,8.362,7.752,7.526,8.421,4.558,-5.248,-7.79,1.671,-1.697,8.173,4.426,-4.353,-7.75,79.3,83.5,-8.243,73.4,97.0,108.9,88.6,88.8,36,71.6,2,5,prime,10,0,65,norm,36,-5.219,down,norm,91.5629207339,82.9,91.2,106.1,82.7,1,86.5,,100.2,10,5,7.513,5.277,2.042,-1.275,-4.543,-7.673,97.3,5,156.6,-8.278,-8.498,-40,-7.565,-8.139,-5.038,-4.757,-4.432,-4.428,5.21,7.96,13,-1.818,1.654,5.067,7.942,-7.617,-7.811,-1.163,1.828,87.5,93.5,88.9,92.5,83.7,101.4,83.3,81.7,111.6,88.3,3,norm,1.526,1.923,-1.866,-1.678,-5.04,-4.387,-1.253,-1.63,-1.377,-1.509,1.548,-2.011,90.4,79.2,-4.986,-7.697,2.072,-1.527,7.666,4.918,-4.901,-7.962,6,4.826,5.124,5.006,4.71,1.376,1.35,2.036,1.34,6,4.338,5.266,-20,31.3979432689,norm,0,23,23,23,1757.41,1757.426,1757.43087451,1757.431,1757.435,1757.44,down,1,4.13875002701,5.86124997299,001,303,1280_720,Intel(R) Core(TM) i5-8350U CPU @ 1.70GHz,orientation_search,prilt00735,Intel(R) UHD Graphics 620,2018_Nov_08_1319,testMonitor,
96.0,104.2,88.7,99.2,36,-40,86.3,88.1,96.2,98.6,7.506,8.28,7.871,8.471,8.153,7.538,7.565,4.925,-4.894,-7.698,1.285,-2.003,8.4,5.2,-4.785,-7.573,80.2,83.7,-7.903,95.9,97.9,81.1,81.5,73.6,36,102.8,0,5,prime,10,0,106,norm,36,-4.636,up,norm,91.5629207339,98.7,77.2,98.6,91.1,3,108.8,111.6,98.6,10,5,7.503,4.784,1.93,-1.385,-4.738,-7.742,100.1,5,197.6,-8.223,-8.399,-40,-7.803,-8.094,-4.806,-4.778,-4.846,-4.705,4.471,7.533,3,-2.099,1.258,4.766,8.001,-8.205,-8.208,-1.597,1.142,107.6,71.6,,108.2,110.3,102.3,87.6,89.5,76.1,94.2,4,norm,1.488,2.065,-1.592,-1.89,-4.617,-5.271,-1.671,-1.267,-1.728,-1.712,1.773,-1.894,92.6,81.3,-4.697,-7.814,1.273,-1.699,8.472,4.763,-4.999,-7.561,6,5.154,5.084,5.073,5.016,1.403,1.564,1.605,1.317,6,4.396,4.989,-20,31.3979432689,norm,0,24,24,24,1761.609,1761.618,1761.6261493,1761.627,1761.629,1761.632,up,1,2.78163818618,7.21836181382,001,303,1280_720,Intel(R) Core(TM) i5-8350U CPU @ 1.70GHz,orientation_search,prilt00735,Intel(R) UHD Graphics 620,2018_Nov_08_1319,testMonitor,
112.5,115.8,116.1,110.2,36,30,117.3,118.7,111.4,104.4,8.26,7.917,8.242,7.656,7.728,7.658,8.125,5.238,-5.015,-7.821,1.368,-1.404,8.489,5.055,-5.211,-8.384,114.7,118.8,-7.575,118.3,117.5,117.2,117.3,111.4,36,111.4,3,5,probe,5,0,64,norm,36,-5.176,down,norm,114.033129086,116.6,109.0,104.0,124.0,0,111.9,120.3,121.7,10,5,8.142,4.602,1.564,-1.918,-4.408,-7.897,118.1,1,50.0,-7.711,-7.912,-40,-7.937,-7.507,-4.479,-5.201,-4.864,-5.136,4.587,7.833,18,-2.011,1.953,4.464,8.463,-8.138,-7.756,-1.839,1.192,122.8,105.0,115.1,115.0,113.8,113.4,119.1,115.3,113.2,110.5,0,norm,1.982,2.042,-1.424,-1.838,-5.093,-4.685,-1.762,-2.054,-1.333,-1.706,1.146,-1.601,112.1,,-4.521,-8.338,1.118,-2.049,7.667,5.282,-4.74,-7.758,7,4.889,5.286,5.012,4.605,1.821,1.943,1.168,1.285,7,4.767,4.495,-40,91.5629207339,norm,0,25,25,25,1764.451,1764.47,1764.47629782,1764.477,1764.48,1764.484,down,1,1.72781708397,8.27218291603,001,303,1280_720,Intel(R) Core(TM) i5-8350U CPU @ 1.70GHz,orientation_search,prilt00735,Intel(R) UHD Graphics 620,2018_Nov_08_1319,testMonitor,
116.3,92.8,108.1,117.3,36,0,102.1,131.0,120.1,114.1,8.097,7.543,7.62,8.004,8.413,8.293,8.31,4.986,-4.886,-8.439,1.711,-1.127,8.005,5.154,-4.455,-8.421,115.7,106.8,-8.253,122.7,116.0,107.2,108.9,128.5,36,132.8,2,5,prime,10,0,93,norm,36,-4.533,up,norm,112.844333107,101.6,107.4,,132.7,3,114.7,97.7,110.4,10,6,8.172,4.504,1.222,-1.638,-4.594,-7.65,97.4,6,205.8,-8.391,-7.843,0,-8.039,-8.038,-5.243,-5.23,-4.988,-5.224,4.469,8.331,15,-1.892,2.073,5.04,8.479,-7.828,-7.848,-1.572,1.11,120.2,102.5,116.2,95.5,102.8,99.4,126.1,125.8,108.1,93.8,0,norm,1.501,1.353,-1.298,-1.176,-4.964,-4.78,-1.963,-1.25,-1.171,-1.624,2.082,-1.519,115.5,122.8,-5.199,-7.548,1.231,-2.057,7.761,4.841,-4.681,-8.354,8,4.359,5.094,4.546,5.235,1.843,2.1,1.41,1.816,8,4.963,4.559,30,91.5629207339,norm,0,26,26,26,1766.242,1766.251,1766.25895299,1766.259,1766.261,1766.264,up,1,1.68139298754,8.31860701246,001,303,1280_720,Intel(R) Core(TM) i5-8350U CPU @ 1.70GHz,orientation_search,prilt00735,Intel(R) UHD Graphics 620,2018_Nov_08_1319,testMonitor,
116.0,107.3,105.8,131.6,36,0,128.8,116.2,118.9,113.2,7.969,8.369,7.981,8.344,8.241,8.069,8.118,4.864,-4.367,-7.939,1.623,-1.655,8.441,4.859,-5.168,-8.231,97.3,118.2,-7.993,112.5,92.8,113.2,106.6,110.4,36,98.4,1,5,prime,10,0,74,norm,36,-4.988,down,norm,112.844333107,109.5,106.0,112.2,119.5,0,115.1,112.3,114.0,10,6,7.888,4.66,1.271,-1.198,-4.334,-8.13,117.0,6,186.8,-8.09,-7.59,0,-7.793,-8.217,-4.591,-4.808,-5.065,-4.534,5.008,8.356,6,-1.898,2.04,5.286,8.163,-8.004,-7.62,-1.103,1.115,99.8,127.7,125.4,129.0,120.5,107.4,103.4,,124.0,127.4,1,norm,1.141,1.33,-1.359,-1.238,-4.707,-5.075,-1.826,-1.406,-1.673,-1.54,1.229,-1.662,95.0,109.2,-4.684,-8.076,1.639,-1.421,8.059,5.12,-5.082,-7.738,8,4.621,5.175,4.893,4.404,2.049,1.811,1.677,1.167,8,4.99,4.715,30,91.5629207339,norm,0,27,27,27,1767.975,1767.985,1767.99244961,1767.993,1767.995,1767.997,down,1,1.48120287758,8.51879712242,001,303,1280_720,Intel(R) Core(TM) i5-8350U CPU @ 1.70GHz,orientation_search,prilt00735,Intel(R) UHD Graphics 620,2018_Nov_08_1319,testMonitor,
100.7,103.8,106.8,108.2,36,0,122.2,97.1,115.8,112.6,7.796,7.945,7.988,7.649,7.633,8.22,8.044,5.281,-5.126,-8.124,1.299,-1.73,7.671,4.477,-4.524,-7.61,108.1,122.7,-7.568,106.8,121.4,,115.9,109.1,36,113.1,5,5,prime,10,0,69,norm,36,-4.345,up,norm,112.844333107,108.1,116.0,109.8,109.2,3,123.6,114.5,123.6,10,6,7.642,4.658,1.827,-1.456,-4.397,-8.497,117.4,6,181.8,-7.929,-7.772,0,-7.534,-7.561,-5.136,-5.271,-4.403,-5.243,4.897,7.627,33,-1.544,1.623,4.482,7.614,-8.033,-7.831,-1.97,1.633,122.2,99.6,92.8,106.1,118.2,92.9,122.7,115.6,132.8,121.2,2,norm,1.714,2.1,-1.378,-1.851,-4.983,-4.397,-1.977,-1.2,-1.368,-1.965,1.779,-1.896,118.3,109.2,-4.88,-7.609,1.678,-1.316,8.096,4.567,-4.995,-8.394,8,4.9,5.286,4.756,4.351,1.897,1.21,2.088,1.874,8,5.113,4.527,30,91.5629207339,norm,0,28,28,28,1769.514,1769.532,1769.53756022,1769.538,1769.541,1769.545,down,0,3.48352902418,-10,001,303,1280_720,Intel(R) Core(TM) i5-8350U CPU @ 1.70GHz,orientation_search,prilt00735,Intel(R) UHD Graphics 620,2018_Nov_08_1319,testMonitor,
122.4,104.1,105.6,119.7,36,0,126.1,111.9,124.7,112.7,7.817,8.331,7.982,8.148,8.108,7.695,8.096,5.147,-5.165,-7.842,1.309,-1.496,7.937,4.594,-5.213,-7.892,126.2,120.1,-8.205,106.0,126.0,120.5,107.1,110.9,36,106.8,2,5,prime,10,0,95,norm,36,-4.908,up,norm,112.844333107,,114.2,123.3,129.8,5,101.8,116.8,109.6,10,6,7.505,4.674,1.359,-2.002,-5.098,-7.925,99.9,6,207.8,-8.299,-7.891,0,-7.838,-7.619,-4.794,-4.507,-4.684,-4.579,5.187,8.139,17,-1.267,1.277,4.381,7.82,-7.618,-8.189,-1.559,1.596,109.7,123.3,110.8,129.2,110.7,109.6,92.8,119.0,116.3,113.4,3,norm,2.099,1.167,-1.386,-1.618,-4.991,-4.704,-1.864,-1.145,-1.384,-1.343,1.465,-1.389,96.8,132.8,-4.987,-7.784,1.364,-1.788,7.755,4.89,-4.987,-8.189,8,4.776,5.268,4.594,4.638,1.363,1.419,1.395,1.175,8,4.587,5.201,30,91.5629207339,norm,0,29,29,29,1774.078,1774.091,1774.09600067,1774.096,1774.111,1774.115,up,1,1.52865637625,8.47134362375,001,303,1280_720,Intel(R) Core(TM) i5-8350U CPU @ 1.70GHz,orientation_search,prilt00735,Intel(R) UHD Graphics 620,2018_Nov_08_1319,testMonitor,
108.7,106.0,104.3,113.6,36,0,125.3,119.3,122.6,125.2,8.001,7.537,7.543,8.181,8.371,8.237,7.984,5.191,-5.052,-7.829,2.01,-1.972,8.116,4.665,-4.326,-7.953,102.5,109.5,-8.091,121.4,117.8,102.9,112.1,105.6,36,110.8,0,5,prime,10,0,75,norm,36,-4.989,up,norm,112.844333107,92.8,119.3,122.5,111.0,5,113.1,113.6,107.7,10,6,8.428,5.139,1.247,-1.138,-4.444,-8.158,132.1,6,187.8,-8.416,-8.254,0,-7.529,-8.393,-5.108,-4.439,-4.951,-5.227,4.423,7.979,5,-1.545,1.712,4.333,8.375,-7.54,-8.296,-1.115,1.163,122.3,125.5,102.5,107.5,132.8,111.6,112.8,119.3,,117.6,4,norm,1.216,1.838,-1.648,-1.216,-4.838,-4.837,-1.938,-1.83,-1.399,-1.414,1.272,-1.587,102.1,112.6,-4.983,-8.205,1.555,-2.017,7.93,5.065,-5.014,-7.701,8,4.94,4.569,4.632,4.742,1.826,1.161,1.107,1.38,8,4.372,4.527,30,91.5629207339,norm,0,30,30,30,1775.675,1775.686,1775.692657,1775.693,1775.695,1775.697,up,1,5.2628064983,4.7371935017,001,303,1280_720,Intel(R) Core(TM) i5-8350U CPU @ 1.70GHz,orientation_search,prilt00735,Intel(R) UHD Graphics 620,2018_Nov_08_1319,testMonitor,
111.0,125.8,118.0,106.1,36,0,118.0,118.5,119.2,105.4,7.573,7.55,7.535,7.909,7.569,8.219,8.354,4.801,-4.758,-7.599,1.376,-1.201,8.383,4.36,-4.935,-7.766,,108.3,-8.156,108.1,120.2,112.9,121.6,115.0,36,105.0,5,5,prime,10,0,117,norm,36,-4.427,up,norm,112.844333107,128.9,122.8,115.4,121.1,5,123.6,127.5,111.8,10,6,8.407,5.011,2.013,-2.025,-4.788,-8.021,115.1,6,229.8,-7.684,-8.316,0,-7.502,-8.259,-4.313,-4.683,-4.877,-4.36,5.095,7.791,35,-1.391,1.632,5.042,8.464,-7.708,-7.536,-1.61,1.929,119.7,125.7,102.8,109.2,103.3,115.4,92.8,122.8,99.4,110.4,5,norm,1.602,1.979,-1.979,-1.679,-4.731,-5.277,-1.765,-1.902,-1.345,-2.058,1.847,-1.453,106.8,132.8,-4.881,-8.247,1.795,-1.709,7.635,5.008,-4.514,-7.987,8,4.997,5.134,5.019,4.494,1.833,1.909,2.012,1.111,8,4.622,4.388,30,91.5629207339,norm,0,31,31,31,1780.996,1781.014,1781.02021377,1781.021,1781.024,1781.027,up,1,2.04928600747,7.95071399253,001,303,1280_720,Intel(R) Core(TM) i5-8350U CPU @ 1.70GHz,orientation_search,prilt00735,Intel(R) UHD Graphics 620,2018_Nov_08_1319,testMonitor,
209.5,198.5,206.0,203.2,36,-80,199.2,201.4,204.9,200.8,7.621,7.59,8.136,7.962,8.108,7.651,8.193,4.583,-4.909,-7.966,1.485,-1.379,7.75,4.944,-5.051,-7.524,209.2,197.7,-7.824,198.5,205.0,210.2,199.7,201.7,36,199.7,3,5,probe,5,0,90,norm,36,-4.616,down,norm,205.028036488,211.0,213.9,204.6,213.4,1,200.0,209.9,208.2,10,6,7.68,5.243,1.162,-2.07,-4.315,-8.366,209.2,1,115.0,-8.357,-7.542,0,-7.621,-7.915,-4.828,-5.25,-4.812,-4.504,4.497,7.606,19,-1.966,1.859,4.836,7.737,-7.92,-8.433,-1.4,2.089,207.1,210.1,196.3,200.1,213.4,205.5,205.9,195.0,206.6,206.6,0,norm,1.521,1.918,-1.964,-2.059,-5.22,-4.367,-1.249,-1.175,-1.989,-1.564,1.302,-1.975,,215.0,-4.649,-7.866,1.555,-1.906,7.762,5.246,-5.032,-8.337,9,5.104,5.289,4.986,4.999,1.987,1.183,1.705,1.863,9,5.051,4.609,0,112.844333107,norm,0,32,32,32,1783.112,1783.13,1783.13552626,1783.136,1783.139,1783.143,down,1,1.5328134114,8.4671865886,001,303,1280_720,Intel(R) Core(TM) i5-8350U CPU @ 1.70GHz,orientation_search,prilt00735,Intel(R) UHD Graphics 620,2018_Nov_08_1319,testMonitor,
5.7,-5.7,-6.0,14.2,36,0,-1.6,0.1,-11.4,-10.9,8.439,8.45,7.817,7.808,8.486,8.379,8.361,5.136,-5.198,-7.648,1.383,-1.151,7.98,4.721,-4.652,-8.245,9.3,0.8,-7.552,-18.0,-3.3,-11.9,1.8,13.5,36,15.4,0,5,prime,10,0,75,norm,36,-5.267,up,norm,2.04293737839,10.2,8.1,-0.5,0.2,5,3.4,6.9,-0.0,10,5,7.725,4.652,1.398,-1.734,-4.383,-7.944,-2.4,5,77.0,-7.954,-7.916,0,-7.67,-7.942,-4.668,-5.15,-5.088,-4.857,5.268,8.113,5,-1.226,1.126,4.908,8.079,-7.767,-7.871,-1.699,1.815,-3.3,-0.5,-1.6,12.8,4.9,22.0,3.5,7.1,,-10.5,0,norm,1.392,1.71,-1.773,-1.429,-4.649,-4.322,-1.513,-1.257,-1.486,-1.542,1.315,-1.137,-9.3,10.3,-4.652,-7.717,1.124,-1.543,7.917,4.951,-4.908,-7.983,10,4.534,5.052,4.54,4.634,1.299,1.665,2.012,1.793,10,4.78,5.002,-80,112.844333107,norm,0,33,33,33,1784.714,1784.732,1784.73722105,1784.738,1784.74,1784.742,up,1,1.65017552765,8.34982447235,001,303,1280_720,Intel(R) Core(TM) i5-8350U CPU @ 1.70GHz,orientation_search,prilt00735,Intel(R) UHD Graphics 620,2018_Nov_08_1319,testMonitor,
1.2,2.0,0.3,4.4,36,0,-5.3,-17.7,12.0,-15.7,7.573,8.137,7.581,8.287,7.988,7.553,7.621,5.076,-4.944,-7.568,1.412,-1.196,8.327,4.744,-4.993,-8.346,7.6,1.6,-8.297,11.2,-18.0,15.5,6.9,-3.6,36,-0.2,2,5,prime,10,0,64,norm,36,-4.908,down,norm,2.04293737839,19.3,8.7,-5.2,11.6,0,5.7,-8.1,,10,5,8.013,4.64,1.163,-2.018,-4.815,-8.251,-3.9,5,66.0,-8.129,-8.197,0,-8.491,-7.849,-4.45,-4.359,-4.642,-4.661,4.408,8.079,12,-1.951,1.245,5.276,8.022,-7.737,-7.765,-1.89,1.465,-3.2,-5.7,14.8,22.0,-3.5,-0.7,-8.5,2.7,12.3,11.6,1,norm,1.331,2.023,-1.579,-1.86,-4.989,-4.561,-1.225,-1.504,-1.538,-1.183,1.516,-1.845,-6.2,-8.9,-4.537,-7.808,1.711,-1.89,7.538,4.853,-5.025,-8.173,10,4.742,4.991,4.697,5.216,2.07,1.352,1.621,1.711,10,4.364,4.811,-80,112.844333107,norm,0,34,34,34,1786.422,1786.431,1786.43886561,1786.439,1786.443,1786.447,down,1,2.07982025966,7.92017974034,001,303,1280_720,Intel(R) Core(TM) i5-8350U CPU @ 1.70GHz,orientation_search,prilt00735,Intel(R) UHD Graphics 620,2018_Nov_08_1319,testMonitor,
6.3,2.2,-10.3,-15.0,36,0,,-0.6,-4.9,14.0,8.399,7.591,7.903,8.053,7.824,7.613,7.79,5.235,-4.945,-8.494,1.463,-1.313,8.034,4.363,-4.939,-8.152,-8.4,1.7,-8.132,12.9,4.2,22.0,-9.0,-3.4,36,-18.0,4,5,prime,10,0,93,norm,36,-4.498,down,norm,2.04293737839,-5.9,6.6,7.3,6.9,0,-3.7,-10.5,9.2,10,5,7.521,4.419,1.888,-1.178,-4.969,-8.418,4.0,5,95.0,-8.027,-8.206,0,-7.937,-7.66,-4.864,-4.591,-4.604,-4.492,5.076,7.773,24,-1.232,2.081,5.297,7.829,-8.48,-8.137,-1.781,2.099,8.8,0.7,15.7,13.0,-9.3,3.8,3.1,2.3,-1.5,-3.4,2,norm,1.254,1.52,-1.881,-1.597,-4.819,-4.886,-1.614,-1.709,-1.342,-1.165,1.576,-1.156,17.2,1.3,-4.461,-8.218,1.321,-1.567,7.835,4.372,-4.929,-7.613,10,4.526,5.093,4.488,4.725,1.447,1.228,1.552,1.664,10,4.508,4.743,-80,112.844333107,norm,0,35,35,35,1788.562,1788.579,1788.58461243,1788.585,1788.588,1788.593,up,0,4.96587040118,-10,001,303,1280_720,Intel(R) Core(TM) i5-8350U CPU @ 1.70GHz,orientation_search,prilt00735,Intel(R) UHD Graphics 620,2018_Nov_08_1319,testMonitor,
-8.7,0.6,15.6,11.0,36,0,16.6,22.0,6.2,0.2,8.163,8.404,8.258,8.198,8.322,8.449,7.873,4.38,-5.241,-7.749,1.72,-1.61,8.0,4.795,-4.601,-8.162,-0.6,-6.0,-8.035,-7.8,-18.0,2.0,-7.3,12.1,36,-2.2,0,5,prime,10,0,112,norm,36,-4.45,up,norm,2.04293737839,15.5,3.4,-2.2,-17.7,5,3.5,-12.6,-0.2,10,5,8.435,4.942,1.728,-1.908,-4.59,-8.049,7.1,5,114.0,-8.178,-7.544,0,-7.984,-8.434,-4.708,-5.123,-4.56,-4.828,4.32,7.943,5,-1.191,1.624,4.607,7.537,-7.622,-7.807,-1.763,1.683,4.5,-14.7,-3.4,-6.1,-1.7,0.1,5.8,3.4,,3.4,3,norm,1.545,1.284,-1.819,-1.792,-4.687,-5.215,-1.263,-1.669,-1.762,-1.919,1.313,-1.856,-4.7,11.1,-5.231,-8.456,1.325,-1.53,7.728,4.353,-4.355,-8.246,10,4.847,4.566,4.694,5.029,1.272,1.532,1.392,1.173,10,4.706,4.661,-80,112.844333107,norm,0,36,36,36,1794.619,1794.627,1794.63730962,1794.638,1794.641,1794.645,up,1,2.46380511569,7.53619488431,001,303,1280_720,Intel(R) Core(TM) i5-8350U CPU @ 1.70GHz,orientation_search,prilt00735,Intel(R) UHD Graphics 620,2018_Nov_08_1319,testMonitor,
-18.0,14.4,-4.5,-15.4,36,0,9.9,-8.8,-7.6,22.0,7.762,8.438,8.462,8.456,7.794,7.967,8.056,4.52,-4.77,-7.658,1.117,-1.551,8.232,5.038,-5.059,-7.628,19.6,-9.0,-8.312,,4.0,2.7,-4.9,0.1,36,15.8,5,5,prime,10,0,82,norm,36,-5.182,down,norm,2.04293737839,-11.1,3.1,-2.4,19.1,1,-17.9,2.4,9.3,10,5,7.973,4.389,1.129,-1.417,-4.57,-7.802,-3.0,5,84.0,-8.356,-8.047,0,-8.28,-7.774,-5.259,-5.01,-4.6,-4.997,4.822,7.657,31,-1.669,1.678,5.111,7.619,-7.727,-7.97,-1.688,1.203,-8.3,-8.5,-12.0,-2.9,-0.2,-7.9,-3.9,-9.4,-2.5,-7.4,4,norm,1.535,1.728,-1.284,-1.725,-4.944,-4.683,-1.191,-2.097,-1.627,-2.084,1.429,-1.302,4.5,16.3,-4.425,-8.168,2.026,-1.314,8.34,5.184,-4.962,-7.872,10,4.759,4.532,5.167,4.935,1.278,1.565,1.275,2.009,10,5.064,4.914,-80,112.844333107,norm,0,37,37,37,1797.141,1797.158,1797.16354858,1797.164,1797.169,1797.174,down,1,3.03364190196,6.96635809804,001,303,1280_720,Intel(R) Core(TM) i5-8350U CPU @ 1.70GHz,orientation_search,prilt00735,Intel(R) UHD Graphics 620,2018_Nov_08_1319,testMonitor,
,102.2,102.9,93.1,36,-60,100.7,94.9,96.8,97.0,7.507,7.545,7.71,7.643,7.661,8.034,7.57,4.664,-4.328,-7.759,2.032,-1.847,7.607,4.9,-4.457,-8.044,97.3,101.3,-8.399,110.5,102.4,91.6,99.9,98.5,36,106.5,3,5,probe,5,0,97,norm,36,-4.337,up,norm,100.503818157,98.0,107.0,96.1,96.2,4,98.6,99.8,98.5,10,5,8.101,5.275,2.071,-2.08,-4.556,-7.908,106.8,1,3.5,-7.74,-8.136,0,-8.008,-8.073,-5.282,-5.298,-4.718,-4.386,4.757,8.06,22,-1.257,1.668,4.784,7.779,-7.614,-8.364,-1.153,1.289,90.5,108.2,103.7,98.9,104.0,103.9,100.5,95.8,94.1,101.4,0,norm,1.234,1.905,-1.938,-2.048,-4.662,-4.748,-1.376,-1.231,-1.93,-2.025,1.717,-1.681,97.7,99.3,-5.266,-8.41,1.321,-1.996,8.221,4.44,-4.449,-8.342,11,4.605,5.151,4.945,4.627,1.582,1.754,1.306,1.306,11,4.405,4.624,0,2.04293737839,norm,0,38,38,38,1800.243,1800.261,1800.26716715,1800.268,1800.271,1800.275,up,1,1.38316068613,8.61683931387,001,303,1280_720,Intel(R) Core(TM) i5-8350U CPU @ 1.70GHz,orientation_search,prilt00735,Intel(R) UHD Graphics 620,2018_Nov_08_1319,testMonitor,
49.0,43.9,63.6,79.5,36,20,62.0,66.5,54.1,67.9,7.894,8.192,8.19,7.651,7.847,8.321,7.609,5.25,-5.201,-7.644,1.354,-2.061,8.253,4.725,-4.393,-8.149,77.7,83.4,-7.595,56.5,72.3,61.1,72.6,73.4,36,61.7,3,5,prime,10,0,81,norm,36,-4.748,down,norm,63.3615681815,46.9,63.5,52.4,69.6,0,62.3,48.7,54.7,10,5,8.285,4.941,1.793,-1.839,-4.48,-8.041,43.4,5,144.4,-8.303,-8.494,20,-7.755,-7.588,-4.53,-4.978,-5.241,-4.599,5.129,8.144,18,-1.945,1.229,4.912,8.41,-8.313,-7.743,-1.898,1.125,55.4,73.3,61.8,50.6,72.4,55.1,78.3,47.2,61.3,64.6,0,norm,1.993,1.937,-1.34,-1.136,-4.916,-4.646,-1.478,-1.807,-1.364,-1.741,1.914,-1.26,51.9,,-4.961,-7.934,1.679,-1.843,7.721,5.061,-4.642,-8.457,12,5.03,4.673,4.885,4.543,1.502,1.722,1.777,1.49,12,4.935,4.482,-60,2.04293737839,norm,0,39,39,39,1801.687,1801.697,1801.70521776,1801.706,1801.708,1801.71,down,1,1.32979325543,8.67020674457,001,303,1280_720,Intel(R) Core(TM) i5-8350U CPU @ 1.70GHz,orientation_search,prilt00735,Intel(R) UHD Graphics 620,2018_Nov_08_1319,testMonitor,
48.6,51.3,43.4,72.6,36,20,71.4,48.0,48.1,64.4,8.086,8.385,7.546,7.916,7.833,8.344,8.027,5.161,-4.931,-8.249,2.088,-1.682,8.018,4.428,-4.746,-8.021,51.6,73.7,-7.624,72.2,63.9,,62.2,53.7,36,68.7,5,5,prime,10,0,78,norm,36,-4.875,up,norm,63.3615681815,72.3,72.3,75.5,68.8,3,64.7,56.1,55.3,10,5,8.097,4.702,1.541,-1.725,-4.664,-8.266,62.4,5,141.4,-7.79,-8.303,20,-8.419,-8.007,-4.315,-4.75,-4.515,-4.592,4.635,7.738,33,-1.498,1.348,4.373,7.58,-7.959,-7.956,-1.733,1.492,53.9,64.2,72.1,58.1,59.3,76.7,56.1,54.7,83.4,70.4,1,norm,1.111,2.028,-1.77,-1.495,-4.511,-4.44,-1.42,-1.321,-1.615,-1.643,1.886,-1.514,53.2,47.1,-4.624,-8.237,1.867,-1.605,8.445,4.814,-4.765,-8.346,12,4.703,4.885,4.358,5.207,1.655,1.794,2.009,1.164,12,4.397,5.054,-60,2.04293737839,norm,0,40,40,40,1803.07,1803.079,1803.08657672,1803.087,1803.09,1803.092,up,1,0.964813994695,9.03518600531,001,303,1280_720,Intel(R) Core(TM) i5-8350U CPU @ 1.70GHz,orientation_search,prilt00735,Intel(R) UHD Graphics 620,2018_Nov_08_1319,testMonitor,
65.8,53.7,63.8,74.4,36,20,80.6,63.5,63.6,63.5,8.088,8.2,8.143,8.412,8.435,8.226,8.45,4.602,-5.143,-8.058,1.961,-1.211,8.415,5.174,-5.029,-7.561,78.4,63.7,-7.589,83.4,70.8,68.9,79.7,,36,58.7,4,5,prime,10,0,103,norm,36,-5.071,down,norm,63.3615681815,60.9,71.0,64.2,59.2,2,52.8,53.2,66.7,10,5,8.114,4.678,1.441,-1.495,-5.074,-8.114,65.3,5,166.4,-7.682,-8.468,20,-7.831,-7.954,-4.632,-4.301,-4.858,-4.662,4.912,8.301,26,-1.266,2.071,4.927,8.062,-7.566,-7.958,-1.995,1.996,67.6,47.7,62.6,69.1,61.0,71.8,51.2,66.1,72.0,54.1,2,norm,1.51,1.897,-1.921,-1.171,-4.971,-4.694,-1.224,-1.212,-1.157,-2.017,1.487,-1.953,43.4,59.3,-5.069,-8.299,1.59,-1.482,7.837,5.236,-4.905,-7.624,12,4.342,4.78,5.298,4.584,1.547,1.631,1.646,1.496,12,4.463,4.334,-60,2.04293737839,norm,0,41,41,41,1804.087,1804.097,1804.10390536,1804.104,1804.106,1804.11,down,1,1.08128713084,8.91871286916,001,303,1280_720,Intel(R) Core(TM) i5-8350U CPU @ 1.70GHz,orientation_search,prilt00735,Intel(R) UHD Graphics 620,2018_Nov_08_1319,testMonitor,
74.0,58.5,49.0,66.6,36,20,64.8,67.7,61.4,64.5,7.537,7.536,8.024,8.426,7.789,8.052,7.748,5.115,-4.726,-7.678,1.703,-2.027,8.153,5.236,-4.372,-8.023,45.0,83.4,-8.081,43.4,67.8,64.9,51.5,65.6,36,55.5,1,5,prime,10,0,89,norm,36,-4.443,down,norm,63.3615681815,64.6,54.8,69.6,68.7,0,48.2,45.2,65.0,10,5,8.353,4.357,1.122,-1.854,-4.377,-8.186,58.9,5,152.4,-7.981,-7.777,20,-8.324,-8.069,-4.712,-5.216,-4.698,-4.992,5.164,7.855,6,-1.588,1.701,4.304,7.991,-8.039,-7.731,-1.866,1.267,46.2,78.2,48.9,66.9,65.3,45.9,62.6,,67.6,51.1,3,norm,1.827,1.138,-2.042,-1.392,-5.271,-4.583,-1.269,-1.844,-1.914,-1.917,1.46,-1.991,52.1,55.0,-4.733,-8.252,1.96,-1.903,7.957,4.366,-5.062,-7.598,12,4.629,4.986,5.008,4.393,1.223,2.049,1.633,2.004,12,4.378,4.724,-60,2.04293737839,norm,0,42,42,42,1805.228,1805.247,1805.25323565,1805.254,1805.257,1805.261,down,1,2.06237064961,7.93762935039,001,303,1280_720,Intel(R) Core(TM) i5-8350U CPU @ 1.70GHz,orientation_search,prilt00735,Intel(R) UHD Graphics 620,2018_Nov_08_1319,testMonitor,
49.8,74.7,59.3,67.8,36,20,76.2,71.3,65.8,66.7,8.417,8.173,7.877,8.224,7.55,7.561,8.349,4.56,-4.548,-7.902,1.604,-1.341,8.124,5.148,-4.394,-7.514,60.6,59.3,-7.56,77.7,49.9,49.6,49.6,57.8,36,71.9,2,5,prime,10,0,88,norm,36,-4.631,down,norm,63.3615681815,48.3,56.3,66.7,,2,53.1,43.4,53.0,10,5,7.599,4.511,1.692,-1.371,-4.316,-8.275,74.3,5,151.4,-8.444,-8.418,20,-8.233,-7.989,-5.28,-4.397,-4.673,-4.875,4.647,8.19,14,-1.928,2.056,4.56,7.858,-8.249,-7.767,-1.386,1.132,58.2,56.2,56.3,83.4,59.3,77.6,68.3,56.5,63.6,58.7,4,norm,1.766,1.699,-1.974,-1.517,-5.046,-4.925,-1.222,-1.346,-1.799,-1.611,1.422,-1.592,58.2,67.1,-4.764,-7.547,1.863,-1.59,7.562,4.673,-5.138,-8.218,12,4.618,4.525,4.55,5.255,1.821,2.092,1.949,1.122,12,4.655,4.629,-60,2.04293737839,norm,0,43,43,43,1807.351,1807.361,1807.36920381,1807.37,1807.372,1807.375,down,1,1.39869623452,8.60130376548,001,303,1280_720,Intel(R) Core(TM) i5-8350U CPU @ 1.70GHz,orientation_search,prilt00735,Intel(R) UHD Graphics 620,2018_Nov_08_1319,testMonitor,
168.6,169.7,160.3,163.5,36,-30,167.7,162.9,158.8,156.4,7.816,8.072,8.019,7.849,8.076,8.493,8.354,5.292,-5.192,-8.487,1.539,-1.623,8.109,4.835,-4.834,-7.578,158.5,170.0,-8.279,157.8,161.1,159.5,,164.8,36,161.6,5,5,probe,5,0,81,norm,36,-5.042,down,norm,163.647648814,157.6,168.9,154.9,157.3,2,164.1,163.8,154.8,10,5,7.774,4.659,1.123,-2.094,-4.787,-7.805,161.9,1,82.6,-8.073,-8.342,20,-8.306,-7.602,-4.414,-4.527,-4.814,-4.872,4.562,7.761,32,-1.732,2.015,4.342,8.351,-8.321,-8.19,-1.966,1.422,161.1,166.7,163.5,155.2,153.6,173.6,158.4,168.8,165.9,161.7,0,norm,1.8,1.857,-1.816,-1.42,-4.692,-4.955,-1.835,-1.49,-1.195,-1.231,1.488,-1.359,161.7,167.9,-5.19,-8.499,1.639,-2.014,8.157,5.094,-4.897,-7.935,13,4.582,5.297,5.286,4.594,1.737,1.742,1.777,1.103,13,4.647,5.194,20,63.3615681815,norm,0,44,44,44,1808.809,1808.827,1808.83277074,1808.833,1808.837,1808.841,down,1,1.58317418824,8.41682581176,001,303,1280_720,Intel(R) Core(TM) i5-8350U CPU @ 1.70GHz,orientation_search,prilt00735,Intel(R) UHD Graphics 620,2018_Nov_08_1319,testMonitor,
196.8,188.4,212.8,,36,80,213.8,195.9,192.3,189.5,7.602,8.412,8.01,8.304,7.897,8.455,8.456,4.802,-4.329,-8.006,1.208,-1.996,8.366,5.254,-4.986,-7.76,173.8,185.3,-7.579,208.4,192.8,207.9,183.1,181.7,36,199.3,3,5,prime,10,0,67,norm,36,-4.406,up,norm,193.77120826,192.6,208.2,198.3,177.8,3,189.0,193.4,189.3,10,5,7.964,4.569,1.768,-1.482,-5.161,-8.44,174.3,5,260.8,-7.757,-7.914,80,-7.862,-7.763,-5.219,-5.018,-4.873,-4.983,4.61,8.307,21,-1.787,1.731,4.72,7.844,-7.957,-8.24,-1.44,1.192,187.4,185.0,182.3,186.9,190.8,187.8,186.8,195.8,186.9,202.8,0,norm,1.445,1.843,-1.538,-2.098,-5.044,-4.761,-1.892,-1.907,-1.367,-1.512,1.228,-1.262,194.9,179.6,-4.909,-7.693,1.664,-1.418,8.497,4.931,-4.743,-7.771,14,4.822,4.667,5.161,5.194,1.527,1.475,2.079,1.429,14,4.671,5.166,-30,63.3615681815,norm,0,45,45,45,1810.459,1810.476,1810.48187582,1810.482,1810.486,1810.49,up,1,1.73334917583,8.26665082417,001,303,1280_720,Intel(R) Core(TM) i5-8350U CPU @ 1.70GHz,orientation_search,prilt00735,Intel(R) UHD Graphics 620,2018_Nov_08_1319,testMonitor,
198.2,186.4,198.6,194.9,36,80,194.9,182.3,191.5,200.2,8.411,8.465,7.919,7.971,8.204,7.723,7.537,4.573,-5.249,-8.042,1.122,-2.019,8.064,4.424,-4.366,-7.571,198.4,189.4,-8.134,198.7,189.3,182.1,187.1,199.2,36,190.3,1,5,prime,10,0,93,norm,36,-5.185,down,norm,193.77120826,199.5,185.5,186.3,193.9,1,183.0,195.5,173.8,10,5,8.246,4.392,2.067,-1.674,-4.336,-8.358,186.0,5,286.8,-7.546,-7.882,80,-8.079,-8.039,-5.075,-4.751,-4.668,-4.874,4.492,7.52,7,-1.641,1.51,5.264,7.982,-8.359,-8.093,-1.204,1.854,192.1,209.6,181.8,213.8,206.7,194.6,,197.6,198.4,203.4,1,norm,1.171,1.684,-1.738,-1.619,-4.951,-5.253,-1.42,-1.299,-1.829,-2.089,1.241,-1.586,180.6,189.4,-4.623,-8.287,1.251,-1.699,7.887,4.591,-5.117,-7.689,14,5.066,4.612,4.796,5.044,1.481,1.416,1.52,2.079,14,4.496,5.091,-30,63.3615681815,norm,0,46,46,46,1812.256,1812.273,1812.277634,1812.278,1812.282,1812.286,down,1,2.26969906458,7.73030093542,001,303,1280_720,Intel(R) Core(TM) i5-8350U CPU @ 1.70GHz,orientation_search,prilt00735,Intel(R) UHD Graphics 620,2018_Nov_08_1319,testMonitor,
201.6,190.6,187.8,196.1,36,80,175.2,201.3,189.6,186.4,7.933,8.296,8.306,7.806,7.664,8.401,8.208,4.342,-4.79,-8.307,1.943,-1.477,8.103,4.543,-4.404,-8.183,179.0,205.2,-8.413,204.2,194.4,196.0,199.1,193.1,36,186.3,0,5,prime,10,0,65,norm,36,-4.828,up,norm,193.77120826,188.1,181.5,196.7,185.5,5,180.3,184.0,202.1,10,5,8.22,5.146,1.723,-1.415,-5.038,-7.723,173.8,5,258.8,-7.689,-8.313,80,-7.519,-7.759,-4.442,-4.657,-4.403,-4.398,4.576,8.016,5,-1.38,1.646,4.778,7.516,-8.092,-8.404,-1.556,1.998,183.3,200.0,194.0,213.8,198.5,193.1,193.5,176.7,,205.6,2,norm,2.018,1.876,-1.733,-1.664,-4.408,-4.946,-1.278,-1.926,-1.369,-1.98,1.9,-1.468,187.1,193.2,-4.363,-7.718,1.376,-1.89,7.695,4.683,-4.61,-8.461,14,4.62,4.548,4.452,4.591,1.112,1.442,1.499,1.703,14,4.978,5.24,-30,63.3615681815,norm,0,47,47,47,1814.583,1814.594,1814.60193729,1814.602,1814.606,1814.61,up,1,3.26190401608,6.73809598392,001,303,1280_720,Intel(R) Core(TM) i5-8350U CPU @ 1.70GHz,orientation_search,prilt00735,Intel(R) UHD Graphics 620,2018_Nov_08_1319,testMonitor,
198.8,182.0,197.4,187.8,36,80,213.8,193.8,,191.7,7.966,7.797,7.964,8.349,7.981,7.69,7.614,4.944,-4.319,-7.558,1.87,-1.855,8.408,4.433,-5.156,-8.161,194.8,205.3,-8.195,173.8,198.9,193.4,191.9,188.9,36,192.3,4,5,prime,10,0,75,norm,36,-4.834,up,norm,193.77120826,181.9,188.0,204.7,207.0,4,191.4,205.3,177.2,10,5,7.944,4.685,1.317,-1.644,-5.002,-8.212,193.9,5,268.8,-7.797,-7.518,80,-8.388,-7.941,-4.511,-5.073,-4.87,-4.474,5.171,8.409,28,-1.115,1.956,4.515,7.564,-8.424,-8.169,-2.021,1.325,194.5,190.3,178.5,200.5,191.9,188.1,196.8,197.8,198.5,189.7,3,norm,1.406,1.907,-1.419,-1.617,-4.698,-4.672,-1.632,-1.525,-1.63,-1.901,1.617,-1.441,195.7,195.5,-5.156,-7.774,1.282,-1.307,8.345,4.97,-4.308,-7.974,14,4.59,4.476,4.582,4.739,1.744,2.019,1.615,1.462,14,4.62,4.356,-30,63.3615681815,norm,0,48,48,48,1817.89,1817.906,1817.91216596,1817.913,1817.917,1817.919,up,1,4.92105575839,5.07894424161,001,303,1280_720,Intel(R) Core(TM) i5-8350U CPU @ 1.70GHz,orientation_search,prilt00735,Intel(R) UHD Graphics 620,2018_Nov_08_1319,testMonitor,
197.3,198.0,198.7,213.8,36,80,200.2,188.9,182.9,180.9,8.165,7.976,8.346,8.052,8.031,8.015,8.091,4.898,-5.226,-8.198,1.234,-1.361,8.01,4.631,-5.152,-8.318,197.8,189.6,-8.047,192.6,186.2,192.2,178.4,180.7,36,192.1,2,5,prime,10,0,103,norm,36,-5.292,down,norm,193.77120826,209.0,209.5,208.1,194.5,0,173.8,200.0,,10,5,7.915,4.406,1.162,-1.931,-4.463,-7.588,207.9,5,296.8,-7.6,-8.348,80,-7.658,-7.673,-4.587,-4.404,-4.887,-4.573,4.693,7.772,12,-1.519,1.353,4.924,7.561,-7.505,-8.401,-1.876,1.543,206.3,203.0,183.7,210.2,189.7,211.5,196.6,193.7,181.0,197.6,4,norm,2.091,1.434,-1.397,-1.146,-4.729,-4.977,-1.245,-1.54,-1.64,-1.342,1.148,-1.132,199.6,200.9,-5.22,-7.707,1.585,-1.975,8.011,5.002,-4.858,-7.777,14,4.543,4.522,5.149,4.565,1.573,1.239,1.22,1.285,14,4.439,4.764,-30,63.3615681815,norm,0,49,49,49,1822.879,1822.9,1822.90664575,1822.907,1822.91,1822.915,down,1,1.00618937545,8.99381062455,001,303,1280_720,Intel(R) Core(TM) i5-8350U CPU @ 1.70GHz,orientation_search,prilt00735,Intel(R) UHD Graphics 620,2018_Nov_08_1319,testMonitor,
380.1,377.5,374.4,374.4,36,-40,370.2,381.7,373.7,385.8,7.908,7.734,7.583,7.532,8.074,8.268,8.412,4.92,-4.483,-7.534,1.171,-1.123,8.415,5.134,-4.542,-7.876,371.9,375.6,-7.925,370.5,377.3,378.8,372.9,372.3,36,375.2,2,5,probe,5,0,94,norm,36,-4.907,up,norm,375.816766121,377.4,,372.0,383.8,4,373.2,369.2,376.7,10,5,7.991,5.077,1.414,-1.542,-4.776,-7.651,368.0,1,281.8,-8.144,-8.41,80,-7.694,-7.611,-5.246,-5.287,-4.69,-4.806,4.518,7.559,16,-1.982,1.822,5.233,8.264,-7.697,-7.503,-1.996,1.933,378.6,369.4,367.9,374.8,365.8,380.5,369.3,374.6,378.2,377.2,0,norm,1.449,1.139,-1.764,-1.245,-4.905,-5.029,-1.842,-1.716,-1.689,-1.886,1.745,-1.485,382.2,376.2,-4.738,-7.506,1.704,-1.88,7.717,5.093,-4.535,-8.39,15,4.841,4.805,4.486,4.474,1.32,1.435,2.06,2.07,15,4.772,5.152,80,193.77120826,norm,0,50,50,50,1823.95,1823.96,1823.96756681,1823.968,1823.97,1823.973,up,1,0.881390287104,9.1186097129,001,303,1280_720,Intel(R) Core(TM) i5-8350U CPU @ 1.70GHz,orientation_search,prilt00735,Intel(R) UHD Graphics 620,2018_Nov_08_1319,testMonitor,
112.6,103.7,115.8,108.0,36,20,122.5,87.6,98.6,108.3,7.539,8.057,7.602,7.633,8.218,7.578,8.297,4.611,-4.556,-8.298,1.533,-1.148,7.532,5.007,-4.838,-7.827,126.2,112.5,-7.707,108.0,111.3,86.2,103.4,116.7,36,115.0,2,5,prime,10,0,67,norm,36,-5.174,up,norm,106.169942677,,90.2,100.6,123.7,5,89.1,100.6,105.5,10,6,7.727,4.884,1.899,-1.658,-4.479,-8.013,119.0,6,173.2,-7.852,-8.403,20,-7.615,-7.675,-4.98,-4.899,-4.533,-4.537,4.729,7.685,17,-1.576,1.641,4.982,8.028,-7.99,-7.565,-1.459,1.892,93.1,105.0,104.1,98.5,87.6,117.6,114.4,97.2,103.7,94.4,0,norm,1.713,2.08,-1.995,-1.279,-4.692,-5.098,-2.071,-1.562,-1.973,-1.136,1.462,-1.45,110.1,107.5,-4.49,-8.495,2.062,-1.914,8.123,4.381,-5.029,-8.086,16,4.641,4.804,4.619,4.325,1.265,1.649,1.189,1.6,16,4.444,5.177,-40,193.77120826,norm,0,51,51,51,1824.885,1824.895,1824.90252544,1824.903,1824.905,1824.909,up,1,2.42852567566,7.57147432434,001,303,1280_720,Intel(R) Core(TM) i5-8350U CPU @ 1.70GHz,orientation_search,prilt00735,Intel(R) UHD Graphics 620,2018_Nov_08_1319,testMonitor,
124.1,,107.8,115.1,36,20,99.8,89.0,126.2,101.8,7.838,8.199,7.652,8.178,7.756,7.7,7.604,4.518,-4.721,-8.011,1.917,-1.976,7.731,4.916,-4.93,-7.922,86.2,117.5,-7.916,97.5,106.6,103.1,95.9,93.5,36,111.6,3,5,prime,10,0,119,norm,36,-4.545,up,norm,106.169942677,118.1,101.2,107.2,114.9,5,106.7,117.9,101.7,10,6,7.619,4.666,1.416,-1.263,-4.406,-7.601,109.4,6,225.2,-8.143,-8.367,20,-7.522,-8.439,-5.162,-4.357,-4.861,-4.724,4.853,8.049,23,-1.464,1.122,4.834,7.665,-7.584,-7.94,-1.655,1.591,94.1,95.8,104.2,122.6,106.5,125.4,125.2,90.6,117.4,106.9,1,norm,1.719,2.096,-1.495,-1.404,-4.896,-4.719,-1.215,-1.855,-1.644,-1.79,1.291,-1.704,97.1,104.2,-4.814,-7.949,1.539,-1.735,8.02,5.038,-4.78,-8.069,16,4.752,4.579,4.424,4.344,1.546,1.539,1.688,1.589,16,5.078,4.621,-40,193.77120826,norm,0,52,52,52,1827.369,1827.379,1827.3859351,1827.386,1827.388,1827.39,up,1,1.21331633866,8.78668366134,001,303,1280_720,Intel(R) Core(TM) i5-8350U CPU @ 1.70GHz,orientation_search,prilt00735,Intel(R) UHD Graphics 620,2018_Nov_08_1319,testMonitor,
107.2,105.6,103.7,126.2,36,20,113.7,111.8,112.0,100.6,8.102,7.839,7.64,7.944,7.553,7.976,8.147,4.793,-5.037,-8.309,1.417,-1.651,7.965,4.949,-4.584,-8.236,108.3,117.9,-7.706,90.1,120.4,105.4,104.8,112.4,36,94.8,0,5,prime,10,0,101,norm,36,-4.788,down,norm,106.169942677,110.9,111.7,86.2,108.7,1,92.2,124.3,87.5,10,6,7.961,4.42,1.452,-1.572,-4.536,-8.212,98.0,6,207.2,-7.754,-7.551,20,-8.372,-8.377,-5.253,-4.43,-4.383,-4.576,4.935,8.287,1,-1.818,2.085,4.468,8.336,-8.401,-7.832,-1.872,2.038,106.0,106.4,99.8,119.2,,101.2,105.6,99.9,98.9,102.7,2,norm,1.777,1.183,-1.538,-1.589,-4.443,-4.849,-1.49,-1.21,-2.034,-1.513,1.944,-1.105,98.3,114.1,-4.439,-7.504,1.695,-1.975,8.212,4.794,-4.363,-8.233,16,4.41,4.399,4.606,5.007,2.004,1.469,2.031,1.962,16,4.322,5.11,-40,193.77120826,norm,0,53,53,53,1828.631,1828.643,1828.65096621,1828.651,1828.654,1828.657,down,1,1.34770625852,8.65229374148,001,303,1280_720,Intel(R) Core(TM) i5-8350U CPU @ 1.70GHz,orientation_search,prilt00735,Intel(R) UHD Graphics 620,2018_Nov_08_1319,testMonitor,
90.8,105.6,126.2,101.1,36,20,125.4,115.7,110.7,104.4,8.146,7.714,8.077,8.187,8.002,8.042,8.244,4.419,-5.245,-7.83,1.851,-1.47,8.259,4.459,-5.075,-8.115,110.2,103.4,-7.94,104.2,114.8,96.6,113.0,115.8,36,105.9,0,5,prime,10,0,60,norm,36,-4.777,up,norm,106.169942677,113.7,98.0,103.6,107.1,3,115.7,102.3,112.4,10,6,7.988,4.692,1.8,-1.412,-4.822,-7.542,86.2,6,166.2,-8.266,-8.295,20,-7.704,-8.226,-5.188,-4.666,-4.758,-5.07,4.395,8.019,3,-1.133,1.481,5.152,8.351,-7.701,-8.062,-1.873,1.88,113.9,108.3,,113.0,87.3,100.3,118.1,101.9,117.8,109.1,3,norm,1.151,1.688,-1.253,-1.611,-4.995,-4.515,-1.911,-2.083,-1.619,-1.914,1.817,-1.972,106.5,106.6,-4.405,-7.657,1.963,-1.31,7.86,4.894,-5.231,-8.367,16,4.894,4.697,4.99,4.673,1.208,1.103,1.791,1.536,16,4.887,4.535,-40,193.77120826,norm,0,54,54,54,1830.042,1830.061,1830.06718983,1830.068,1830.071,1830.075,up,1,1.93133195792,8.06866804208,001,303,1280_720,Intel(R) Core(TM) i5-8350U CPU @ 1.70GHz,orientation_search,prilt00735,Intel(R) UHD Graphics 620,2018_Nov_08_1319,testMonitor,
116.6,102.0,96.4,100.9,36,20,114.9,109.9,94.2,117.9,8.192,7.64,8.052,8.453,8.071,7.517,7.704,4.442,-5.189,-8.182,1.939,-1.404,8.15,4.552,-4.526,-7.933,96.7,96.7,-7.504,115.1,126.2,122.4,122.3,111.4,36,98.7,3,5,prime,10,0,69,norm,36,-5.157,down,norm,106.169942677,102.8,115.2,110.2,113.5,0,114.3,106.9,121.6,10,6,8.475,4.928,1.564,-1.379,-4.772,-8.207,102.0,6,175.2,-8.135,-8.441,20,-8.452,-8.277,-4.792,-4.702,-4.596,-5.048,5.041,8.22,18,-1.365,1.658,4.722,7.708,-7.778,-8.206,-1.969,2.041,102.8,86.2,122.4,109.4,97.8,93.8,87.5,107.4,120.8,107.6,4,norm,1.518,1.99,-1.802,-1.519,-4.366,-4.774,-1.538,-1.224,-1.831,-1.457,1.203,-1.376,108.1,,-4.574,-7.972,1.452,-1.903,7.669,5.194,-4.937,-7.603,16,4.578,4.305,4.357,5.012,1.525,1.812,1.909,1.782,16,4.453,4.425,-40,193.77120826,norm,0,55,55,55,1832.035,1832.044,1832.05116712,1832.051,1832.053,1832.056,up,0,1.86392501458,-10,001,303,1280_720,Intel(R) Core(TM) i5-8350U CPU @ 1.70GHz,orientation_search,prilt00735,Intel(R) UHD Graphics 620,2018_Nov_08_1319,testMonitor,
97.1,106.3,,113.6,36,20,106.3,117.5,107.3,120.9,8.42,8.224,8.149,7.723,7.568,8.34,8.48,5.004,-5.236,-8.122,2.03,-1.937,7.939,4.338,-4.859,-7.856,99.7,126.2,-8.178,96.3,116.2,122.5,103.8,103.9,36,90.7,3,5,prime,10,0,64,norm,36,-5.241,down,norm,106.169942677,86.2,111.6,107.0,90.2,2,96.9,110.1,102.8,10,6,7.919,4.988,1.29,-1.198,-4.53,-7.99,101.6,6,170.2,-8.23,-8.302,20,-7.521,-8.233,-5.17,-4.72,-5.21,-5.185,4.626,8.32,20,-1.185,1.431,5.141,7.959,-7.736,-7.528,-1.114,1.167,86.8,116.8,100.9,109.9,104.2,110.7,112.8,114.8,102.3,116.8,5,norm,1.272,1.413,-2.002,-1.742,-4.914,-5.022,-1.996,-2.053,-1.114,-2.072,1.969,-1.701,95.5,109.2,-4.533,-8.014,1.914,-1.92,8.435,5.118,-4.796,-8.235,16,4.758,4.806,4.984,4.403,2.027,1.315,1.605,1.616,16,4.633,4.675,-40,193.77120826,norm,0,56,56,56,1834.984,1834.995,1835.00134157,1835.002,1835.003,1835.005,down,1,1.71497169953,8.28502830047,001,303,1280_720,Intel(R) Core(TM) i5-8350U CPU @ 1.70GHz,orientation_search,prilt00735,Intel(R) UHD Graphics 620,2018_Nov_08_1319,testMonitor,
246.8,246.0,246.6,244.9,36,-30,245.8,242.4,250.6,255.8,8.475,7.88,7.521,8.179,7.91,8.17,7.645,5.002,-5.045,-7.719,1.179,-1.72,7.746,4.537,-5.024,-8.031,244.6,240.9,-8.393,,253.5,248.5,246.6,253.1,36,245.9,5,5,probe,5,0,119,norm,36,-4.401,down,norm,248.649227349,258.6,252.1,250.9,243.7,1,241.3,246.6,249.2,10,6,7.512,4.913,1.116,-1.781,-5.3,-8.356,242.5,2,129.6,-8.44,-7.682,20,-8.215,-7.817,-4.909,-4.586,-4.934,-4.94,4.823,7.611,31,-1.697,1.764,4.794,8.462,-7.542,-7.504,-1.935,1.238,258.4,238.6,249.1,254.2,247.6,243.6,251.0,240.7,247.9,250.2,0,norm,1.458,1.603,-1.769,-1.919,-4.351,-4.484,-1.398,-2.08,-1.393,-1.694,1.124,-1.766,244.0,253.3,-4.461,-7.539,1.237,-1.388,8.014,5.117,-5.11,-8.458,17,4.882,4.693,5.254,4.703,1.263,1.959,1.136,1.327,17,4.508,4.991,20,106.169942677,norm,0,57,57,57,1836.756,1836.774,1836.78036413,1836.781,1836.784,1836.788,down,1,1.24931247164,8.75068752836,001,303,1280_720,Intel(R) Core(TM) i5-8350U CPU @ 1.70GHz,orientation_search,prilt00735,Intel(R) UHD Graphics 620,2018_Nov_08_1319,testMonitor,
197.2,202.7,201.9,204.0,36,-30,199.3,210.2,197.6,207.0,8.283,7.565,8.123,8.422,8.036,8.144,8.012,4.905,-4.376,-8.253,1.651,-1.497,8.246,4.889,-4.63,-7.678,206.4,196.7,-7.942,204.5,199.6,202.4,207.9,203.9,36,,4,5,probe,5,0,75,norm,36,-4.412,up,norm,204.649227349,209.7,201.7,205.6,203.4,3,207.2,214.6,199.6,10,6,7.674,4.864,1.285,-1.762,-4.965,-7.712,203.9,2,129.6,-8.194,-8.413,20,-8.079,-7.749,-4.869,-5.252,-5.223,-4.645,4.703,7.935,27,-1.48,1.927,5.048,7.739,-8.304,-7.86,-1.666,1.451,194.6,210.5,206.0,204.7,205.6,209.8,203.3,201.9,206.5,202.4,1,norm,1.678,1.515,-1.309,-1.972,-4.511,-4.818,-1.913,-1.928,-1.828,-1.137,1.936,-1.873,202.5,210.6,-5.227,-7.879,1.6,-1.14,8.007,5.004,-4.662,-7.764,17,4.792,4.579,4.309,4.567,1.124,2.091,1.164,1.174,17,5.149,5.045,20,106.169942677,norm,0,58,58,58,1838.066,1838.075,1838.08213722,1838.082,1838.085,1838.088,up,1,0.881432413749,9.11856758625,001,303,1280_720,Intel(R) Core(TM) i5-8350U CPU @ 1.70GHz,orientation_search,prilt00735,Intel(R) UHD Graphics 620,2018_Nov_08_1319,testMonitor,
249.0,249.2,246.2,241.1,36,30,268.1,249.0,256.1,255.5,8.104,7.788,7.892,7.685,8.431,7.579,8.153,5.194,-4.548,-7.575,2.08,-1.953,7.519,4.653,-4.952,-7.943,241.9,248.0,-7.883,242.3,249.8,253.8,240.6,254.5,36,237.0,1,5,prime,10,0,118,norm,36,-4.867,up,norm,248.106231061,249.1,248.4,244.6,259.4,4,256.5,261.8,249.1,10,6,7.822,5.014,1.341,-1.843,-4.418,-8.182,,6,366.1,-8.152,-8.017,30,-7.646,-8.458,-4.626,-4.364,-5.188,-4.6,4.697,7.991,10,-1.212,1.522,4.542,8.385,-8.352,-7.663,-1.558,1.109,251.4,248.4,247.8,241.2,247.0,259.1,248.4,228.1,243.3,241.2,0,norm,1.311,1.613,-1.925,-1.774,-4.513,-4.385,-1.757,-1.482,-1.691,-2.041,1.367,-1.56,247.5,253.1,-4.571,-8.416,1.104,-2.038,8.0,4.6,-4.539,-7.544,18,4.789,4.735,5.04,5.064,1.698,1.829,1.574,1.969,18,4.915,4.694,-30,106.169942677,norm,0,59,59,59,1838.987,1862.338,1862.34594936,1862.346,1862.35,1862.354,up,1,3.96312136794,6.03687863206,001,303,1280_720,Intel(R) Core(TM) i5-8350U CPU @ 1.70GHz,orientation_search,prilt00735,Intel(R) UHD Graphics 620,2018_Nov_08_1319,testMonitor,
251.2,254.4,242.6,244.4,36,30,255.8,246.1,256.2,253.5,8.45,7.634,8.432,8.163,8.061,7.86,7.938,4.344,-4.588,-8.377,1.79,-1.29,7.841,4.658,-4.666,-8.106,261.5,231.7,-7.96,254.8,268.1,231.3,235.2,246.2,36,229.8,0,5,prime,10,0,109,norm,36,-4.85,down,norm,248.106231061,248.0,262.3,249.1,263.3,1,257.7,251.1,259.3,10,6,7.655,4.491,1.313,-1.139,-4.699,-7.547,248.6,6,357.1,-7.981,-8.252,30,-7.799,-8.415,-4.539,-4.407,-4.956,-4.934,4.863,7.729,1,-2.006,1.5,5.199,8.108,-8.144,-8.193,-1.699,1.258,240.3,256.9,241.6,241.9,,233.6,228.1,258.7,237.3,233.7,1,norm,2.016,1.958,-1.76,-1.449,-4.888,-4.978,-1.29,-1.4,-1.443,-2.027,2.067,-1.939,254.7,261.2,-4.479,-7.914,1.161,-1.939,8.442,4.584,-4.579,-7.744,18,4.869,5.142,4.685,4.68,1.154,1.153,1.398,1.483,18,5.117,4.736,-30,106.169942677,norm,0,60,60,60,1866.348,1866.359,1866.36437977,1866.365,1866.367,1866.37,down,1,0.895427099313,9.10457290069,001,303,1280_720,Intel(R) Core(TM) i5-8350U CPU @ 1.70GHz,orientation_search,prilt00735,Intel(R) UHD Graphics 620,2018_Nov_08_1319,testMonitor,
249.4,251.8,,238.3,36,30,242.7,243.2,249.4,228.1,8.001,8.136,7.786,7.817,7.931,7.545,8.369,4.483,-5.049,-7.966,1.864,-1.786,8.435,5.055,-4.406,-7.748,263.5,263.7,-7.574,252.9,262.2,235.4,246.6,254.7,36,263.2,3,5,prime,10,0,81,norm,36,-4.323,down,norm,248.106231061,251.9,260.3,253.2,257.4,2,240.1,253.0,237.0,10,6,8.101,4.491,1.323,-1.892,-4.319,-7.738,252.5,6,329.1,-8.447,-8.327,30,-7.6,-8.09,-4.815,-4.581,-4.791,-5.026,4.658,7.958,20,-1.851,1.14,4.965,8.288,-7.965,-7.793,-1.938,2.029,268.1,264.2,242.6,253.1,241.9,236.2,254.1,255.5,262.2,250.8,2,norm,1.277,1.865,-1.85,-1.567,-4.765,-4.461,-1.383,-1.965,-1.94,-1.346,1.532,-1.206,259.3,267.0,-4.668,-8.234,1.94,-1.257,8.047,4.722,-5.119,-8.488,18,4.892,5.299,5.228,4.62,1.549,1.762,1.379,1.461,18,5.03,4.719,-30,106.169942677,norm,0,61,61,61,1867.296,1867.306,1867.31299175,1867.313,1867.323,1867.328,down,1,2.88668096092,7.11331903908,001,303,1280_720,Intel(R) Core(TM) i5-8350U CPU @ 1.70GHz,orientation_search,prilt00735,Intel(R) UHD Graphics 620,2018_Nov_08_1319,testMonitor,
257.9,254.7,240.3,235.4,36,30,244.4,244.5,229.4,241.9,8.179,8.028,7.681,8.057,8.404,7.602,7.685,4.542,-4.685,-7.581,1.24,-1.368,7.566,4.677,-4.523,-8.213,251.0,254.3,-8.038,231.2,255.1,249.2,241.4,249.6,36,253.2,1,5,prime,10,0,94,norm,36,-5.036,up,norm,248.106231061,260.1,245.8,242.6,250.1,4,244.3,251.6,268.1,10,6,7.913,5.221,1.887,-1.642,-4.369,-8.235,,6,342.1,-8.425,-7.872,30,-7.89,-8.213,-4.567,-4.345,-5.114,-4.419,4.465,7.603,10,-1.915,1.817,4.517,7.846,-7.835,-7.868,-1.585,1.79,228.1,246.4,266.0,252.5,242.7,236.7,242.4,245.8,250.7,238.8,3,norm,1.102,2.052,-1.286,-1.616,-4.784,-4.724,-1.281,-1.183,-1.532,-1.511,2.093,-1.387,257.4,245.5,-4.871,-7.976,1.317,-1.573,7.864,4.824,-4.448,-7.7,18,5.294,4.525,4.303,4.755,1.194,1.146,1.523,1.104,18,4.731,4.995,-30,106.169942677,norm,0,62,62,62,1870.247,1870.258,1870.26365173,1870.264,1870.266,1870.268,up,1,1.33134924063,8.66865075937,001,303,1280_720,Intel(R) Core(TM) i5-8350U CPU @ 1.70GHz,orientation_search,prilt00735,Intel(R) UHD Graphics 620,2018_Nov_08_1319,testMonitor,
234.9,255.8,251.3,248.9,36,30,253.8,245.3,248.2,242.4,7.516,7.846,7.878,8.381,8.135,7.905,7.832,5.175,-5.144,-8.421,1.664,-1.446,8.031,4.666,-5.286,-7.799,,239.4,-7.7,251.9,240.4,242.1,229.0,247.9,36,255.9,5,5,prime,10,0,61,norm,36,-4.716,up,norm,248.106231061,238.5,237.1,250.9,240.2,5,245.9,250.4,252.3,10,6,8.132,4.614,1.439,-1.684,-5.163,-7.89,251.5,6,309.1,-8.419,-8.011,30,-7.799,-7.643,-4.394,-4.934,-4.332,-5.184,5.101,8.008,35,-1.316,1.394,5.125,7.967,-7.941,-7.776,-1.894,1.54,257.0,260.5,231.3,241.0,238.9,264.6,228.1,268.1,239.2,259.1,4,norm,1.907,1.439,-1.373,-1.266,-4.423,-5.233,-1.908,-1.954,-1.967,-1.132,1.521,-1.251,241.2,239.4,-5.245,-7.99,1.863,-1.334,8.047,4.913,-4.354,-7.627,18,5.293,4.919,5.172,5.294,1.336,1.24,1.511,1.506,18,4.858,4.717,-30,106.169942677,norm,0,63,63,63,1871.635,1871.648,1871.65187085,1871.652,1871.655,1871.662,up,1,1.61991347837,8.38008652163,001,303,1280_720,Intel(R) Core(TM) i5-8350U CPU @ 1.70GHz,orientation_search,prilt00735,Intel(R) UHD Graphics 620,2018_Nov_08_1319,testMonitor,
248.1,260.1,247.9,257.7,36,30,268.1,,244.8,242.8,7.888,8.398,8.078,8.135,8.469,7.884,7.983,4.977,-4.317,-7.6,2.033,-1.674,7.83,5.224,-4.457,-7.8,230.7,238.4,-8.256,239.3,261.2,228.9,254.6,244.0,36,245.4,4,5,prime,10,0,97,norm,36,-4.466,down,norm,248.106231061,241.2,234.8,250.2,251.0,1,232.1,228.1,236.6,10,6,7.614,5.18,1.954,-1.74,-4.982,-8.131,243.3,6,345.1,-8.27,-8.131,30,-8.066,-7.688,-5.163,-4.757,-5.026,-4.904,4.453,7.556,25,-1.196,1.689,5.088,7.828,-7.558,-8.498,-1.19,1.904,253.3,237.5,246.7,234.6,242.8,235.3,249.7,247.6,253.7,237.5,5,norm,1.68,1.438,-1.599,-1.368,-4.375,-5.283,-1.124,-1.815,-1.785,-2.075,1.67,-1.849,245.9,252.8,-4.399,-8.221,2.042,-1.13,7.878,5.297,-5.165,-7.769,18,4.992,5.02,5.034,4.678,1.889,1.517,1.812,1.308,18,4.547,4.356,-30,106.169942677,norm,0,64,64,64,1873.311,1873.32,1873.32808713,1873.328,1873.331,1873.334,down,1,1.69832195554,8.30167804446,001,303,1280_720,Intel(R) Core(TM) i5-8350U CPU @ 1.70GHz,orientation_search,prilt00735,Intel(R) UHD Graphics 620,2018_Nov_08_1319,testMonitor,
348.8,343.3,346.2,345.9,36,60,344.1,348.1,352.5,351.4,8.206,8.254,8.443,8.319,7.728,8.071,8.2,4.809,-4.577,-7.793,2.043,-1.879,8.38,5.235,-5.293,-8.139,341.3,345.4,-7.55,352.8,354.7,337.5,347.5,355.5,36,335.5,0,5,probe,5,0,71,norm,36,-4.769,down,norm,345.495457233,340.4,353.4,343.5,352.3,2,349.7,344.2,348.8,10,6,7.8,4.527,1.651,-1.186,-4.503,-7.66,343.0,2,274.5,-8.189,-7.8,30,-7.805,-7.998,-5.259,-4.302,-4.673,-4.596,4.463,7.827,2,-1.625,1.821,5.171,7.916,-8.207,-7.599,-1.982,1.224,345.3,348.5,337.1,,336.1,343.3,347.2,350.2,345.0,343.5,0,norm,1.337,1.986,-1.447,-1.139,-4.338,-5.035,-1.392,-1.348,-1.135,-1.25,1.3,-1.15,341.9,344.3,-4.658,-8.193,2.057,-1.304,7.744,5.185,-4.497,-7.63,19,4.609,4.642,5.064,4.68,1.502,1.238,1.375,1.249,19,4.423,5.046,30,248.106231061,norm,0,65,65,65,1875.069,1875.086,1875.0917232,1875.092,1875.096,1875.1,down,1,1.63241590875,8.36758409125,001,303,1280_720,Intel(R) Core(TM) i5-8350U CPU @ 1.70GHz,orientation_search,prilt00735,Intel(R) UHD Graphics 620,2018_Nov_08_1319,testMonitor,
378.9,381.9,373.3,378.5,36,60,377.2,382.8,382.6,378.0,8.431,8.044,7.947,8.119,8.343,7.655,8.04,4.834,-4.368,-8.225,1.234,-1.811,8.445,4.31,-4.305,-7.549,,372.3,-7.5,378.6,382.3,377.1,382.4,386.6,36,380.8,5,5,probe,5,0,104,norm,36,-5.297,up,norm,378.495457233,368.5,382.3,388.5,376.1,5,382.3,379.9,374.1,10,6,8.442,4.681,2.016,-1.771,-4.876,-8.084,370.5,2,274.5,-7.541,-8.004,30,-8.2,-8.427,-4.523,-4.627,-4.654,-4.433,4.936,7.81,35,-1.496,1.355,4.466,7.911,-8.336,-7.682,-1.403,1.28,381.8,384.4,374.0,377.6,378.4,374.4,385.7,379.9,372.8,371.3,1,norm,1.602,1.468,-1.935,-1.96,-5.253,-4.649,-1.285,-1.422,-1.317,-1.568,1.561,-1.267,380.2,373.4,-4.426,-8.004,1.347,-1.951,8.415,4.655,-5.198,-7.971,19,5.278,5.107,4.771,5.269,1.972,1.204,1.74,1.639,19,4.76,4.768,30,248.106231061,norm,0,66,66,66,1876.763,1876.776,1876.78043974,1876.781,1876.783,1876.786,up,1,1.22819190305,8.77180809695,001,303,1280_720,Intel(R) Core(TM) i5-8350U CPU @ 1.70GHz,orientation_search,prilt00735,Intel(R) UHD Graphics 620,2018_Nov_08_1319,testMonitor,
161.5,171.2,177.7,185.8,36,10,165.4,164.7,160.0,177.0,7.627,8.297,8.316,8.07,8.039,8.066,8.217,4.999,-4.387,-7.882,1.54,-1.636,8.278,5.035,-4.708,-8.04,168.4,172.3,-8.307,162.7,170.8,187.6,158.0,188.9,36,157.0,0,5,prime,10,0,95,norm,36,-4.734,up,norm,168.86954082,155.0,166.7,159.1,175.1,3,148.9,163.1,183.0,10,6,7.748,5.236,1.632,-1.736,-4.893,-7.895,164.9,6,263.9,-7.52,-7.764,10,-7.98,-8.348,-4.976,-5.136,-5.23,-5.129,4.802,8.014,3,-1.215,1.894,4.582,7.511,-7.916,-8.327,-2.053,1.553,168.3,167.2,,165.5,172.8,156.2,163.5,161.7,167.2,178.7,0,norm,1.267,1.329,-1.13,-1.959,-4.562,-4.353,-1.11,-1.935,-1.618,-1.226,2.001,-1.18,161.8,158.8,-4.912,-7.697,1.97,-1.153,8.463,4.446,-4.446,-7.626,20,4.821,4.923,5.01,4.82,1.884,1.663,1.355,1.41,20,5.216,4.668,60,248.106231061,norm,0,67,67,67,1878.045,1878.054,1878.06132018,1878.062,1878.064,1878.066,up,1,2.11617770961,7.88382229039,001,303,1280_720,Intel(R) Core(TM) i5-8350U CPU @ 1.70GHz,orientation_search,prilt00735,Intel(R) UHD Graphics 620,2018_Nov_08_1319,testMonitor,
170.2,175.1,151.3,154.6,36,10,158.1,161.2,163.8,178.4,8.08,7.872,7.594,7.623,8.369,8.499,8.163,5.258,-4.553,-7.86,1.178,-1.954,7.756,5.278,-4.996,-7.803,163.0,156.7,-7.726,162.4,149.9,176.7,174.3,173.2,36,159.3,2,5,prime,10,0,62,norm,36,-5.152,down,norm,168.86954082,171.7,170.8,168.8,188.9,0,180.0,148.9,,10,6,7.647,4.845,1.253,-1.494,-4.874,-8.168,180.5,6,230.9,-7.811,-8.306,10,-7.964,-8.279,-5.203,-4.573,-4.4,-4.833,4.613,8.339,12,-1.646,1.804,4.466,7.972,-7.612,-7.645,-1.399,1.216,171.1,166.6,160.6,159.7,167.6,171.6,163.2,168.2,166.3,153.5,1,norm,1.214,1.176,-1.56,-1.791,-4.654,-4.821,-1.731,-1.711,-1.766,-1.303,1.736,-1.334,159.3,164.2,-4.409,-8.111,1.848,-1.521,8.136,5.21,-4.631,-7.583,20,5.17,5.005,4.334,4.631,1.174,1.64,2.067,1.997,20,4.675,5.095,60,248.106231061,norm,0,68,68,68,1880.217,1880.234,1880.23971732,1880.24,1880.243,1880.248,down,1,1.35160351271,8.64839648729,001,303,1280_720,Intel(R) Core(TM) i5-8350U CPU @ 1.70GHz,orientation_search,prilt00735,Intel(R) UHD Graphics 620,2018_Nov_08_1319,testMonitor,
155.3,171.2,,166.4,36,10,172.1,188.9,169.8,148.9,7.601,7.545,7.839,7.59,7.85,8.462,7.588,4.68,-4.783,-8.278,1.49,-1.982,7.973,5.278,-4.878,-7.621,156.7,174.5,-8.023,174.2,163.6,175.4,166.3,167.7,36,176.0,3,5,prime,10,0,106,norm,36,-4.316,down,norm,168.86954082,184.4,171.0,178.3,170.0,2,154.8,174.5,173.6,10,6,7.854,5.299,1.115,-1.16,-5.165,-8.484,172.1,6,274.9,-8.15,-7.807,10,-7.619,-8.15,-5.103,-4.466,-4.844,-4.688,5.065,7.76,20,-1.213,2.069,5.148,8.164,-8.33,-8.071,-2.068,1.512,182.9,150.1,181.3,174.3,180.3,179.4,164.5,160.5,162.2,171.8,2,norm,2.004,1.656,-1.695,-1.13,-4.814,-5.185,-1.354,-1.579,-1.88,-1.732,1.955,-1.694,161.3,152.8,-4.994,-7.842,1.925,-1.777,7.896,5.291,-4.944,-7.989,20,4.604,4.54,5.187,5.281,1.158,1.173,1.888,1.73,20,5.298,4.692,60,248.106231061,norm,0,69,69,69,1881.638,1881.657,1881.66278057,1881.663,1881.667,1881.671,up,0,1.47567024562,-10,001,303,1280_720,Intel(R) Core(TM) i5-8350U CPU @ 1.70GHz,orientation_search,prilt00735,Intel(R) UHD Graphics 620,2018_Nov_08_1319,testMonitor,
161.2,181.3,158.1,168.3,36,10,156.1,177.3,188.9,177.8,8.062,7.931,8.118,7.86,7.65,8.087,8.113,4.834,-5.06,-7.885,1.538,-1.18,7.684,4.531,-5.196,-7.597,157.2,166.2,-8.2,178.7,173.1,164.3,170.7,,36,163.6,4,5,prime,10,0,88,norm,36,-4.981,down,norm,168.86954082,177.8,148.9,170.2,167.4,2,165.9,179.3,180.8,10,6,7.754,5.171,1.693,-1.162,-4.852,-7.563,168.2,6,256.9,-7.908,-8.177,10,-8.068,-7.86,-4.306,-4.306,-4.667,-4.64,4.338,8.22,26,-1.344,1.694,5.15,7.769,-7.623,-7.756,-1.549,1.703,168.0,164.6,158.2,171.0,171.9,187.1,157.2,183.8,176.6,175.1,3,norm,1.302,1.212,-1.869,-1.845,-4.519,-5.039,-1.455,-1.825,-1.565,-1.926,1.664,-1.263,174.5,167.9,-4.981,-7.772,1.256,-1.605,7.535,5.281,-5.073,-8.206,20,4.308,4.736,4.355,4.98,1.283,1.951,1.886,1.306,20,5.274,4.683,60,248.106231061,norm,0,70,70,70,1884.199,1884.208,1884.22295686,1884.223,1884.227,1884.231,down,1,1.57977759295,8.42022240705,001,303,1280_720,Intel(R) Core(TM) i5-8350U CPU @ 1.70GHz,orientation_search,prilt00735,Intel(R) UHD Graphics 620,2018_Nov_08_1319,testMonitor,
175.8,167.9,169.4,176.3,36,10,156.6,155.7,181.6,188.9,8.341,8.038,8.278,7.779,7.659,7.532,8.036,4.96,-4.71,-7.546,1.342,-1.626,7.95,4.403,-4.477,-8.168,164.9,180.6,-7.653,166.4,180.2,168.6,171.2,,36,161.5,4,5,prime,10,0,114,norm,36,-4.351,down,norm,168.86954082,165.8,167.7,178.3,160.8,2,148.9,172.9,185.5,10,6,7.563,4.971,1.262,-1.163,-4.536,-8.184,161.6,6,282.9,-7.773,-7.859,10,-7.959,-7.501,-5.095,-5.162,-5.032,-4.968,5.118,8.427,26,-1.77,1.187,4.546,7.622,-7.817,-7.76,-1.303,1.394,178.6,176.9,162.8,161.9,174.3,160.8,176.9,185.8,162.6,156.7,4,norm,1.736,1.674,-1.762,-1.7,-4.763,-5.285,-1.358,-1.697,-1.865,-1.834,1.122,-1.807,152.2,165.5,-4.33,-8.042,1.306,-1.637,8.037,5.267,-5.166,-7.671,20,4.321,5.152,5.252,4.755,1.986,1.689,1.76,1.47,20,4.475,5.135,60,248.106231061,norm,0,71,71,71,1885.834,1885.85,1885.85541381,1885.856,1885.858,1885.861,up,0,1.53555218302,-10,001,303,1280_720,Intel(R) Core(TM) i5-8350U CPU @ 1.70GHz,orientation_search,prilt00735,Intel(R) UHD Graphics 620,2018_Nov_08_1319,testMonitor,
181.6,152.8,177.0,174.3,36,10,,178.6,161.2,177.8,8.195,8.209,8.23,7.802,8.342,7.605,7.682,4.367,-4.666,-7.547,1.337,-1.126,8.221,4.7,-4.681,-8.31,172.1,175.2,-7.712,175.3,177.8,161.3,168.3,171.5,36,148.9,4,5,prime,10,0,89,norm,36,-5.188,down,norm,168.86954082,159.2,164.5,167.1,173.6,0,162.7,165.8,158.6,10,6,7.882,4.476,1.345,-1.281,-4.531,-8.209,163.5,6,257.9,-7.828,-8.228,10,-7.684,-8.208,-4.329,-5.062,-4.805,-4.934,4.725,7.979,24,-1.729,2.005,4.959,8.237,-7.748,-7.651,-1.747,1.886,188.9,157.5,168.9,163.3,158.4,186.8,177.4,173.6,157.0,172.3,5,norm,1.487,1.812,-1.613,-1.173,-4.431,-4.897,-1.37,-1.171,-1.274,-1.835,1.621,-1.439,156.2,180.5,-5.01,-8.051,1.407,-1.885,7.919,4.368,-4.779,-7.588,20,5.063,4.638,4.808,4.571,1.128,1.919,1.238,1.401,20,4.619,5.295,60,248.106231061,norm,0,72,72,72,1888.456,1888.463,1888.4758852,1888.476,1888.479,1888.482,down,1,0.731897967111,9.26810203289,001,303,1280_720,Intel(R) Core(TM) i5-8350U CPU @ 1.70GHz,orientation_search,prilt00735,Intel(R) UHD Graphics 620,2018_Nov_08_1319,testMonitor,
258.1,270.6,267.0,267.9,36,10,267.3,259.7,270.8,267.7,8.466,7.852,7.813,7.868,7.887,7.57,7.693,4.33,-5.099,-7.542,1.456,-2.023,7.66,4.438,-4.338,-8.392,272.9,260.0,-8.185,272.9,,266.4,269.1,265.6,36,266.7,5,5,probe,5,0,93,norm,36,-4.362,down,norm,268.093669481,270.1,278.1,263.4,262.9,0,260.8,277.0,266.8,10,6,8.255,5.261,1.78,-1.563,-4.836,-7.831,277.8,1,175.1,-7.705,-7.943,10,-7.598,-8.096,-5.28,-4.717,-4.796,-4.727,4.825,7.645,30,-1.607,1.802,4.665,7.81,-7.624,-7.61,-1.111,2.009,263.8,272.9,270.0,261.2,264.6,271.6,262.1,269.6,263.5,265.4,0,norm,1.421,1.974,-1.365,-1.695,-4.862,-5.118,-1.759,-1.732,-1.655,-1.838,1.85,-1.833,267.9,270.7,-4.573,-8.443,1.685,-1.866,8.258,4.459,-5.225,-8.024,21,4.575,4.977,4.645,4.593,1.375,1.455,1.68,1.598,21,4.473,5.255,10,168.86954082,norm,0,73,73,73,1889.251,1889.269,1889.27488334,1889.275,1889.279,1889.283,up,0,3.18083075892,-10,001,303,1280_720,Intel(R) Core(TM) i5-8350U CPU @ 1.70GHz,orientation_search,prilt00735,Intel(R) UHD Graphics 620,2018_Nov_08_1319,testMonitor,
19.8,7.2,4.0,13.3,36,80,18.3,20.8,21.6,24.0,8.195,7.721,8.497,7.936,8.159,7.713,8.048,4.631,-4.346,-7.735,2.022,-1.297,8.082,4.542,-4.554,-7.711,23.8,26.5,-8.043,11.4,22.6,22.9,29.4,28.2,36,19.5,1,5,prime,10,0,92,norm,36,-4.856,up,norm,18.1974061434,9.2,-0.3,19.3,23.3,5,,25.0,25.3,10,6,8.272,5.019,1.171,-1.753,-4.71,-8.283,17.8,6,110.2,-7.858,-8.095,80,-7.649,-8.265,-4.515,-4.862,-5.223,-4.44,5.041,8.432,11,-2.018,1.898,4.656,7.79,-7.966,-8.203,-2.023,1.379,-1.8,38.2,13.0,17.2,18.3,6.2,17.2,22.3,5.8,10.6,0,norm,2.036,1.603,-1.309,-1.231,-4.544,-5.177,-1.637,-1.243,-1.518,-1.583,1.767,-2.055,33.8,24.6,-5.3,-7.616,1.912,-1.749,7.929,4.332,-4.924,-7.507,22,5.008,5.0,4.698,5.174,1.593,1.767,1.4,1.285,22,4.375,4.7,10,168.86954082,norm,0,74,74,74,1893.516,1893.527,1893.53127309,1893.532,1893.534,1893.536,up,1,1.19355786471,8.80644213529,001,303,1280_720,Intel(R) Core(TM) i5-8350U CPU @ 1.70GHz,orientation_search,prilt00735,Intel(R) UHD Graphics 620,2018_Nov_08_1319,testMonitor,
9.4,17.1,20.0,26.1,36,80,,14.2,28.7,20.3,8.258,8.449,8.035,7.673,8.006,8.432,7.682,4.696,-5.287,-8.432,1.91,-1.742,8.17,5.01,-4.629,-8.444,13.6,38.2,-8.24,17.1,16.1,23.3,25.7,14.7,36,27.5,4,5,prime,10,0,76,norm,36,-4.726,down,norm,18.1974061434,26.2,9.9,13.3,21.0,0,11.5,17.8,37.1,10,6,8.308,5.179,1.79,-1.38,-5.059,-7.699,26.8,6,94.2,-8.152,-8.388,80,-7.642,-8.154,-4.558,-5.234,-5.035,-4.381,4.918,7.697,24,-1.192,1.377,4.713,7.826,-7.834,-7.814,-1.511,1.861,14.6,11.7,31.1,29.8,20.8,18.4,-1.8,26.0,18.8,12.6,1,norm,1.443,1.26,-1.27,-1.154,-4.694,-4.309,-2.026,-1.734,-1.446,-1.65,1.489,-1.987,10.2,8.7,-5.228,-8.111,2.046,-1.632,8.363,5.032,-4.996,-8.269,22,4.836,4.465,5.125,5.157,2.089,1.41,1.538,1.795,22,4.836,4.71,10,168.86954082,norm,0,75,75,75,1894.762,1894.779,1894.78402104,1894.785,1894.789,1894.794,down,1,1.43310883795,8.56689116205,001,303,1280_720,Intel(R) Core(TM) i5-8350U CPU @ 1.70GHz,orientation_search,prilt00735,Intel(R) UHD Graphics 620,2018_Nov_08_1319,testMonitor,
10.7,9.6,-1.8,15.8,36,80,15.8,25.9,17.8,18.0,8.459,7.595,7.613,8.092,7.911,7.506,7.663,5.187,-5.028,-7.546,1.542,-1.515,7.896,4.907,-4.778,-7.71,16.6,19.2,-8.414,11.3,13.6,11.6,29.0,38.2,36,12.1,2,5,prime,10,0,79,norm,36,-4.862,up,norm,18.1974061434,36.2,,28.4,35.7,4,8.9,23.3,12.4,10,6,7.687,5.163,2.01,-1.788,-4.689,-8.337,12.7,6,97.2,-7.755,-7.824,80,-8.445,-8.456,-4.509,-4.889,-4.525,-4.595,5.074,7.817,16,-1.157,1.673,4.688,7.56,-7.975,-7.65,-2.064,1.827,17.5,12.2,30.9,5.0,-1.3,32.4,13.2,32.2,17.2,7.5,2,norm,1.106,1.602,-1.127,-1.534,-4.657,-5.049,-1.429,-1.841,-1.773,-2.03,1.617,-1.665,20.1,23.2,-4.7,-8.384,2.043,-2.007,7.777,5.044,-4.871,-8.308,22,4.793,4.858,5.233,4.651,1.147,1.826,1.522,1.39,22,5.139,4.794,10,168.86954082,norm,0,76,76,76,1896.251,1896.263,1896.26733079,1896.268,1896.271,1896.275,up,1,1.60321836722,8.39678163278,001,303,1280_720,Intel(R) Core(TM) i5-8350U CPU @ 1.70GHz,orientation_search,prilt00735,Intel(R) UHD Graphics 620,2018_Nov_08_1319,testMonitor,
27.8,29.8,12.2,12.9,36,80,17.8,3.8,23.3,9.5,8.153,7.818,8.39,8.339,8.012,8.201,8.342,4.368,-4.834,-8.08,1.466,-1.587,7.797,5.017,-5.253,-8.038,,12.4,-8.26,14.3,35.4,11.8,20.1,23.7,36,14.3,5,5,prime,10,0,101,norm,36,-5.138,up,norm,18.1974061434,22.5,27.8,38.2,16.3,5,10.0,17.3,30.5,10,6,7.811,4.521,2.084,-1.787,-4.363,-8.212,-1.8,6,119.2,-8.087,-7.875,80,-8.433,-7.608,-4.876,-4.457,-4.571,-4.417,4.744,8.441,35,-1.741,1.495,4.617,8.078,-7.981,-7.944,-1.843,1.562,4.8,16.0,22.0,31.2,7.0,9.9,28.5,11.6,14.1,33.3,3,norm,1.916,1.977,-1.196,-1.982,-4.561,-4.988,-1.206,-1.754,-1.946,-1.831,1.918,-1.129,10.0,34.2,-5.186,-8.059,1.783,-1.714,7.516,5.075,-4.469,-8.081,22,4.918,4.363,4.966,5.287,1.759,1.745,1.991,1.711,22,4.764,4.623,10,168.86954082,norm,0,77,77,77,1897.909,1897.919,1897.92619359,1897.927,1897.929,1897.932,up,1,3.22927693404,6.77072306596,001,303,1280_720,Intel(R) Core(TM) i5-8350U CPU @ 1.70GHz,orientation_search,prilt00735,Intel(R) UHD Graphics 620,2018_Nov_08_1319,testMonitor,
26.3,,16.6,26.3,36,80,9.9,-1.8,4.4,32.0,8.108,7.955,8.311,8.257,8.039,8.22,7.832,4.538,-4.743,-7.501,1.39,-1.696,7.985,5.163,-5.284,-7.565,38.2,9.6,-8.384,21.5,19.6,18.7,8.0,9.9,36,24.8,3,5,prime,10,0,81,norm,36,-4.509,up,norm,18.1974061434,11.0,1.1,29.5,16.0,5,11.4,23.4,15.8,10,6,7.643,4.783,1.516,-1.151,-4.351,-7.775,22.8,6,99.2,-7.628,-7.939,80,-7.548,-7.617,-4.525,-4.848,-5.195,-4.884,4.658,7.604,23,-1.725,1.784,5.243,8.31,-8.397,-7.87,-1.61,1.522,34.7,7.0,18.8,31.6,24.4,15.2,20.9,37.9,28.0,4.8,4,norm,1.729,1.845,-1.374,-1.681,-5.288,-4.871,-1.623,-1.592,-1.987,-1.882,1.685,-1.684,26.1,21.4,-4.473,-8.36,1.745,-1.631,8.175,4.605,-4.347,-7.506,22,5.183,5.063,4.388,4.893,1.3,1.203,1.184,1.253,22,5.039,4.834,10,168.86954082,norm,0,78,78,78,1901.192,1901.203,1901.20962054,1901.21,1901.212,1901.214,up,1,1.08028473287,8.91971526713,001,303,1280_720,Intel(R) Core(TM) i5-8350U CPU @ 1.70GHz,orientation_search,prilt00735,Intel(R) UHD Graphics 620,2018_Nov_08_1319,testMonitor,
9.8,16.6,13.1,-1.8,36,80,38.2,14.9,18.7,5.3,7.74,7.516,8.067,8.446,8.265,8.287,7.534,5.187,-4.922,-8.257,1.231,-1.404,8.318,4.953,-5.141,-8.395,17.8,14.2,-7.953,28.4,17.5,6.3,31.2,10.6,36,4.6,3,5,prime,10,0,69,norm,36,-5.217,down,norm,18.1974061434,30.5,14.6,25.2,34.0,0,22.5,16.7,26.8,10,6,7.645,4.353,1.225,-1.752,-5.281,-8.064,14.0,6,87.2,-7.81,-7.747,80,-8.477,-8.199,-5.264,-4.756,-5.061,-4.885,5.158,8.046,18,-1.398,1.752,5.286,7.777,-7.805,-8.48,-2.062,1.935,24.5,22.6,31.4,5.9,5.1,23.8,33.1,25.0,34.4,0.9,5,norm,1.759,1.593,-1.365,-1.979,-4.966,-4.655,-1.181,-1.466,-1.479,-1.167,2.045,-1.287,26.4,,-4.591,-8.299,1.715,-1.27,7.762,4.514,-4.807,-7.842,22,5.099,4.991,4.612,4.977,1.696,1.278,2.019,1.941,22,5.247,4.63,10,168.86954082,norm,0,79,79,79,1902.326,1902.34,1902.3445392,1902.345,1902.347,1902.349,down,1,0.82835608891,9.17164391109,001,303,1280_720,Intel(R) Core(TM) i5-8350U CPU @ 1.70GHz,orientation_search,prilt00735,Intel(R) UHD Graphics 620,2018_Nov_08_1319,testMonitor,
204.7,210.6,207.1,204.1,36,40,201.8,197.0,207.0,203.7,8.203,8.134,8.323,8.168,8.381,7.978,8.441,4.303,-4.539,-7.932,1.556,-1.402,8.106,4.482,-4.821,-8.296,201.8,195.0,-7.932,196.2,205.2,201.3,203.4,,36,209.9,4,5,probe,5,0,110,norm,36,-5.173,down,norm,204.978103698,200.4,215.0,201.2,195.2,2,209.2,201.5,207.9,10,6,8.302,5.073,1.265,-1.675,-4.408,-7.614,202.1,2,95.0,-7.84,-7.771,80,-8.45,-8.249,-4.414,-4.978,-4.537,-5.198,5.063,7.645,26,-1.832,1.728,4.34,7.938,-7.516,-7.547,-2.024,1.15,208.1,204.8,209.0,201.2,201.7,201.5,199.2,203.4,201.8,208.4,0,norm,1.104,1.998,-1.117,-1.144,-5.024,-4.312,-1.382,-1.405,-1.115,-1.182,1.586,-1.748,205.3,212.5,-5.197,-8.156,1.295,-2.082,7.921,4.571,-4.673,-8.177,23,4.541,4.913,4.413,4.867,2.033,1.197,2.067,1.57,23,4.363,4.352,80,18.1974061434,norm,0,80,80,80,1903.195,1903.212,1903.21833427,1903.22,1903.234,1903.238,down,1,1.1394067705,8.8605932295,001,303,1280_720,Intel(R) Core(TM) i5-8350U CPU @ 1.70GHz,orientation_search,prilt00735,Intel(R) UHD Graphics 620,2018_Nov_08_1319,testMonitor,
152.3,157.6,151.1,158.1,36,40,160.4,157.0,155.6,157.0,8.11,7.979,8.044,8.334,8.465,7.883,7.585,4.535,-5.255,-8.293,1.396,-1.943,8.096,4.584,-4.603,-8.023,,154.2,-7.661,148.0,151.9,159.9,163.3,153.8,36,159.6,5,5,probe,5,0,63,norm,36,-4.969,up,norm,157.978103698,164.6,157.0,156.1,155.4,5,160.0,163.6,161.0,10,6,8.393,4.553,1.907,-2.096,-4.63,-7.516,162.2,2,95.0,-8.025,-7.86,80,-7.867,-7.936,-4.498,-4.881,-5.042,-4.765,4.801,8.193,35,-1.79,1.568,4.719,7.613,-8.103,-8.253,-1.139,1.587,148.1,157.7,157.8,160.7,148.8,155.5,160.3,158.2,158.6,158.9,1,norm,1.756,2.03,-2.032,-1.3,-4.303,-4.403,-1.276,-1.702,-1.322,-1.126,1.596,-1.716,168.0,155.2,-5.215,-8.367,1.294,-1.325,8.066,4.718,-5.266,-8.311,23,4.891,4.371,4.883,4.709,2.075,2.058,2.072,2.084,23,4.758,4.314,80,18.1974061434,norm,0,81,81,81,1904.409,1904.419,1904.42626974,1904.427,1904.429,1904.432,up,1,0.979555617974,9.02044438203,001,303,1280_720,Intel(R) Core(TM) i5-8350U CPU @ 1.70GHz,orientation_search,prilt00735,Intel(R) UHD Graphics 620,2018_Nov_08_1319,testMonitor,
298.7,325.0,311.5,312.4,36,-10,305.7,321.1,313.2,293.5,8.47,7.851,8.316,8.188,7.59,7.95,8.21,4.443,-4.491,-8.424,1.284,-1.312,7.601,4.859,-4.395,-8.402,320.1,321.6,-7.883,312.4,291.1,313.6,309.0,297.3,36,314.9,2,5,prime,10,0,115,norm,36,-4.623,up,norm,311.117292727,310.7,,316.9,329.8,4,331.1,299.8,323.8,10,6,7.907,4.513,2.048,-1.642,-4.505,-7.897,319.4,6,426.1,-8.446,-8.139,-10,-7.813,-8.478,-4.555,-4.561,-4.816,-4.312,4.728,8.459,16,-1.32,2.021,4.428,7.997,-8.387,-8.398,-2.086,1.963,307.6,305.0,311.6,304.4,297.6,317.9,312.3,311.6,303.5,301.2,0,norm,1.469,1.304,-2.085,-1.634,-4.513,-4.858,-1.718,-1.424,-1.544,-1.424,1.775,-1.548,311.4,318.6,-4.768,-7.713,2.049,-1.319,7.77,4.878,-4.421,-8.078,24,4.372,5.275,4.58,5.136,1.285,1.905,1.108,1.614,24,4.469,4.356,40,18.1974061434,norm,0,82,82,82,1905.444,1905.461,1905.46605457,1905.466,1905.472,1905.478,up,1,1.19951986433,8.80048013567,001,303,1280_720,Intel(R) Core(TM) i5-8350U CPU @ 1.70GHz,orientation_search,prilt00735,Intel(R) UHD Graphics 620,2018_Nov_08_1319,testMonitor,
312.5,307.6,308.8,312.0,36,-10,303.5,306.6,299.6,306.4,8.403,8.335,8.01,7.812,8.275,8.462,7.974,5.129,-4.559,-7.75,1.228,-1.877,8.418,5.235,-5.169,-8.227,314.1,331.1,-8.274,301.2,314.1,296.6,320.2,321.7,36,296.8,1,5,prime,10,0,112,norm,36,-4.603,down,norm,311.117292727,308.8,305.9,307.3,296.4,2,316.2,320.9,318.4,10,6,7.974,4.643,1.299,-1.234,-5.089,-8.343,321.5,6,423.1,-7.547,-8.294,-10,-8.486,-8.228,-4.338,-4.67,-4.825,-5.074,5.039,8.397,8,-2.066,1.707,4.933,7.527,-7.843,-7.531,-1.863,1.507,316.0,,311.8,318.6,306.3,321.5,310.0,312.9,291.1,317.4,1,norm,1.826,1.999,-1.884,-1.463,-4.388,-4.418,-2.089,-1.556,-1.194,-1.661,1.877,-1.844,316.9,319.5,-5.22,-7.605,1.435,-1.333,8.136,4.651,-4.93,-8.316,24,4.662,4.906,4.532,4.593,1.721,1.965,1.728,1.814,24,4.916,4.79,40,18.1974061434,norm,0,83,83,83,1906.713,1906.733,1906.74041889,1906.741,1906.744,1906.748,down,1,1.02878113592,8.97121886408,001,303,1280_720,Intel(R) Core(TM) i5-8350U CPU @ 1.70GHz,orientation_search,prilt00735,Intel(R) UHD Graphics 620,2018_Nov_08_1319,testMonitor,
291.1,311.4,315.8,302.5,36,-10,313.3,331.1,308.0,315.8,7.624,7.909,7.51,8.055,7.546,8.204,7.697,4.498,-5.247,-8.165,2.079,-1.969,8.454,4.671,-4.794,-8.333,311.2,321.7,-8.276,293.4,308.4,292.8,322.6,299.8,36,305.8,0,5,prime,10,0,95,norm,36,-4.509,down,norm,311.117292727,310.9,301.9,326.1,316.5,0,309.3,300.5,297.4,10,6,7.513,5.209,2.039,-1.508,-4.584,-8.31,304.6,6,406.1,-7.778,-7.876,-10,-8.131,-7.567,-5.107,-4.733,-4.504,-4.743,4.785,7.964,0,-1.624,1.579,4.994,8.38,-7.818,-8.024,-1.308,1.957,316.8,303.7,314.9,305.6,329.5,,317.1,314.5,321.4,297.0,2,norm,2.023,1.191,-1.168,-1.734,-5.136,-5.044,-1.96,-1.628,-1.532,-1.617,1.881,-1.189,294.7,320.9,-5.236,-7.733,1.679,-1.193,8.147,5.146,-4.743,-7.744,24,4.678,4.517,4.647,5.099,1.537,1.202,1.51,1.358,24,4.558,5.215,40,18.1974061434,norm,0,84,84,84,1907.807,1907.817,1907.8242509,1907.825,1907.828,1907.832,down,1,0.978360949695,9.0216390503,001,303,1280_720,Intel(R) Core(TM) i5-8350U CPU @ 1.70GHz,orientation_search,prilt00735,Intel(R) UHD Graphics 620,2018_Nov_08_1319,testMonitor,
313.3,291.1,296.7,306.2,36,-10,326.8,304.7,303.7,307.3,7.679,7.539,7.991,8.387,8.497,7.858,8.019,4.672,-4.545,-7.547,1.481,-1.371,8.436,4.971,-4.668,-8.196,313.1,305.7,-7.674,311.6,320.1,310.7,306.0,,36,307.0,4,5,prime,10,0,83,norm,36,-4.727,down,norm,311.117292727,326.6,317.8,331.1,312.3,2,301.2,314.2,321.7,10,6,8.196,4.727,1.926,-1.918,-4.546,-7.848,310.2,6,394.1,-8.339,-8.208,-10,-8.196,-8.435,-4.608,-5.101,-4.451,-5.152,5.297,7.591,26,-1.777,1.381,4.334,8.407,-7.911,-7.768,-1.359,1.716,313.9,318.9,301.2,298.6,329.1,322.8,313.9,307.1,298.0,308.7,3,norm,1.26,1.514,-1.425,-1.566,-5.283,-4.569,-1.303,-2.043,-1.476,-1.521,1.222,-1.22,320.5,331.1,-4.648,-8.071,1.593,-1.762,7.909,5.176,-4.303,-7.897,24,4.474,4.518,4.879,4.367,1.871,1.229,1.975,1.233,24,5.144,4.351,40,18.1974061434,norm,0,85,85,85,1908.838,1908.848,1908.85651883,1908.857,1908.86,1908.862,down,1,1.43110890276,8.56889109724,001,303,1280_720,Intel(R) Core(TM) i5-8350U CPU @ 1.70GHz,orientation_search,prilt00735,Intel(R) UHD Graphics 620,2018_Nov_08_1319,testMonitor,
318.8,308.4,323.4,313.0,36,-10,322.6,291.7,331.1,301.9,8.428,7.844,8.163,7.843,7.583,7.509,8.254,4.622,-5.056,-8.167,1.674,-1.225,7.802,4.35,-4.672,-8.118,301.0,330.9,-8.387,312.0,304.2,314.2,304.2,310.4,36,325.9,1,5,prime,10,0,83,norm,36,-4.872,up,norm,311.117292727,307.5,301.8,302.4,304.8,5,,314.7,318.4,10,6,7.948,4.838,1.289,-2.06,-4.844,-8.049,320.6,6,394.1,-8.204,-8.125,-10,-7.987,-7.646,-4.57,-4.833,-4.962,-4.997,4.569,8.423,11,-1.168,2.072,4.665,7.959,-7.812,-8.067,-1.652,1.246,303.7,325.1,302.8,297.5,327.2,320.0,303.2,314.9,321.7,318.1,4,norm,1.507,2.014,-1.491,-1.36,-4.444,-4.641,-1.834,-1.132,-1.749,-1.628,1.646,-1.582,303.7,309.2,-4.462,-7.641,1.835,-2.041,8.03,4.965,-5.111,-8.345,24,4.645,4.65,4.807,4.512,1.419,1.231,1.515,1.365,24,4.375,4.812,40,18.1974061434,norm,0,86,86,86,1910.334,1910.361,1910.36679341,1910.367,1910.371,1910.374,up,1,0.685999913592,9.31400008641,001,303,1280_720,Intel(R) Core(TM) i5-8350U CPU @ 1.70GHz,orientation_search,prilt00735,Intel(R) UHD Graphics 620,2018_Nov_08_1319,testMonitor,
299.8,291.1,316.8,302.5,36,-10,314.3,,316.2,327.3,8.274,8.321,7.531,7.577,8.404,7.859,7.789,4.636,-5.07,-7.845,1.263,-2.045,8.291,5.255,-4.559,-8.141,308.8,317.0,-7.719,314.3,318.4,307.6,306.5,303.1,36,304.6,4,5,prime,10,0,60,norm,36,-4.84,down,norm,311.117292727,304.3,304.0,313.3,313.8,1,311.7,297.5,318.5,10,6,8.324,4.708,1.742,-1.772,-4.985,-7.718,329.4,6,371.1,-8.26,-7.526,-10,-7.523,-7.678,-5.246,-4.634,-5.115,-4.994,4.701,7.55,25,-2.019,1.366,4.897,8.461,-8.204,-8.341,-1.951,1.579,311.7,331.1,311.3,307.2,305.8,314.4,317.3,324.1,313.3,305.8,5,norm,1.774,1.893,-1.319,-2.03,-4.438,-5.016,-1.479,-1.165,-1.187,-1.555,1.887,-1.852,314.0,301.1,-4.759,-8.292,1.577,-1.656,7.561,4.587,-4.857,-8.369,24,4.318,4.571,4.838,4.379,2.07,1.316,1.448,1.987,24,5.034,4.729,40,18.1974061434,norm,0,87,87,87,1911.165,1911.182,1911.18872248,1911.189,1911.193,1911.197,down,1,1.37905927974,8.62094072026,001,303,1280_720,Intel(R) Core(TM) i5-8350U CPU @ 1.70GHz,orientation_search,prilt00735,Intel(R) UHD Graphics 620,2018_Nov_08_1319,testMonitor,
393.1,398.5,397.1,394.4,36,-80,391.1,390.2,401.2,388.8,8.261,7.735,7.507,8.169,8.21,7.808,8.185,4.344,-5.0,-7.888,1.98,-1.482,7.827,4.575,-5.048,-7.539,391.4,393.8,-8.237,384.9,390.3,389.1,,391.8,36,381.2,5,5,probe,5,0,87,norm,36,-5.285,down,norm,391.240754107,386.1,391.6,392.4,387.2,2,393.0,389.2,392.5,10,6,8.221,4.572,1.737,-1.292,-4.379,-7.681,391.8,1,304.2,-8.246,-7.907,-10,-8.182,-7.52,-4.704,-4.776,-5.055,-4.448,4.642,7.959,32,-1.87,1.186,4.974,8.143,-7.623,-7.777,-1.808,1.456,386.2,384.5,391.7,387.7,384.2,395.3,386.4,386.2,381.5,388.8,0,norm,1.155,1.964,-2.068,-2.084,-4.418,-4.74,-1.667,-1.79,-1.579,-1.198,1.981,-1.507,391.0,389.5,-4.847,-8.349,1.572,-1.898,7.617,5.238,-4.491,-8.055,25,4.706,5.209,4.605,4.765,1.142,1.955,1.353,1.651,25,4.367,5.296,-10,311.117292727,norm,0,88,88,88,1912.605,1912.621,1912.62637938,1912.627,1912.63,1912.635,down,1,1.523914969,8.476085031,001,303,1280_720,Intel(R) Core(TM) i5-8350U CPU @ 1.70GHz,orientation_search,prilt00735,Intel(R) UHD Graphics 620,2018_Nov_08_1319,testMonitor,
145.4,124.1,117.9,148.2,36,-80,136.1,139.9,127.7,131.3,8.06,7.772,7.613,7.925,8.045,7.957,8.019,4.821,-4.64,-7.737,1.658,-2.046,8.013,4.619,-4.404,-8.032,,138.9,-7.516,134.1,135.2,114.5,146.4,128.2,36,132.3,5,5,prime,10,0,77,norm,36,-4.503,up,norm,134.522803065,142.3,127.2,139.6,152.4,5,147.1,148.1,143.2,10,5,7.651,4.421,1.782,-1.162,-4.803,-8.308,137.1,5,211.5,-8.244,-8.401,-80,-7.979,-8.05,-4.651,-4.403,-4.873,-4.738,4.913,7.572,35,-2.098,2.042,5.148,8.136,-8.166,-7.56,-1.119,2.058,144.3,127.5,134.4,144.4,123.3,142.2,129.4,129.7,131.7,126.2,0,norm,1.468,1.804,-1.343,-1.19,-4.797,-4.745,-1.586,-1.828,-1.918,-1.663,1.492,-1.738,141.3,135.6,-4.975,-7.941,1.221,-1.603,8.433,4.966,-4.494,-8.153,26,4.525,4.867,5.203,5.054,1.809,2.091,1.701,1.934,26,4.745,4.678,-80,311.117292727,norm,0,89,89,89,1914.189,1914.198,1914.20673216,1914.207,1914.211,1914.215,down,0,1.31124943291,-10,001,303,1280_720,Intel(R) Core(TM) i5-8350U CPU @ 1.70GHz,orientation_search,prilt00735,Intel(R) UHD Graphics 620,2018_Nov_08_1319,testMonitor,
154.5,122.5,145.4,136.2,36,-80,132.6,149.2,151.3,120.0,8.422,8.421,7.916,7.594,7.688,8.092,7.735,4.717,-4.387,-8.097,1.669,-1.8,8.388,4.77,-5.057,-8.493,139.9,114.5,-7.765,138.0,137.0,142.8,124.4,122.4,36,140.3,1,5,prime,10,0,111,norm,36,-5.137,up,norm,134.522803065,149.1,123.7,138.7,125.0,3,145.2,143.4,136.6,10,5,7.952,4.455,1.331,-2.0,-4.323,-7.564,127.3,5,245.5,-7.538,-8.294,-80,-8.38,-8.156,-5.066,-4.446,-5.031,-4.525,4.979,7.995,9,-1.398,1.726,4.868,7.681,-8.498,-7.766,-1.234,1.798,,143.3,142.3,141.2,123.8,130.8,140.4,153.3,128.0,136.2,1,norm,1.943,1.839,-1.68,-1.894,-4.566,-4.533,-1.9,-1.296,-1.247,-1.651,1.562,-1.626,129.1,130.7,-4.858,-8.333,1.514,-1.764,8.369,4.726,-4.667,-7.626,26,4.561,5.127,4.849,4.494,1.417,1.987,2.095,1.485,26,4.348,4.764,-80,311.117292727,norm,0,90,90,90,1916.586,1916.592,1916.60500173,1916.605,1916.609,1916.611,up,1,2.01552528678,7.98447471322,001,303,1280_720,Intel(R) Core(TM) i5-8350U CPU @ 1.70GHz,orientation_search,prilt00735,Intel(R) UHD Graphics 620,2018_Nov_08_1319,testMonitor,
142.0,123.6,122.2,139.3,36,-80,119.6,125.7,147.1,114.5,7.54,8.039,8.15,7.712,8.357,7.969,7.891,5.104,-4.983,-7.739,2.042,-1.942,7.78,5.24,-4.366,-7.539,137.3,148.8,-8.063,141.2,122.7,143.4,135.6,121.0,36,154.5,1,5,prime,10,0,87,norm,36,-4.347,down,norm,134.522803065,137.7,126.2,137.6,121.8,0,128.4,135.2,144.1,10,5,8.388,5.269,2.065,-1.959,-4.873,-7.608,123.2,5,221.5,-8.377,-7.546,-80,-8.331,-7.583,-4.704,-4.561,-4.411,-5.167,5.221,8.372,6,-1.535,1.739,4.934,7.517,-7.992,-7.857,-1.219,1.305,140.9,128.5,149.7,126.5,136.7,118.1,136.0,,114.6,133.4,2,norm,1.996,1.501,-1.403,-1.516,-4.799,-4.628,-1.162,-1.888,-1.401,-2.042,1.795,-1.704,129.8,140.3,-5.262,-8.339,1.242,-1.113,8.224,4.451,-5.189,-7.899,26,4.773,5.276,4.578,5.054,1.781,1.937,1.922,1.896,26,5.002,4.384,-80,311.117292727,norm,0,91,91,91,1918.661,1918.679,1918.68441908,1918.685,1918.688,1918.693,down,1,0.949393484421,9.05060651558,001,303,1280_720,Intel(R) Core(TM) i5-8350U CPU @ 1.70GHz,orientation_search,prilt00735,Intel(R) UHD Graphics 620,2018_Nov_08_1319,testMonitor,
135.5,142.0,141.3,143.5,36,-80,136.8,124.8,128.9,132.4,8.079,7.926,7.989,7.943,7.639,7.915,8.066,5.187,-4.358,-7.578,1.214,-1.651,8.03,4.343,-4.67,-8.338,128.3,140.4,-7.885,147.7,114.6,118.3,122.1,146.5,36,124.4,3,5,prime,10,0,108,norm,36,-4.311,down,norm,134.522803065,120.6,133.8,141.8,144.3,0,132.9,130.0,152.7,10,5,7.663,4.799,1.864,-1.503,-4.77,-8.104,154.5,5,242.5,-7.526,-8.232,-80,-7.92,-8.086,-4.495,-5.048,-4.823,-4.58,5.177,8.085,18,-1.625,1.505,5.192,8.362,-8.103,-7.509,-2.095,1.211,138.4,135.3,140.1,125.1,128.3,119.3,114.5,132.4,142.5,127.4,3,norm,1.479,1.358,-1.429,-1.353,-4.606,-5.03,-1.643,-2.07,-1.359,-1.356,1.836,-1.376,138.3,,-4.74,-8.165,1.371,-1.52,7.5,4.78,-5.268,-7.934,26,4.971,5.237,5.194,5.248,1.291,1.483,1.524,1.828,26,4.519,4.509,-80,311.117292727,norm,0,92,92,92,1919.672,1919.69,1919.69553728,1919.696,1919.699,1919.705,down,1,0.953770874301,9.0462291257,001,303,1280_720,Intel(R) Core(TM) i5-8350U CPU @ 1.70GHz,orientation_search,prilt00735,Intel(R) UHD Graphics 620,2018_Nov_08_1319,testMonitor,
132.0,154.5,135.0,114.5,36,-80,134.6,123.1,128.4,134.6,8.121,8.333,7.985,7.923,7.746,7.843,8.105,5.168,-5.29,-8.387,1.625,-1.556,8.016,4.708,-4.922,-8.289,130.8,133.8,-7.926,137.0,137.7,,130.3,130.0,36,132.7,5,5,prime,10,0,76,norm,36,-4.935,up,norm,134.522803065,138.5,133.2,142.0,123.1,3,137.1,127.9,142.3,10,5,8.117,4.741,1.299,-1.652,-4.388,-8.397,126.1,5,210.5,-7.736,-7.706,-80,-7.99,-7.831,-4.757,-4.583,-5.015,-5.013,5.282,7.543,33,-1.586,1.563,4.65,7.544,-7.639,-8.189,-1.164,1.52,142.7,149.2,137.0,121.2,134.5,153.2,142.5,122.0,146.1,124.9,4,norm,1.718,1.996,-1.399,-1.209,-4.483,-4.783,-1.416,-1.577,-1.124,-2.087,1.189,-1.566,148.6,145.8,-4.573,-7.693,1.546,-1.32,7.683,4.531,-5.127,-7.669,26,4.698,4.605,4.486,4.3,1.159,1.828,1.651,1.294,26,4.745,4.611,-80,311.117292727,norm,0,93,93,93,1920.695,1920.713,1920.71874203,1920.719,1920.723,1920.727,up,1,1.19883341614,8.80116658386,001,303,1280_720,Intel(R) Core(TM) i5-8350U CPU @ 1.70GHz,orientation_search,prilt00735,Intel(R) UHD Graphics 620,2018_Nov_08_1319,testMonitor,
165.4,167.4,163.2,,36,-10,169.7,166.7,166.9,156.7,8.179,8.243,8.069,7.936,8.226,8.142,7.548,4.858,-4.727,-7.811,1.363,-1.322,7.762,5.009,-4.548,-7.966,168.8,166.6,-7.912,158.1,171.9,173.1,167.8,163.6,36,174.6,3,5,probe,5,0,118,norm,36,-5.176,up,norm,166.654704636,159.2,176.7,165.9,166.0,3,167.0,168.6,167.7,10,5,7.647,4.958,1.809,-1.187,-5.097,-7.74,167.6,1,48.7,-8.332,-7.977,-80,-8.008,-8.293,-4.461,-4.572,-4.782,-5.171,4.963,7.609,21,-1.712,1.201,5.061,8.098,-7.726,-7.635,-1.805,1.424,164.2,166.1,161.7,168.1,166.4,166.2,156.8,170.9,174.8,176.4,0,norm,1.901,1.304,-1.586,-1.471,-4.329,-4.785,-1.356,-1.494,-1.674,-1.559,1.495,-1.504,175.9,166.2,-4.443,-8.262,1.127,-1.419,7.567,5.016,-4.454,-7.787,27,4.438,4.631,4.692,4.926,1.773,1.288,1.889,1.448,27,4.93,4.991,-80,134.522803065,norm,0,94,94,94,1921.962,1921.983,1921.98852967,1921.989,1921.991,1921.994,down,0,1.16611397956,-10,001,303,1280_720,Intel(R) Core(TM) i5-8350U CPU @ 1.70GHz,orientation_search,prilt00735,Intel(R) UHD Graphics 620,2018_Nov_08_1319,testMonitor,
68.9,61.2,58.7,61.2,36,40,62.0,45.4,55.1,57.8,7.701,7.785,8.088,8.097,7.842,8.001,8.495,4.837,-4.389,-8.431,1.439,-1.475,8.008,4.689,-5.025,-7.791,38.1,61.6,-7.863,39.2,68.8,78.1,52.1,61.6,36,61.7,0,5,prime,10,0,114,norm,36,-4.656,up,norm,58.0974100775,43.8,75.0,59.7,39.3,5,70.0,76.5,70.2,10,6,8.392,4.642,1.994,-1.896,-4.604,-7.521,51.6,6,172.1,-8.364,-7.622,40,-7.552,-8.012,-4.915,-5.151,-4.412,-5.151,4.556,8.396,5,-2.039,1.148,4.524,8.48,-8.308,-7.512,-1.704,2.031,45.0,69.3,57.2,51.2,65.2,53.7,61.1,61.7,,49.4,0,norm,1.586,1.289,-1.257,-1.561,-4.836,-4.567,-1.7,-1.532,-1.632,-1.842,1.533,-2.067,46.2,58.9,-4.352,-8.495,1.921,-1.743,8.004,5.033,-4.437,-8.206,28,5.233,4.623,4.617,5.089,1.734,1.821,1.389,1.42,28,4.96,4.584,-10,134.522803065,norm,0,95,95,95,1924.206,1924.216,1924.22294498,1924.223,1924.225,1924.227,up,1,2.16449858499,7.83550141501,001,303,1280_720,Intel(R) Core(TM) i5-8350U CPU @ 1.70GHz,orientation_search,prilt00735,Intel(R) UHD Graphics 620,2018_Nov_08_1319,testMonitor,
