d_ori_22,d_ori_23,d_ori_20,d_ori_21,set_size,ctpd,d_ori_24,d_ori_25,d_ori_28,d_ori_29,stim_pos_x_30,stim_pos_x_31,stim_pos_x_32,stim_pos_x_33,stim_pos_x_34,stim_pos_x_35,stim_pos_y_11,stim_pos_y_10,stim_pos_y_13,stim_pos_y_12,stim_pos_y_15,stim_pos_y_14,stim_pos_y_17,stim_pos_y_16,stim_pos_y_19,stim_pos_y_18,d_ori_35,d_ori_34,stim_pos_x_3,d_ori_31,d_ori_30,d_ori_33,d_ori_32,d_ori_26,test_set_size,d_ori_27,targetCol,dsd_test,seq_type,dsd,blockRepN,targetDist,dtype_test,prime_set_size,stim_pos_y_25,correctResponse,dtype,distrMean,d_ori_17,d_ori_16,d_ori_15,d_ori_14,targetRow,d_ori_11,d_ori_13,d_ori_12,dsd_prime,streak_length_prime,stim_pos_y_35,stim_pos_y_34,stim_pos_y_33,stim_pos_y_32,stim_pos_y_31,stim_pos_y_30,d_ori_10,nextProbe,targetOri,stim_pos_x_1,stim_pos_x_2,ctpd_prime,stim_pos_x_4,stim_pos_x_5,stim_pos_x_6,stim_pos_x_7,stim_pos_x_8,stim_pos_x_9,stim_pos_y_28,stim_pos_y_29,targetPos,stim_pos_y_20,stim_pos_y_21,stim_pos_y_22,stim_pos_y_23,stim_pos_y_24,stim_pos_x_0,stim_pos_y_26,stim_pos_y_27,d_ori_9,d_ori_8,d_ori_3,d_ori_2,d_ori_1,d_ori_0,d_ori_7,d_ori_6,d_ori_5,d_ori_4,trialN,dtype_prime,stim_pos_x_18,stim_pos_x_19,stim_pos_x_12,stim_pos_x_13,stim_pos_x_10,stim_pos_x_11,stim_pos_x_16,stim_pos_x_17,stim_pos_x_14,stim_pos_x_15,stim_pos_y_9,stim_pos_y_8,d_ori_19,d_ori_18,stim_pos_y_1,stim_pos_y_0,stim_pos_y_3,stim_pos_y_2,stim_pos_y_5,stim_pos_y_4,stim_pos_y_7,stim_pos_y_6,totBlockN,stim_pos_x_27,stim_pos_x_26,stim_pos_x_25,stim_pos_x_24,stim_pos_x_23,stim_pos_x_22,stim_pos_x_21,stim_pos_x_20,blockN,stim_pos_x_29,stim_pos_x_28,prevDistrCTPD,prevDistrMean,prevDistrType,trials.thisRepN,trials.thisTrialN,trials.thisN,trials.thisIndex,timeStart,timeBeforeDraw,timeDraw,timeAfterSaving,timeAfterWritingToTemp,timeAfterPreparingNext,answer,correct,rt,trialScore,session,participant,resolution,cpu_info,expName,pc_name,graphic_card,date,monitorName,
38.7,60.8,36.4,21.7,36,30,45.1,56.0,36.4,37.3,7.625,7.703,7.981,8.116,7.973,7.659,7.689,5.074,-4.597,-7.992,1.975,-1.106,8.29,4.555,-4.825,-7.734,47.5,47.8,-8.326,43.5,57.4,56.7,50.2,46.7,36,43.6,2,5,prime,10,0,114,norm,36,-4.694,down,norm,40.7982576879,56.2,35.3,41.5,44.5,0,28.9,35.7,,10,5,7.835,4.463,1.845,-2.072,-5.229,-8.076,29.7,5,154.8,-7.615,-8.484,30,-7.566,-7.855,-4.5,-4.8,-4.744,-4.759,5.185,7.703,12,-1.115,1.197,5.122,7.623,-8.409,-7.586,-1.911,1.951,43.9,41.6,34.8,41.5,36.9,39.0,20.8,48.1,36.3,45.4,0,norm,1.358,1.394,-1.214,-1.621,-5.265,-5.083,-1.709,-1.429,-1.595,-1.314,1.654,-1.699,37.8,44.7,-4.549,-8.029,1.343,-1.754,8.467,4.826,-4.315,-8.073,0,4.506,5.238,5.033,4.373,2.038,1.765,2.048,1.332,0,4.307,4.613,,,,0,0,0,0,1756.059,1756.089,1756.10927628,1756.11,1756.11,1756.113,down,1,1.51278124144,8.48721875856,001,304,1366_768,Intel(R) Core(TM) i5-3230M CPU @ 2.60GHz,orientation_search,DESKTOP-3MLAIPL,GeForce GT 635M/PCIe/SSE2,2018_Nov_08_1318,testMonitor,
26.6,43.4,39.1,53.9,36,30,20.8,44.4,43.7,38.5,7.641,8.286,7.718,7.76,7.83,8.373,8.241,4.701,-4.53,-7.966,1.908,-2.017,7.906,4.459,-5.279,-7.524,50.1,35.0,-8.208,41.2,39.2,37.9,31.7,51.7,36,45.8,2,5,prime,10,0,74,norm,36,-4.462,up,norm,40.7982576879,36.4,57.6,,41.5,3,31.5,49.7,44.2,10,5,7.818,4.341,1.154,-1.373,-4.594,-8.379,46.3,5,114.8,-8.33,-7.803,30,-8.489,-7.696,-4.945,-4.743,-4.819,-4.515,4.775,8.366,15,-1.318,1.56,4.683,8.431,-8.34,-7.758,-1.569,1.442,25.8,41.2,60.8,48.6,29.1,53.3,40.5,28.7,41.5,38.7,1,norm,1.526,1.739,-1.882,-1.916,-4.596,-4.501,-1.863,-1.388,-2.055,-1.504,1.323,-1.731,26.5,38.6,-4.728,-7.937,1.923,-1.338,8.026,4.544,-4.745,-8.193,0,4.411,4.406,4.883,5.266,1.545,1.601,1.963,1.501,0,5.18,4.671,,,,0,1,1,1,1757.647,1757.658,1757.67405762,1757.674,1757.702,1757.705,up,1,1.80221858888,8.19778141112,001,304,1366_768,Intel(R) Core(TM) i5-3230M CPU @ 2.60GHz,orientation_search,DESKTOP-3MLAIPL,GeForce GT 635M/PCIe/SSE2,2018_Nov_08_1318,testMonitor,
20.8,34.2,25.1,,36,30,39.8,25.2,46.3,36.7,8.038,8.124,8.229,8.185,7.745,7.905,8.115,4.596,-4.779,-7.939,1.472,-1.141,7.767,4.798,-5.116,-8.138,42.2,29.6,-8.114,22.8,43.6,34.2,48.7,38.3,36,25.2,3,5,prime,10,0,100,norm,36,-4.669,up,norm,40.7982576879,35.0,40.9,57.0,30.5,3,48.9,39.0,34.4,10,5,8.26,4.547,2.018,-1.854,-4.723,-8.211,60.8,5,140.8,-8.282,-7.59,30,-7.937,-8.473,-4.836,-5.088,-4.432,-4.783,4.916,8.066,21,-1.315,1.933,5.03,7.853,-7.737,-7.502,-1.392,1.234,40.5,51.0,56.8,33.6,39.3,29.1,58.4,34.3,24.6,39.6,2,norm,1.653,1.241,-1.667,-1.758,-4.793,-4.656,-1.722,-1.59,-1.415,-1.432,1.145,-1.922,41.6,56.9,-4.494,-8.239,1.294,-1.192,8.227,5.0,-4.497,-8.28,0,4.529,5.031,5.03,4.897,1.268,1.483,1.927,1.845,0,5.217,4.766,,,,0,2,2,2,1759.527,1759.537,1759.55538893,1759.556,1759.558,1759.561,down,0,0.961795223819,-10,001,304,1366_768,Intel(R) Core(TM) i5-3230M CPU @ 2.60GHz,orientation_search,DESKTOP-3MLAIPL,GeForce GT 635M/PCIe/SSE2,2018_Nov_08_1318,testMonitor,
37.6,27.0,33.2,36.9,36,30,46.2,54.2,41.8,47.1,7.835,7.575,7.81,7.704,8.237,7.63,8.082,5.196,-4.75,-8.353,1.627,-1.303,8.315,5.103,-4.775,-7.85,53.1,45.6,-7.704,30.2,32.0,34.3,42.1,48.2,36,46.0,2,5,prime,10,0,67,norm,36,-4.749,down,norm,40.7982576879,57.3,53.8,40.6,,2,55.3,37.5,43.2,10,5,8.144,4.312,1.197,-1.325,-5.274,-8.38,45.3,5,107.8,-7.539,-7.912,30,-7.51,-7.665,-5.258,-5.204,-5.063,-5.098,4.588,7.619,14,-1.343,1.349,5.269,8.017,-8.134,-7.582,-1.652,1.114,23.2,29.2,60.8,38.3,30.9,48.2,37.9,29.3,31.0,20.8,3,norm,1.28,2.098,-1.817,-1.435,-5.079,-4.491,-1.786,-1.567,-1.342,-1.357,1.821,-1.838,36.3,40.0,-5.112,-7.73,1.297,-1.967,7.599,5.009,-4.428,-7.977,0,4.624,4.76,4.389,5.191,2.071,1.513,1.282,1.855,0,4.54,5.15,,,,0,3,3,3,1761.587,1761.598,1761.60715101,1761.607,1761.61,1761.613,down,1,1.95662493753,8.04337506247,001,304,1366_768,Intel(R) Core(TM) i5-3230M CPU @ 2.60GHz,orientation_search,DESKTOP-3MLAIPL,GeForce GT 635M/PCIe/SSE2,2018_Nov_08_1318,testMonitor,
48.9,45.4,35.5,39.1,36,30,60.8,22.5,42.8,51.8,7.686,8.416,7.794,8.251,7.905,7.651,7.668,4.489,-4.626,-7.906,1.226,-1.981,7.873,4.572,-5.228,-8.412,42.0,52.4,-7.849,43.1,41.7,59.1,32.0,24.4,36,33.0,0,5,prime,10,0,109,norm,36,-4.608,up,norm,40.7982576879,42.3,25.8,50.9,35.1,5,24.1,49.9,34.2,10,5,8.471,4.434,1.65,-1.407,-4.539,-7.958,35.6,5,149.8,-7.624,-8.146,30,-7.766,-7.872,-4.411,-4.431,-5.009,-4.513,4.667,7.735,5,-2.043,1.158,4.992,7.919,-8.053,-7.69,-1.784,1.156,38.5,42.1,35.1,51.8,44.8,28.6,35.6,32.1,,20.8,4,norm,1.915,1.689,-1.334,-1.473,-4.585,-5.144,-1.661,-2.059,-1.922,-1.229,1.435,-2.1,41.0,39.1,-4.945,-7.929,2.029,-1.936,7.591,4.413,-5.015,-8.108,0,4.909,4.332,4.517,5.073,1.594,1.665,1.668,1.294,0,4.445,4.378,,,,0,4,4,4,1763.588,1763.597,1763.60628771,1763.607,1763.609,1763.612,up,1,1.28954076901,8.71045923099,001,304,1366_768,Intel(R) Core(TM) i5-3230M CPU @ 2.60GHz,orientation_search,DESKTOP-3MLAIPL,GeForce GT 635M/PCIe/SSE2,2018_Nov_08_1318,testMonitor,
175.2,188.1,174.1,181.5,36,-60,180.9,187.3,181.3,181.1,8.482,7.904,8.373,7.913,7.822,7.592,8.023,5.025,-5.073,-8.247,1.473,-1.124,7.823,5.144,-5.134,-8.002,188.4,170.9,-7.549,181.2,176.0,181.9,,175.8,36,189.7,5,5,probe,5,0,109,norm,36,-5.001,down,norm,180.875856145,178.4,177.1,190.4,180.7,2,182.9,182.7,190.9,10,5,8.297,4.688,1.211,-1.221,-4.3,-8.094,179.2,1,71.9,-8.175,-8.276,30,-7.583,-8.308,-5.257,-5.179,-4.774,-4.807,4.422,7.502,32,-1.624,1.413,4.843,7.508,-7.519,-7.804,-1.145,1.69,180.8,174.7,181.2,175.4,178.8,188.7,176.4,178.4,174.3,179.1,0,norm,1.618,1.341,-1.692,-2.015,-4.885,-4.685,-1.625,-1.268,-1.843,-1.552,1.514,-1.333,178.2,185.2,-5.234,-7.735,1.656,-1.313,7.985,5.146,-4.658,-8.109,1,4.912,4.73,4.54,4.909,1.816,1.969,1.977,1.75,1,5.176,5.059,30,40.7982576879,norm,0,5,5,5,1764.919,1764.929,1764.9494103,1764.95,1764.952,1764.955,down,1,9.26954844274,0.730451557261,001,304,1366_768,Intel(R) Core(TM) i5-3230M CPU @ 2.60GHz,orientation_search,DESKTOP-3MLAIPL,GeForce GT 635M/PCIe/SSE2,2018_Nov_08_1318,testMonitor,
61.0,60.6,56.3,,36,-10,51.5,63.7,66.1,50.4,8.485,8.393,8.313,8.043,7.87,7.638,7.552,4.457,-4.845,-8.27,1.636,-1.88,8.258,4.825,-5.032,-8.31,55.4,69.9,-8.299,55.2,67.2,65.3,69.5,46.5,36,46.8,3,5,prime,10,0,95,norm,36,-5.135,up,norm,57.9324107968,62.2,53.8,49.4,59.9,3,77.9,64.6,72.4,10,6,8.482,4.824,2.099,-2.036,-4.508,-7.516,60.3,6,152.9,-7.718,-7.54,-10,-8.052,-8.007,-4.801,-4.768,-4.611,-5.201,5.234,8.308,21,-1.342,1.894,4.881,8.221,-8.484,-7.72,-1.704,1.723,50.2,71.1,45.0,52.0,53.6,48.3,49.8,77.5,39.0,46.1,0,norm,1.9,1.534,-1.679,-1.428,-4.992,-4.867,-1.463,-1.112,-1.729,-1.365,1.981,-1.684,37.9,47.5,-5.014,-8.402,1.898,-1.827,7.574,4.925,-4.795,-8.102,2,5.046,5.014,4.634,4.424,1.828,1.583,1.191,1.345,2,4.901,4.759,-60,40.7982576879,norm,0,6,6,6,1774.243,1774.254,1774.27272017,1774.273,1774.275,1774.278,up,1,1.07822456048,8.92177543952,001,304,1366_768,Intel(R) Core(TM) i5-3230M CPU @ 2.60GHz,orientation_search,DESKTOP-3MLAIPL,GeForce GT 635M/PCIe/SSE2,2018_Nov_08_1318,testMonitor,
51.4,77.4,57.6,39.0,36,-10,62.0,64.7,63.0,44.5,7.632,8.088,8.332,7.886,7.848,8.092,7.856,4.807,-4.454,-7.693,1.758,-1.122,8.042,4.68,-4.459,-8.448,49.9,51.6,-8.429,51.8,67.0,59.2,58.3,57.5,36,45.8,0,5,prime,10,0,62,norm,36,-4.98,up,norm,57.9324107968,53.7,57.7,57.5,75.7,4,77.9,47.7,59.1,10,6,8.132,5.258,1.843,-1.178,-4.899,-7.656,63.6,6,119.9,-8.341,-7.736,-10,-8.447,-7.519,-4.892,-5.238,-5.088,-4.83,5.286,7.675,4,-1.613,1.567,5.169,7.857,-7.556,-8.407,-1.847,1.741,65.3,66.6,52.1,67.4,62.8,37.9,62.9,56.4,46.9,,1,norm,1.952,1.526,-1.719,-1.486,-4.851,-4.422,-1.566,-1.701,-1.703,-1.356,1.241,-1.291,49.0,44.0,-4.548,-7.708,1.81,-1.387,8.152,4.893,-4.907,-8.198,2,5.095,4.97,4.599,5.236,2.039,1.485,1.856,1.625,2,5.104,4.571,-60,40.7982576879,norm,0,7,7,7,1775.375,1775.384,1775.39333847,1775.394,1775.396,1775.399,down,0,1.60596757935,-10,001,304,1366_768,Intel(R) Core(TM) i5-3230M CPU @ 2.60GHz,orientation_search,DESKTOP-3MLAIPL,GeForce GT 635M/PCIe/SSE2,2018_Nov_08_1318,testMonitor,
39.8,61.3,67.3,49.0,36,-10,58.8,67.2,43.3,70.9,7.646,8.285,8.399,8.16,7.767,7.878,8.041,4.957,-4.866,-8.021,1.216,-1.153,7.596,4.553,-5.13,-7.948,43.9,41.3,-8.014,66.9,,68.5,55.2,70.2,36,43.9,5,5,prime,10,0,67,norm,36,-4.671,down,norm,57.9324107968,77.9,37.9,42.6,50.7,0,68.0,58.4,60.2,10,6,7.932,4.362,1.927,-1.469,-4.749,-7.628,68.4,6,124.9,-8.299,-8.179,-10,-7.592,-8.106,-4.925,-4.772,-5.05,-5.232,5.289,7.592,30,-1.677,1.409,4.644,8.353,-7.633,-7.884,-1.742,1.861,69.0,53.7,62.8,55.0,64.6,50.4,67.6,48.1,39.6,65.9,2,norm,1.941,1.202,-1.544,-1.106,-4.703,-5.05,-1.499,-1.578,-1.824,-1.561,1.64,-1.282,66.2,59.2,-4.786,-7.839,1.945,-2.012,7.992,4.308,-4.956,-7.57,2,5.282,4.658,4.326,5.189,1.573,1.426,2.023,1.941,2,4.904,5.019,-60,40.7982576879,norm,0,8,8,8,1778.053,1778.062,1778.07164348,1778.072,1778.074,1778.077,down,1,3.42256175884,6.57743824116,001,304,1366_768,Intel(R) Core(TM) i5-3230M CPU @ 2.60GHz,orientation_search,DESKTOP-3MLAIPL,GeForce GT 635M/PCIe/SSE2,2018_Nov_08_1318,testMonitor,
72.3,55.2,45.6,57.0,36,-10,37.9,41.2,62.7,70.8,8.263,8.165,8.113,7.943,7.8,8.026,7.823,4.795,-4.9,-7.729,2.051,-1.78,8.085,4.315,-4.828,-7.993,52.3,57.2,-8.047,55.3,65.3,60.2,49.0,38.2,36,49.4,1,5,prime,10,0,115,norm,36,-4.661,up,norm,57.9324107968,75.2,39.7,58.7,55.8,3,77.9,56.5,59.9,10,6,8.28,5.295,1.352,-1.603,-4.664,-8.096,54.1,6,172.9,-7.834,-8.308,-10,-8.277,-8.256,-4.587,-4.403,-4.901,-5.276,5.137,8.425,9,-1.257,1.301,4.608,7.754,-7.969,-7.593,-2.074,1.379,,50.0,50.7,66.1,52.1,53.0,68.9,50.8,73.5,64.4,3,norm,1.171,1.368,-1.914,-1.737,-4.989,-5.241,-1.84,-2.086,-1.73,-1.788,1.876,-1.76,58.7,66.6,-4.428,-8.209,1.202,-2.001,8.134,5.003,-4.773,-8.132,2,4.895,5.147,5.04,4.909,2.092,1.799,1.952,1.543,2,4.562,5.211,-60,40.7982576879,norm,0,9,9,9,1781.518,1781.528,1781.5480764,1781.548,1781.55,1781.553,up,1,1.19479442411,8.80520557589,001,304,1366_768,Intel(R) Core(TM) i5-3230M CPU @ 2.60GHz,orientation_search,DESKTOP-3MLAIPL,GeForce GT 635M/PCIe/SSE2,2018_Nov_08_1318,testMonitor,
52.0,44.8,56.6,62.2,36,-10,59.8,45.7,65.2,37.9,8.036,8.226,7.794,7.551,8.145,7.813,8.316,4.452,-5.056,-8.485,1.632,-1.277,7.784,4.352,-4.359,-7.875,46.9,61.9,-7.515,53.6,51.0,,77.9,64.2,36,39.1,5,5,prime,10,0,84,norm,36,-5.233,up,norm,57.9324107968,62.1,53.7,65.3,57.3,3,72.9,54.3,59.2,10,6,7.867,4.873,1.169,-1.593,-5.037,-7.57,74.9,6,141.9,-8.192,-7.882,-10,-7.945,-8.38,-4.94,-4.608,-4.496,-4.36,4.912,8.471,33,-1.113,1.745,4.899,7.788,-7.555,-7.904,-1.167,1.244,63.5,65.2,73.1,60.8,58.3,66.2,70.2,69.2,71.3,63.3,4,norm,1.526,1.151,-1.651,-1.358,-4.585,-4.811,-1.597,-1.611,-1.694,-1.68,1.176,-1.825,57.8,58.9,-4.461,-8.087,1.515,-1.763,7.992,4.404,-4.995,-7.507,2,4.416,5.138,4.83,4.743,2.075,2.052,1.291,1.678,2,4.732,5.084,-60,40.7982576879,norm,0,10,10,10,1782.767,1782.782,1782.79674475,1782.797,1782.799,1782.802,down,0,0.912287502317,-10,001,304,1366_768,Intel(R) Core(TM) i5-3230M CPU @ 2.60GHz,orientation_search,DESKTOP-3MLAIPL,GeForce GT 635M/PCIe/SSE2,2018_Nov_08_1318,testMonitor,
62.4,67.5,53.8,65.9,36,-10,60.1,73.6,37.9,53.5,7.788,7.917,7.995,8.369,8.36,8.364,8.115,4.593,-5.016,-7.56,1.694,-1.671,8.391,5.142,-4.892,-7.894,46.3,48.5,-8.007,58.1,68.7,77.9,45.9,62.8,36,71.7,2,5,prime,10,0,78,norm,36,-4.839,up,norm,57.9324107968,58.6,58.2,,60.3,3,49.7,57.1,65.6,10,6,7.52,4.903,1.263,-1.553,-5.139,-8.02,75.7,6,135.9,-7.551,-7.604,-10,-8.363,-8.456,-4.368,-4.593,-4.987,-5.161,4.567,8.133,15,-1.869,1.642,4.966,7.889,-7.569,-8.191,-1.451,1.441,38.3,52.4,39.0,40.3,64.5,38.6,49.9,54.9,50.8,64.0,5,norm,1.933,2.085,-1.855,-1.796,-4.512,-5.013,-1.919,-1.244,-1.471,-1.312,1.251,-1.649,43.3,54.6,-5.011,-8.285,1.825,-1.101,7.846,4.796,-5.226,-8.113,2,4.443,4.708,4.785,4.527,1.917,1.99,1.156,1.516,2,4.74,4.88,-60,40.7982576879,norm,0,11,11,11,1784.762,1784.772,1784.78115139,1784.781,1784.784,1784.786,up,1,3.53929149156,6.46070850844,001,304,1366_768,Intel(R) Core(TM) i5-3230M CPU @ 2.60GHz,orientation_search,DESKTOP-3MLAIPL,GeForce GT 635M/PCIe/SSE2,2018_Nov_08_1318,testMonitor,
123.0,121.1,119.8,123.8,36,40,124.9,120.1,124.2,128.4,7.936,7.683,7.898,8.281,8.056,8.034,7.861,4.941,-4.897,-8.228,2.036,-1.512,8.172,4.668,-4.539,-7.599,127.3,135.7,-7.526,128.5,129.6,116.7,123.1,126.8,36,,4,5,probe,5,0,80,norm,36,-5.14,up,norm,126.680072217,131.4,136.7,121.7,124.2,3,127.0,128.4,122.3,10,6,8.27,4.753,1.743,-1.517,-4.738,-8.364,131.4,1,46.7,-7.755,-8.058,-10,-8.016,-8.144,-4.917,-4.71,-5.017,-4.645,4.847,7.828,27,-1.607,1.656,5.044,7.687,-8.224,-7.513,-1.81,1.767,127.6,125.7,123.8,126.4,126.8,130.5,127.8,127.7,128.6,133.7,0,norm,1.172,1.242,-2.024,-1.713,-4.701,-4.991,-1.658,-1.972,-1.483,-1.353,1.432,-1.34,119.9,126.1,-5.233,-7.785,1.622,-1.595,8.5,4.789,-4.41,-8.485,3,5.09,4.665,4.519,4.645,2.012,1.323,1.906,1.44,3,4.316,4.527,-10,57.9324107968,norm,0,12,12,12,1788.344,1788.354,1788.37423273,1788.375,1788.377,1788.38,up,1,3.64194958238,6.35805041762,001,304,1366_768,Intel(R) Core(TM) i5-3230M CPU @ 2.60GHz,orientation_search,DESKTOP-3MLAIPL,GeForce GT 635M/PCIe/SSE2,2018_Nov_08_1318,testMonitor,
329.6,338.3,329.9,310.9,36,20,332.4,317.3,322.8,316.7,8.161,7.549,7.755,7.874,8.138,8.089,8.177,4.986,-5.211,-8.305,1.116,-1.555,7.605,4.961,-5.203,-8.031,329.0,340.6,-8.235,331.3,321.2,334.2,332.0,350.9,36,312.9,1,5,prime,10,0,112,norm,36,-5.041,down,norm,330.878476594,348.4,324.5,341.1,318.5,0,334.1,330.7,337.9,10,6,7.575,4.503,1.165,-1.384,-4.896,-7.666,338.8,6,442.9,-7.854,-7.939,20,-7.652,-7.796,-4.639,-4.405,-4.572,-4.488,5.18,8.379,6,-1.992,1.438,4.931,8.433,-8.124,-8.028,-1.416,1.421,332.8,328.4,338.8,326.6,337.2,338.0,316.5,,344.5,331.7,0,norm,1.6,1.78,-1.392,-1.108,-4.723,-4.77,-1.535,-1.619,-1.839,-1.188,1.522,-1.428,337.2,328.0,-4.615,-7.774,1.537,-1.298,8.452,4.898,-5.29,-8.413,4,4.763,4.897,4.949,4.877,1.495,1.526,1.894,1.638,4,4.424,4.571,40,57.9324107968,norm,0,13,13,13,1792.041,1792.051,1792.06996742,1792.07,1792.072,1792.075,down,1,5.69016216655,4.30983783345,001,304,1366_768,Intel(R) Core(TM) i5-3230M CPU @ 2.60GHz,orientation_search,DESKTOP-3MLAIPL,GeForce GT 635M/PCIe/SSE2,2018_Nov_08_1318,testMonitor,
328.5,310.9,336.6,326.4,36,20,341.7,337.3,342.3,332.6,7.922,7.537,8.277,8.317,8.124,8.396,7.546,4.738,-5.145,-8.085,2.038,-1.406,8.182,4.351,-4.974,-7.607,318.3,319.1,-7.757,,350.9,326.1,338.4,320.8,36,324.3,5,5,prime,10,0,82,norm,36,-4.563,down,norm,330.878476594,328.6,331.9,327.2,331.1,1,317.8,331.4,338.0,10,6,7.79,4.776,1.855,-1.199,-4.901,-7.697,331.9,6,412.9,-8.194,-7.695,20,-7.777,-8.334,-5.193,-4.413,-5.148,-4.846,4.541,7.89,31,-1.584,2.076,4.525,8.221,-8.091,-8.28,-1.704,2.093,318.5,314.4,326.3,327.2,321.6,328.0,323.4,321.1,341.8,330.6,1,norm,1.196,1.678,-1.668,-1.995,-4.463,-4.303,-1.267,-1.984,-1.547,-1.281,1.66,-1.295,345.4,327.7,-4.958,-8.095,1.638,-1.945,8.282,4.846,-5.128,-8.202,4,4.713,4.481,5.174,4.756,1.704,1.745,1.885,1.265,4,4.435,4.554,40,57.9324107968,norm,0,14,14,14,1797.785,1797.795,1797.81367193,1797.814,1797.816,1797.819,down,1,2.12733280647,7.87266719353,001,304,1366_768,Intel(R) Core(TM) i5-3230M CPU @ 2.60GHz,orientation_search,DESKTOP-3MLAIPL,GeForce GT 635M/PCIe/SSE2,2018_Nov_08_1318,testMonitor,
326.4,339.5,336.4,317.0,36,20,310.9,339.3,327.2,339.9,7.917,7.615,8.388,7.891,8.496,7.907,7.897,5.118,-5.186,-8.049,1.165,-1.448,7.889,4.431,-4.518,-8.18,334.3,320.4,-7.787,333.9,326.1,337.1,321.8,311.8,36,329.6,2,5,prime,10,0,112,norm,36,-5.21,up,norm,330.878476594,,337.8,342.6,339.5,5,327.6,336.5,346.5,10,6,7.82,4.913,1.378,-2.026,-4.611,-8.322,331.3,6,442.9,-8.3,-8.27,20,-8.131,-8.151,-4.306,-4.457,-4.613,-5.266,4.357,7.8,17,-1.955,1.724,5.131,7.933,-7.998,-7.637,-2.065,1.181,329.3,322.7,330.5,327.7,326.9,319.8,335.9,350.9,333.6,329.4,2,norm,1.729,1.605,-1.568,-1.932,-5.015,-4.599,-1.341,-1.777,-1.497,-1.652,1.326,-2.01,316.9,334.3,-4.825,-7.962,1.569,-1.359,8.18,5.011,-5.267,-8.428,4,4.803,4.557,4.524,5.22,1.903,1.653,1.834,1.396,4,4.722,4.566,40,57.9324107968,norm,0,15,15,15,1799.965,1799.975,1799.99470971,1799.995,1799.997,1800.0,down,0,2.75962116144,-10,001,304,1366_768,Intel(R) Core(TM) i5-3230M CPU @ 2.60GHz,orientation_search,DESKTOP-3MLAIPL,GeForce GT 635M/PCIe/SSE2,2018_Nov_08_1318,testMonitor,
333.8,339.1,350.9,319.4,36,20,310.9,338.5,327.8,331.0,8.41,7.758,8.299,8.411,7.937,8.082,8.253,4.743,-5.275,-8.042,1.65,-1.765,8.402,5.024,-4.581,-7.535,335.1,340.9,-7.721,345.9,348.8,329.3,325.4,341.0,36,327.8,0,5,prime,10,0,109,norm,36,-4.677,down,norm,330.878476594,334.2,334.8,321.5,338.2,0,342.2,331.6,334.5,10,6,7.77,5.253,1.51,-2.099,-5.192,-7.73,334.2,6,439.9,-8.409,-8.366,20,-8.105,-7.788,-4.746,-4.452,-5.192,-5.269,4.656,8.217,0,-1.531,1.182,4.754,7.986,-7.689,-7.981,-2.096,1.23,346.0,327.9,332.3,333.4,326.8,,326.2,332.3,322.7,329.7,3,norm,1.783,1.594,-2.092,-2.01,-4.635,-4.552,-2.026,-2.064,-1.517,-2.082,1.697,-1.851,333.2,339.4,-4.703,-7.699,1.373,-1.499,8.09,4.804,-4.343,-7.547,4,4.713,4.376,4.828,5.123,1.214,1.834,1.625,1.631,4,4.458,5.198,40,57.9324107968,norm,0,16,16,16,1803.808,1803.818,1803.82694383,1803.827,1803.829,1803.832,down,1,8.85035933059,1.14964066941,001,304,1366_768,Intel(R) Core(TM) i5-3230M CPU @ 2.60GHz,orientation_search,DESKTOP-3MLAIPL,GeForce GT 635M/PCIe/SSE2,2018_Nov_08_1318,testMonitor,
337.6,325.6,325.5,311.2,36,20,347.4,310.9,323.9,324.8,8.116,8.269,7.79,8.447,8.425,7.588,8.247,4.566,-4.642,-8.174,1.661,-1.338,8.205,4.728,-4.757,-7.693,334.1,345.5,-7.979,319.8,317.9,338.8,350.1,336.3,36,331.7,0,5,prime,10,0,81,norm,36,-4.485,down,norm,330.878476594,341.4,318.9,322.8,327.8,1,342.1,318.0,326.6,10,6,7.927,4.343,2.031,-1.391,-4.707,-7.634,336.0,6,411.9,-7.697,-7.781,20,-8.052,-7.984,-4.456,-5.174,-5.172,-4.652,4.345,7.983,1,-1.416,1.675,4.643,8.119,-7.746,-8.154,-1.688,1.77,350.9,340.5,345.6,320.2,,333.1,328.1,336.1,338.3,329.6,4,norm,1.764,2.084,-1.755,-1.601,-4.325,-4.827,-1.428,-1.837,-1.131,-1.278,1.947,-1.145,324.8,327.3,-4.312,-8.103,1.551,-2.093,7.873,4.863,-4.493,-7.726,4,4.371,5.125,5.119,4.967,1.729,1.494,1.445,1.745,4,5.253,4.939,40,57.9324107968,norm,0,17,17,17,1812.701,1812.711,1812.73074445,1812.731,1812.733,1812.736,down,1,2.42697769962,7.57302230038,001,304,1366_768,Intel(R) Core(TM) i5-3230M CPU @ 2.60GHz,orientation_search,DESKTOP-3MLAIPL,GeForce GT 635M/PCIe/SSE2,2018_Nov_08_1318,testMonitor,
324.8,,326.6,324.1,36,20,335.3,334.3,320.7,337.6,8.46,7.593,7.831,8.132,7.528,7.663,8.406,4.822,-4.733,-7.895,1.215,-1.97,7.859,4.994,-4.964,-7.758,325.8,326.3,-7.928,344.6,350.9,338.9,335.4,333.3,36,348.3,3,5,prime,10,0,78,norm,36,-4.65,up,norm,330.878476594,330.6,337.3,340.2,323.0,5,333.4,329.6,342.6,10,6,8.351,4.331,1.488,-1.955,-4.515,-7.858,317.9,6,408.9,-8.449,-8.004,20,-7.58,-7.722,-4.976,-4.414,-5.005,-4.45,4.459,7.581,23,-1.707,1.797,4.695,7.597,-7.517,-7.841,-1.583,1.979,332.0,333.4,325.6,314.1,323.1,326.4,344.4,310.9,346.5,338.2,5,norm,1.213,2.055,-2.011,-1.165,-4.8,-4.787,-1.408,-1.652,-1.649,-1.98,1.643,-1.884,318.7,334.0,-5.001,-7.665,2.05,-2.065,7.582,5.058,-4.567,-7.63,4,4.852,4.865,4.846,5.084,1.835,1.695,1.301,1.14,4,4.919,5.151,40,57.9324107968,norm,0,18,18,18,1815.181,1815.192,1815.21143187,1815.212,1815.214,1815.217,up,1,1.5115433411,8.4884566589,001,304,1366_768,Intel(R) Core(TM) i5-3230M CPU @ 2.60GHz,orientation_search,DESKTOP-3MLAIPL,GeForce GT 635M/PCIe/SSE2,2018_Nov_08_1318,testMonitor,
422.1,424.1,430.0,418.2,36,-80,417.6,422.7,422.4,423.6,7.572,7.814,8.219,8.465,7.824,7.565,8.114,4.615,-5.084,-8.211,1.642,-1.981,8.267,5.113,-5.257,-8.068,428.6,410.7,-7.994,417.2,425.4,418.5,426.0,423.1,36,425.5,0,5,probe,5,0,67,norm,36,-4.833,down,norm,419.979862885,422.7,422.4,429.0,417.0,0,426.3,421.4,422.8,10,6,8.126,5.192,1.375,-1.742,-5.162,-7.619,418.7,2,353.0,-8.356,-8.219,20,-8.245,-7.666,-4.626,-5.107,-4.307,-4.958,4.557,8.209,0,-1.553,2.082,5.013,8.297,-7.825,-8.425,-1.24,1.48,420.0,410.0,420.4,422.3,421.1,,421.9,418.0,415.2,417.3,0,norm,1.371,1.113,-1.16,-1.376,-4.505,-4.981,-1.982,-1.913,-1.364,-1.939,1.355,-1.767,413.6,416.4,-4.459,-7.576,2.024,-1.5,8.124,5.198,-4.628,-8.058,5,5.261,4.615,5.078,5.079,1.949,1.804,2.09,1.142,5,4.906,4.599,20,330.878476594,norm,0,19,19,19,1816.746,1816.756,1816.77639874,1816.777,1816.779,1816.781,down,1,2.42722677969,7.57277322031,001,304,1366_768,Intel(R) Core(TM) i5-3230M CPU @ 2.60GHz,orientation_search,DESKTOP-3MLAIPL,GeForce GT 635M/PCIe/SSE2,2018_Nov_08_1318,testMonitor,
468.8,457.2,462.6,456.3,36,-80,466.7,463.5,467.7,467.1,7.821,8.312,8.174,8.209,8.102,8.482,7.953,4.741,-4.682,-8.096,2.075,-1.817,7.884,4.849,-5.202,-7.979,464.4,458.0,-8.497,466.5,,465.5,463.3,462.5,36,465.0,5,5,probe,5,0,112,norm,36,-4.464,down,norm,464.979862885,463.1,463.6,469.2,465.2,0,467.6,464.5,461.2,10,6,7.511,4.832,1.24,-1.998,-5.146,-7.846,455.0,2,353.0,-8.151,-7.791,20,-8.302,-7.876,-4.633,-4.94,-4.756,-4.975,4.962,8.377,30,-1.503,1.288,4.72,8.157,-8.494,-7.934,-1.37,1.242,457.2,466.7,463.3,465.7,467.2,475.0,460.4,456.5,469.9,463.7,1,norm,1.435,1.984,-1.834,-1.51,-4.595,-4.911,-1.229,-1.985,-1.715,-1.932,1.828,-1.821,467.8,462.4,-4.35,-7.903,1.377,-1.643,8.41,4.507,-4.752,-8.09,5,5.164,4.736,4.936,5.144,1.984,1.12,1.691,1.583,5,5.18,4.607,20,330.878476594,norm,0,20,20,20,1819.228,1819.238,1819.25703286,1819.257,1819.259,1819.262,down,1,2.75981063599,7.24018936401,001,304,1366_768,Intel(R) Core(TM) i5-3230M CPU @ 2.60GHz,orientation_search,DESKTOP-3MLAIPL,GeForce GT 635M/PCIe/SSE2,2018_Nov_08_1318,testMonitor,
,276.3,288.5,271.2,36,-40,285.5,260.4,260.7,291.9,7.746,7.845,8.269,7.867,7.806,7.56,7.809,4.964,-5.237,-7.997,1.59,-1.206,8.101,4.907,-4.723,-7.699,275.5,286.5,-7.807,266.5,285.5,274.4,283.7,298.1,36,298.2,3,5,prime,10,0,89,norm,36,-4.46,up,norm,280.44340217,284.9,286.3,272.7,291.8,4,300.4,274.6,263.9,10,6,7.589,5.144,1.738,-1.178,-4.427,-8.396,293.1,6,369.4,-8.377,-7.873,-40,-8.308,-7.914,-4.697,-4.348,-5.17,-4.33,4.32,8.066,22,-1.314,1.922,4.555,7.742,-7.721,-8.43,-1.576,1.929,273.7,277.8,275.5,281.1,281.6,276.8,285.9,293.0,287.1,282.8,0,norm,1.32,1.732,-1.633,-1.863,-4.395,-4.402,-1.926,-1.414,-1.615,-1.697,1.656,-1.583,286.9,295.7,-4.71,-7.921,1.957,-1.656,8.117,5.111,-4.951,-7.692,6,4.424,4.998,4.809,4.47,1.48,2.026,1.61,2.037,6,5.221,4.879,-80,330.878476594,norm,0,21,21,21,1822.041,1822.05,1822.07057966,1822.071,1822.073,1822.076,up,1,4.97423067421,5.02576932579,001,304,1366_768,Intel(R) Core(TM) i5-3230M CPU @ 2.60GHz,orientation_search,DESKTOP-3MLAIPL,GeForce GT 635M/PCIe/SSE2,2018_Nov_08_1318,testMonitor,
282.5,300.4,285.1,289.1,36,-40,263.9,271.1,278.3,266.7,7.897,8.207,7.632,7.553,8.433,7.891,7.638,4.688,-4.508,-7.531,1.283,-2.014,8.112,4.543,-4.456,-7.868,288.0,286.1,-8.159,263.4,280.0,277.8,269.4,273.5,36,276.3,3,5,prime,10,0,87,norm,36,-4.464,down,norm,280.44340217,290.0,277.2,271.1,261.6,0,287.9,262.2,276.5,10,6,7.661,5.109,1.818,-1.976,-5.296,-8.003,291.2,6,367.4,-8.219,-7.752,-40,-7.88,-7.694,-4.661,-5.135,-4.63,-4.544,4.86,8.171,18,-1.457,1.183,4.312,7.636,-7.734,-8.43,-1.961,1.703,280.7,270.0,290.5,286.2,268.9,274.7,284.7,267.0,271.7,260.4,1,norm,1.495,1.866,-1.386,-1.735,-4.398,-4.364,-1.78,-1.369,-1.414,-1.37,1.308,-1.925,269.1,,-5.016,-7.819,1.698,-1.463,8.172,4.955,-5.081,-8.328,6,4.393,4.427,4.567,5.2,1.292,1.413,1.384,1.464,6,5.172,4.588,-80,330.878476594,norm,0,22,22,22,1827.068,1827.078,1827.08746579,1827.088,1827.09,1827.093,down,1,1.63834206632,8.36165793368,001,304,1366_768,Intel(R) Core(TM) i5-3230M CPU @ 2.60GHz,orientation_search,DESKTOP-3MLAIPL,GeForce GT 635M/PCIe/SSE2,2018_Nov_08_1318,testMonitor,
272.1,284.8,283.5,282.3,36,-40,291.9,297.7,267.1,287.1,7.948,8.377,8.263,8.457,8.326,7.817,8.255,5.125,-5.271,-7.903,1.756,-1.878,7.686,4.508,-4.916,-7.562,285.8,283.1,-8.202,268.7,270.1,282.5,295.6,260.4,36,287.6,0,5,prime,10,0,108,norm,36,-4.598,up,norm,280.44340217,273.6,290.0,276.9,273.5,4,287.2,264.0,276.1,10,6,8.032,4.354,1.751,-1.939,-4.327,-8.24,267.5,6,388.4,-7.502,-7.675,-40,-8.276,-8.147,-5.053,-4.398,-4.924,-5.281,4.751,8.341,4,-1.798,1.895,4.453,8.171,-7.933,-8.074,-2.091,1.661,284.1,270.3,272.8,274.9,280.8,288.9,300.0,300.4,291.9,,2,norm,1.402,1.402,-1.3,-1.838,-4.754,-4.434,-1.221,-1.318,-2.084,-1.496,1.519,-1.356,279.1,287.2,-4.839,-7.791,2.046,-1.2,7.523,5.246,-4.643,-8.291,6,4.311,5.279,4.73,4.978,1.539,1.228,1.656,1.609,6,4.839,5.211,-80,330.878476594,norm,0,23,23,23,1828.751,1828.761,1828.77994941,1828.78,1828.782,1828.785,up,1,8.53732845647,1.46267154353,001,304,1366_768,Intel(R) Core(TM) i5-3230M CPU @ 2.60GHz,orientation_search,DESKTOP-3MLAIPL,GeForce GT 635M/PCIe/SSE2,2018_Nov_08_1318,testMonitor,
295.0,260.4,264.0,282.9,36,-40,275.3,270.7,277.5,272.2,8.255,8.396,7.877,7.741,7.503,8.416,8.275,4.779,-5.174,-7.689,1.696,-2.095,8.37,4.495,-4.698,-7.842,276.1,281.2,-7.599,298.2,,276.0,271.3,276.9,36,300.4,5,5,prime,10,0,62,norm,36,-4.946,down,norm,280.44340217,276.0,284.7,293.4,291.6,0,273.4,278.2,271.1,10,6,7.91,4.302,1.213,-1.553,-4.447,-8.327,289.6,6,342.4,-7.663,-7.784,-40,-8.348,-8.482,-4.485,-5.193,-5.159,-4.792,4.719,7.714,30,-1.64,1.359,5.092,7.55,-7.94,-8.065,-2.017,1.369,272.2,261.8,276.9,277.0,274.3,286.8,262.9,274.0,273.5,289.7,3,norm,1.81,1.48,-1.955,-1.695,-4.908,-5.249,-1.565,-1.892,-1.297,-1.233,1.216,-2.003,279.5,281.3,-4.611,-7.696,1.975,-1.148,8.379,5.07,-4.527,-8.151,6,5.291,4.784,5.187,4.681,1.128,1.733,1.86,1.134,6,5.137,5.27,-80,330.878476594,norm,0,24,24,24,1837.341,1837.351,1837.37065126,1837.371,1837.373,1837.376,down,1,2.82706027897,7.17293972103,001,304,1366_768,Intel(R) Core(TM) i5-3230M CPU @ 2.60GHz,orientation_search,DESKTOP-3MLAIPL,GeForce GT 635M/PCIe/SSE2,2018_Nov_08_1318,testMonitor,
284.7,299.9,284.0,279.4,36,-40,271.5,279.3,282.1,262.7,7.99,8.067,8.075,7.82,7.628,7.91,7.829,4.616,-4.681,-8.441,1.592,-1.307,8.075,5.279,-4.458,-8.084,298.3,281.6,-7.582,288.0,264.2,282.3,286.9,271.3,36,300.4,2,5,prime,10,0,66,norm,36,-4.363,up,norm,280.44340217,,287.5,277.3,260.4,5,273.6,283.9,284.1,10,6,7.625,5.073,1.169,-1.535,-5.068,-7.7,270.7,6,346.4,-7.596,-7.648,-40,-8.087,-7.538,-4.433,-5.124,-4.644,-4.647,4.891,8.417,17,-1.16,1.816,4.383,7.962,-7.805,-7.553,-2.068,1.798,282.2,291.0,284.1,274.2,286.7,291.3,267.0,271.0,292.3,292.6,4,norm,1.462,1.184,-1.832,-1.46,-4.566,-4.813,-1.122,-1.701,-2.091,-1.559,1.353,-1.522,287.4,279.3,-4.308,-7.808,1.59,-1.155,8.018,5.237,-5.194,-7.736,6,4.535,5.288,4.908,4.395,1.486,1.679,1.271,2.091,6,4.98,4.906,-80,330.878476594,norm,0,25,25,25,1840.221,1840.232,1840.25077862,1840.251,1840.253,1840.256,up,1,2.2441106973,7.7558893027,001,304,1366_768,Intel(R) Core(TM) i5-3230M CPU @ 2.60GHz,orientation_search,DESKTOP-3MLAIPL,GeForce GT 635M/PCIe/SSE2,2018_Nov_08_1318,testMonitor,
276.1,282.3,262.1,269.1,36,-40,275.1,282.3,274.0,294.1,7.912,8.255,8.483,8.274,8.116,8.339,7.6,4.57,-5.167,-8.303,1.202,-1.325,8.094,5.032,-5.291,-8.267,279.8,267.1,-7.531,290.4,260.4,267.7,266.6,286.0,36,264.2,3,5,prime,10,0,80,norm,36,-5.22,down,norm,280.44340217,297.2,288.9,278.3,273.2,0,272.5,286.0,280.4,10,6,8.299,4.662,1.31,-1.866,-4.388,-7.97,275.9,6,360.4,-7.622,-8.087,-40,-7.794,-8.461,-5.164,-4.503,-5.177,-4.803,4.6,7.563,18,-1.25,1.774,4.664,7.78,-8.469,-8.453,-1.123,1.413,278.3,281.2,300.4,288.4,291.2,273.3,274.0,283.3,283.9,284.4,5,norm,1.576,1.644,-1.602,-1.866,-4.705,-5.202,-1.45,-1.92,-1.504,-1.715,1.185,-1.596,281.8,,-4.355,-7.907,2.067,-1.429,8.493,4.784,-4.998,-8.317,6,4.602,4.451,4.393,4.835,1.864,1.97,1.25,1.566,6,4.466,5.128,-80,330.878476594,norm,0,26,26,26,1842.519,1842.529,1842.54848101,1842.549,1842.551,1842.554,down,1,1.2113631824,8.7886368176,001,304,1366_768,Intel(R) Core(TM) i5-3230M CPU @ 2.60GHz,orientation_search,DESKTOP-3MLAIPL,GeForce GT 635M/PCIe/SSE2,2018_Nov_08_1318,testMonitor,
338.6,336.3,338.6,332.5,36,40,337.7,342.1,346.7,341.7,7.78,7.768,8.103,8.413,7.663,8.195,8.262,4.843,-4.913,-8.18,1.853,-1.262,7.503,4.403,-4.503,-7.583,334.9,335.6,-7.932,348.1,337.5,334.4,,334.9,36,330.3,5,5,probe,5,0,104,norm,36,-4.94,down,norm,338.076335733,337.2,334.6,340.2,333.6,2,339.2,342.6,344.7,10,6,7.605,4.551,1.929,-1.195,-4.537,-8.379,335.4,2,234.1,-7.693,-7.72,-40,-7.65,-7.734,-5.107,-4.38,-4.431,-5.162,4.646,7.514,32,-2.015,2.034,5.102,7.666,-8.087,-7.877,-1.684,1.705,333.2,342.2,339.0,334.6,337.4,339.1,337.8,329.0,337.6,333.8,0,norm,1.693,1.457,-1.474,-1.547,-4.822,-4.412,-1.494,-1.434,-1.995,-1.565,1.963,-1.646,341.7,328.1,-4.482,-8.497,1.725,-1.61,7.573,4.536,-4.845,-7.601,7,4.325,4.483,4.925,5.195,1.906,1.898,1.673,1.421,7,4.973,4.81,-40,280.44340217,norm,0,27,27,27,1843.784,1843.794,1843.81364903,1843.814,1843.816,1843.819,down,1,2.32748422824,7.67251577176,001,304,1366_768,Intel(R) Core(TM) i5-3230M CPU @ 2.60GHz,orientation_search,DESKTOP-3MLAIPL,GeForce GT 635M/PCIe/SSE2,2018_Nov_08_1318,testMonitor,
,327.1,322.7,332.8,36,40,335.1,333.8,320.7,325.6,8.278,7.545,7.551,8.377,7.533,8.371,7.958,4.839,-4.832,-7.786,1.796,-1.518,8.388,4.827,-5.089,-8.079,330.0,335.9,-8.469,328.6,325.2,332.7,328.6,336.1,36,335.7,3,5,probe,5,0,96,norm,36,-5.25,up,norm,330.076335733,326.5,340.1,324.4,328.7,4,336.7,332.9,321.1,10,6,8.301,4.928,1.674,-1.259,-4.938,-8.323,321.0,2,234.1,-7.797,-7.582,-40,-7.768,-8.271,-4.739,-4.59,-4.994,-4.406,4.442,8.26,22,-1.671,1.228,4.366,7.901,-7.938,-8.023,-1.285,1.167,325.0,326.1,330.7,325.9,329.3,332.1,332.2,329.6,324.9,320.1,1,norm,1.443,1.207,-1.555,-1.549,-4.379,-5.093,-1.663,-1.106,-1.483,-1.513,1.629,-1.694,325.8,324.7,-4.626,-8.128,1.533,-1.837,8.03,4.519,-5.105,-7.615,7,5.199,5.214,4.349,4.992,1.342,2.092,1.981,1.722,7,4.563,4.811,-40,280.44340217,norm,0,28,28,28,1846.165,1846.175,1846.19437205,1846.195,1846.197,1846.2,up,1,0.861895961105,9.1381040389,001,304,1366_768,Intel(R) Core(TM) i5-3230M CPU @ 2.60GHz,orientation_search,DESKTOP-3MLAIPL,GeForce GT 635M/PCIe/SSE2,2018_Nov_08_1318,testMonitor,
160.7,143.3,150.7,160.5,36,10,136.5,155.7,151.7,151.5,8.208,8.206,7.977,8.232,7.525,7.939,7.753,5.087,-4.61,-7.946,1.519,-1.772,8.127,4.776,-4.808,-7.654,144.0,165.1,-8.208,151.6,144.2,156.7,146.1,158.2,36,155.5,1,5,prime,10,0,73,norm,36,-5.025,up,norm,151.807613859,135.7,157.7,153.9,157.6,4,157.2,153.2,163.5,10,6,8.481,4.319,1.779,-1.221,-4.685,-7.84,,6,224.8,-7.925,-7.942,10,-8.303,-8.24,-4.6,-4.958,-4.702,-4.463,5.115,7.946,10,-1.808,1.2,4.366,8.274,-7.828,-8.082,-1.81,1.795,143.9,151.7,146.4,147.4,153.0,138.2,131.8,158.7,139.5,171.8,0,norm,1.525,1.574,-1.794,-1.732,-4.525,-4.672,-1.409,-1.763,-1.624,-1.749,1.202,-2.074,166.7,144.2,-4.365,-7.758,2.078,-1.576,7.753,5.025,-5.237,-8.05,8,5.116,4.386,4.485,4.818,1.362,1.765,1.757,1.645,8,4.462,4.41,40,280.44340217,norm,0,29,29,29,1847.081,1847.091,1847.10996983,1847.11,1847.112,1847.115,up,1,1.01216426492,8.98783573508,001,304,1366_768,Intel(R) Core(TM) i5-3230M CPU @ 2.60GHz,orientation_search,DESKTOP-3MLAIPL,GeForce GT 635M/PCIe/SSE2,2018_Nov_08_1318,testMonitor,
160.0,145.2,131.8,150.7,36,10,137.4,,150.8,139.9,8.074,8.087,8.277,8.176,8.439,7.783,7.644,5.239,-5.177,-8.325,1.143,-1.162,7.661,4.574,-5.209,-8.224,147.3,154.1,-8.303,171.8,161.4,159.2,142.8,143.9,36,150.1,4,5,prime,10,0,92,norm,36,-4.326,down,norm,151.807613859,152.2,150.5,145.7,152.6,1,143.6,162.7,162.3,10,6,7.657,5.297,1.828,-1.998,-5.133,-7.733,153.2,6,243.8,-8.39,-7.812,10,-8.189,-8.392,-4.633,-4.462,-4.885,-4.776,4.744,7.655,25,-1.436,1.767,4.984,7.924,-7.537,-7.694,-1.202,1.629,153.3,162.4,161.9,149.6,151.1,163.5,153.4,161.8,144.2,152.0,1,norm,1.955,2.065,-1.692,-1.699,-4.738,-4.578,-1.412,-1.891,-2.024,-1.839,1.546,-1.178,151.0,150.3,-4.617,-7.975,1.933,-1.367,8.199,4.418,-5.192,-7.928,8,5.073,5.084,5.223,4.403,1.72,1.44,2.014,1.37,8,5.194,4.314,40,280.44340217,norm,0,30,30,30,1848.146,1848.156,1848.17560065,1848.176,1848.178,1848.181,down,1,0.995108004427,9.00489199557,001,304,1366_768,Intel(R) Core(TM) i5-3230M CPU @ 2.60GHz,orientation_search,DESKTOP-3MLAIPL,GeForce GT 635M/PCIe/SSE2,2018_Nov_08_1318,testMonitor,
154.3,136.2,153.7,139.3,36,10,133.8,158.8,147.2,152.7,8.219,8.318,7.736,7.764,8.417,7.501,7.595,4.476,-4.624,-7.859,1.584,-1.655,7.968,4.672,-4.723,-7.784,157.1,164.1,-8.182,141.3,157.3,137.0,131.8,167.1,36,142.9,2,5,prime,10,0,112,norm,36,-4.654,down,norm,151.807613859,158.1,149.1,149.9,,2,156.2,171.8,154.6,10,6,7.81,4.766,1.704,-1.361,-5.277,-7.983,154.0,6,263.8,-8.155,-7.502,10,-7.653,-8.34,-4.328,-5.265,-4.732,-4.725,4.579,7.82,14,-1.998,1.749,4.812,7.551,-8.07,-8.085,-1.412,2.039,160.6,139.7,148.6,157.9,156.4,139.5,149.9,143.5,168.4,155.3,2,norm,1.348,1.884,-1.913,-1.945,-4.417,-5.241,-1.656,-1.854,-1.515,-1.399,1.761,-1.33,162.3,157.3,-4.981,-8.012,1.365,-1.654,7.837,4.902,-4.735,-7.588,8,4.81,4.941,5.221,5.04,1.979,1.317,1.492,1.296,8,4.714,5.281,40,280.44340217,norm,0,31,31,31,1849.195,1849.206,1849.22439785,1849.225,1849.227,1849.23,down,1,1.91102197039,8.08897802961,001,304,1366_768,Intel(R) Core(TM) i5-3230M CPU @ 2.60GHz,orientation_search,DESKTOP-3MLAIPL,GeForce GT 635M/PCIe/SSE2,2018_Nov_08_1318,testMonitor,
161.1,161.0,142.4,171.2,36,10,148.8,171.8,146.8,147.4,7.522,8.107,7.684,7.583,7.869,7.843,8.311,4.475,-4.332,-7.624,1.391,-1.293,7.505,4.835,-4.794,-8.438,159.3,151.8,-8.255,153.5,158.4,135.7,152.8,171.5,36,155.5,1,5,prime,10,0,105,norm,36,-4.878,down,norm,151.807613859,161.5,160.4,158.7,156.2,0,168.8,166.2,164.2,10,6,8.289,4.404,1.283,-1.998,-4.655,-7.975,166.3,6,256.8,-7.953,-7.679,10,-7.503,-7.542,-4.432,-4.412,-5.102,-4.812,4.835,7.64,6,-1.76,1.489,4.636,8.42,-7.554,-8.426,-1.236,1.437,136.6,156.8,158.0,160.9,164.9,156.0,150.4,,164.4,157.9,3,norm,1.763,1.652,-2.003,-1.481,-4.661,-4.393,-1.971,-1.812,-2.051,-1.382,2.096,-1.318,135.7,131.8,-5.149,-8.227,2.047,-1.364,7.697,4.357,-5.246,-8.137,8,4.651,4.967,5.163,5.219,1.326,1.268,1.708,1.483,8,4.433,5.162,40,280.44340217,norm,0,32,32,32,1851.16,1851.17,1851.18898624,1851.189,1851.191,1851.194,down,1,2.07753534685,7.92246465315,001,304,1366_768,Intel(R) Core(TM) i5-3230M CPU @ 2.60GHz,orientation_search,DESKTOP-3MLAIPL,GeForce GT 635M/PCIe/SSE2,2018_Nov_08_1318,testMonitor,
157.4,167.1,158.2,171.8,36,10,143.6,150.2,138.8,150.4,8.479,7.959,8.002,7.881,7.736,8.398,8.15,4.478,-4.569,-8.217,1.712,-1.58,8.409,4.734,-4.882,-7.977,160.0,158.3,-7.876,157.8,141.2,161.8,159.9,151.4,36,157.9,0,5,prime,10,0,111,norm,36,-4.565,up,norm,151.807613859,136.3,143.1,155.7,133.5,5,143.8,142.3,154.7,10,6,7.647,4.402,1.66,-1.503,-4.986,-7.973,131.8,6,262.8,-8.149,-7.577,10,-7.724,-8.469,-4.767,-4.896,-5.126,-4.798,4.967,8.486,5,-1.863,1.852,4.78,8.464,-7.7,-8.366,-1.864,1.348,145.6,150.4,155.0,144.5,153.6,164.4,142.6,158.2,,160.1,4,norm,1.939,1.911,-1.227,-1.64,-5.199,-5.05,-2.081,-1.685,-1.931,-1.47,1.43,-1.605,149.7,160.9,-4.659,-7.973,1.669,-1.691,8.368,5.054,-4.725,-8.439,8,4.35,4.963,5.162,5.0,1.874,1.3,1.437,1.657,8,4.912,5.039,40,280.44340217,norm,0,33,33,33,1853.291,1853.301,1853.31986222,1853.32,1853.322,1853.325,up,1,2.77692610736,7.22307389264,001,304,1366_768,Intel(R) Core(TM) i5-3230M CPU @ 2.60GHz,orientation_search,DESKTOP-3MLAIPL,GeForce GT 635M/PCIe/SSE2,2018_Nov_08_1318,testMonitor,
137.6,153.5,135.8,138.6,36,10,154.4,152.0,152.5,160.2,7.557,7.659,7.836,8.189,8.157,7.687,7.791,4.928,-4.601,-7.959,2.088,-1.189,8.114,4.791,-5.131,-7.783,149.2,137.5,-8.311,137.3,159.0,158.4,141.4,141.1,36,152.7,2,5,prime,10,0,79,norm,36,-4.979,down,norm,151.807613859,149.4,167.6,171.8,,2,161.3,154.1,167.4,10,6,7.95,4.409,1.247,-2.005,-4.423,-7.554,143.0,6,230.8,-8.063,-8.484,10,-8.328,-8.102,-4.56,-5.112,-4.831,-4.944,4.871,7.794,14,-1.16,1.247,4.548,7.597,-8.344,-8.107,-1.597,1.374,157.2,150.2,135.9,131.8,137.9,150.8,154.4,156.0,168.2,154.7,5,norm,1.982,1.113,-1.482,-1.333,-5.186,-5.029,-1.581,-2.077,-1.657,-1.679,1.923,-2.073,160.8,136.7,-5.165,-8.297,1.168,-1.491,7.602,4.33,-4.419,-7.669,8,5.068,4.983,4.447,5.21,2.078,1.776,1.632,2.049,8,5.177,4.791,40,280.44340217,norm,0,34,34,34,1856.121,1856.131,1856.15011396,1856.15,1856.152,1856.155,down,1,1.91099473339,8.08900526661,001,304,1366_768,Intel(R) Core(TM) i5-3230M CPU @ 2.60GHz,orientation_search,DESKTOP-3MLAIPL,GeForce GT 635M/PCIe/SSE2,2018_Nov_08_1318,testMonitor,
236.9,,229.1,225.8,36,0,217.5,232.0,227.9,224.6,7.927,8.105,8.483,7.535,7.715,8.03,7.748,4.82,-4.375,-7.752,2.099,-2.053,8.27,4.568,-4.523,-7.503,233.0,227.6,-8.218,224.6,223.3,217.8,228.7,228.8,36,218.1,3,5,probe,5,0,70,norm,36,-4.446,up,norm,227.019372221,224.1,225.2,227.3,230.6,5,222.2,228.5,237.0,10,6,8.181,4.674,1.814,-1.954,-5.296,-7.641,230.3,2,157.0,-8.07,-7.988,10,-8.124,-8.335,-4.804,-4.787,-4.98,-4.713,5.243,8.026,23,-1.956,1.807,4.871,7.778,-8.465,-8.439,-1.588,1.38,217.0,225.4,221.6,228.3,219.7,222.2,225.6,228.3,221.8,224.7,0,norm,1.75,1.306,-1.135,-2.096,-5.088,-4.769,-1.133,-1.563,-1.237,-2.048,1.294,-2.022,220.0,223.7,-5.022,-8.019,1.705,-1.34,7.753,4.698,-5.174,-7.732,9,4.571,5.01,4.455,4.888,1.11,2.06,1.419,1.414,9,4.627,4.595,10,151.807613859,norm,0,35,35,35,1858.085,1858.095,1858.11471222,1858.115,1858.117,1858.12,up,1,1.67779145332,8.32220854668,001,304,1366_768,Intel(R) Core(TM) i5-3230M CPU @ 2.60GHz,orientation_search,DESKTOP-3MLAIPL,GeForce GT 635M/PCIe/SSE2,2018_Nov_08_1318,testMonitor,
229.9,228.3,229.1,228.5,36,0,229.4,227.9,232.6,235.3,8.066,7.909,8.263,8.376,7.596,7.798,7.858,4.655,-4.652,-7.581,1.333,-1.312,8.458,4.415,-5.226,-7.545,226.1,232.9,-8.29,234.2,222.7,228.9,231.5,223.2,36,236.5,2,5,probe,5,0,73,norm,36,-4.742,up,norm,230.019372221,,227.5,229.5,220.0,5,237.2,232.8,228.7,10,6,8.021,5.003,1.286,-1.397,-4.749,-7.573,240.0,2,157.0,-7.7,-7.894,10,-7.798,-7.953,-4.835,-4.652,-4.594,-4.419,4.938,8.263,17,-1.504,1.514,4.419,8.359,-8.422,-7.702,-1.677,1.421,235.7,232.9,229.4,227.5,230.9,228.6,224.4,227.2,224.8,228.0,1,norm,1.954,1.587,-1.458,-1.15,-5.15,-4.722,-2.051,-1.745,-1.354,-1.971,1.489,-1.532,232.0,234.4,-5.086,-7.729,1.209,-1.428,7.678,4.509,-5.097,-7.951,9,4.354,4.638,4.839,5.084,1.513,1.492,1.796,1.959,9,5.031,5.12,10,151.807613859,norm,0,36,36,36,1859.817,1859.827,1859.84615142,1859.846,1859.848,1859.851,up,1,0.978929642588,9.02107035741,001,304,1366_768,Intel(R) Core(TM) i5-3230M CPU @ 2.60GHz,orientation_search,DESKTOP-3MLAIPL,GeForce GT 635M/PCIe/SSE2,2018_Nov_08_1318,testMonitor,
96.8,63.3,68.6,79.1,36,30,66.5,80.5,72.3,66.8,8.371,7.554,8.117,8.118,7.957,7.905,7.713,4.458,-4.601,-8.039,1.373,-1.674,7.898,4.711,-4.557,-8.493,72.1,87.5,-7.87,77.7,67.5,69.2,88.2,62.9,36,67.5,1,5,prime,10,0,97,norm,36,-5.131,down,norm,76.8161193528,67.9,74.4,65.1,80.5,2,80.2,81.2,90.6,10,6,7.676,4.659,1.787,-1.81,-4.371,-7.945,81.1,6,173.8,-8.471,-8.201,30,-7.558,-7.585,-4.91,-4.633,-5.023,-5.083,5.064,8.063,8,-1.664,1.981,4.803,7.949,-7.928,-7.553,-1.544,1.656,56.8,,89.0,67.9,81.9,89.1,69.8,78.0,90.0,93.2,0,norm,2.073,1.824,-1.676,-1.237,-4.741,-4.908,-1.609,-1.356,-1.236,-1.178,1.568,-1.71,62.6,80.3,-5.087,-8.295,1.791,-1.817,8.059,4.814,-5.04,-8.209,10,5.151,4.915,4.31,4.598,1.887,1.591,1.302,1.41,10,4.349,5.017,0,151.807613859,norm,0,37,37,37,1860.849,1860.859,1860.87839998,1860.879,1860.881,1860.884,down,1,4.22517429682,5.77482570318,001,304,1366_768,Intel(R) Core(TM) i5-3230M CPU @ 2.60GHz,orientation_search,DESKTOP-3MLAIPL,GeForce GT 635M/PCIe/SSE2,2018_Nov_08_1318,testMonitor,
94.6,75.6,60.7,85.7,36,30,92.3,63.6,75.1,62.7,7.628,8.297,8.24,7.901,8.467,7.829,7.862,4.965,-4.575,-8.171,1.884,-2.089,7.83,5.032,-4.843,-7.584,81.6,83.7,-7.658,63.7,82.5,73.5,96.8,79.0,36,83.5,1,5,prime,10,0,96,norm,36,-4.989,up,norm,76.8161193528,85.7,75.3,73.4,82.2,5,,56.8,66.2,10,6,7.935,4.352,1.697,-1.48,-5.013,-7.801,59.4,6,172.8,-8.333,-7.512,30,-8.329,-7.712,-4.542,-4.406,-4.909,-4.655,4.334,8.056,11,-1.309,1.482,4.522,8.301,-8.419,-8.233,-1.334,1.781,71.0,79.7,69.9,74.4,87.6,89.6,62.9,76.1,82.1,78.4,1,norm,2.073,1.797,-1.719,-1.181,-4.959,-5.056,-1.322,-1.986,-1.966,-1.415,1.851,-1.706,77.3,67.1,-4.942,-7.62,1.854,-2.067,8.304,4.814,-4.307,-7.891,10,5.027,5.047,4.416,4.826,2.062,1.88,1.349,1.385,10,4.487,5.299,0,151.807613859,norm,0,38,38,38,1865.129,1865.139,1865.15704873,1865.157,1865.16,1865.162,down,0,11.9998740784,-10,001,304,1366_768,Intel(R) Core(TM) i5-3230M CPU @ 2.60GHz,orientation_search,DESKTOP-3MLAIPL,GeForce GT 635M/PCIe/SSE2,2018_Nov_08_1318,testMonitor,
69.3,74.4,82.4,90.0,36,30,68.7,84.3,75.4,78.5,8.378,8.419,7.672,7.676,8.341,8.059,8.149,4.772,-5.162,-7.542,1.763,-1.976,8.253,4.605,-5.234,-8.08,56.8,83.1,-7.54,79.5,62.3,73.8,58.5,71.5,36,71.6,3,5,prime,10,0,112,norm,36,-4.336,down,norm,76.8161193528,73.8,74.2,76.7,65.3,1,75.4,83.0,74.1,10,6,8.008,5.22,1.619,-1.107,-4.92,-7.697,61.4,6,188.8,-7.819,-7.893,30,-7.733,-8.492,-4.996,-5.15,-5.096,-4.313,5.06,7.827,19,-1.317,1.263,4.637,8.09,-7.669,-8.433,-1.611,1.71,66.1,64.9,81.5,75.0,73.5,79.9,91.1,81.5,74.7,94.1,2,norm,1.974,1.435,-1.637,-1.341,-4.665,-5.119,-1.961,-1.341,-1.467,-1.767,1.774,-1.274,,75.8,-4.559,-8.155,1.981,-1.677,7.878,4.581,-4.763,-8.451,10,4.519,4.989,4.865,4.812,1.873,2.088,1.847,1.757,10,4.674,4.965,0,151.807613859,norm,0,39,39,39,1878.21,1878.22,1878.22946313,1878.23,1878.232,1878.235,up,0,0.642482874275,-10,001,304,1366_768,Intel(R) Core(TM) i5-3230M CPU @ 2.60GHz,orientation_search,DESKTOP-3MLAIPL,GeForce GT 635M/PCIe/SSE2,2018_Nov_08_1318,testMonitor,
73.4,70.1,67.8,61.3,36,30,72.1,70.9,91.2,74.7,7.833,8.044,8.481,8.368,7.821,8.227,8.09,4.301,-4.431,-7.601,1.384,-2.098,7.883,4.747,-4.885,-8.401,94.2,73.3,-8.05,61.0,57.9,75.9,64.0,79.7,36,72.3,1,5,prime,10,0,87,norm,36,-4.84,down,norm,76.8161193528,91.4,78.4,74.1,64.3,0,77.8,78.4,77.4,10,6,7.732,5.102,1.507,-1.879,-5.144,-7.842,96.8,6,163.8,-8.429,-7.789,30,-7.714,-8.005,-4.499,-4.977,-5.17,-4.834,4.756,8.364,6,-1.135,1.627,5.127,7.883,-7.971,-7.804,-1.414,1.52,85.4,76.5,70.7,89.4,96.0,80.1,61.0,,56.8,66.0,3,norm,2.047,1.913,-1.277,-1.923,-4.858,-5.159,-1.849,-2.093,-1.848,-2.087,1.388,-1.161,71.9,92.1,-4.521,-7.621,1.904,-1.35,8.065,4.975,-4.7,-8.029,10,4.908,5.095,4.37,4.66,1.236,1.582,1.46,1.654,10,4.52,4.997,0,151.807613859,norm,0,40,40,40,1879.914,1879.924,1879.940985,1879.941,1879.943,1879.946,up,0,1.62814438902,-10,001,304,1366_768,Intel(R) Core(TM) i5-3230M CPU @ 2.60GHz,orientation_search,DESKTOP-3MLAIPL,GeForce GT 635M/PCIe/SSE2,2018_Nov_08_1318,testMonitor,
81.8,93.4,77.2,65.8,36,30,71.8,71.7,73.2,72.5,8.143,7.994,7.513,8.176,7.903,8.209,7.795,5.241,-5.073,-8.393,1.201,-2.065,7.715,4.589,-4.333,-8.464,73.1,69.7,-8.172,80.0,84.5,86.2,83.9,85.9,36,82.0,0,5,prime,10,0,77,norm,36,-4.311,down,norm,76.8161193528,84.5,67.6,73.0,70.9,2,69.3,80.7,76.2,10,6,7.69,4.769,1.256,-1.694,-4.639,-7.533,81.1,6,153.8,-8.365,-7.645,30,-7.717,-7.962,-5.216,-4.931,-4.354,-5.182,5.241,8.183,2,-1.2,1.386,5.013,7.577,-7.737,-7.61,-1.584,1.798,90.0,82.9,96.8,,68.3,81.5,56.8,89.6,78.5,80.3,4,norm,1.191,1.471,-1.602,-1.214,-4.935,-4.866,-1.94,-1.572,-1.138,-1.686,1.272,-1.786,75.9,83.0,-5.031,-8.159,1.344,-1.543,7.706,4.464,-4.35,-7.739,10,4.906,4.36,4.509,5.282,1.473,1.304,2.072,1.509,10,4.488,4.625,0,151.807613859,norm,0,41,41,41,1882.611,1882.621,1882.6379722,1882.638,1882.64,1882.643,down,1,2.6606132185,7.3393867815,001,304,1366_768,Intel(R) Core(TM) i5-3230M CPU @ 2.60GHz,orientation_search,DESKTOP-3MLAIPL,GeForce GT 635M/PCIe/SSE2,2018_Nov_08_1318,testMonitor,
89.1,90.2,66.3,84.9,36,30,57.4,88.5,69.3,62.5,8.116,8.094,8.366,8.056,7.737,7.604,7.634,4.864,-5.035,-7.505,1.967,-1.683,8.175,5.223,-5.14,-7.548,72.5,78.1,-7.634,66.7,76.3,85.6,74.9,,36,56.8,4,5,prime,10,0,108,norm,36,-4.58,down,norm,76.8161193528,79.1,77.1,66.2,73.4,2,75.8,81.2,77.6,10,6,8.234,4.732,1.561,-1.547,-4.301,-7.947,73.3,6,184.8,-8.207,-8.254,30,-7.778,-7.535,-5.298,-5.097,-4.729,-5.242,4.681,7.516,26,-1.816,1.806,4.861,7.981,-7.532,-8.15,-1.419,1.199,61.8,81.4,82.0,91.5,66.1,78.2,96.8,74.4,90.4,77.8,5,norm,1.272,1.226,-2.05,-1.104,-4.508,-4.702,-1.503,-1.765,-2.017,-2.099,1.484,-1.947,67.7,71.1,-5.084,-8.28,1.45,-1.216,8.23,4.531,-5.145,-7.755,10,4.952,4.568,5.088,5.253,1.765,1.779,1.622,1.438,10,4.441,4.682,0,151.807613859,norm,0,42,42,42,1885.323,1885.333,1885.35171526,1885.352,1885.354,1885.357,down,1,2.34391285433,7.65608714567,001,304,1366_768,Intel(R) Core(TM) i5-3230M CPU @ 2.60GHz,orientation_search,DESKTOP-3MLAIPL,GeForce GT 635M/PCIe/SSE2,2018_Nov_08_1318,testMonitor,
191.4,191.7,192.7,190.6,36,-20,197.6,197.5,183.5,193.2,7.981,8.451,7.563,8.218,7.794,8.0,8.079,5.277,-5.252,-8.261,1.892,-1.51,8.103,5.263,-5.171,-8.439,189.7,202.9,-8.368,191.6,197.2,192.7,,186.4,36,187.6,5,5,probe,5,0,91,norm,36,-4.733,down,norm,192.861365804,191.1,190.6,197.4,197.8,2,194.6,186.7,186.7,10,6,7.997,5.24,1.403,-1.123,-5.199,-8.125,199.4,2,101.9,-8.021,-7.512,30,-8.266,-8.214,-4.565,-5.278,-5.264,-5.287,4.408,7.727,32,-1.958,1.538,4.579,7.5,-7.978,-7.678,-1.116,1.542,194.6,197.3,191.0,190.7,187.6,190.5,196.4,192.1,189.8,189.5,0,norm,1.471,1.405,-1.408,-1.433,-4.609,-5.209,-1.81,-2.016,-1.616,-2.055,1.447,-1.535,200.1,199.7,-4.968,-8.455,1.417,-2.026,8.431,4.614,-4.812,-8.176,11,4.827,4.768,4.938,4.819,2.064,1.949,1.689,2.075,11,4.799,4.591,30,76.8161193528,norm,0,43,43,43,1887.722,1887.736,1887.74917835,1887.75,1887.752,1887.755,down,1,1.79451763333,8.20548236667,001,304,1366_768,Intel(R) Core(TM) i5-3230M CPU @ 2.60GHz,orientation_search,DESKTOP-3MLAIPL,GeForce GT 635M/PCIe/SSE2,2018_Nov_08_1318,testMonitor,
167.8,169.3,173.6,176.6,36,-20,172.6,180.1,180.5,181.2,7.61,7.606,7.872,7.982,7.834,7.722,8.039,4.865,-4.586,-7.574,1.164,-1.589,8.223,4.794,-4.556,-7.98,177.0,175.7,-8.318,164.9,179.6,173.7,175.1,173.5,36,169.7,2,5,probe,5,0,73,norm,36,-5.038,down,norm,174.861365804,171.7,172.1,169.4,,2,180.0,165.9,166.7,10,6,8.436,4.914,1.625,-1.838,-4.666,-7.656,184.9,2,101.9,-7.606,-7.518,30,-7.617,-8.117,-4.311,-4.661,-4.971,-5.073,4.891,8.284,14,-1.438,1.707,4.607,7.822,-7.896,-8.272,-1.427,2.064,170.1,166.3,181.9,173.8,172.2,178.6,179.6,170.3,179.0,166.9,1,norm,2.005,1.303,-1.84,-1.205,-5.132,-4.702,-1.814,-1.128,-1.208,-1.917,2.078,-1.408,174.5,173.7,-4.777,-7.836,1.203,-1.104,7.584,4.443,-5.157,-7.625,11,5.292,4.87,4.98,4.64,1.737,1.395,1.946,2.04,11,5.073,4.81,30,76.8161193528,norm,0,44,44,44,1889.568,1889.578,1889.59718109,1889.598,1889.6,1889.603,down,1,1.09513595194,8.90486404806,001,304,1366_768,Intel(R) Core(TM) i5-3230M CPU @ 2.60GHz,orientation_search,DESKTOP-3MLAIPL,GeForce GT 635M/PCIe/SSE2,2018_Nov_08_1318,testMonitor,
314.9,307.9,318.4,311.9,36,-30,313.0,336.0,,307.6,8.151,7.751,7.74,7.533,8.257,8.007,8.199,5.191,-4.632,-7.533,1.983,-1.598,8.161,4.682,-4.748,-7.939,325.3,313.1,-8.372,326.2,329.8,303.1,303.3,339.0,36,319.1,4,5,prime,10,0,113,norm,36,-5.102,up,norm,318.999436654,323.0,322.3,321.7,328.5,4,319.5,325.9,309.0,10,5,7.715,4.486,1.803,-1.279,-4.805,-7.903,314.0,5,432.0,-7.945,-8.079,-30,-7.517,-8.076,-4.589,-5.208,-4.948,-4.875,5.206,8.253,28,-1.377,1.141,4.841,8.367,-7.612,-8.301,-1.894,1.541,325.3,318.8,308.8,299.0,318.3,317.2,321.1,319.2,333.0,318.3,0,norm,1.279,1.375,-2.088,-1.538,-4.866,-4.916,-1.156,-1.348,-1.937,-1.956,1.979,-1.241,319.8,318.0,-4.791,-7.88,1.155,-1.866,8.248,5.222,-4.415,-7.557,12,5.171,5.1,5.19,4.445,1.57,1.443,1.428,1.909,12,5.254,4.424,-20,76.8161193528,norm,0,45,45,45,1890.717,1890.727,1890.74585702,1890.746,1890.748,1890.751,up,1,4.42519387585,5.57480612415,001,304,1366_768,Intel(R) Core(TM) i5-3230M CPU @ 2.60GHz,orientation_search,DESKTOP-3MLAIPL,GeForce GT 635M/PCIe/SSE2,2018_Nov_08_1318,testMonitor,
299.3,314.7,316.1,315.8,36,-30,319.8,,330.3,307.4,8.445,8.328,8.292,8.304,8.431,7.821,7.827,5.225,-5.116,-8.186,1.267,-2.005,7.523,4.527,-4.877,-8.046,309.4,324.7,-7.926,306.9,307.5,323.4,310.5,313.3,36,307.5,4,5,prime,10,0,101,norm,36,-4.473,down,norm,318.999436654,335.8,309.4,308.0,299.0,1,328.5,302.7,334.2,10,5,7.732,5.138,1.252,-1.708,-4.493,-8.354,324.2,5,420.0,-8.124,-8.431,-30,-8.413,-7.52,-4.322,-5.259,-5.181,-4.794,4.517,7.924,25,-1.905,2.064,4.976,8.137,-8.009,-8.352,-1.947,1.444,318.0,319.5,310.1,337.6,311.3,312.6,315.1,335.4,339.0,299.7,1,norm,2.075,1.802,-1.102,-1.676,-4.635,-4.678,-1.742,-1.151,-1.624,-2.055,1.637,-2.05,327.4,319.7,-4.559,-8.221,1.533,-1.474,7.683,4.396,-5.149,-7.621,12,4.498,4.664,5.012,4.946,1.981,1.819,1.9,1.36,12,5.032,5.187,-20,76.8161193528,norm,0,46,46,46,1895.195,1895.206,1895.22433706,1895.225,1895.227,1895.23,down,1,1.14506288583,8.85493711417,001,304,1366_768,Intel(R) Core(TM) i5-3230M CPU @ 2.60GHz,orientation_search,DESKTOP-3MLAIPL,GeForce GT 635M/PCIe/SSE2,2018_Nov_08_1318,testMonitor,
321.2,323.0,317.7,315.3,36,-30,310.2,332.4,299.0,314.2,8.485,8.189,7.597,8.078,7.851,7.884,8.117,4.805,-5.048,-8.003,1.563,-2.074,7.798,4.885,-4.841,-8.345,303.5,313.7,-8.226,320.0,321.1,321.8,322.0,323.0,36,322.2,1,5,prime,10,0,99,norm,36,-5.159,down,norm,318.999436654,320.4,333.8,322.2,320.4,2,325.6,320.0,328.5,10,5,8.444,4.67,1.618,-1.311,-5.206,-7.587,315.4,5,418.0,-8.443,-7.782,-30,-7.809,-8.406,-4.612,-4.582,-5.123,-4.461,5.262,8.154,8,-1.673,1.926,4.941,8.198,-8.17,-8.357,-1.844,1.892,313.2,,305.0,319.8,304.0,322.5,308.4,333.8,321.9,320.4,2,norm,2.008,1.772,-1.836,-1.688,-4.388,-5.029,-1.931,-1.563,-1.318,-1.623,2.031,-2.098,339.0,332.3,-5.151,-7.65,1.878,-1.804,7.705,5.13,-5.026,-8.126,12,5.147,4.881,5.069,5.08,1.665,1.545,1.8,2.022,12,5.048,4.417,-20,76.8161193528,norm,0,47,47,47,1896.394,1896.403,1896.42302321,1896.423,1896.425,1896.428,down,1,2.47718884534,7.52281115466,001,304,1366_768,Intel(R) Core(TM) i5-3230M CPU @ 2.60GHz,orientation_search,DESKTOP-3MLAIPL,GeForce GT 635M/PCIe/SSE2,2018_Nov_08_1318,testMonitor,
302.6,319.0,325.8,304.8,36,-30,329.3,318.6,323.4,312.5,8.054,7.792,7.7,7.972,7.857,7.806,7.626,5.199,-5.198,-8.028,1.131,-1.834,8.446,4.795,-4.489,-8.085,326.8,318.5,-8.096,306.7,326.6,317.3,306.0,300.6,36,310.7,1,5,prime,10,0,103,norm,36,-4.633,up,norm,318.999436654,328.3,309.9,305.8,319.7,3,312.1,321.8,314.1,10,5,7.713,5.144,1.397,-1.472,-4.357,-8.266,310.9,5,422.0,-7.956,-8.15,-30,-8.02,-8.243,-4.523,-4.316,-4.924,-5.235,4.339,8.157,9,-1.621,1.709,5.074,7.641,-7.912,-7.84,-1.425,1.156,,313.8,315.7,307.5,332.4,322.0,314.6,322.9,315.7,322.6,3,norm,1.88,1.93,-1.349,-1.396,-4.789,-4.754,-1.551,-1.231,-1.594,-1.686,1.132,-1.146,299.0,317.7,-5.022,-8.399,1.727,-1.304,7.765,4.541,-5.065,-8.049,12,4.561,4.432,5.011,4.681,1.65,1.783,2.088,1.89,12,4.407,4.569,-20,76.8161193528,norm,0,48,48,48,1898.924,1898.934,1898.9537094,1898.954,1898.956,1898.959,up,1,1.46197443514,8.53802556486,001,304,1366_768,Intel(R) Core(TM) i5-3230M CPU @ 2.60GHz,orientation_search,DESKTOP-3MLAIPL,GeForce GT 635M/PCIe/SSE2,2018_Nov_08_1318,testMonitor,
319.8,322.6,,315.7,36,-30,322.1,328.7,306.8,320.5,7.787,8.207,7.515,8.003,7.783,8.062,8.229,5.056,-5.034,-8.0,1.752,-1.87,8.366,4.422,-5.244,-7.542,321.1,315.4,-8.01,314.6,328.9,304.0,323.3,327.5,36,311.7,3,5,prime,10,0,81,norm,36,-4.872,down,norm,318.999436654,314.0,313.1,339.0,301.4,2,306.8,325.8,336.3,10,5,8.199,5.263,1.562,-1.797,-5.122,-7.577,318.1,5,400.0,-7.591,-7.683,-30,-8.42,-8.163,-4.731,-5.173,-4.741,-5.001,5.243,8.216,20,-1.651,1.367,4.958,7.919,-7.509,-7.698,-1.598,1.922,331.0,322.9,309.3,314.6,336.2,320.6,307.0,304.7,299.0,322.1,4,norm,1.596,1.275,-1.89,-1.577,-5.075,-4.358,-2.03,-1.294,-1.586,-2.036,1.713,-1.162,321.7,321.9,-4.796,-8.394,1.689,-2.012,8.145,4.807,-4.752,-7.781,12,5.0,4.309,5.066,4.922,1.433,1.837,1.592,1.909,12,5.006,5.17,-20,76.8161193528,norm,0,49,49,49,1900.44,1900.45,1900.46866289,1900.469,1900.471,1900.474,down,1,1.2118120002,8.7881879998,001,304,1366_768,Intel(R) Core(TM) i5-3230M CPU @ 2.60GHz,orientation_search,DESKTOP-3MLAIPL,GeForce GT 635M/PCIe/SSE2,2018_Nov_08_1318,testMonitor,
356.5,367.8,369.7,376.5,36,-80,369.0,363.2,361.4,370.0,8.011,7.592,7.576,8.187,8.194,7.822,8.388,4.89,-4.538,-8.389,1.167,-1.918,7.967,4.304,-5.184,-8.282,362.5,365.0,-8.107,363.8,360.0,367.8,365.4,364.9,36,368.2,3,5,probe,5,0,73,norm,36,-4.894,down,norm,366.452051862,365.2,367.5,364.6,363.2,0,360.9,369.4,364.9,10,5,7.502,4.942,1.372,-2.001,-4.321,-7.676,363.1,2,293.5,-8.024,-7.526,-30,-7.552,-7.69,-4.455,-4.62,-5.022,-5.121,4.354,8.384,18,-1.322,1.866,4.507,8.487,-8.215,-7.787,-1.384,1.246,366.9,365.0,369.6,363.9,360.6,370.5,364.2,373.8,366.2,371.9,0,norm,1.484,1.854,-1.116,-1.9,-4.76,-4.376,-1.37,-1.294,-1.452,-1.343,2.05,-1.895,364.5,,-4.785,-8.285,1.242,-1.822,7.777,4.922,-4.663,-8.009,13,4.761,5.272,4.39,4.549,1.189,2.068,2.086,1.751,13,4.986,4.772,-30,318.999436654,norm,0,50,50,50,1901.705,1901.714,1901.73391657,1901.734,1901.736,1901.739,down,1,8.63670626946,1.36329373054,001,304,1366_768,Intel(R) Core(TM) i5-3230M CPU @ 2.60GHz,orientation_search,DESKTOP-3MLAIPL,GeForce GT 635M/PCIe/SSE2,2018_Nov_08_1318,testMonitor,
370.8,381.0,381.7,369.4,36,-80,381.0,385.5,380.0,371.2,7.893,8.03,7.856,8.335,7.636,8.031,7.632,5.036,-4.829,-7.748,1.349,-1.454,8.365,5.197,-4.529,-8.451,377.0,376.4,-8.052,373.7,373.5,374.8,378.6,368.2,36,377.8,0,5,probe,5,0,82,norm,36,-4.546,down,norm,375.452051862,376.3,377.6,380.1,372.3,0,373.9,369.5,377.2,10,5,7.53,4.371,1.907,-1.69,-4.683,-8.309,370.6,2,293.5,-8.05,-8.103,-30,-8.167,-8.24,-4.338,-5.281,-4.798,-5.202,4.479,8.064,0,-1.393,1.157,4.905,8.154,-7.822,-8.255,-1.316,1.867,378.9,377.8,370.0,376.5,370.3,,377.5,365.5,376.5,381.1,1,norm,2.003,1.958,-1.646,-1.92,-4.491,-4.664,-1.258,-1.343,-1.468,-1.442,1.586,-1.892,385.0,374.4,-4.478,-8.316,1.111,-1.479,7.747,4.832,-4.839,-8.07,13,4.851,5.232,4.883,5.269,1.831,1.471,1.397,1.429,13,5.235,5.019,-30,318.999436654,norm,0,51,51,51,1910.396,1910.406,1910.4244715,1910.425,1910.427,1910.43,down,1,1.77795992768,8.22204007232,001,304,1366_768,Intel(R) Core(TM) i5-3230M CPU @ 2.60GHz,orientation_search,DESKTOP-3MLAIPL,GeForce GT 635M/PCIe/SSE2,2018_Nov_08_1318,testMonitor,
193.4,211.8,204.0,195.5,36,80,218.6,194.0,186.1,214.2,8.328,8.208,7.764,8.126,8.081,7.786,7.671,4.552,-4.449,-8.398,1.991,-2.087,8.426,4.693,-4.996,-7.541,211.0,186.8,-8.437,199.3,210.5,,199.2,206.7,36,200.9,5,5,prime,10,0,74,norm,36,-5.096,up,norm,201.797178469,204.4,182.6,193.8,201.3,3,200.7,193.4,205.0,10,5,8.18,4.913,1.942,-1.884,-4.394,-8.16,198.0,5,275.8,-7.639,-7.612,80,-8.327,-8.143,-4.423,-4.689,-4.624,-4.792,4.617,7.752,33,-1.344,1.256,4.833,7.968,-7.679,-7.615,-1.212,1.711,195.1,201.0,204.9,204.3,200.4,221.8,197.0,195.1,215.8,201.9,0,norm,1.899,1.658,-1.83,-2.051,-5.171,-5.021,-1.562,-1.563,-1.596,-1.304,1.447,-1.27,204.9,181.8,-4.531,-7.588,2.077,-1.117,8.499,5.082,-4.524,-8.328,14,4.613,4.797,5.004,4.381,1.455,2.092,1.496,1.843,14,4.419,5.193,-80,318.999436654,norm,0,52,52,52,1912.227,1912.237,1912.2558518,1912.256,1912.258,1912.261,up,1,3.49239141331,6.50760858669,001,304,1366_768,Intel(R) Core(TM) i5-3230M CPU @ 2.60GHz,orientation_search,DESKTOP-3MLAIPL,GeForce GT 635M/PCIe/SSE2,2018_Nov_08_1318,testMonitor,
196.5,200.6,202.9,212.7,36,80,197.8,192.1,216.8,217.9,8.03,8.418,8.374,8.368,8.391,7.926,7.541,4.864,-4.651,-7.73,1.156,-1.771,7.772,4.4,-5.061,-8.472,188.9,201.4,-8.273,192.8,,207.1,207.9,203.3,36,201.9,5,5,prime,10,0,100,norm,36,-4.512,down,norm,201.797178469,207.7,189.3,199.0,210.0,0,200.0,206.0,210.0,10,5,7.601,4.923,1.18,-1.702,-4.981,-7.749,210.9,5,301.8,-8.191,-8.25,80,-7.85,-7.574,-4.787,-4.909,-5.068,-4.822,5.088,8.496,30,-1.213,1.978,4.774,7.678,-8.495,-8.374,-1.475,1.898,215.9,201.0,202.6,199.8,181.8,215.9,198.1,212.5,198.1,221.8,1,norm,1.928,1.707,-1.134,-1.157,-4.754,-4.731,-1.693,-1.185,-1.248,-2.097,1.123,-1.335,198.6,208.9,-4.727,-8.145,1.559,-1.803,8.489,4.392,-4.929,-8.253,14,4.878,5.084,4.689,4.72,1.543,1.7,1.383,1.185,14,4.543,4.354,-80,318.999436654,norm,0,53,53,53,1915.773,1915.783,1915.80193635,1915.802,1915.804,1915.807,down,1,1.11187444784,8.88812555216,001,304,1366_768,Intel(R) Core(TM) i5-3230M CPU @ 2.60GHz,orientation_search,DESKTOP-3MLAIPL,GeForce GT 635M/PCIe/SSE2,2018_Nov_08_1318,testMonitor,
195.5,181.8,187.0,192.1,36,80,193.4,214.5,206.0,202.0,8.008,7.665,7.753,8.118,8.206,7.924,7.52,4.406,-4.424,-7.876,2.089,-1.482,7.646,4.361,-5.207,-7.791,203.1,192.0,-7.707,203.1,221.6,200.5,201.5,198.4,36,215.0,0,5,prime,10,0,75,norm,36,-5.282,up,norm,201.797178469,198.7,192.0,221.7,199.4,4,208.7,199.1,191.0,10,5,8.388,4.984,1.513,-1.6,-5.287,-7.95,221.8,5,276.8,-8.272,-8.374,80,-8.405,-7.792,-4.988,-4.974,-5.023,-4.639,4.564,8.332,4,-1.526,2.009,5.254,7.915,-8.387,-8.148,-1.855,2.007,206.9,198.0,198.4,206.2,211.7,189.5,211.8,193.3,201.7,,2,norm,1.446,1.644,-1.869,-1.938,-5.23,-4.913,-1.172,-1.932,-1.559,-2.005,1.386,-1.319,199.7,212.6,-4.524,-7.627,1.997,-1.929,7.898,5.1,-4.614,-8.453,14,4.611,4.49,4.713,5.054,1.478,1.855,1.501,1.432,14,4.566,5.248,-80,318.999436654,norm,0,54,54,54,1916.938,1916.948,1916.96749959,1916.968,1916.97,1916.973,up,1,1.77729952999,8.22270047001,001,304,1366_768,Intel(R) Core(TM) i5-3230M CPU @ 2.60GHz,orientation_search,DESKTOP-3MLAIPL,GeForce GT 635M/PCIe/SSE2,2018_Nov_08_1318,testMonitor,
185.9,202.7,205.8,198.0,36,80,195.9,208.6,198.8,196.4,8.135,7.987,8.458,8.117,7.627,8.405,7.911,4.38,-4.929,-8.283,2.004,-1.861,7.77,4.465,-4.876,-8.182,188.3,211.3,-7.51,215.0,187.4,204.9,209.2,203.4,36,212.8,0,5,prime,10,0,63,norm,36,-4.682,down,norm,201.797178469,212.3,198.5,204.1,221.8,2,196.1,194.8,219.8,10,5,7.83,4.725,1.343,-1.332,-4.782,-7.656,188.6,5,264.8,-8.336,-8.086,80,-7.618,-7.803,-5.011,-4.673,-4.885,-4.378,4.371,8.414,2,-1.575,1.172,5.199,7.821,-7.691,-7.896,-1.278,1.883,209.3,201.5,206.0,,201.8,207.2,198.3,203.6,200.6,181.8,3,norm,1.596,2.039,-1.403,-1.394,-4.804,-4.592,-1.477,-1.59,-1.645,-1.444,1.981,-1.183,204.0,213.1,-4.756,-7.842,1.699,-1.213,8.178,4.545,-4.977,-8.14,14,4.642,4.803,5.134,4.355,1.805,1.644,1.887,1.141,14,5.224,4.644,-80,318.999436654,norm,0,55,55,55,1918.769,1918.779,1918.79869515,1918.799,1918.801,1918.804,down,1,1.01226413378,8.98773586622,001,304,1366_768,Intel(R) Core(TM) i5-3230M CPU @ 2.60GHz,orientation_search,DESKTOP-3MLAIPL,GeForce GT 635M/PCIe/SSE2,2018_Nov_08_1318,testMonitor,
197.6,221.8,216.2,181.8,36,80,214.5,200.7,216.3,200.3,7.784,7.513,8.12,8.147,8.231,7.989,8.344,4.537,-4.798,-7.627,2.003,-1.147,8.284,4.517,-4.734,-7.918,201.0,202.1,-7.989,190.7,217.4,200.2,183.8,214.7,36,206.3,2,5,prime,10,0,97,norm,36,-5.064,down,norm,201.797178469,202.0,205.6,214.3,191.2,0,219.6,207.5,,10,5,8.495,4.93,1.44,-2.076,-5.3,-7.596,196.1,5,298.8,-8.052,-8.103,80,-7.518,-7.751,-4.783,-5.075,-4.71,-4.65,4.835,8.054,12,-1.57,2.092,5.026,8.341,-7.952,-8.082,-2.015,1.944,206.1,205.5,201.4,194.7,218.2,195.2,185.8,198.4,199.7,183.6,4,norm,1.143,1.248,-1.887,-1.375,-4.367,-4.654,-1.116,-1.53,-1.884,-2.095,1.576,-1.326,197.5,204.1,-5.281,-7.565,1.495,-1.342,8.451,5.289,-4.807,-7.597,14,4.485,4.436,4.332,4.55,1.567,1.817,1.738,1.493,14,5.274,4.773,-80,318.999436654,norm,0,56,56,56,1919.835,1919.845,1919.86425137,1919.865,1919.867,1919.87,up,0,1.82763541309,-10,001,304,1366_768,Intel(R) Core(TM) i5-3230M CPU @ 2.60GHz,orientation_search,DESKTOP-3MLAIPL,GeForce GT 635M/PCIe/SSE2,2018_Nov_08_1318,testMonitor,
370.1,373.2,366.2,375.3,36,60,373.7,367.7,368.9,375.1,7.577,7.871,8.274,7.782,7.915,8.405,7.535,4.748,-4.322,-7.765,1.563,-1.403,7.579,4.66,-4.707,-8.274,372.6,360.6,-7.64,368.2,,366.0,373.8,364.0,36,369.2,5,5,probe,5,0,81,norm,36,-5.002,down,norm,369.907612242,359.9,367.1,377.7,368.3,0,369.5,367.1,368.7,10,5,8.22,5.202,1.345,-1.795,-4.341,-7.724,364.3,2,288.9,-7.545,-8.392,80,-8.48,-8.364,-4.628,-4.953,-4.848,-4.773,4.862,7.895,30,-1.441,1.951,4.828,8.245,-7.967,-7.96,-1.385,1.957,373.4,368.5,374.8,373.0,367.6,364.7,367.3,365.9,370.7,366.4,0,norm,1.906,2.039,-1.913,-1.197,-4.685,-4.904,-1.439,-1.125,-1.781,-1.328,1.988,-1.831,371.3,373.7,-4.426,-8.168,1.482,-1.427,7.862,5.101,-4.408,-8.084,15,4.78,5.145,4.391,4.769,1.132,1.574,1.455,1.565,15,4.963,5.213,80,201.797178469,norm,0,57,57,57,1922.745,1922.755,1922.76428776,1922.765,1922.767,1922.77,down,1,0.942230794171,9.05776920583,001,304,1366_768,Intel(R) Core(TM) i5-3230M CPU @ 2.60GHz,orientation_search,DESKTOP-3MLAIPL,GeForce GT 635M/PCIe/SSE2,2018_Nov_08_1318,testMonitor,
397.7,400.7,398.6,396.8,36,60,395.1,390.6,399.2,393.7,8.198,7.873,8.028,7.589,7.768,7.91,7.789,4.706,-5.054,-8.152,1.308,-1.203,8.09,4.392,-5.105,-8.492,,393.5,-7.586,391.2,392.0,390.5,394.2,406.9,36,396.4,5,5,probe,5,0,108,norm,36,-5.037,up,norm,396.907612242,394.5,399.0,398.0,402.4,5,402.5,395.4,396.6,10,5,8.195,4.863,1.493,-1.959,-4.769,-8.383,386.9,2,288.9,-7.564,-8.445,80,-8.224,-8.07,-4.691,-5.159,-4.315,-4.906,4.722,8.021,35,-1.634,1.58,4.345,7.915,-7.97,-7.725,-1.383,1.132,400.4,393.6,393.0,400.1,402.2,396.3,397.0,404.8,398.9,393.0,1,norm,1.287,2.074,-1.743,-1.441,-4.385,-4.89,-1.344,-1.149,-2.003,-1.876,1.754,-1.148,397.2,395.2,-5.011,-8.328,1.241,-1.557,8.126,5.165,-5.044,-7.859,15,5.225,4.742,4.323,4.735,1.95,1.58,1.795,1.273,15,4.348,4.795,80,201.797178469,norm,0,58,58,58,1923.731,1923.741,1923.75990577,1923.76,1923.762,1923.765,up,1,2.02761709725,7.97238290275,001,304,1366_768,Intel(R) Core(TM) i5-3230M CPU @ 2.60GHz,orientation_search,DESKTOP-3MLAIPL,GeForce GT 635M/PCIe/SSE2,2018_Nov_08_1318,testMonitor,
32.1,17.1,20.2,32.9,36,-30,45.7,37.3,31.3,33.9,8.213,7.725,8.434,8.17,7.682,7.663,7.756,4.853,-5.051,-8.188,1.534,-1.581,7.715,5.135,-5.185,-8.269,30.7,49.1,-8.436,19.9,37.1,36.6,30.3,48.4,36,31.5,2,5,prime,10,0,87,norm,36,-5.258,up,norm,29.0932418195,42.2,,9.1,24.0,4,32.7,40.3,12.8,10,6,7.834,5.16,1.613,-1.913,-4.474,-7.553,35.2,6,116.1,-7.633,-7.549,-30,-8.037,-7.661,-5.166,-4.985,-5.039,-4.96,4.717,7.937,16,-1.323,1.856,5.286,8.126,-8.085,-7.679,-1.793,1.436,10.7,27.2,26.0,11.4,33.9,45.2,29.6,24.9,39.3,43.7,0,norm,1.469,1.25,-1.892,-1.51,-5.188,-5.222,-1.448,-1.486,-1.557,-1.999,1.534,-1.199,31.0,26.6,-4.354,-8.015,1.8,-1.484,7.995,5.133,-5.212,-8.287,16,5.248,5.023,5.201,4.478,1.791,1.255,1.428,2.043,16,4.534,4.677,60,201.797178469,norm,0,59,59,59,1925.811,1925.822,1925.84094087,1925.841,1925.843,1925.846,up,1,4.04641099711,5.95358900289,001,304,1366_768,Intel(R) Core(TM) i5-3230M CPU @ 2.60GHz,orientation_search,DESKTOP-3MLAIPL,GeForce GT 635M/PCIe/SSE2,2018_Nov_08_1318,testMonitor,
46.7,9.1,43.6,37.4,36,-30,46.6,28.7,39.4,40.2,8.012,7.808,8.475,8.072,8.089,7.766,8.126,5.124,-4.447,-7.934,2.084,-1.939,8.103,4.801,-4.653,-7.703,33.2,9.7,-8.07,26.9,49.1,26.0,15.3,15.3,36,19.0,0,5,prime,10,0,95,norm,36,-4.74,down,norm,29.0932418195,45.9,29.1,32.0,36.0,1,21.3,31.4,38.4,10,6,8.411,4.948,1.884,-1.833,-4.574,-8.266,36.6,6,124.1,-7.942,-7.686,-30,-8.347,-8.155,-4.72,-4.842,-4.997,-4.487,4.943,7.628,1,-1.978,1.659,4.783,7.623,-8.48,-7.763,-2.041,1.208,33.2,46.5,10.6,38.0,,31.1,27.8,23.5,29.6,37.3,1,norm,1.902,1.157,-1.617,-1.29,-4.868,-4.651,-1.401,-1.475,-1.681,-1.505,1.768,-1.609,38.0,35.0,-4.608,-8.262,1.982,-1.868,7.863,5.174,-4.416,-8.298,16,4.95,4.973,4.937,5.095,1.15,1.608,1.93,1.168,16,4.584,5.196,60,201.797178469,norm,0,60,60,60,1929.921,1929.931,1929.93970486,1929.94,1929.942,1929.945,down,1,1.70827751071,8.29172248929,001,304,1366_768,Intel(R) Core(TM) i5-3230M CPU @ 2.60GHz,orientation_search,DESKTOP-3MLAIPL,GeForce GT 635M/PCIe/SSE2,2018_Nov_08_1318,testMonitor,
29.1,29.0,49.1,23.6,36,-30,42.0,16.8,32.7,18.3,7.759,7.678,7.669,7.609,7.678,7.973,7.882,5.269,-4.74,-7.804,1.316,-1.812,7.749,5.101,-4.303,-7.629,16.8,44.2,-7.846,16.5,14.2,24.7,34.4,23.4,36,21.6,1,5,prime,10,0,91,norm,36,-4.916,up,norm,29.0932418195,12.7,27.6,35.0,37.0,3,38.6,35.6,41.5,10,6,7.609,4.684,1.692,-1.878,-4.534,-8.491,40.5,6,120.1,-8.245,-8.253,-30,-7.615,-8.023,-4.314,-5.139,-4.645,-4.464,4.82,8.291,9,-1.453,1.134,4.727,8.487,-8.038,-8.321,-1.721,1.945,,23.8,28.5,30.1,23.2,19.1,11.7,38.9,17.2,9.1,2,norm,1.527,1.414,-1.818,-1.169,-4.386,-5.267,-1.456,-1.686,-1.373,-1.988,1.868,-1.234,43.4,26.7,-5.033,-7.523,1.607,-1.321,7.689,4.503,-4.887,-7.619,16,5.12,4.951,5.097,4.481,1.95,1.614,1.283,1.232,16,5.043,4.436,60,201.797178469,norm,0,61,61,61,1931.673,1931.683,1931.70127643,1931.702,1931.704,1931.706,up,1,1.24520254432,8.75479745568,001,304,1366_768,Intel(R) Core(TM) i5-3230M CPU @ 2.60GHz,orientation_search,DESKTOP-3MLAIPL,GeForce GT 635M/PCIe/SSE2,2018_Nov_08_1318,testMonitor,
37.4,9.1,38.7,40.0,36,-30,38.8,38.2,17.4,33.0,7.896,7.878,7.599,7.59,7.658,8.446,7.723,4.613,-4.672,-8.182,1.151,-1.21,7.768,4.338,-4.753,-8.391,10.8,18.6,-7.535,49.1,28.8,39.8,24.7,29.3,36,29.5,1,5,prime,10,0,103,norm,36,-5.018,down,norm,29.0932418195,33.9,18.0,29.3,21.5,2,32.2,34.7,28.4,10,6,8.193,4.315,1.519,-1.806,-4.887,-7.919,26.3,6,132.1,-7.608,-7.581,-30,-8.006,-7.521,-4.443,-4.581,-4.36,-4.952,5.062,8.323,8,-1.329,1.229,4.535,8.231,-8.143,-7.984,-1.611,2.007,33.6,,22.1,25.0,27.1,28.4,35.8,39.4,25.2,43.4,3,norm,1.194,1.192,-1.717,-1.165,-4.717,-4.541,-2.09,-1.933,-1.198,-1.661,1.181,-1.72,29.3,33.1,-4.713,-7.64,1.788,-1.907,7.689,5.166,-4.619,-7.618,16,5.207,4.89,4.503,4.427,1.641,1.947,1.258,1.514,16,5.103,4.357,60,201.797178469,norm,0,62,62,62,1932.97,1932.98,1932.99998461,1933.0,1933.002,1933.005,down,1,1.31147955131,8.68852044869,001,304,1366_768,Intel(R) Core(TM) i5-3230M CPU @ 2.60GHz,orientation_search,DESKTOP-3MLAIPL,GeForce GT 635M/PCIe/SSE2,2018_Nov_08_1318,testMonitor,
17.1,30.1,30.3,20.4,36,-30,35.0,23.5,12.6,28.0,7.979,8.214,7.542,7.89,8.313,7.899,8.307,5.042,-4.624,-8.482,1.954,-1.994,8.038,4.813,-4.621,-7.747,39.7,31.1,-8.252,,31.0,18.0,28.6,24.0,36,31.4,5,5,prime,10,0,89,norm,36,-4.851,down,norm,29.0932418195,32.4,25.2,49.1,28.5,1,17.8,31.3,9.1,10,6,8.213,4.777,1.544,-1.151,-4.909,-8.115,24.6,6,118.1,-7.822,-7.662,-30,-7.943,-7.793,-4.951,-5.241,-4.48,-5.297,4.496,8.079,31,-1.327,1.733,4.872,8.24,-8.169,-8.402,-1.766,1.739,19.2,28.2,37.2,25.3,25.9,44.2,26.4,31.5,25.9,32.4,4,norm,1.917,1.854,-1.978,-1.657,-4.599,-4.834,-1.589,-1.73,-1.628,-1.349,1.458,-2.085,43.6,38.4,-4.869,-8.398,1.374,-1.149,8.097,5.116,-5.014,-7.959,16,4.461,5.001,4.986,4.423,2.095,1.815,1.813,1.286,16,4.378,4.498,60,201.797178469,norm,0,63,63,63,1934.336,1934.346,1934.3651119,1934.365,1934.367,1934.37,down,1,1.21181357914,8.78818642086,001,304,1366_768,Intel(R) Core(TM) i5-3230M CPU @ 2.60GHz,orientation_search,DESKTOP-3MLAIPL,GeForce GT 635M/PCIe/SSE2,2018_Nov_08_1318,testMonitor,
33.7,9.1,23.1,40.6,36,-30,49.1,18.9,38.5,16.8,8.361,8.187,7.56,8.391,7.569,8.089,7.596,4.914,-5.211,-7.873,1.483,-1.564,8.002,4.795,-5.209,-7.574,31.2,28.3,-8.249,31.5,18.4,17.2,,37.3,36,26.1,5,5,prime,10,0,61,norm,36,-4.794,down,norm,29.0932418195,46.6,47.5,20.8,37.4,2,33.4,26.7,38.5,10,6,7.645,4.77,1.63,-2.085,-4.984,-7.716,44.1,6,90.1,-8.239,-7.935,-30,-8.188,-7.544,-4.312,-5.176,-5.0,-4.503,4.745,7.56,32,-1.534,1.24,4.446,8.005,-7.648,-7.956,-1.957,1.213,33.3,23.2,25.4,31.3,23.2,27.7,34.6,30.6,34.9,36.5,5,norm,1.337,1.722,-1.227,-2.039,-4.737,-5.106,-1.772,-1.255,-1.714,-1.956,1.469,-1.983,16.3,45.2,-4.539,-7.535,1.452,-1.723,8.057,4.406,-4.949,-7.924,16,4.676,4.875,5.225,4.375,1.819,1.297,1.952,1.422,16,4.315,4.767,60,201.797178469,norm,0,64,64,64,1935.601,1935.611,1935.63025071,1935.631,1935.633,1935.636,down,1,3.59255515091,6.40744484909,001,304,1366_768,Intel(R) Core(TM) i5-3230M CPU @ 2.60GHz,orientation_search,DESKTOP-3MLAIPL,GeForce GT 635M/PCIe/SSE2,2018_Nov_08_1318,testMonitor,
70.5,86.2,83.3,86.9,36,0,71.7,78.1,77.9,80.8,8.175,8.354,8.035,8.118,7.741,7.879,8.454,4.906,-4.687,-8.2,1.926,-1.94,8.276,4.437,-4.533,-8.411,,81.0,-7.604,68.6,84.9,71.1,82.2,71.5,36,84.4,5,5,probe,5,0,78,norm,36,-4.764,up,norm,78.6032732803,77.5,74.3,79.9,78.8,5,79.6,69.8,84.0,10,6,7.945,4.371,1.856,-1.821,-5.166,-7.872,75.3,2,0.6,-8.408,-7.638,-30,-7.55,-8.072,-5.085,-5.015,-4.976,-4.658,4.688,7.624,35,-1.348,1.297,4.992,7.85,-8.261,-8.487,-1.488,1.695,76.6,80.5,73.4,79.7,82.7,80.1,84.3,83.8,87.1,88.6,0,norm,1.522,1.548,-1.285,-2.027,-4.977,-4.713,-1.291,-1.331,-1.666,-1.614,1.895,-1.793,76.4,78.1,-4.374,-8.031,1.469,-1.687,8.009,5.144,-5.217,-8.373,17,4.5,4.878,4.779,4.727,1.656,1.297,1.558,1.325,17,4.814,4.511,-30,29.0932418195,norm,0,65,65,65,1939.248,1939.257,1939.27640742,1939.277,1939.279,1939.282,up,1,3.39239938703,6.60760061297,001,304,1366_768,Intel(R) Core(TM) i5-3230M CPU @ 2.60GHz,orientation_search,DESKTOP-3MLAIPL,GeForce GT 635M/PCIe/SSE2,2018_Nov_08_1318,testMonitor,
108.3,110.8,106.4,111.8,36,0,105.3,115.4,116.0,112.4,8.117,7.927,7.545,7.83,8.399,7.73,8.282,4.363,-5.189,-7.614,1.561,-1.662,7.834,4.92,-5.219,-8.339,106.5,109.6,-7.811,109.9,,119.3,103.8,115.9,36,100.1,5,5,probe,5,0,109,norm,36,-4.972,down,norm,109.60327328,112.7,112.8,99.6,116.8,0,105.0,109.5,113.8,10,6,7.675,4.493,1.827,-1.267,-4.916,-8.206,111.1,2,0.6,-8.073,-7.594,-30,-7.817,-8.474,-4.958,-5.222,-4.43,-4.722,4.608,7.883,30,-1.216,1.597,4.394,8.075,-7.576,-7.655,-1.587,1.152,105.7,112.4,119.6,107.9,110.2,108.0,102.6,113.6,107.9,110.2,1,norm,1.537,2.038,-1.498,-1.571,-4.405,-4.657,-1.512,-1.595,-1.308,-1.739,1.753,-1.168,107.7,110.8,-4.826,-7.819,1.95,-1.751,8.104,5.284,-4.695,-7.866,17,4.974,5.048,4.586,5.226,1.583,1.91,1.712,1.422,17,5.262,5.22,-30,29.0932418195,norm,0,66,66,66,1942.693,1942.703,1942.72258007,1942.723,1942.725,1942.728,down,1,4.4748800192,5.5251199808,001,304,1366_768,Intel(R) Core(TM) i5-3230M CPU @ 2.60GHz,orientation_search,DESKTOP-3MLAIPL,GeForce GT 635M/PCIe/SSE2,2018_Nov_08_1318,testMonitor,
63.2,58.8,60.3,56.9,36,20,54.4,56.1,43.5,49.3,7.739,7.633,8.331,8.353,8.123,7.857,7.577,4.429,-4.441,-7.733,1.583,-1.464,7.717,4.906,-4.621,-7.98,68.3,51.2,-8.017,41.8,52.1,56.9,57.0,44.1,36,62.8,1,5,prime,10,0,99,norm,36,-4.325,up,norm,51.5094387761,42.4,46.1,51.0,49.4,5,,39.8,47.0,10,5,7.752,5.088,1.505,-1.69,-4.324,-8.297,51.4,5,150.5,-8.06,-8.497,20,-8.1,-7.805,-4.427,-4.457,-4.841,-4.607,4.601,8.423,11,-1.55,1.66,4.631,7.655,-7.866,-8.013,-1.425,1.322,45.4,48.3,41.9,39.9,50.8,51.1,49.6,62.8,63.7,61.0,0,norm,2.007,1.222,-1.904,-1.44,-4.596,-4.621,-1.563,-1.856,-1.631,-1.748,1.952,-1.751,38.2,71.5,-4.837,-7.92,1.552,-1.167,8.275,4.352,-5.205,-8.106,18,5.289,4.418,4.435,4.462,1.129,1.574,1.715,2.028,18,4.379,4.394,0,29.0932418195,norm,0,67,67,67,1947.222,1959.104,1959.12097633,1959.121,1959.123,1959.126,down,0,1.76118945796,-10,001,304,1366_768,Intel(R) Core(TM) i5-3230M CPU @ 2.60GHz,orientation_search,DESKTOP-3MLAIPL,GeForce GT 635M/PCIe/SSE2,2018_Nov_08_1318,testMonitor,
36.5,45.1,47.3,42.8,36,20,,64.6,60.2,49.6,8.325,7.602,7.552,8.094,8.368,8.176,8.008,4.626,-4.775,-7.877,2.023,-2.047,8.132,5.082,-4.706,-7.576,61.9,71.5,-8.395,57.9,57.2,68.3,57.6,55.8,36,50.7,4,5,prime,10,0,110,norm,36,-4.795,down,norm,51.5094387761,51.2,56.5,54.6,50.3,0,47.5,53.2,38.2,10,5,7.643,4.666,1.375,-1.176,-4.749,-7.981,35.1,5,161.5,-7.788,-7.899,20,-8.302,-7.843,-4.986,-4.462,-4.728,-4.924,5.19,8.438,24,-1.455,1.479,5.191,8.417,-8.262,-8.105,-1.803,1.549,31.5,43.2,56.4,45.7,56.0,42.9,53.1,44.9,56.7,43.3,1,norm,1.106,2.078,-1.458,-1.876,-4.323,-5.032,-1.879,-1.576,-1.962,-1.488,1.689,-1.576,53.9,59.9,-4.909,-8.369,1.593,-1.837,7.752,5.16,-5.074,-7.899,18,5.236,5.24,4.409,4.699,1.811,1.158,1.154,1.88,18,5.221,5.027,0,29.0932418195,norm,0,68,68,68,1961.919,1961.928,1961.93464431,1961.935,1961.937,1961.94,down,1,2.62690688355,7.37309311645,001,304,1366_768,Intel(R) Core(TM) i5-3230M CPU @ 2.60GHz,orientation_search,DESKTOP-3MLAIPL,GeForce GT 635M/PCIe/SSE2,2018_Nov_08_1318,testMonitor,
57.4,62.9,63.6,50.7,36,20,31.5,44.5,67.2,55.4,8.216,7.874,7.652,8.088,7.902,8.018,8.108,4.662,-5.116,-8.22,1.634,-1.622,8.462,4.681,-4.607,-8.289,40.1,63.9,-8.191,48.2,53.4,60.9,47.4,71.5,36,55.7,0,5,prime,10,0,88,norm,36,-4.806,up,norm,51.5094387761,58.6,58.5,38.7,54.0,3,48.0,53.4,54.3,10,5,8.317,5.004,1.968,-1.844,-4.693,-8.111,60.2,5,139.5,-7.73,-8.288,20,-8.246,-7.649,-5.009,-4.743,-5.189,-4.378,4.729,7.712,3,-2.073,1.463,4.955,8.297,-8.447,-8.124,-1.114,1.215,47.2,56.7,,52.1,46.8,58.4,44.3,59.9,52.6,49.1,2,norm,1.733,1.127,-1.746,-1.453,-4.884,-4.663,-1.954,-1.456,-1.88,-1.417,1.486,-1.967,48.3,38.8,-4.456,-8.369,1.903,-1.414,8.335,5.218,-4.906,-7.704,18,5.01,4.558,4.545,4.472,2.014,1.119,1.27,1.375,18,4.499,4.598,0,29.0932418195,norm,0,69,69,69,1964.582,1964.593,1964.59846952,1964.599,1964.601,1964.604,up,1,1.19483034528,8.80516965472,001,304,1366_768,Intel(R) Core(TM) i5-3230M CPU @ 2.60GHz,orientation_search,DESKTOP-3MLAIPL,GeForce GT 635M/PCIe/SSE2,2018_Nov_08_1318,testMonitor,
45.9,42.6,46.2,39.0,36,20,49.7,45.9,51.5,58.0,8.382,7.857,7.558,8.091,7.756,8.455,7.966,4.664,-4.764,-8.007,1.807,-1.418,7.751,5.057,-4.336,-7.51,49.1,39.2,-7.59,42.4,46.7,61.4,51.3,55.8,36,49.8,1,5,prime,10,0,106,norm,36,-4.873,down,norm,51.5094387761,71.5,49.7,62.9,40.6,2,56.9,50.9,53.3,10,5,8.038,4.764,1.489,-1.196,-4.563,-7.994,32.9,5,157.5,-7.857,-7.986,20,-8.104,-8.295,-4.323,-4.522,-4.473,-5.126,4.995,7.766,8,-1.273,1.705,5.069,7.784,-8.172,-7.944,-1.251,1.358,52.1,,40.8,31.5,49.3,59.5,56.7,41.2,53.0,60.0,3,norm,1.12,1.875,-2.068,-1.631,-4.419,-4.856,-2.093,-1.485,-1.107,-1.847,1.242,-1.627,42.9,48.6,-4.478,-7.694,1.699,-1.655,8.234,4.428,-4.635,-7.737,18,4.657,5.061,4.412,4.535,1.211,1.994,1.964,1.37,18,4.429,4.873,0,29.0932418195,norm,0,70,70,70,1965.814,1965.824,1965.83028964,1965.831,1965.833,1965.836,down,1,1.07849811437,8.92150188563,001,304,1366_768,Intel(R) Core(TM) i5-3230M CPU @ 2.60GHz,orientation_search,DESKTOP-3MLAIPL,GeForce GT 635M/PCIe/SSE2,2018_Nov_08_1318,testMonitor,
32.4,54.5,44.8,43.5,36,20,42.0,39.4,48.4,56.6,7.841,7.587,8.008,8.389,7.982,7.674,7.96,4.844,-4.707,-8.494,1.709,-1.528,7.564,4.483,-5.206,-7.723,53.5,36.4,-7.996,40.0,66.6,50.7,49.3,56.3,36,44.3,2,5,prime,10,0,116,norm,36,-5.022,up,norm,51.5094387761,,45.7,44.1,46.3,5,54.3,49.2,49.3,10,5,8.386,4.462,1.968,-1.564,-4.595,-8.197,53.2,5,167.5,-8.428,-8.079,20,-7.764,-8.009,-4.807,-5.22,-5.115,-4.74,4.817,7.557,17,-1.617,1.984,4.99,8.289,-7.953,-7.88,-1.353,1.932,46.7,49.8,71.5,48.1,42.6,31.5,43.3,46.7,60.2,58.3,4,norm,1.615,1.96,-1.966,-1.163,-4.708,-4.884,-1.391,-1.76,-1.544,-1.77,1.709,-1.659,49.7,53.3,-4.719,-8.308,1.81,-1.159,8.194,4.802,-5.102,-7.722,18,5.036,4.442,4.633,4.37,1.918,1.525,2.086,1.729,18,5.003,5.126,0,29.0932418195,norm,0,71,71,71,1966.93,1966.94,1966.94588449,1966.946,1966.948,1966.951,up,1,1.99408484192,8.00591515808,001,304,1366_768,Intel(R) Core(TM) i5-3230M CPU @ 2.60GHz,orientation_search,DESKTOP-3MLAIPL,GeForce GT 635M/PCIe/SSE2,2018_Nov_08_1318,testMonitor,
186.7,194.2,192.4,191.3,36,-60,190.3,192.8,181.4,180.1,7.711,7.6,8.31,7.831,8.182,7.972,8.182,5.095,-4.577,-8.136,1.322,-1.931,8.366,5.004,-4.608,-7.514,190.8,,-7.92,194.4,183.2,185.1,181.3,191.7,36,187.2,5,5,probe,5,0,117,norm,36,-5.132,up,norm,189.602652609,189.1,188.0,179.6,182.3,4,191.5,188.0,187.2,10,5,8.23,5.187,2.026,-1.678,-4.976,-8.289,199.6,1,72.6,-7.782,-7.795,20,-7.642,-8.442,-4.97,-5.127,-4.63,-5.196,4.882,8.313,34,-1.905,1.506,5.182,7.783,-8.356,-8.267,-1.172,1.62,183.4,190.6,190.5,184.6,190.7,199.5,185.5,190.8,195.3,191.0,0,norm,1.18,1.445,-1.369,-1.174,-5.062,-4.862,-1.103,-1.692,-1.404,-1.425,1.552,-1.124,181.8,190.2,-5.251,-7.761,1.145,-1.463,8.26,4.919,-4.352,-7.844,19,4.944,4.539,4.724,4.317,1.291,1.997,1.419,1.884,19,4.305,4.497,20,51.5094387761,norm,0,72,72,72,1968.961,1968.972,1968.97694569,1968.977,1968.98,1968.983,up,1,3.54212650424,6.45787349576,001,304,1366_768,Intel(R) Core(TM) i5-3230M CPU @ 2.60GHz,orientation_search,DESKTOP-3MLAIPL,GeForce GT 635M/PCIe/SSE2,2018_Nov_08_1318,testMonitor,
268.6,289.3,287.0,278.0,36,-40,279.6,278.5,,296.7,8.5,8.316,8.256,8.47,7.544,8.155,7.646,4.875,-4.733,-8.193,1.328,-1.596,7.589,5.116,-5.179,-7.574,295.2,293.5,-7.873,281.0,284.1,285.0,290.1,287.8,36,288.1,4,5,prime,10,0,101,norm,36,-5.295,up,norm,288.611183407,282.2,273.9,308.6,296.9,4,285.9,283.5,303.3,10,5,8.149,4.441,1.59,-1.561,-5.182,-7.725,291.7,5,389.6,-7.672,-8.274,-40,-7.863,-7.781,-4.616,-5.239,-4.963,-4.731,4.574,7.668,28,-1.837,1.825,4.955,7.662,-8.283,-7.601,-1.418,1.828,306.8,287.3,280.5,291.9,290.9,293.1,291.9,287.7,285.1,276.7,0,norm,1.161,1.375,-1.934,-1.915,-5.277,-4.555,-1.929,-1.169,-1.186,-1.818,1.393,-1.319,270.4,281.7,-4.729,-7.604,1.309,-1.805,8.384,4.964,-4.658,-7.688,20,4.996,5.003,5.002,4.814,1.206,2.018,1.279,1.553,20,4.491,5.002,-60,51.5094387761,norm,0,73,73,73,1972.541,1972.552,1972.5563813,1972.557,1972.559,1972.562,down,0,2.65985768882,-10,001,304,1366_768,Intel(R) Core(TM) i5-3230M CPU @ 2.60GHz,orientation_search,DESKTOP-3MLAIPL,GeForce GT 635M/PCIe/SSE2,2018_Nov_08_1318,testMonitor,
,284.3,293.7,284.9,36,-40,300.7,279.2,287.9,302.5,8.101,7.614,7.527,7.813,7.507,7.849,7.691,4.939,-4.379,-7.952,1.223,-1.469,7.949,5.102,-4.715,-7.75,289.2,300.4,-7.869,291.0,295.2,293.9,300.3,280.8,36,289.0,3,5,prime,10,0,63,norm,36,-4.955,up,norm,288.611183407,286.8,278.0,287.7,306.3,4,284.4,286.2,296.6,10,5,8.132,5.252,1.265,-1.11,-4.326,-7.609,295.4,5,351.6,-7.588,-8.476,-40,-7.917,-8.078,-4.402,-4.381,-4.307,-5.014,4.403,8.188,22,-1.756,1.464,5.106,8.22,-8.407,-8.255,-1.408,1.124,295.7,280.8,295.9,285.3,281.7,279.5,301.9,308.6,303.2,287.0,1,norm,1.892,1.123,-1.435,-1.334,-4.831,-4.682,-1.845,-1.127,-1.104,-1.904,1.919,-1.544,278.4,268.6,-4.893,-7.512,1.515,-1.492,7.651,4.395,-5.252,-8.069,20,4.857,4.923,4.32,4.832,1.585,1.387,1.33,1.995,20,5.117,5.005,-60,51.5094387761,norm,0,74,74,74,1976.27,1976.28,1976.28569799,1976.286,1976.288,1976.291,up,1,0.0795950929169,9.92040490708,001,304,1366_768,Intel(R) Core(TM) i5-3230M CPU @ 2.60GHz,orientation_search,DESKTOP-3MLAIPL,GeForce GT 635M/PCIe/SSE2,2018_Nov_08_1318,testMonitor,
282.1,306.4,288.0,,36,-40,288.4,268.6,298.6,291.4,8.416,7.895,7.705,7.881,7.7,7.579,7.537,4.302,-4.435,-8.075,2.012,-1.792,7.516,5.178,-4.62,-8.438,282.4,274.7,-7.959,308.6,277.8,283.7,292.6,278.0,36,294.2,3,5,prime,10,0,117,norm,36,-4.433,up,norm,288.611183407,280.2,307.2,289.3,289.3,3,280.8,293.0,307.0,10,5,7.662,4.659,2.068,-1.373,-4.923,-7.595,287.6,5,405.6,-7.719,-8.326,-40,-8.245,-7.794,-4.647,-4.335,-4.419,-4.971,4.305,7.727,21,-1.635,2.082,4.729,8.189,-7.725,-8.058,-1.508,1.325,278.2,289.6,294.9,271.5,293.8,293.6,290.8,293.6,299.7,272.2,2,norm,1.681,1.741,-1.862,-1.822,-5.128,-5.17,-1.956,-1.922,-1.685,-1.367,1.363,-1.547,281.9,277.1,-5.276,-7.881,2.012,-1.412,7.966,4.434,-4.336,-8.133,20,4.71,4.803,5.094,4.786,1.909,1.734,1.478,1.25,20,4.606,4.346,-60,51.5094387761,norm,0,75,75,75,1976.387,1976.397,1976.40261364,1976.403,1976.405,1976.408,up,1,1.4273688856,8.5726311144,001,304,1366_768,Intel(R) Core(TM) i5-3230M CPU @ 2.60GHz,orientation_search,DESKTOP-3MLAIPL,GeForce GT 635M/PCIe/SSE2,2018_Nov_08_1318,testMonitor,
287.3,281.5,287.0,290.0,36,-40,297.0,,308.6,293.3,8.071,8.379,7.801,7.775,7.87,8.21,7.728,5.08,-4.99,-7.519,1.269,-1.987,8.382,4.601,-4.916,-8.314,306.0,283.4,-8.465,280.7,295.9,285.7,286.8,277.1,36,281.6,4,5,prime,10,0,90,norm,36,-4.915,down,norm,288.611183407,298.2,279.9,275.7,268.6,1,277.8,273.7,278.6,10,5,8.33,5.126,1.549,-1.618,-5.252,-7.64,288.9,5,378.6,-7.947,-7.683,-40,-7.647,-8.177,-5.12,-4.495,-5.135,-4.886,4.671,7.834,25,-1.535,1.383,4.807,7.623,-8.291,-8.332,-1.4,1.137,293.8,269.3,283.9,302.4,270.2,287.8,292.7,275.3,273.8,294.1,3,norm,1.916,1.89,-1.176,-1.961,-4.633,-5.172,-1.53,-1.143,-1.281,-2.03,2.043,-1.927,269.3,305.7,-4.545,-7.977,1.896,-1.467,7.661,4.729,-4.343,-8.217,20,5.191,5.095,4.47,4.777,2.024,1.78,1.101,1.58,20,4.565,4.403,-60,51.5094387761,norm,0,76,76,76,1977.852,1977.862,1977.86731967,1977.868,1977.87,1977.873,down,1,1.32831396878,8.67168603122,001,304,1366_768,Intel(R) Core(TM) i5-3230M CPU @ 2.60GHz,orientation_search,DESKTOP-3MLAIPL,GeForce GT 635M/PCIe/SSE2,2018_Nov_08_1318,testMonitor,
290.3,300.8,290.5,286.3,36,-40,275.6,286.3,303.6,293.9,8.174,7.707,8.301,8.3,8.051,7.556,7.732,5.199,-4.663,-8.099,1.351,-1.429,7.974,4.342,-4.456,-8.015,287.6,296.4,-8.247,268.6,275.3,273.9,284.2,288.5,36,278.1,1,5,prime,10,0,65,norm,36,-4.705,up,norm,288.611183407,302.1,287.0,304.3,293.1,3,293.5,293.1,281.7,10,5,8.326,5.29,2.04,-1.381,-5.184,-8.175,301.5,5,353.6,-8.165,-8.283,-40,-8.152,-7.777,-5.252,-5.14,-5.154,-4.637,4.757,7.535,9,-1.251,1.288,5.022,8.322,-7.637,-8.397,-1.189,1.526,,286.0,282.6,294.6,308.6,301.1,287.3,291.3,293.5,288.0,4,norm,1.607,1.799,-2.085,-1.301,-4.719,-4.731,-1.505,-1.343,-1.644,-1.885,1.895,-1.733,274.6,278.0,-4.32,-7.597,2.02,-1.322,7.929,4.879,-4.369,-8.22,20,4.778,5.206,4.475,4.383,1.407,1.165,1.922,1.737,20,4.727,4.834,-60,51.5094387761,norm,0,77,77,77,1979.217,1979.227,1979.23315196,1979.233,1979.236,1979.238,up,1,0.878211297269,9.12178870273,001,304,1366_768,Intel(R) Core(TM) i5-3230M CPU @ 2.60GHz,orientation_search,DESKTOP-3MLAIPL,GeForce GT 635M/PCIe/SSE2,2018_Nov_08_1318,testMonitor,
324.4,307.3,304.8,317.1,36,60,316.3,322.4,304.4,318.0,7.913,7.908,8.091,8.0,8.37,8.1,7.57,4.571,-4.778,-8.322,1.639,-1.695,7.977,4.305,-4.972,-8.113,314.0,,-7.545,318.1,317.2,312.5,307.1,318.6,36,312.2,5,5,probe,5,0,63,norm,36,-5.199,up,norm,314.377965067,311.5,310.4,310.7,320.8,4,306.0,324.3,313.3,10,5,8.462,4.866,2.014,-1.136,-5.135,-8.441,321.3,1,251.4,-7.655,-8.433,-40,-8.136,-7.661,-4.468,-4.93,-4.359,-4.99,4.686,8.296,34,-1.679,1.873,5.104,8.186,-8.293,-8.312,-1.924,1.208,319.1,308.1,311.4,306.3,310.7,316.9,318.5,320.8,316.8,315.0,0,norm,1.718,1.273,-1.1,-1.507,-4.734,-4.328,-1.395,-1.301,-2.06,-1.206,1.492,-1.16,315.6,316.5,-4.549,-8.235,1.332,-1.779,7.929,4.664,-4.672,-8.431,21,4.925,5.003,4.975,5.12,1.33,1.776,1.661,1.8,21,4.735,4.685,-40,288.611183407,norm,0,78,78,78,1980.134,1980.146,1980.16507298,1980.165,1980.167,1980.17,up,1,1.69463929185,8.30536070815,001,304,1366_768,Intel(R) Core(TM) i5-3230M CPU @ 2.60GHz,orientation_search,DESKTOP-3MLAIPL,GeForce GT 635M/PCIe/SSE2,2018_Nov_08_1318,testMonitor,
137.4,149.7,141.5,142.9,36,-10,151.0,137.0,136.8,124.5,8.464,7.98,7.83,8.029,8.47,8.396,7.773,4.711,-4.721,-7.978,1.444,-1.189,8.289,4.451,-4.694,-8.187,134.7,160.6,-7.96,133.4,159.0,151.6,134.5,136.7,36,134.0,2,5,prime,10,0,115,norm,36,-4.366,up,norm,144.497084049,146.9,142.6,,147.2,3,131.3,156.3,137.3,10,5,7.79,5.058,1.624,-1.711,-4.93,-8.304,128.7,5,259.5,-7.688,-8.368,-10,-8.481,-7.672,-4.919,-5.053,-5.069,-4.614,4.795,7.778,15,-1.842,1.942,4.374,8.149,-8.389,-8.465,-1.334,1.218,145.5,149.5,147.9,156.7,164.5,151.4,148.7,147.8,130.1,142.0,0,norm,1.293,2.059,-1.626,-1.637,-4.316,-5.211,-1.479,-1.146,-1.714,-1.595,1.863,-1.616,132.3,160.3,-5.112,-7.814,1.861,-1.563,8.386,4.951,-4.451,-7.745,22,4.565,5.016,4.887,4.392,1.867,1.546,1.24,2.088,22,4.947,5.027,60,288.611183407,norm,0,79,79,79,1981.881,1981.892,1981.8978006,1981.898,1981.9,1981.903,up,1,1.64342669427,8.35657330573,001,304,1366_768,Intel(R) Core(TM) i5-3230M CPU @ 2.60GHz,orientation_search,DESKTOP-3MLAIPL,GeForce GT 635M/PCIe/SSE2,2018_Nov_08_1318,testMonitor,
124.5,126.1,153.2,141.9,36,-10,135.5,138.6,141.7,134.0,7.597,7.948,7.746,7.606,8.29,8.128,7.864,4.453,-4.996,-7.891,1.267,-1.283,7.904,5.035,-4.896,-7.708,145.5,135.4,-8.086,134.4,155.2,127.1,145.7,148.9,36,162.4,0,5,prime,10,0,97,norm,36,-4.472,down,norm,144.497084049,134.0,150.5,139.8,141.4,1,138.9,152.3,150.0,10,5,8.355,5.185,1.445,-1.851,-4.837,-8.29,140.4,5,241.5,-8.384,-7.519,-10,-8.441,-8.157,-5.081,-4.997,-5.133,-5.176,5.217,8.411,1,-1.418,1.391,4.355,8.221,-8.245,-7.989,-1.133,1.305,150.3,164.5,144.3,153.9,,139.8,136.0,151.4,129.9,159.1,1,norm,1.503,1.439,-1.136,-1.651,-5.198,-4.58,-1.295,-1.595,-1.103,-1.614,1.6,-1.128,142.9,140.7,-5.213,-8.335,1.562,-1.545,7.727,4.595,-4.661,-8.013,22,4.322,5.11,4.97,4.538,1.143,1.412,1.73,1.97,22,5.005,5.076,60,288.611183407,norm,0,80,80,80,1983.563,1983.573,1983.57894456,1983.579,1983.581,1983.584,down,1,1.42710125283,8.57289874717,001,304,1366_768,Intel(R) Core(TM) i5-3230M CPU @ 2.60GHz,orientation_search,DESKTOP-3MLAIPL,GeForce GT 635M/PCIe/SSE2,2018_Nov_08_1318,testMonitor,
152.1,142.5,153.7,162.2,36,-10,137.6,131.0,,133.0,7.802,8.431,8.465,8.457,7.766,8.439,7.923,4.472,-4.973,-7.842,1.284,-1.304,7.819,4.505,-5.08,-7.861,145.8,153.5,-7.511,154.4,142.7,150.8,143.5,138.5,36,140.2,4,5,prime,10,0,102,norm,36,-5.186,up,norm,144.497084049,124.5,134.9,143.2,127.8,4,152.0,144.8,146.9,10,5,8.281,4.425,1.607,-1.567,-5.296,-7.617,137.3,5,246.5,-8.214,-8.313,-10,-7.594,-8.238,-4.424,-4.413,-5.214,-5.265,4.383,7.609,28,-2.075,1.359,4.446,7.943,-8.133,-7.583,-2.073,1.632,142.4,140.7,140.4,152.1,164.5,141.0,150.8,156.4,149.5,130.9,2,norm,1.855,1.21,-1.805,-1.542,-5.094,-4.365,-2.024,-1.101,-1.899,-2.021,1.609,-1.876,135.8,138.9,-5.102,-8.47,1.642,-1.217,7.604,5.195,-4.708,-7.64,22,4.479,4.764,4.6,4.348,1.214,1.852,1.225,1.79,22,4.838,4.664,60,288.611183407,norm,0,81,81,81,1985.027,1985.101,1985.10982773,1985.11,1985.112,1985.115,up,1,1.19482284522,8.80517715478,001,304,1366_768,Intel(R) Core(TM) i5-3230M CPU @ 2.60GHz,orientation_search,DESKTOP-3MLAIPL,GeForce GT 635M/PCIe/SSE2,2018_Nov_08_1318,testMonitor,
152.0,143.6,133.9,137.0,36,-10,144.1,150.0,159.9,141.1,7.855,7.963,7.704,8.376,7.904,8.273,7.585,5.285,-4.982,-7.817,1.994,-1.981,8.102,4.408,-4.381,-8.427,148.4,128.8,-8.2,152.6,126.2,156.2,,136.3,36,151.0,5,5,prime,10,0,103,norm,36,-4.392,down,norm,144.497084049,124.5,148.0,133.5,136.6,2,143.0,144.1,128.8,10,5,8.445,4.981,1.241,-1.445,-5.3,-7.888,139.1,5,247.5,-8.473,-8.109,-10,-7.658,-7.606,-5.198,-5.279,-4.573,-5.129,4.906,8.005,32,-1.998,1.251,4.358,8.073,-7.653,-8.164,-1.267,1.868,157.9,157.6,150.3,134.7,164.5,133.4,140.9,141.1,145.7,158.7,3,norm,1.959,1.198,-1.249,-1.671,-5.277,-5.104,-1.513,-1.55,-1.252,-1.794,1.778,-1.13,149.8,133.3,-4.979,-7.8,1.847,-1.388,7.833,4.434,-4.73,-8.391,22,4.372,5.043,5.198,5.022,1.479,1.852,1.88,1.283,22,5.148,4.899,60,288.611183407,norm,0,82,82,82,1986.327,1986.337,1986.34418009,1986.344,1986.347,1986.349,down,1,4.05611998792,5.94388001208,001,304,1366_768,Intel(R) Core(TM) i5-3230M CPU @ 2.60GHz,orientation_search,DESKTOP-3MLAIPL,GeForce GT 635M/PCIe/SSE2,2018_Nov_08_1318,testMonitor,
135.8,145.7,158.0,164.5,36,-10,148.0,137.9,,146.6,7.771,8.494,7.827,8.101,7.747,7.577,7.65,5.002,-4.376,-8.369,1.435,-1.363,8.176,4.828,-4.301,-8.176,136.1,149.7,-7.689,150.5,133.8,154.0,139.2,142.1,36,143.0,4,5,prime,10,0,77,norm,36,-4.368,up,norm,144.497084049,146.5,142.5,142.5,149.0,4,146.3,145.9,158.7,10,5,7.779,5.275,1.466,-1.121,-4.81,-7.937,146.6,5,221.5,-8.488,-7.97,-10,-8.391,-8.435,-4.76,-4.505,-4.654,-4.588,5.032,7.524,28,-1.868,1.566,5.098,7.622,-7.894,-8.222,-1.304,1.378,132.7,145.0,137.1,139.4,149.2,149.5,133.3,163.4,144.6,135.3,4,norm,2.095,1.799,-2.084,-2.097,-4.414,-4.82,-1.224,-1.435,-1.161,-1.214,1.157,-1.353,124.5,158.5,-4.699,-7.792,1.573,-2.084,7.787,4.916,-5.086,-7.915,22,4.316,4.459,4.562,4.717,1.931,1.972,1.488,1.764,22,4.526,4.942,60,288.611183407,norm,0,83,83,83,1990.438,1990.448,1990.45544348,1990.456,1990.458,1990.461,up,1,2.02611669578,7.97388330422,001,304,1366_768,Intel(R) Core(TM) i5-3230M CPU @ 2.60GHz,orientation_search,DESKTOP-3MLAIPL,GeForce GT 635M/PCIe/SSE2,2018_Nov_08_1318,testMonitor,
209.6,219.7,216.6,223.8,36,10,223.0,218.9,218.1,218.4,8.048,7.846,8.101,7.928,7.908,7.611,7.544,4.38,-4.373,-7.771,1.395,-1.915,8.446,5.021,-4.678,-7.739,,224.1,-8.303,213.0,212.1,218.3,228.3,212.5,36,221.1,5,5,probe,5,0,83,norm,36,-4.536,up,norm,218.267193696,213.2,216.6,213.6,220.8,5,220.0,211.3,209.4,10,5,8.419,5.059,1.513,-1.159,-4.772,-8.231,219.8,1,135.3,-8.322,-7.938,-10,-7.786,-8.355,-4.86,-4.75,-4.841,-4.745,4.574,8.151,35,-1.638,1.212,5.27,7.58,-8.006,-7.644,-1.75,1.675,217.5,217.8,213.5,217.2,216.5,227.9,208.3,218.0,215.1,221.5,0,norm,1.621,1.471,-1.642,-1.326,-4.841,-5.2,-1.776,-1.966,-1.565,-2.077,1.851,-1.904,214.7,219.5,-5.014,-8.315,1.63,-1.789,7.907,5.12,-5.19,-7.604,23,5.142,4.917,4.791,4.568,1.532,1.155,1.771,1.334,23,5.256,4.435,-10,144.497084049,norm,0,84,84,84,1992.504,1992.513,1992.52085325,1992.521,1992.523,1992.526,up,1,1.94160039665,8.05839960335,001,304,1366_768,Intel(R) Core(TM) i5-3230M CPU @ 2.60GHz,orientation_search,DESKTOP-3MLAIPL,GeForce GT 635M/PCIe/SSE2,2018_Nov_08_1318,testMonitor,
220.4,225.1,218.0,227.3,36,-20,202.3,,222.6,216.1,8.092,8.435,7.858,7.603,8.341,7.622,7.997,4.925,-4.303,-7.741,1.448,-1.517,8.326,5.101,-5.151,-8.445,207.2,207.9,-7.816,203.3,208.8,216.5,210.4,203.6,36,209.7,4,5,prime,10,0,111,norm,36,-5.226,down,norm,215.3987063,198.4,213.5,195.4,202.2,1,220.7,223.0,221.1,10,5,7.725,4.763,1.973,-1.951,-4.972,-8.114,230.1,5,326.4,-8.146,-8.102,-20,-7.714,-8.216,-4.73,-5.019,-4.498,-4.639,4.766,7.859,25,-1.876,1.933,5.275,8.063,-7.871,-7.936,-2.061,1.452,200.7,208.7,200.1,197.4,206.6,201.6,235.4,214.2,219.0,222.3,0,norm,1.515,1.256,-1.598,-1.133,-5.153,-5.162,-1.203,-1.6,-1.995,-1.999,1.156,-1.792,209.6,225.3,-5.182,-8.121,1.523,-1.704,7.826,4.694,-4.444,-8.074,24,4.887,4.705,5.105,4.482,1.249,1.361,1.635,2.02,24,5.172,4.581,10,144.497084049,norm,0,85,85,85,1994.485,1994.495,1994.5017783,1994.502,1994.504,1994.507,down,1,1.50919385691,8.49080614309,001,304,1366_768,Intel(R) Core(TM) i5-3230M CPU @ 2.60GHz,orientation_search,DESKTOP-3MLAIPL,GeForce GT 635M/PCIe/SSE2,2018_Nov_08_1318,testMonitor,
211.5,219.2,229.9,210.3,36,-20,216.4,225.8,202.6,227.3,7.701,8.242,7.731,8.014,7.597,8.126,7.851,5.234,-4.539,-7.648,1.617,-1.727,8.276,4.534,-4.781,-8.074,221.1,215.9,-8.066,221.0,219.3,217.3,219.2,,36,210.8,4,5,prime,10,0,95,norm,36,-5.022,down,norm,215.3987063,207.2,226.0,230.7,229.5,2,209.2,220.5,221.0,10,5,7.881,4.444,1.974,-1.28,-4.541,-7.901,235.4,5,310.4,-7.804,-7.938,-20,-8.106,-7.933,-4.314,-4.451,-4.399,-4.823,5.184,7.979,26,-1.769,1.183,4.678,7.523,-7.563,-7.878,-1.954,1.579,222.4,218.4,219.9,210.1,232.6,219.5,227.8,219.6,200.4,210.2,1,norm,1.226,1.379,-1.744,-1.894,-4.683,-4.566,-1.154,-1.601,-2.062,-1.569,1.981,-2.055,207.3,195.4,-4.807,-7.963,1.931,-1.915,8.21,5.294,-5.104,-7.539,24,4.739,4.372,5.068,4.392,2.032,1.557,2.075,1.703,24,5.044,5.117,10,144.497084049,norm,0,86,86,86,1996.034,1996.044,1996.06439568,1996.065,1996.067,1996.07,up,0,1.11209826462,-10,001,304,1366_768,Intel(R) Core(TM) i5-3230M CPU @ 2.60GHz,orientation_search,DESKTOP-3MLAIPL,GeForce GT 635M/PCIe/SSE2,2018_Nov_08_1318,testMonitor,
225.0,217.0,207.2,222.6,36,-20,233.1,235.4,227.9,224.4,7.72,8.124,8.116,8.277,8.456,7.871,7.886,5.203,-4.798,-7.653,1.772,-1.489,8.001,4.747,-4.765,-7.518,228.2,209.2,-8.316,206.9,,198.5,214.4,208.5,36,223.3,5,5,prime,10,0,113,norm,36,-4.73,down,norm,215.3987063,207.5,217.3,212.4,216.7,0,195.4,207.1,203.1,10,5,7.651,4.493,1.791,-1.131,-5.247,-7.538,209.1,5,328.4,-7.532,-8.127,-20,-7.662,-7.63,-4.345,-4.469,-4.55,-4.372,4.747,8.043,30,-1.263,1.18,4.906,7.579,-7.971,-7.709,-1.347,1.67,208.2,210.6,232.7,224.2,225.3,212.2,209.3,209.2,234.5,211.4,2,norm,1.681,1.326,-1.598,-1.533,-5.227,-5.208,-1.965,-1.466,-1.707,-2.092,1.166,-1.156,203.2,198.2,-5.152,-7.766,1.348,-1.209,8.423,5.174,-4.586,-7.62,24,4.44,5.081,5.212,4.32,2.068,1.847,1.407,1.98,24,4.833,4.938,10,144.497084049,norm,0,87,87,87,1998.215,1998.225,1998.24533518,1998.246,1998.248,1998.25,down,1,1.12863307545,8.87136692455,001,304,1366_768,Intel(R) Core(TM) i5-3230M CPU @ 2.60GHz,orientation_search,DESKTOP-3MLAIPL,GeForce GT 635M/PCIe/SSE2,2018_Nov_08_1318,testMonitor,
225.3,,197.4,213.8,36,-20,199.8,203.7,211.9,219.5,7.502,8.301,8.148,7.51,8.189,8.254,8.085,4.306,-4.467,-8.056,1.665,-1.427,7.885,4.762,-4.745,-8.045,204.1,196.1,-7.74,223.1,233.7,215.2,203.7,212.3,36,208.7,3,5,prime,10,0,101,norm,36,-4.693,up,norm,215.3987063,202.7,213.0,227.7,223.2,5,210.7,215.7,220.9,10,5,7.824,4.892,1.3,-1.269,-5.098,-7.932,212.3,5,316.4,-8.118,-8.12,-20,-7.513,-7.786,-4.531,-5.19,-4.615,-4.982,4.361,7.837,23,-1.612,1.995,5.243,8.194,-7.683,-7.921,-1.491,1.453,222.9,235.4,220.3,220.3,209.4,208.3,202.9,195.4,206.9,226.0,3,norm,2.009,1.518,-1.596,-1.834,-4.335,-5.242,-1.292,-1.189,-1.631,-1.895,1.254,-1.42,210.5,199.6,-5.185,-7.642,2.018,-1.786,8.264,4.781,-4.655,-8.407,24,5.113,4.806,4.948,4.733,1.632,2.0,1.818,1.748,24,4.589,4.784,10,144.497084049,norm,0,88,88,88,1999.397,1999.407,1999.41426633,1999.415,1999.417,1999.419,up,1,0.925200586382,9.07479941362,001,304,1366_768,Intel(R) Core(TM) i5-3230M CPU @ 2.60GHz,orientation_search,DESKTOP-3MLAIPL,GeForce GT 635M/PCIe/SSE2,2018_Nov_08_1318,testMonitor,
224.2,226.4,221.1,235.4,36,-20,212.4,217.2,211.9,224.5,8.11,8.283,7.691,7.953,7.749,8.223,8.259,5.157,-4.585,-8.464,1.306,-1.797,8.172,5.031,-5.265,-7.743,221.0,200.6,-7.876,221.6,225.3,227.6,221.0,220.6,36,206.7,2,5,prime,10,0,119,norm,36,-4.917,up,norm,215.3987063,206.2,223.9,,222.2,3,195.4,223.2,220.8,10,5,7.705,5.061,1.15,-1.932,-4.528,-7.92,212.0,5,334.4,-7.98,-7.961,-20,-8.264,-8.257,-4.496,-4.713,-5.083,-4.761,4.732,8.4,15,-1.243,1.892,4.366,8.27,-8.143,-7.906,-1.721,1.697,213.1,219.2,204.2,221.1,220.8,198.1,201.8,201.5,218.6,208.6,4,norm,1.573,1.424,-1.882,-1.916,-4.777,-5.24,-1.199,-1.142,-1.727,-1.815,1.66,-1.767,204.7,206.4,-4.35,-7.912,1.947,-1.377,8.004,5.201,-4.978,-8.207,24,4.481,4.62,4.964,4.759,1.175,1.741,1.4,2.047,24,4.785,5.132,10,144.497084049,norm,0,89,89,89,2000.362,2000.372,2000.37989407,2000.38,2000.382,2000.385,up,1,1.35786646942,8.64213353058,001,304,1366_768,Intel(R) Core(TM) i5-3230M CPU @ 2.60GHz,orientation_search,DESKTOP-3MLAIPL,GeForce GT 635M/PCIe/SSE2,2018_Nov_08_1318,testMonitor,
296.8,301.4,306.6,308.2,36,80,297.9,296.0,303.8,298.5,7.916,8.308,7.688,8.267,8.412,8.218,7.878,4.668,-4.599,-7.915,1.548,-1.924,8.219,5.036,-4.646,-7.803,307.5,303.3,-7.675,300.9,296.3,297.2,293.4,,36,312.0,4,5,probe,5,0,109,norm,36,-5.001,down,norm,301.951867655,299.5,302.1,299.9,305.8,2,293.6,310.3,302.7,10,5,7.645,4.608,1.977,-2.093,-4.312,-7.635,297.5,2,193.0,-7.996,-8.414,-20,-8.366,-8.234,-5.29,-4.866,-4.636,-4.636,4.466,8.443,26,-1.763,1.343,4.883,7.944,-8.145,-8.312,-1.986,1.452,308.7,302.2,300.3,301.9,300.4,298.9,296.0,304.4,304.6,302.1,0,norm,1.806,1.564,-1.972,-2.024,-4.811,-5.268,-1.81,-1.407,-1.484,-1.386,1.563,-1.249,301.3,292.0,-4.692,-7.976,1.816,-1.598,8.226,4.747,-4.975,-7.643,25,4.697,5.106,4.347,5.194,1.245,1.414,2.013,2.092,25,4.564,4.963,-20,215.3987063,norm,0,90,90,90,2001.76,2001.77,2001.77788137,2001.778,2001.781,2001.783,down,1,1.95776375843,8.04223624157,001,304,1366_768,Intel(R) Core(TM) i5-3230M CPU @ 2.60GHz,orientation_search,DESKTOP-3MLAIPL,GeForce GT 635M/PCIe/SSE2,2018_Nov_08_1318,testMonitor,
263.7,255.0,273.2,260.6,36,80,264.7,263.9,259.5,266.0,8.344,8.184,7.571,8.367,8.001,8.492,8.066,4.419,-4.852,-7.94,1.553,-1.599,8.19,5.135,-4.871,-7.753,263.3,267.1,-7.594,256.3,268.2,259.6,263.3,264.7,36,268.4,2,5,probe,5,0,72,norm,36,-5.149,up,norm,264.951867655,265.2,,268.3,258.3,4,265.2,265.8,267.2,10,5,8.457,5.085,1.835,-1.137,-4.876,-7.598,264.7,2,193.0,-8.331,-7.974,-20,-7.796,-8.35,-5.194,-4.392,-4.916,-4.303,4.735,8.432,16,-1.228,1.557,5.077,8.458,-8.481,-8.308,-1.217,1.172,262.0,262.1,258.6,271.6,266.3,262.1,256.4,262.5,275.0,271.7,1,norm,1.166,1.782,-1.131,-1.828,-4.482,-4.949,-1.806,-1.572,-1.213,-1.642,1.757,-1.607,262.9,264.3,-4.948,-7.947,1.989,-1.503,8.153,4.65,-4.468,-7.739,25,4.967,4.975,4.966,5.024,2.096,2.023,1.987,1.666,25,4.769,5.181,-20,215.3987063,norm,0,91,91,91,2003.759,2003.769,2003.78952143,2003.79,2003.792,2003.795,up,1,1.46113166818,8.53886833182,001,304,1366_768,Intel(R) Core(TM) i5-3230M CPU @ 2.60GHz,orientation_search,DESKTOP-3MLAIPL,GeForce GT 635M/PCIe/SSE2,2018_Nov_08_1318,testMonitor,
,75.6,63.7,74.0,36,80,98.8,68.0,67.0,84.6,8.052,8.055,7.914,8.079,7.618,7.873,7.991,4.329,-4.894,-8.1,1.309,-1.952,8.051,5.213,-4.62,-7.654,72.6,76.8,-7.88,74.2,75.0,89.8,84.7,69.3,36,77.0,3,5,prime,10,0,109,norm,36,-5.117,up,norm,78.7733167159,72.4,63.7,85.2,69.9,4,77.3,86.3,71.3,10,6,7.705,5.137,2.045,-1.738,-5.229,-8.404,68.3,6,187.8,-8.353,-8.374,80,-7.994,-8.25,-4.899,-4.688,-5.202,-4.981,5.155,7.75,22,-1.384,1.828,5.167,7.842,-8.072,-8.206,-1.233,1.657,82.1,87.1,74.5,65.4,71.5,80.8,58.8,75.1,84.2,71.6,0,norm,1.958,2.037,-1.613,-1.111,-4.76,-5.151,-1.559,-1.62,-1.879,-1.73,1.582,-1.61,68.6,78.5,-5.093,-7.801,1.438,-1.7,7.898,4.501,-4.566,-7.644,26,4.551,4.977,4.379,4.936,1.528,1.555,1.668,1.865,26,5.137,4.357,80,215.3987063,norm,0,92,92,92,2005.273,2005.283,2005.28972274,2005.29,2005.292,2005.295,down,0,1.04251216387,-10,001,304,1366_768,Intel(R) Core(TM) i5-3230M CPU @ 2.60GHz,orientation_search,DESKTOP-3MLAIPL,GeForce GT 635M/PCIe/SSE2,2018_Nov_08_1318,testMonitor,
98.8,79.3,92.5,96.8,36,80,87.6,78.6,83.0,80.7,8.032,7.739,8.499,8.278,7.537,7.797,8.084,5.165,-5.176,-8.223,1.276,-1.403,8.438,5.071,-5.271,-7.515,69.1,90.9,-8.483,81.9,75.6,77.7,61.5,78.9,36,63.4,1,5,prime,10,0,86,norm,36,-5.287,up,norm,78.7733167159,83.3,86.7,78.5,85.5,3,62.3,79.4,83.8,10,6,8.326,5.112,1.17,-1.43,-4.386,-8.343,65.6,6,164.8,-8.096,-7.761,80,-7.691,-8.228,-4.774,-5.079,-4.9,-4.765,4.625,8.066,9,-1.819,1.957,4.626,7.55,-8.204,-8.347,-2.029,1.319,,81.0,80.3,68.2,63.8,79.6,78.5,90.6,71.2,89.4,1,norm,1.697,1.959,-1.58,-1.984,-5.17,-4.389,-1.239,-1.123,-1.892,-1.563,1.109,-2.035,58.8,59.0,-4.321,-8.216,1.593,-1.747,7.795,4.539,-5.112,-8.081,26,4.593,4.705,4.691,4.748,1.282,1.88,1.812,1.855,26,5.094,5.006,80,215.3987063,norm,0,93,93,93,2007.373,2007.383,2007.40214075,2007.402,2007.404,2007.407,up,1,1.76134064287,8.23865935713,001,304,1366_768,Intel(R) Core(TM) i5-3230M CPU @ 2.60GHz,orientation_search,DESKTOP-3MLAIPL,GeForce GT 635M/PCIe/SSE2,2018_Nov_08_1318,testMonitor,
79.5,70.4,90.6,89.1,36,80,75.3,84.9,88.6,68.7,8.071,8.116,8.48,7.722,8.276,7.591,7.662,5.089,-4.628,-8.425,1.716,-1.256,7.951,4.691,-5.225,-7.991,64.8,90.2,-8.01,61.3,73.6,74.1,83.5,98.8,36,80.6,0,5,prime,10,0,74,norm,36,-4.862,up,norm,78.7733167159,58.8,64.5,65.0,84.5,3,80.5,73.5,82.6,10,6,8.157,4.456,2.032,-1.676,-5.137,-7.792,85.0,6,152.8,-8.446,-7.586,80,-8.358,-8.487,-4.748,-5.243,-5.0,-5.033,4.675,7.512,3,-1.1,1.788,5.181,7.723,-7.592,-7.786,-1.538,1.812,88.8,83.1,,79.7,81.0,76.4,74.9,74.3,77.9,74.9,2,norm,1.161,1.413,-1.362,-1.326,-4.893,-4.465,-2.041,-1.894,-1.299,-1.691,2.024,-1.871,84.0,73.1,-5.123,-8.116,1.343,-1.184,8.318,5.189,-4.41,-8.087,26,4.846,4.673,4.908,4.708,1.935,1.851,1.249,1.954,26,4.623,4.867,80,215.3987063,norm,0,94,94,94,2009.186,2009.195,2009.20260591,2009.203,2009.205,2009.208,up,1,3.50663792441,6.49336207559,001,304,1366_768,Intel(R) Core(TM) i5-3230M CPU @ 2.60GHz,orientation_search,DESKTOP-3MLAIPL,GeForce GT 635M/PCIe/SSE2,2018_Nov_08_1318,testMonitor,
