d_ori_22,d_ori_23,d_ori_20,d_ori_21,set_size,ctpd,d_ori_24,d_ori_25,d_ori_28,d_ori_29,stim_pos_x_30,stim_pos_x_31,stim_pos_x_32,stim_pos_x_33,stim_pos_x_34,stim_pos_x_35,stim_pos_y_11,stim_pos_y_10,stim_pos_y_13,stim_pos_y_12,stim_pos_y_15,stim_pos_y_14,stim_pos_y_17,stim_pos_y_16,stim_pos_y_19,stim_pos_y_18,d_ori_35,d_ori_34,stim_pos_x_3,d_ori_31,d_ori_30,d_ori_33,d_ori_32,d_ori_26,test_set_size,d_ori_27,targetCol,dsd_test,seq_type,dsd,blockRepN,targetDist,dtype_test,prime_set_size,stim_pos_y_25,correctResponse,dtype,distrMean,d_ori_17,d_ori_16,d_ori_15,d_ori_14,targetRow,d_ori_11,d_ori_13,d_ori_12,dsd_prime,streak_length_prime,stim_pos_y_35,stim_pos_y_34,stim_pos_y_33,stim_pos_y_32,stim_pos_y_31,stim_pos_y_30,d_ori_10,nextProbe,targetOri,stim_pos_x_1,stim_pos_x_2,ctpd_prime,stim_pos_x_4,stim_pos_x_5,stim_pos_x_6,stim_pos_x_7,stim_pos_x_8,stim_pos_x_9,stim_pos_y_28,stim_pos_y_29,targetPos,stim_pos_y_20,stim_pos_y_21,stim_pos_y_22,stim_pos_y_23,stim_pos_y_24,stim_pos_x_0,stim_pos_y_26,stim_pos_y_27,d_ori_9,d_ori_8,d_ori_3,d_ori_2,d_ori_1,d_ori_0,d_ori_7,d_ori_6,d_ori_5,d_ori_4,trialN,dtype_prime,stim_pos_x_18,stim_pos_x_19,stim_pos_x_12,stim_pos_x_13,stim_pos_x_10,stim_pos_x_11,stim_pos_x_16,stim_pos_x_17,stim_pos_x_14,stim_pos_x_15,stim_pos_y_9,stim_pos_y_8,d_ori_19,d_ori_18,stim_pos_y_1,stim_pos_y_0,stim_pos_y_3,stim_pos_y_2,stim_pos_y_5,stim_pos_y_4,stim_pos_y_7,stim_pos_y_6,totBlockN,stim_pos_x_27,stim_pos_x_26,stim_pos_x_25,stim_pos_x_24,stim_pos_x_23,stim_pos_x_22,stim_pos_x_21,stim_pos_x_20,blockN,stim_pos_x_29,stim_pos_x_28,prevDistrCTPD,prevDistrMean,prevDistrType,trials.thisRepN,trials.thisTrialN,trials.thisN,trials.thisIndex,timeStart,timeBeforeDraw,timeDraw,timeAfterSaving,timeAfterWritingToTemp,timeAfterPreparingNext,answer,correct,rt,trialScore,session,participant,resolution,cpu_info,expName,pc_name,graphic_card,date,monitorName,
259.0,239.9,256.0,238.4,36,-20,247.7,220.2,247.3,228.5,8.025,8.088,8.395,8.055,7.96,7.672,7.855,4.63,-4.859,-8.333,2.064,-1.662,7.5,4.975,-5.145,-8.165,234.1,226.2,-7.885,238.7,238.7,239.6,248.4,245.7,36,231.1,0,5,prime,10,0,94,norm,36,-5.211,down,norm,239.017462845,242.1,223.4,250.0,247.7,1,241.0,252.3,233.0,10,5,8.298,5.21,1.295,-1.186,-4.49,-7.664,240.0,5,333.0,-8.447,-8.148,-20,-8.303,-8.405,-4.755,-5.114,-4.809,-5.172,5.142,8.222,1,-1.243,1.456,5.156,8.16,-7.71,-7.663,-2.033,1.467,228.6,235.2,237.7,246.5,,238.1,249.2,235.8,219.0,238.2,0,norm,1.332,1.456,-1.587,-1.245,-4.519,-4.785,-1.759,-1.312,-1.726,-1.641,1.273,-1.294,231.0,234.1,-5.042,-7.685,1.822,-1.329,7.671,4.336,-5.056,-8.066,0,4.564,4.869,4.317,5.071,1.44,1.897,1.575,1.823,0,4.383,4.817,,,,0,0,0,0,255.951,255.976,255.997257428,255.997,255.998,256.0,down,1,2.91177075167,7.08822924833,001,015,1920_1200,Intel(R) Core(TM) i5-3570 CPU @ 3.40GHz,orientation_search,LEPPC096,Intel(R) HD Graphics 2500,2018_Nov_28_1113,testMonitor,
255.5,247.9,223.9,230.3,36,-20,,242.4,233.2,242.2,7.733,7.579,8.325,8.262,7.983,8.426,7.891,4.441,-4.723,-7.719,1.199,-1.538,8.268,5.075,-4.876,-7.602,251.4,247.9,-7.819,244.5,237.7,247.6,246.7,226.8,36,235.8,4,5,prime,10,0,79,norm,36,-5.076,down,norm,239.017462845,250.7,246.4,225.2,229.6,0,250.7,237.4,248.6,10,5,7.606,5.158,1.436,-1.215,-4.31,-8.486,227.5,5,318.0,-7.646,-8.13,-20,-7.802,-8.131,-4.973,-4.805,-5.17,-5.076,4.723,8.01,24,-1.659,1.209,5.0,8.417,-7.635,-7.804,-1.81,1.213,235.0,247.0,251.8,219.0,251.8,235.9,230.9,246.0,235.6,232.3,1,norm,1.588,1.617,-1.878,-1.561,-4.304,-5.227,-1.673,-1.676,-1.497,-1.196,2.04,-1.517,227.6,259.0,-4.393,-8.189,1.232,-1.188,8.267,4.711,-5.162,-7.555,0,4.319,4.859,4.338,4.729,1.326,1.718,1.89,1.615,0,5.164,4.964,,,,0,1,1,1,258.945,258.959,258.977177433,258.977,258.979,258.981,down,1,1.13163981697,8.86836018303,001,015,1920_1200,Intel(R) Core(TM) i5-3570 CPU @ 3.40GHz,orientation_search,LEPPC096,Intel(R) HD Graphics 2500,2018_Nov_28_1113,testMonitor,
236.9,236.2,248.8,,36,-20,239.4,226.7,245.1,226.3,7.917,8.494,7.783,8.362,7.519,7.668,8.339,4.869,-5.048,-7.893,1.535,-1.239,7.688,5.27,-4.42,-8.037,225.5,234.4,-8.397,256.5,224.3,247.5,241.9,228.3,36,219.0,3,5,prime,10,0,97,norm,36,-4.319,up,norm,239.017462845,259.0,250.3,248.0,248.2,3,237.1,231.2,238.0,10,5,8.374,5.226,1.922,-1.672,-4.757,-8.162,223.4,5,336.0,-7.751,-8.096,-20,-8.388,-8.442,-4.587,-5.272,-5.271,-4.701,4.392,7.887,21,-1.781,2.03,4.787,7.628,-7.763,-8.293,-1.43,1.34,244.8,240.0,236.6,242.8,244.7,234.8,246.7,227.7,227.2,238.1,2,norm,1.968,1.939,-1.378,-1.801,-4.41,-4.587,-1.519,-2.083,-1.649,-1.896,1.811,-1.287,231.9,243.8,-5.152,-8.034,1.389,-2.051,8.004,4.532,-4.354,-8.206,0,4.632,4.685,4.755,4.826,1.341,1.633,1.499,1.581,0,4.394,4.997,,,,0,2,2,2,260.146,260.159,260.178310623,260.178,260.18,260.183,up,1,1.27517236152,8.72482763848,001,015,1920_1200,Intel(R) Core(TM) i5-3570 CPU @ 3.40GHz,orientation_search,LEPPC096,Intel(R) HD Graphics 2500,2018_Nov_28_1113,testMonitor,
243.0,243.1,240.5,252.6,36,-20,244.5,235.4,240.0,231.4,7.573,7.911,7.764,7.818,7.703,7.952,7.679,4.929,-4.365,-8.361,2.014,-1.452,7.514,5.123,-4.904,-7.634,235.3,244.5,-7.775,256.4,258.2,242.4,242.7,238.7,36,249.4,0,5,prime,10,0,78,norm,36,-5.169,down,norm,239.017462845,241.3,237.7,232.6,239.9,2,239.3,231.0,231.4,10,5,7.604,4.675,1.603,-1.333,-4.391,-7.724,242.0,5,317.0,-8.333,-7.944,-20,-8.331,-8.308,-4.654,-4.753,-5.284,-4.911,5.222,8.476,2,-1.471,1.602,4.831,7.8,-7.995,-8.28,-1.149,1.955,248.0,237.0,234.4,,236.9,230.4,254.1,219.0,258.5,246.4,3,norm,1.471,1.201,-1.827,-1.686,-5.033,-5.26,-1.115,-1.321,-1.516,-1.188,1.164,-2.031,249.3,259.0,-4.798,-8.097,1.119,-1.667,7.553,4.363,-4.406,-7.585,0,4.388,4.783,5.048,4.527,1.468,1.892,1.488,1.14,0,4.725,5.159,,,,0,3,3,3,261.498,261.507,261.514664427,261.515,261.517,261.519,down,1,1.23213457255,8.76786542745,001,015,1920_1200,Intel(R) Core(TM) i5-3570 CPU @ 3.40GHz,orientation_search,LEPPC096,Intel(R) HD Graphics 2500,2018_Nov_28_1113,testMonitor,
240.1,249.3,238.2,227.3,36,-20,237.2,229.9,232.1,229.3,7.851,8.222,8.005,7.65,8.285,7.776,7.729,4.604,-4.739,-8.396,1.996,-2.075,7.734,4.718,-5.276,-7.966,236.5,242.7,-7.887,243.0,239.7,219.8,246.0,251.0,36,259.0,1,5,prime,10,0,62,norm,36,-5.091,up,norm,239.017462845,256.6,248.7,245.3,232.3,3,246.9,219.0,250.3,10,5,8.277,5.042,2.012,-1.136,-4.336,-7.633,232.3,5,301.0,-7.972,-7.724,-20,-7.634,-8.283,-4.598,-4.626,-4.762,-4.756,4.862,8.09,9,-1.142,2.007,5.181,8.308,-8.092,-7.703,-2.048,1.363,,238.3,238.0,245.3,234.4,235.5,226.4,251.1,220.0,252.6,4,norm,1.564,2.016,-1.744,-1.232,-4.446,-4.34,-1.679,-1.911,-1.598,-1.693,1.181,-2.027,229.3,244.6,-4.993,-8.339,2.044,-1.688,8.157,4.675,-4.581,-8.249,0,4.431,4.878,4.362,5.256,1.808,1.488,1.15,1.786,0,5.2,4.627,,,,0,4,4,4,262.785,262.796,262.799908178,262.8,262.802,262.804,up,1,1.49252674883,8.50747325117,001,015,1920_1200,Intel(R) Core(TM) i5-3570 CPU @ 3.40GHz,orientation_search,LEPPC096,Intel(R) HD Graphics 2500,2018_Nov_28_1113,testMonitor,
304.6,292.7,294.2,294.2,36,0,290.3,296.2,297.4,299.0,7.913,8.21,8.27,8.261,8.432,7.815,8.474,4.534,-4.607,-8.052,1.413,-1.844,7.9,4.915,-4.675,-8.372,,291.9,-8.364,292.4,297.5,293.9,299.4,299.4,36,298.6,5,5,probe,5,0,77,norm,36,-4.874,up,norm,294.649059309,298.5,296.8,298.0,291.4,5,292.0,300.2,296.5,10,5,8.023,4.311,1.867,-1.917,-4.43,-7.59,301.2,2,217.6,-7.857,-8.419,-20,-8.265,-7.809,-5.045,-4.359,-4.593,-4.569,5.219,8.278,35,-1.157,1.914,5.142,7.811,-7.944,-8.077,-1.721,1.955,288.6,294.9,289.9,284.6,292.6,296.3,290.7,288.4,291.4,298.4,0,norm,1.768,1.584,-1.409,-1.865,-4.549,-5.098,-1.331,-1.305,-1.638,-1.728,1.473,-1.244,289.3,304.4,-4.815,-8.348,1.294,-1.724,8.392,4.312,-4.905,-8.254,1,4.441,4.47,4.846,5.027,1.136,1.503,1.393,1.129,1,4.656,5.258,-20,239.017462845,norm,0,5,5,5,264.337,264.346,264.353902218,264.354,264.356,264.358,up,1,2.07552364978,7.92447635022,001,015,1920_1200,Intel(R) Core(TM) i5-3570 CPU @ 3.40GHz,orientation_search,LEPPC096,Intel(R) HD Graphics 2500,2018_Nov_28_1113,testMonitor,
329.0,323.8,314.2,312.8,36,0,318.2,329.7,312.1,328.3,7.522,8.091,8.41,8.188,7.775,7.96,7.636,4.735,-4.406,-7.782,1.927,-2.002,8.388,4.761,-4.768,-8.457,323.4,319.0,-8.301,316.5,319.8,318.8,320.5,312.9,36,310.6,0,5,probe,5,0,103,norm,36,-5.199,up,norm,320.649059309,319.5,323.5,322.8,330.6,4,323.2,321.2,323.5,10,5,7.826,5.052,1.407,-1.754,-4.497,-7.794,321.3,2,217.6,-7.895,-8.396,-20,-8.305,-7.98,-4.502,-4.804,-4.808,-5.202,5.145,8.316,4,-2.061,2.091,4.868,8.105,-8.221,-7.656,-2.05,1.476,320.2,320.4,312.0,315.4,318.9,319.0,324.3,319.8,321.7,,1,norm,1.128,1.25,-1.144,-1.52,-4.461,-4.394,-1.879,-1.834,-1.876,-1.998,1.799,-1.393,321.7,315.5,-5.218,-8.374,1.986,-1.361,7.89,5.202,-4.522,-8.395,1,4.876,4.737,4.877,4.659,1.613,1.216,1.657,1.369,1,4.9,4.982,-20,239.017462845,norm,0,6,6,6,266.475,266.483,266.490718994,266.491,266.493,266.495,up,1,1.12873183377,8.87126816623,001,015,1920_1200,Intel(R) Core(TM) i5-3570 CPU @ 3.40GHz,orientation_search,LEPPC096,Intel(R) HD Graphics 2500,2018_Nov_28_1113,testMonitor,
84.4,53.5,72.8,77.5,36,20,58.1,60.1,64.8,55.4,7.874,8.43,7.812,8.326,8.448,7.906,8.407,4.494,-4.351,-7.775,1.254,-2.024,8.209,5.082,-4.581,-8.445,73.6,57.3,-7.581,51.9,72.8,88.0,67.4,48.0,36,56.4,1,5,prime,10,0,88,norm,36,-4.651,up,norm,68.0227419401,83.5,74.1,72.0,61.4,3,59.5,76.3,76.7,10,6,8.418,4.522,1.308,-2.042,-5.287,-7.972,73.6,6,156.0,-7.669,-7.954,20,-7.96,-7.511,-4.481,-5.036,-5.222,-4.68,4.561,8.052,9,-1.389,1.952,4.902,8.333,-7.689,-8.465,-1.392,1.617,,68.7,69.7,65.2,81.0,56.9,63.6,64.1,75.9,70.2,0,norm,2.085,1.724,-1.282,-1.328,-4.741,-5.108,-1.653,-1.239,-1.557,-2.043,1.498,-1.686,79.2,68.4,-4.43,-8.171,2.088,-1.599,8.024,5.116,-4.799,-8.209,2,4.97,5.186,4.937,5.267,1.289,1.168,1.33,1.519,2,4.354,4.824,0,239.017462845,norm,0,7,7,7,267.656,267.665,267.675113622,267.675,267.677,267.679,up,1,2.09379317338,7.90620682662,001,015,1920_1200,Intel(R) Core(TM) i5-3570 CPU @ 3.40GHz,orientation_search,LEPPC096,Intel(R) HD Graphics 2500,2018_Nov_28_1113,testMonitor,
62.8,68.7,75.9,70.5,36,20,,71.3,71.1,59.1,8.264,7.505,8.027,7.683,7.85,7.507,7.547,4.702,-5.102,-8.332,1.236,-1.568,8.318,5.069,-5.076,-7.809,68.7,63.3,-8.111,78.2,56.7,61.4,84.9,86.0,36,68.9,4,5,prime,10,0,89,norm,36,-4.587,down,norm,68.0227419401,63.2,59.5,65.3,66.3,0,56.3,69.1,86.0,10,6,7.913,5.19,1.104,-1.61,-4.479,-8.218,75.0,6,157.0,-8.023,-8.211,20,-8.404,-8.332,-5.203,-4.988,-4.68,-4.864,4.33,7.783,24,-1.828,1.383,5.098,7.853,-7.902,-8.264,-1.639,1.829,69.9,60.1,69.9,71.7,63.0,66.7,48.0,63.7,66.8,88.0,1,norm,1.637,1.274,-1.577,-1.689,-4.476,-4.392,-2.097,-1.404,-1.686,-1.429,1.337,-1.906,56.6,61.7,-5.271,-8.102,1.381,-1.299,8.307,5.021,-4.945,-7.698,2,5.212,5.041,4.513,4.705,1.18,2.046,2.054,2.057,2,4.451,4.441,0,239.017462845,norm,0,8,8,8,269.806,269.815,269.821760613,269.822,269.824,269.826,down,1,1.28648946903,8.71351053097,001,015,1920_1200,Intel(R) Core(TM) i5-3570 CPU @ 3.40GHz,orientation_search,LEPPC096,Intel(R) HD Graphics 2500,2018_Nov_28_1113,testMonitor,
76.4,70.5,78.5,84.0,36,20,60.9,70.7,80.1,64.3,7.858,8.392,7.744,7.55,7.845,7.657,8.243,4.849,-4.6,-8.098,1.518,-2.085,8.18,4.41,-4.334,-8.343,65.7,52.6,-8.471,,65.7,61.7,72.9,65.6,36,86.2,5,5,prime,10,0,106,norm,36,-4.993,down,norm,68.0227419401,48.0,72.2,88.0,72.7,1,84.1,78.2,69.7,10,6,7.572,5.13,1.213,-1.398,-4.918,-7.738,48.3,6,174.0,-7.832,-7.695,20,-8.307,-7.867,-5.234,-4.482,-4.748,-4.717,4.425,8.092,31,-1.884,2.099,4.684,8.115,-8.163,-7.76,-1.615,1.8,70.3,65.4,82.9,67.8,84.0,52.9,58.0,62.3,76.4,61.2,2,norm,1.293,1.419,-1.467,-1.727,-4.998,-4.657,-1.15,-2.023,-1.916,-1.43,1.152,-2.049,68.3,56.2,-5.072,-7.923,1.56,-1.73,8.184,4.753,-4.333,-7.592,2,5.264,4.865,4.863,4.825,1.733,1.293,1.462,1.126,2,4.347,4.316,0,239.017462845,norm,0,9,9,9,271.154,271.163,271.170371171,271.171,271.172,271.175,down,1,1.85777686283,8.14222313717,001,015,1920_1200,Intel(R) Core(TM) i5-3570 CPU @ 3.40GHz,orientation_search,LEPPC096,Intel(R) HD Graphics 2500,2018_Nov_28_1113,testMonitor,
82.4,67.6,69.6,63.3,36,20,61.8,78.2,67.7,48.0,8.021,7.54,8.035,7.843,8.344,8.424,7.815,4.579,-4.946,-8.277,1.906,-1.216,7.751,4.709,-4.844,-7.59,55.1,72.0,-7.904,,74.7,72.3,57.7,61.4,36,66.9,5,5,prime,10,0,117,norm,36,-4.615,down,norm,68.0227419401,62.3,66.2,74.6,88.0,1,61.3,56.1,61.7,10,6,8.336,4.804,1.71,-1.552,-4.404,-7.509,58.6,6,185.0,-8.083,-8.441,20,-8.434,-8.118,-5.116,-5.298,-4.9,-4.895,4.718,7.576,31,-1.193,1.223,5.284,7.824,-7.907,-8.126,-1.524,1.979,66.4,80.6,63.1,80.0,70.4,74.3,77.8,83.2,60.9,51.2,3,norm,1.299,2.048,-1.814,-1.387,-4.455,-4.634,-1.494,-2.027,-1.964,-1.252,1.277,-1.579,57.5,70.2,-4.93,-8.101,1.369,-1.421,7.918,4.505,-5.269,-7.873,2,4.356,5.153,4.949,5.134,1.926,1.779,1.207,1.289,2,4.789,4.468,0,239.017462845,norm,0,10,10,10,273.073,273.082,273.089158632,273.089,273.091,273.094,down,1,1.51617426044,8.48382573956,001,015,1920_1200,Intel(R) Core(TM) i5-3570 CPU @ 3.40GHz,orientation_search,LEPPC096,Intel(R) HD Graphics 2500,2018_Nov_28_1113,testMonitor,
58.7,72.7,79.2,73.6,36,20,88.0,65.1,64.6,59.5,7.634,8.342,7.989,7.696,8.417,8.485,7.823,4.684,-4.317,-7.507,1.706,-1.821,8.18,4.879,-4.76,-7.851,70.5,63.2,-8.032,53.3,81.2,55.8,81.6,71.1,36,54.5,2,5,prime,10,0,106,norm,36,-4.528,down,norm,68.0227419401,68.5,65.8,48.0,,2,57.8,74.7,65.9,10,6,8.439,5.016,1.924,-1.434,-4.387,-8.11,65.3,6,174.0,-7.969,-7.923,20,-8.023,-8.355,-4.746,-5.047,-4.444,-4.552,5.01,7.722,14,-1.308,1.876,5.028,7.689,-8.278,-8.055,-1.8,1.466,80.7,83.6,79.2,77.8,58.0,78.4,66.5,55.3,60.8,75.7,4,norm,1.189,2.016,-2.015,-1.995,-4.781,-4.595,-1.503,-1.871,-1.828,-1.976,1.623,-2.028,58.6,55.5,-4.474,-8.086,1.131,-1.813,7.722,4.634,-4.428,-7.775,2,4.9,4.942,4.622,5.071,1.479,1.602,1.153,1.712,2,4.804,5.151,0,239.017462845,norm,0,11,11,11,274.626,274.635,274.648009372,274.648,274.65,274.652,down,1,2.20046943071,7.79953056929,001,015,1920_1200,Intel(R) Core(TM) i5-3570 CPU @ 3.40GHz,orientation_search,LEPPC096,Intel(R) HD Graphics 2500,2018_Nov_28_1113,testMonitor,
76.0,77.4,74.4,66.4,36,20,81.4,80.8,67.5,70.6,8.301,7.573,8.183,8.056,8.157,8.151,7.713,4.833,-5.252,-7.842,1.516,-1.747,7.828,5.297,-5.12,-8.409,55.4,58.5,-8.157,68.7,53.8,48.0,62.6,75.8,36,53.4,3,5,prime,10,0,68,norm,36,-4.757,down,norm,68.0227419401,57.6,74.9,58.9,56.0,1,79.4,60.4,74.5,10,6,7.803,4.575,2.073,-1.598,-4.47,-7.793,86.9,6,136.0,-7.876,-8.149,20,-7.767,-8.216,-5.109,-4.696,-4.664,-4.655,4.779,7.666,19,-1.781,1.28,4.629,8.085,-8.16,-8.209,-1.926,1.231,65.6,57.7,56.8,67.0,48.7,58.5,88.0,71.2,63.0,69.1,5,norm,1.395,2.072,-1.114,-1.651,-4.74,-5.094,-1.999,-1.478,-1.157,-1.185,1.242,-1.255,,81.4,-4.568,-8.387,1.274,-1.315,7.657,4.441,-4.484,-8.433,2,5.275,4.329,4.481,4.703,1.101,1.48,1.823,1.775,2,4.39,4.714,0,239.017462845,norm,0,12,12,12,276.884,276.897,276.916292101,276.917,276.918,276.921,down,1,1.2000574111,8.7999425889,001,015,1920_1200,Intel(R) Core(TM) i5-3570 CPU @ 3.40GHz,orientation_search,LEPPC096,Intel(R) HD Graphics 2500,2018_Nov_28_1113,testMonitor,
200.6,,192.5,197.9,36,0,184.6,195.3,194.2,202.4,8.147,8.353,7.976,7.627,8.474,7.684,8.26,5.039,-4.57,-8.202,1.645,-1.996,8.172,5.057,-5.134,-8.407,191.1,198.9,-7.958,199.6,192.4,204.6,190.5,196.7,36,190.9,3,5,probe,5,0,103,norm,36,-5.162,up,norm,194.63899074,190.9,191.7,189.8,197.3,5,198.4,190.5,189.3,10,6,8.364,5.077,1.217,-2.089,-5.231,-7.817,190.0,1,91.6,-8.242,-8.419,20,-8.254,-7.613,-4.521,-4.458,-5.159,-4.722,5.096,8.186,23,-1.447,1.494,4.42,8.228,-7.933,-7.736,-1.48,1.576,197.5,191.8,194.0,190.1,189.3,196.9,197.4,195.7,194.1,192.0,0,norm,2.04,1.122,-1.631,-1.813,-5.104,-5.079,-1.854,-1.505,-1.736,-1.335,2.001,-2.031,197.9,200.1,-5.253,-7.633,1.677,-1.201,7.806,4.716,-4.323,-8.373,3,4.539,4.551,5.101,5.171,1.212,1.243,1.673,1.258,3,4.483,4.457,20,68.0227419401,norm,0,13,13,13,278.153,278.163,278.173539647,278.174,278.175,278.178,up,1,0.925630307029,9.07436969297,001,015,1920_1200,Intel(R) Core(TM) i5-3570 CPU @ 3.40GHz,orientation_search,LEPPC096,Intel(R) HD Graphics 2500,2018_Nov_28_1113,testMonitor,
340.5,346.7,327.7,351.0,36,-10,353.2,353.7,345.6,,7.763,7.854,7.638,8.239,8.482,7.617,7.738,4.551,-5.098,-8.294,1.861,-1.819,8.234,4.958,-4.525,-8.032,348.4,328.7,-7.562,337.4,322.8,326.9,344.6,345.7,36,340.8,4,5,prime,10,0,106,norm,36,-5.021,up,norm,336.573949044,325.5,322.1,333.1,334.5,5,347.2,339.1,337.5,10,5,7.968,4.591,1.454,-1.226,-4.592,-8.351,336.3,5,442.6,-7.981,-7.684,-10,-7.512,-8.162,-5.282,-4.756,-4.813,-4.424,4.356,7.925,29,-1.906,1.408,4.631,7.743,-8.251,-8.304,-1.677,1.229,344.8,332.3,354.4,344.0,333.2,316.6,325.2,345.9,329.9,340.0,0,norm,1.353,1.753,-1.133,-1.808,-5.214,-4.96,-1.352,-1.103,-1.413,-1.914,1.731,-1.707,320.0,332.8,-4.391,-8.067,1.388,-1.17,8.481,4.309,-4.405,-8.011,4,4.387,4.362,4.903,4.965,2.061,1.687,2.098,2.08,4,4.58,5.036,0,68.0227419401,norm,0,14,14,14,279.142,279.162,279.173950459,279.174,279.176,279.179,up,1,2.81885715717,7.18114284283,001,015,1920_1200,Intel(R) Core(TM) i5-3570 CPU @ 3.40GHz,orientation_search,LEPPC096,Intel(R) HD Graphics 2500,2018_Nov_28_1113,testMonitor,
340.9,335.1,336.9,352.3,36,-10,341.7,327.6,338.5,341.1,7.897,8.015,8.418,7.528,7.836,7.546,7.623,4.757,-5.05,-8.288,1.137,-1.857,8.161,4.822,-5.06,-7.525,343.7,,-8.431,348.3,343.5,343.2,324.4,335.9,36,335.3,5,5,prime,10,0,93,norm,36,-4.491,up,norm,336.573949044,331.6,332.6,341.5,343.8,4,338.5,337.2,356.6,10,5,8.397,4.906,1.532,-1.135,-5.159,-7.962,317.3,5,429.6,-8.494,-8.108,-10,-8.407,-8.19,-4.753,-5.233,-4.823,-5.03,4.333,8.314,34,-1.272,2.093,4.602,8.259,-8.106,-7.763,-1.877,1.112,327.0,333.4,331.0,328.8,321.8,321.5,333.9,336.0,316.6,346.8,1,norm,1.916,1.815,-1.546,-2.031,-4.707,-4.666,-1.213,-1.273,-1.794,-1.766,1.634,-1.485,350.4,345.0,-5.298,-7.56,1.796,-1.232,7.664,4.609,-4.904,-8.054,4,5.184,4.694,4.507,5.106,1.722,1.629,1.648,1.742,4,4.707,5.014,0,68.0227419401,norm,0,15,15,15,282.03,282.04,282.057645318,282.058,282.06,282.062,up,1,4.66344848654,5.33655151346,001,015,1920_1200,Intel(R) Core(TM) i5-3570 CPU @ 3.40GHz,orientation_search,LEPPC096,Intel(R) HD Graphics 2500,2018_Nov_28_1113,testMonitor,
,326.3,354.7,317.0,36,-10,328.9,335.8,317.4,355.2,8.014,7.986,7.514,8.164,7.658,8.372,7.601,4.306,-4.903,-8.177,1.95,-1.247,7.855,4.903,-4.694,-8.049,337.8,330.2,-8.077,342.8,343.8,354.4,353.3,331.5,36,333.9,3,5,prime,10,0,76,norm,36,-4.769,up,norm,336.573949044,326.1,344.8,340.2,335.8,4,330.1,332.2,330.7,10,5,8.175,4.784,1.991,-1.464,-4.771,-8.207,340.8,5,412.6,-8.17,-8.283,-10,-8.221,-7.983,-5.299,-5.012,-4.47,-5.152,5.078,7.809,22,-2.077,2.019,5.073,8.257,-8.232,-7.843,-1.646,1.676,337.6,356.6,333.6,341.3,316.6,346.6,334.4,336.4,338.1,340.0,2,norm,1.152,2.088,-1.987,-1.829,-4.445,-5.123,-1.899,-1.655,-1.552,-1.145,2.098,-1.346,336.1,332.2,-4.569,-7.8,2.025,-1.363,8.024,4.332,-4.794,-7.733,4,4.444,5.008,5.0,4.378,2.054,1.536,1.121,1.607,4,4.691,4.771,0,68.0227419401,norm,0,16,16,16,286.758,286.771,286.7906726,286.791,286.793,286.795,up,1,0.944358334498,9.0556416655,001,015,1920_1200,Intel(R) Core(TM) i5-3570 CPU @ 3.40GHz,orientation_search,LEPPC096,Intel(R) HD Graphics 2500,2018_Nov_28_1113,testMonitor,
344.5,345.2,345.9,322.6,36,-10,347.9,356.6,329.5,329.5,8.276,8.131,8.353,7.653,7.674,7.545,7.689,4.356,-4.517,-8.239,1.975,-1.427,8.456,4.81,-5.226,-8.375,332.9,333.1,-7.885,340.6,337.0,340.9,342.8,343.7,36,326.9,2,5,prime,10,0,69,norm,36,-5.236,down,norm,336.573949044,338.8,339.1,338.3,,2,334.1,320.9,330.0,10,5,7.711,4.865,1.734,-1.177,-4.758,-7.713,341.5,5,405.6,-8.296,-7.706,-10,-7.562,-8.108,-4.969,-5.208,-4.532,-4.789,5.073,7.785,14,-1.577,1.112,4.431,7.911,-7.648,-8.328,-1.714,1.527,326.1,328.3,316.6,325.6,330.5,340.5,344.1,332.9,331.2,349.8,3,norm,1.582,1.411,-1.842,-1.787,-4.533,-4.408,-1.448,-1.101,-1.627,-1.915,1.774,-2.029,340.3,333.5,-4.348,-8.02,1.334,-1.741,8.098,4.731,-4.333,-7.915,4,5.15,5.288,4.81,4.36,1.646,1.797,1.664,1.689,4,4.894,5.082,0,68.0227419401,norm,0,17,17,17,287.772,287.785,287.804517365,287.805,287.806,287.809,down,1,2.97805006959,7.02194993041,001,015,1920_1200,Intel(R) Core(TM) i5-3570 CPU @ 3.40GHz,orientation_search,LEPPC096,Intel(R) HD Graphics 2500,2018_Nov_28_1113,testMonitor,
327.9,356.6,337.9,337.2,36,-10,316.6,317.6,331.3,336.7,8.239,7.549,7.521,8.461,8.373,7.941,8.269,5.151,-5.292,-7.925,1.307,-1.736,7.519,5.035,-5.066,-7.613,338.6,333.2,-7.593,333.0,338.1,328.7,348.3,331.3,36,329.5,1,5,prime,10,0,108,norm,36,-5.115,down,norm,336.573949044,338.9,340.0,331.6,338.3,1,328.7,328.0,326.7,10,5,7.594,5.267,1.708,-1.734,-5.284,-7.795,328.6,5,444.6,-7.561,-7.561,-10,-7.597,-7.894,-4.937,-4.644,-4.593,-4.949,4.302,8.257,7,-1.629,1.592,5.028,8.133,-7.629,-8.098,-1.682,1.672,346.8,321.2,334.0,326.0,336.8,329.1,,348.3,347.4,329.1,4,norm,1.513,1.356,-1.422,-2.049,-4.515,-4.563,-1.222,-2.02,-1.43,-1.251,1.409,-2.054,321.9,338.3,-4.768,-8.335,1.454,-1.735,8.037,4.71,-4.418,-8.251,4,4.662,5.261,5.294,5.1,1.154,1.955,1.255,1.994,4,5.107,5.119,0,68.0227419401,norm,0,18,18,18,290.825,290.834,290.841145457,290.841,290.843,290.845,down,1,2.12690506253,7.87309493747,001,015,1920_1200,Intel(R) Core(TM) i5-3570 CPU @ 3.40GHz,orientation_search,LEPPC096,Intel(R) HD Graphics 2500,2018_Nov_28_1113,testMonitor,
420.3,425.4,418.6,428.3,36,-60,421.1,427.9,424.7,420.7,8.204,7.635,7.651,8.255,7.752,7.537,7.954,5.007,-4.33,-8.355,1.785,-1.227,8.413,4.717,-4.505,-7.512,420.2,418.2,-7.684,427.9,425.7,427.1,423.0,426.2,36,419.0,1,5,probe,5,0,100,norm,36,-4.991,up,norm,422.205876099,418.5,412.2,426.4,427.7,4,425.6,426.7,426.0,10,5,7.912,4.91,1.189,-1.825,-4.551,-7.608,,1,322.2,-7.644,-7.832,-10,-8.048,-8.175,-5.27,-4.952,-4.97,-5.207,4.606,8.48,10,-2.066,1.231,4.729,7.717,-7.549,-8.452,-1.976,1.959,416.8,421.7,426.1,426.8,426.4,415.9,424.1,413.3,423.7,432.2,0,norm,1.582,1.416,-1.999,-2.047,-4.845,-4.53,-2.078,-1.488,-1.164,-1.265,1.432,-1.374,419.1,422.4,-4.765,-7.729,1.215,-1.341,7.807,4.307,-5.241,-8.108,5,4.671,4.938,5.172,5.047,1.695,1.995,1.791,1.847,5,4.551,4.401,-10,336.573949044,norm,0,19,19,19,292.988,292.999,293.008349963,293.009,293.01,293.013,up,1,1.01209647357,8.98790352643,001,015,1920_1200,Intel(R) Core(TM) i5-3570 CPU @ 3.40GHz,orientation_search,LEPPC096,Intel(R) HD Graphics 2500,2018_Nov_28_1113,testMonitor,
202.8,189.7,199.9,188.7,36,-40,177.7,169.2,191.2,178.3,8.063,8.105,7.83,7.551,8.354,8.491,8.102,4.531,-4.949,-8.122,2.032,-1.745,7.724,5.088,-4.866,-7.806,183.7,200.2,-7.567,,189.7,186.6,191.4,194.0,36,172.2,5,5,prime,10,0,117,norm,36,-5.108,down,norm,189.032279009,187.1,187.3,172.6,176.8,1,174.7,193.9,188.1,10,6,7.758,4.571,1.636,-2.009,-4.685,-8.209,200.1,6,306.0,-8.133,-8.456,-40,-8.036,-8.391,-4.356,-4.374,-5.162,-4.994,4.405,7.993,31,-1.688,1.248,4.79,7.623,-8.361,-8.381,-1.312,1.281,188.2,178.3,188.7,209.0,169.0,203.1,182.2,186.2,191.5,203.4,0,norm,2.035,1.665,-1.183,-2.085,-5.093,-4.356,-1.453,-1.906,-1.439,-1.951,1.115,-1.721,193.3,187.8,-4.785,-8.463,1.274,-1.344,8.128,4.696,-4.586,-8.082,6,4.886,4.771,4.775,5.264,1.811,1.976,1.973,1.431,6,5.034,4.98,-60,336.573949044,norm,0,20,20,20,294.057,294.068,294.073301762,294.073,294.075,294.078,down,1,3.66557800918,6.33442199082,001,015,1920_1200,Intel(R) Core(TM) i5-3570 CPU @ 3.40GHz,orientation_search,LEPPC096,Intel(R) HD Graphics 2500,2018_Nov_28_1113,testMonitor,
187.1,197.9,192.0,200.2,36,-40,193.0,183.2,180.8,185.7,8.095,7.922,8.363,7.73,8.406,8.219,8.368,5.184,-4.444,-7.56,1.393,-1.402,8.11,4.918,-4.547,-7.548,203.6,181.4,-8.317,186.8,175.6,204.6,195.2,174.9,36,194.2,0,5,prime,10,0,79,norm,36,-4.326,up,norm,189.032279009,169.0,188.4,189.4,188.2,3,181.1,184.7,182.5,10,6,7.576,4.705,1.535,-1.731,-4.379,-8.418,209.0,6,268.0,-8.221,-7.992,-40,-7.795,-8.099,-4.798,-4.688,-4.628,-4.524,4.442,8.082,3,-1.369,1.174,4.722,7.584,-8.336,-8.472,-1.859,1.272,183.3,174.8,,200.5,205.9,176.4,192.0,207.6,193.4,190.1,1,norm,1.636,1.322,-1.629,-1.9,-4.306,-4.378,-2.01,-1.309,-1.28,-1.93,1.727,-1.59,181.5,187.2,-4.31,-7.985,1.467,-1.283,7.609,4.818,-5.001,-7.916,6,4.596,4.965,4.456,4.643,1.399,1.359,1.512,1.345,6,4.341,5.286,-60,336.573949044,norm,0,21,21,21,297.776,297.787,297.797346111,297.798,297.799,297.802,up,1,5.19252001765,4.80747998235,001,015,1920_1200,Intel(R) Core(TM) i5-3570 CPU @ 3.40GHz,orientation_search,LEPPC096,Intel(R) HD Graphics 2500,2018_Nov_28_1113,testMonitor,
187.7,189.9,195.2,193.7,36,-40,199.5,190.1,194.3,,7.732,7.887,8.346,7.68,7.928,7.807,8.311,5.031,-4.901,-7.619,1.584,-1.655,7.713,4.407,-5.242,-8.397,186.5,185.5,-7.948,196.5,187.3,184.7,184.7,209.0,36,183.3,4,5,prime,10,0,102,norm,36,-4.364,up,norm,189.032279009,180.9,175.1,188.3,190.7,5,171.5,183.0,192.4,10,6,8.189,4.586,1.767,-1.94,-5.22,-8.174,204.7,6,291.0,-8.439,-8.448,-40,-8.18,-7.771,-4.646,-4.355,-5.099,-4.411,4.388,8.313,29,-1.946,1.867,4.478,7.648,-8.273,-8.333,-1.638,1.419,203.8,190.5,172.9,188.5,200.6,204.7,207.1,181.1,169.0,195.6,2,norm,1.798,1.188,-1.55,-1.759,-4.831,-5.245,-1.512,-1.268,-1.571,-1.3,1.502,-1.561,201.6,177.2,-4.679,-8.068,1.26,-1.487,8.359,4.922,-4.319,-8.166,6,4.8,4.907,4.962,5.14,1.21,1.105,1.574,1.678,6,4.598,5.23,-60,336.573949044,norm,0,22,22,22,303.027,303.036,303.054251062,303.054,303.056,303.059,up,1,1.40210941972,8.59789058028,001,015,1920_1200,Intel(R) Core(TM) i5-3570 CPU @ 3.40GHz,orientation_search,LEPPC096,Intel(R) HD Graphics 2500,2018_Nov_28_1113,testMonitor,
169.0,195.0,176.1,188.8,36,-40,206.0,181.1,185.9,207.5,8.123,7.575,7.649,8.006,7.512,7.953,8.01,4.861,-4.396,-7.809,1.22,-1.107,8.465,5.205,-4.388,-7.835,190.6,205.6,-7.674,196.7,190.7,187.9,188.4,202.6,36,193.4,1,5,prime,10,0,62,norm,36,-4.416,down,norm,189.032279009,190.2,193.2,188.3,176.4,0,187.1,194.4,209.0,10,6,7.904,4.517,1.197,-1.254,-5.289,-7.671,184.6,6,251.0,-7.543,-8.235,-40,-8.36,-7.529,-4.495,-4.475,-4.506,-5.286,4.415,8.233,6,-1.201,1.785,4.835,7.753,-7.799,-7.526,-1.281,1.947,183.0,188.3,176.9,196.5,193.9,187.0,185.2,,171.6,187.5,3,norm,1.161,1.753,-1.777,-1.268,-5.047,-4.783,-1.267,-1.129,-2.039,-1.968,1.372,-1.337,196.3,181.7,-5.087,-7.736,1.406,-1.402,8.045,4.783,-4.522,-8.488,6,5.108,5.126,5.124,4.355,2.016,1.381,1.386,2.067,6,5.133,4.492,-60,336.573949044,norm,0,23,23,23,304.493,304.504,304.520571249,304.521,304.523,304.525,down,1,1.29672415726,8.70327584274,001,015,1920_1200,Intel(R) Core(TM) i5-3570 CPU @ 3.40GHz,orientation_search,LEPPC096,Intel(R) HD Graphics 2500,2018_Nov_28_1113,testMonitor,
183.3,173.5,209.0,189.0,36,-40,188.4,187.9,174.2,181.8,8.431,7.641,7.865,8.088,8.389,7.913,7.89,4.525,-4.48,-7.503,1.382,-1.823,7.809,4.451,-4.923,-8.417,186.5,194.2,-7.516,169.0,195.5,183.7,188.3,205.3,36,191.6,2,5,prime,10,0,78,norm,36,-4.734,down,norm,189.032279009,184.9,185.2,198.2,188.0,1,189.0,,196.6,10,6,8.492,4.593,1.411,-1.562,-4.362,-8.081,185.6,6,267.0,-8.428,-7.63,-40,-7.902,-8.001,-4.666,-4.888,-4.65,-4.499,4.505,7.538,13,-1.383,1.303,5.215,8.38,-8.263,-7.699,-1.615,2.052,187.5,195.5,174.2,196.1,192.3,176.9,185.0,195.7,198.3,187.1,4,norm,1.351,1.471,-1.641,-1.746,-5.158,-5.253,-1.931,-1.978,-1.383,-1.536,1.387,-1.777,177.0,188.1,-4.981,-7.927,1.14,-1.682,7.67,5.272,-4.716,-8.452,6,4.319,4.482,5.083,4.514,2.006,1.233,1.902,1.649,6,4.69,4.73,-60,336.573949044,norm,0,24,24,24,305.863,305.872,305.878741568,305.879,305.881,305.883,down,1,1.72147050861,8.27852949139,001,015,1920_1200,Intel(R) Core(TM) i5-3570 CPU @ 3.40GHz,orientation_search,LEPPC096,Intel(R) HD Graphics 2500,2018_Nov_28_1113,testMonitor,
193.3,193.7,189.2,198.8,36,-40,176.9,188.7,183.3,175.9,7.876,7.832,8.168,7.632,7.622,7.559,7.957,4.572,-4.9,-7.839,2.039,-1.768,8.429,4.423,-4.426,-8.199,176.3,173.8,-7.771,200.6,179.8,198.3,195.9,206.8,36,169.0,2,5,prime,10,0,96,norm,36,-4.404,up,norm,189.032279009,,197.0,196.4,195.8,5,183.0,196.2,182.2,10,6,8.383,5.115,1.181,-1.874,-5.177,-8.374,183.9,6,285.0,-8.198,-7.879,-40,-7.76,-8.342,-4.492,-4.352,-5.277,-4.7,4.985,7.971,17,-1.899,1.61,5.005,8.299,-8.272,-8.003,-1.413,1.712,183.8,206.0,170.6,186.8,198.5,191.6,191.6,209.0,190.8,181.9,5,norm,1.614,1.295,-1.962,-1.207,-4.735,-4.666,-2.054,-1.746,-1.145,-2.025,1.391,-1.99,172.4,179.5,-4.348,-8.043,2.079,-2.01,7.51,4.972,-4.719,-8.28,6,4.992,4.876,4.775,4.536,1.291,1.126,1.46,1.77,6,5.14,5.001,-60,336.573949044,norm,0,25,25,25,307.641,307.654,307.673831683,307.674,307.676,307.68,up,1,2.5112369674,7.4887630326,001,015,1920_1200,Intel(R) Core(TM) i5-3570 CPU @ 3.40GHz,orientation_search,LEPPC096,Intel(R) HD Graphics 2500,2018_Nov_28_1113,testMonitor,
218.4,211.4,209.9,213.1,36,40,219.2,210.2,211.1,213.5,8.007,7.808,8.292,7.554,7.93,8.252,8.426,4.439,-5.116,-8.406,1.486,-1.912,8.26,5.127,-5.146,-8.177,208.6,213.7,-7.51,222.9,217.4,205.8,214.8,212.8,36,208.3,1,5,probe,5,0,66,norm,36,-5.056,down,norm,213.199410823,218.9,217.1,216.0,223.2,2,211.0,207.8,211.8,10,6,7.703,4.393,1.426,-1.241,-4.66,-7.857,215.6,1,147.2,-8.053,-8.413,-40,-7.898,-8.291,-5.069,-4.624,-4.645,-4.909,5.266,7.765,8,-1.601,1.171,4.546,7.818,-8.423,-8.008,-2.075,1.441,212.8,,206.5,221.3,217.8,217.7,203.2,219.4,218.6,212.8,0,norm,1.588,1.166,-1.149,-1.854,-4.74,-4.691,-2.095,-1.423,-1.481,-1.209,1.109,-1.59,213.3,218.9,-4.362,-7.587,1.957,-1.115,7.894,5.13,-5.044,-7.667,7,4.764,4.55,4.869,4.843,1.792,1.285,1.716,1.525,7,4.484,4.564,-40,189.032279009,norm,0,26,26,26,310.224,310.234,310.239555152,310.24,310.241,310.244,down,1,1.0815575489,8.9184424511,001,015,1920_1200,Intel(R) Core(TM) i5-3570 CPU @ 3.40GHz,orientation_search,LEPPC096,Intel(R) HD Graphics 2500,2018_Nov_28_1113,testMonitor,
23.7,36.5,49.3,41.6,36,80,33.8,29.7,36.0,53.4,7.641,8.113,8.05,7.978,7.855,7.698,7.676,5.287,-4.503,-8.419,1.727,-1.162,7.877,5.294,-4.585,-7.817,26.3,41.9,-8.087,51.8,27.6,40.6,48.9,36.0,36,32.6,0,5,prime,10,0,71,norm,36,-5.268,up,norm,41.2414672462,46.4,38.8,40.2,37.0,5,37.3,21.2,44.1,10,6,7.942,4.704,1.807,-2.053,-5.298,-8.039,46.0,6,112.2,-8.074,-8.232,80,-7.562,-7.869,-4.684,-5.063,-4.708,-4.521,4.555,7.689,5,-1.168,1.676,5.257,7.817,-8.482,-7.926,-1.518,2.069,32.5,40.8,30.2,61.2,52.9,28.5,38.1,31.4,,51.3,0,norm,1.189,1.967,-1.269,-1.56,-5.047,-4.584,-1.964,-1.37,-2.029,-1.309,1.61,-1.587,40.0,38.1,-4.32,-7.588,1.733,-1.108,7.968,5.273,-5.201,-8.106,8,4.424,5.299,4.418,4.894,1.452,1.312,1.708,1.423,8,4.781,4.33,40,189.032279009,norm,0,27,27,27,311.358,311.371,311.390693307,311.391,311.393,311.395,up,1,1.3124977173,8.6875022827,001,015,1920_1200,Intel(R) Core(TM) i5-3570 CPU @ 3.40GHz,orientation_search,LEPPC096,Intel(R) HD Graphics 2500,2018_Nov_28_1113,testMonitor,
38.7,51.3,31.7,29.2,36,80,22.5,30.0,49.5,61.2,8.356,7.822,7.579,7.714,8.392,7.721,8.27,4.705,-4.873,-7.551,1.418,-1.608,7.708,4.412,-5.027,-7.847,46.2,34.1,-7.613,41.9,23.6,50.1,25.8,40.9,36,49.2,0,5,prime,10,0,60,norm,36,-4.854,down,norm,41.2414672462,24.4,43.0,21.2,42.9,2,39.6,26.4,39.2,10,6,7.937,4.967,1.685,-1.98,-4.506,-8.107,39.5,6,101.2,-7.914,-8.005,80,-7.709,-7.814,-4.795,-5.183,-4.974,-4.836,4.706,7.619,2,-1.869,1.912,4.729,8.368,-8.028,-7.962,-1.884,1.958,32.4,31.9,41.4,,50.1,45.2,44.7,48.7,47.0,27.4,1,norm,1.879,1.392,-1.44,-1.408,-4.425,-4.912,-1.934,-1.607,-1.732,-1.632,1.494,-1.219,50.9,53.5,-4.348,-8.115,1.824,-1.646,7.673,4.965,-5.085,-8.044,8,4.569,4.549,5.046,4.469,1.878,1.252,2.065,1.44,8,4.419,5.066,40,189.032279009,norm,0,28,28,28,312.724,312.734,312.741422823,312.742,312.743,312.746,down,1,2.72178442832,7.27821557168,001,015,1920_1200,Intel(R) Core(TM) i5-3570 CPU @ 3.40GHz,orientation_search,LEPPC096,Intel(R) HD Graphics 2500,2018_Nov_28_1113,testMonitor,
30.2,45.6,40.8,50.0,36,80,26.3,33.8,35.4,44.4,7.623,7.781,7.855,7.516,7.603,8.066,8.241,5.042,-5.107,-8.018,1.848,-1.917,7.752,5.089,-4.8,-7.702,44.8,46.8,-7.56,55.4,56.3,,45.6,43.7,36,36.9,5,5,prime,10,0,119,norm,36,-5.216,up,norm,41.2414672462,43.9,39.7,28.9,38.4,3,57.7,45.7,41.4,10,6,8.135,5.282,1.192,-1.597,-4.792,-7.838,44.7,6,160.2,-8.358,-7.859,80,-7.761,-7.777,-4.552,-4.334,-5.062,-4.374,4.333,8.25,33,-1.93,1.91,5.119,7.792,-8.233,-7.922,-1.908,2.016,47.8,21.2,32.1,57.3,55.8,54.7,47.6,61.2,45.9,37.3,2,norm,2.021,1.474,-1.412,-1.884,-5.194,-4.689,-2.012,-1.661,-1.705,-1.54,1.833,-1.267,61.2,46.8,-5.215,-8.111,1.656,-1.392,8.152,4.702,-5.244,-7.575,8,4.341,4.944,4.332,4.376,1.343,2.015,1.932,1.259,8,5.141,4.846,40,189.032279009,norm,0,29,29,29,315.498,315.508,315.518013106,315.518,315.52,315.522,up,1,0.755537739955,9.24446226005,001,015,1920_1200,Intel(R) Core(TM) i5-3570 CPU @ 3.40GHz,orientation_search,LEPPC096,Intel(R) HD Graphics 2500,2018_Nov_28_1113,testMonitor,
52.5,27.3,51.8,38.1,36,80,21.2,45.2,51.7,58.9,7.509,8.075,7.8,7.733,7.992,7.996,8.144,4.804,-4.915,-7.692,1.842,-1.459,7.764,4.712,-4.402,-8.458,46.8,37.4,-8.411,42.3,,47.0,41.5,38.2,36,38.0,5,5,prime,10,0,81,norm,36,-5.241,down,norm,41.2414672462,51.8,21.3,48.2,29.5,0,42.9,51.3,32.5,10,6,8.393,4.485,1.577,-1.197,-4.923,-7.636,50.1,6,122.2,-8.202,-7.918,80,-7.64,-8.436,-5.268,-4.529,-4.394,-4.758,4.534,7.832,30,-1.285,2.04,4.623,8.038,-8.489,-8.155,-1.697,1.272,38.4,44.1,41.9,28.1,31.2,41.1,47.3,39.3,50.0,46.7,3,norm,1.632,1.375,-1.55,-1.702,-4.392,-4.697,-1.771,-1.735,-1.697,-1.403,1.989,-1.117,41.4,41.8,-5.197,-7.702,1.772,-1.837,8.297,5.27,-4.354,-7.532,8,4.444,4.701,4.372,4.435,1.569,1.14,1.182,1.681,8,4.62,4.347,40,189.032279009,norm,0,30,30,30,316.31,316.32,316.329272198,316.329,316.331,316.334,down,1,1.48716083463,8.51283916537,001,015,1920_1200,Intel(R) Core(TM) i5-3570 CPU @ 3.40GHz,orientation_search,LEPPC096,Intel(R) HD Graphics 2500,2018_Nov_28_1113,testMonitor,
45.4,36.2,43.5,43.7,36,80,44.8,26.6,31.4,27.6,8.2,7.513,8.256,8.169,8.069,8.328,7.641,4.895,-4.631,-8.206,1.983,-1.605,7.902,4.566,-4.93,-7.644,21.2,53.2,-8.086,31.8,61.2,57.9,22.1,47.4,36,30.7,3,5,prime,10,0,74,norm,36,-4.309,down,norm,41.2414672462,42.0,26.9,27.9,43.6,1,38.0,37.6,45.0,10,6,7.502,5.266,1.404,-1.327,-4.962,-8.045,43.4,6,115.2,-8.025,-7.546,80,-8.27,-8.015,-4.339,-4.527,-4.91,-5.117,4.797,8.194,19,-1.878,1.301,4.589,7.76,-7.802,-7.711,-1.816,2.039,54.6,28.6,34.2,43.3,35.5,44.4,47.9,31.5,40.3,45.7,4,norm,1.712,1.126,-1.961,-1.14,-4.363,-4.556,-1.871,-1.688,-1.347,-1.402,1.7,-2.085,,30.3,-4.95,-7.676,1.485,-1.493,7.846,5.205,-4.4,-7.935,8,5.045,4.489,4.399,4.61,1.373,1.191,1.463,2.047,8,4.735,5.249,40,189.032279009,norm,0,31,31,31,317.859,317.868,317.87457519,317.875,317.876,317.879,down,1,1.82307454778,8.17692545222,001,015,1920_1200,Intel(R) Core(TM) i5-3570 CPU @ 3.40GHz,orientation_search,LEPPC096,Intel(R) HD Graphics 2500,2018_Nov_28_1113,testMonitor,
37.4,34.7,36.2,35.1,36,80,50.4,41.5,,32.0,7.632,8.151,7.831,7.603,8.317,8.043,7.782,4.99,-5.125,-7.897,1.573,-1.63,7.686,4.304,-5.03,-7.653,35.2,49.2,-8.132,52.3,32.1,57.8,46.5,40.8,36,21.2,4,5,prime,10,0,96,norm,36,-4.522,up,norm,41.2414672462,28.3,45.2,38.6,43.5,4,39.7,57.0,41.2,10,6,7.66,5.18,1.411,-1.112,-4.874,-8.112,56.4,6,137.2,-7.678,-7.74,80,-7.644,-7.574,-4.628,-4.956,-4.443,-4.828,4.434,8.124,28,-1.863,1.918,5.108,7.579,-7.72,-7.879,-1.906,1.712,50.4,45.2,61.2,40.4,41.0,54.5,49.2,53.5,37.6,37.8,5,norm,1.852,1.798,-2.043,-1.629,-4.526,-4.954,-1.952,-1.743,-1.151,-1.65,1.917,-1.377,41.1,50.1,-4.927,-8.038,1.25,-1.655,8.185,5.246,-4.719,-8.003,8,4.521,4.581,4.811,5.292,1.215,2.044,1.514,1.342,8,4.911,5.231,40,189.032279009,norm,0,32,32,32,319.734,319.745,319.766453996,319.767,319.769,319.771,up,1,0.704264991713,9.29573500829,001,015,1920_1200,Intel(R) Core(TM) i5-3570 CPU @ 3.40GHz,orientation_search,LEPPC096,Intel(R) HD Graphics 2500,2018_Nov_28_1113,testMonitor,
195.7,196.0,201.4,198.3,36,10,199.1,200.8,188.1,192.0,7.518,8.211,7.795,8.143,7.619,7.513,8.195,4.45,-4.795,-7.882,1.909,-1.682,8.484,4.713,-4.441,-7.607,198.2,190.5,-8.036,199.0,198.5,188.4,197.6,198.0,36,,4,5,probe,5,0,78,norm,36,-4.876,up,norm,198.091831476,204.8,191.9,203.7,197.9,3,208.1,189.2,197.6,10,6,7.769,4.656,1.611,-1.232,-4.474,-8.32,201.4,1,120.1,-7.583,-7.628,80,-7.829,-8.478,-4.842,-4.831,-5.182,-5.289,4.374,8.055,27,-1.976,1.612,4.542,7.851,-7.713,-8.175,-1.319,1.685,197.3,205.0,197.9,204.7,203.7,194.6,196.1,193.6,199.9,194.6,0,norm,1.99,1.699,-1.348,-1.335,-4.347,-4.761,-2.052,-1.939,-1.803,-1.871,1.544,-1.224,204.0,195.7,-4.614,-7.968,1.282,-1.821,7.579,4.826,-5.182,-8.165,9,5.226,4.407,4.842,5.261,1.835,1.531,1.491,2.09,9,4.572,5.238,80,41.2414672462,norm,0,33,33,33,320.495,320.504,320.510763069,320.511,320.513,320.515,up,1,1.55171812183,8.44828187817,001,015,1920_1200,Intel(R) Core(TM) i5-3570 CPU @ 3.40GHz,orientation_search,LEPPC096,Intel(R) HD Graphics 2500,2018_Nov_28_1113,testMonitor,
20.4,22.7,26.4,26.3,36,60,17.4,10.2,29.0,22.2,7.768,7.831,7.617,7.619,7.527,7.555,7.583,4.87,-4.803,-7.921,1.403,-2.042,8.438,5.201,-5.084,-7.947,9.0,12.0,-7.745,12.9,10.5,36.0,24.5,,36,8.9,4,5,prime,10,0,119,norm,36,-4.721,down,norm,15.9592603359,27.4,15.0,20.1,0.6,2,5.3,16.3,3.5,10,6,8.0,4.516,1.92,-2.05,-4.764,-8.426,29.3,6,135.0,-7.757,-8.121,60,-7.803,-7.909,-4.342,-4.97,-4.744,-5.083,4.633,7.566,26,-1.244,1.732,4.883,8.075,-7.701,-7.952,-1.686,1.295,6.7,9.9,28.3,10.2,22.5,10.3,16.7,21.1,15.3,24.3,0,norm,1.194,1.4,-1.584,-1.271,-5.199,-4.764,-1.829,-1.892,-1.255,-1.428,1.427,-2.042,15.9,-4.0,-4.522,-7.772,1.418,-1.763,8.263,4.97,-5.12,-8.25,10,5.075,4.597,5.162,4.46,1.395,1.198,1.682,1.388,10,4.983,5.057,10,41.2414672462,norm,0,34,34,34,322.098,322.107,322.117242372,322.117,322.119,322.122,down,1,2.26214288236,7.73785711764,001,015,1920_1200,Intel(R) Core(TM) i5-3570 CPU @ 3.40GHz,orientation_search,LEPPC096,Intel(R) HD Graphics 2500,2018_Nov_28_1113,testMonitor,
19.3,33.9,3.7,21.3,36,60,16.1,-3.3,20.8,24.9,7.867,7.871,8.491,7.975,8.175,8.174,7.673,4.922,-5.143,-8.145,1.568,-1.745,7.84,4.713,-4.661,-7.719,,17.7,-7.897,12.7,1.2,11.0,-3.8,-4.0,36,7.7,5,5,prime,10,0,110,norm,36,-5.082,up,norm,15.9592603359,12.7,6.9,32.4,16.9,5,14.5,33.6,10.6,10,6,7.928,4.824,1.906,-1.257,-4.91,-8.011,18.4,6,126.0,-7.715,-7.834,60,-8.206,-7.81,-5.287,-4.539,-4.568,-4.699,5.051,7.734,35,-1.612,1.238,4.431,8.054,-7.855,-7.713,-1.379,1.123,2.9,24.8,15.4,22.0,7.6,36.0,17.7,18.1,2.6,16.9,1,norm,1.873,1.256,-2.046,-1.632,-5.106,-5.037,-1.292,-1.633,-1.577,-1.779,1.693,-1.32,22.9,16.3,-5.008,-7.588,1.195,-2.011,8.112,5.134,-4.431,-7.6,10,5.217,4.698,4.755,4.723,1.951,1.13,1.474,1.522,10,4.952,5.072,10,41.2414672462,norm,0,35,35,35,324.426,324.436,324.441987184,324.442,324.444,324.446,up,1,3.12668260213,6.87331739787,001,015,1920_1200,Intel(R) Core(TM) i5-3570 CPU @ 3.40GHz,orientation_search,LEPPC096,Intel(R) HD Graphics 2500,2018_Nov_28_1113,testMonitor,
21.7,30.0,25.0,36.0,36,60,15.0,18.5,19.4,21.8,7.905,7.839,7.976,8.147,8.215,8.229,8.149,4.747,-4.832,-8.372,1.45,-1.322,8.271,4.791,-4.83,-8.441,-2.0,15.2,-8.176,15.0,-0.3,10.2,11.8,27.3,36,27.0,1,5,prime,10,0,108,norm,36,-4.379,up,norm,15.9592603359,16.6,17.0,-2.5,9.0,3,22.4,9.2,29.6,10,6,7.733,4.697,1.419,-1.857,-4.71,-7.632,8.6,6,124.0,-7.831,-7.972,60,-8.439,-8.312,-4.367,-5.044,-5.213,-5.164,4.954,8.238,9,-1.925,1.744,4.665,7.766,-7.825,-8.23,-1.506,1.664,,-3.2,3.2,14.2,10.5,-4.0,33.2,8.2,20.1,8.2,2,norm,1.653,1.699,-1.787,-1.913,-5.152,-4.744,-1.118,-1.531,-1.243,-1.288,1.426,-1.221,13.1,18.6,-4.655,-8.154,1.117,-1.519,8.031,4.862,-4.754,-8.007,10,4.513,5.244,4.756,5.105,1.754,1.545,1.896,1.856,10,4.973,5.107,10,41.2414672462,norm,0,36,36,36,327.592,327.602,327.608421983,327.609,327.61,327.613,up,1,2.49935691737,7.50064308263,001,015,1920_1200,Intel(R) Core(TM) i5-3570 CPU @ 3.40GHz,orientation_search,LEPPC096,Intel(R) HD Graphics 2500,2018_Nov_28_1113,testMonitor,
24.0,10.2,19.1,14.7,36,60,7.8,,-3.5,3.5,8.405,7.963,8.239,8.27,7.735,7.997,7.587,5.098,-5.053,-7.969,2.026,-1.852,8.219,4.316,-5.026,-7.658,16.7,7.8,-7.686,21.4,30.4,-1.3,17.9,-2.2,36,5.3,4,5,prime,10,0,102,norm,36,-4.794,down,norm,15.9592603359,17.3,16.1,6.2,21.5,1,-4.0,10.6,17.1,10,6,8.186,4.879,1.267,-1.725,-5.166,-7.862,19.4,6,118.0,-7.952,-8.083,60,-7.629,-8.464,-5.047,-5.162,-4.444,-4.451,4.506,7.632,25,-1.503,1.28,4.567,7.824,-8.449,-8.276,-1.598,2.002,13.8,36.0,24.9,-3.4,17.9,15.7,24.2,12.0,25.0,20.7,3,norm,2.0,1.297,-1.946,-2.026,-5.172,-5.08,-1.761,-1.535,-1.9,-1.506,1.277,-2.005,16.0,21.5,-5.078,-7.643,1.898,-2.093,7.519,5.2,-4.307,-7.634,10,4.603,4.441,5.148,4.615,1.291,1.705,1.324,1.143,10,5.188,5.092,10,41.2414672462,norm,0,37,37,37,330.145,330.154,330.165783415,330.166,330.168,330.17,down,1,2.19590038966,7.80409961034,001,015,1920_1200,Intel(R) Core(TM) i5-3570 CPU @ 3.40GHz,orientation_search,LEPPC096,Intel(R) HD Graphics 2500,2018_Nov_28_1113,testMonitor,
15.3,19.6,14.3,,36,60,20.1,21.4,15.3,24.3,8.034,7.6,7.701,7.969,8.235,8.06,8.425,4.379,-5.138,-7.705,1.161,-1.756,7.947,4.469,-5.194,-8.008,24.8,0.2,-8.472,13.5,30.6,6.0,24.5,15.6,36,29.4,3,5,prime,10,0,67,norm,36,-5.063,up,norm,15.9592603359,25.3,10.2,24.6,11.4,3,26.0,13.2,11.1,10,6,8.096,4.348,1.976,-2.084,-4.693,-7.639,13.7,6,83.0,-8.28,-8.072,60,-8.002,-7.583,-5.24,-5.177,-4.533,-4.871,4.678,8.403,21,-1.259,1.491,5.113,7.947,-7.931,-7.647,-2.024,2.007,22.6,-4.0,5.5,1.8,5.1,11.5,7.0,36.0,3.5,4.9,4,norm,2.039,1.683,-1.817,-2.042,-4.66,-5.184,-2.021,-1.718,-1.298,-1.79,1.365,-1.59,35.7,12.7,-5.226,-8.28,1.891,-1.869,8.357,5.12,-4.423,-7.923,10,4.8,4.337,4.75,4.904,1.492,1.317,1.173,1.504,10,4.477,4.839,10,41.2414672462,norm,0,38,38,38,332.399,332.411,332.43198854,332.432,332.434,332.438,up,1,4.3428434908,5.6571565092,001,015,1920_1200,Intel(R) Core(TM) i5-3570 CPU @ 3.40GHz,orientation_search,LEPPC096,Intel(R) HD Graphics 2500,2018_Nov_28_1113,testMonitor,
10.2,17.8,21.0,27.6,36,60,20.5,7.1,13.6,24.3,7.949,7.963,7.829,7.984,8.047,8.264,7.69,4.784,-4.78,-7.913,1.523,-1.37,7.751,5.174,-5.095,-8.099,13.3,24.7,-7.712,15.9,11.0,13.1,14.5,3.8,36,18.8,2,5,prime,10,0,112,norm,36,-4.689,up,norm,15.9592603359,,26.2,22.0,21.8,5,20.7,-4.0,18.2,10,6,7.586,5.269,1.834,-1.371,-4.879,-7.574,24.8,6,128.0,-8.207,-7.959,60,-8.059,-7.621,-5.029,-4.413,-4.999,-4.978,4.693,7.963,17,-1.911,1.886,4.725,8.282,-7.738,-8.338,-1.623,2.074,2.6,24.4,12.3,16.3,6.2,14.8,9.8,12.6,-3.7,36.0,5,norm,1.236,1.967,-1.192,-1.72,-5.237,-4.714,-1.7,-1.367,-1.631,-1.445,1.505,-1.836,18.3,19.3,-5.125,-7.649,2.022,-1.451,8.005,5.177,-4.875,-8.137,10,4.892,4.714,4.971,4.872,1.518,2.023,1.918,2.087,10,4.573,4.446,10,41.2414672462,norm,0,39,39,39,336.799,336.808,336.815117287,336.815,336.817,336.819,up,1,0.938990005583,9.06100999442,001,015,1920_1200,Intel(R) Core(TM) i5-3570 CPU @ 3.40GHz,orientation_search,LEPPC096,Intel(R) HD Graphics 2500,2018_Nov_28_1113,testMonitor,
160.7,155.3,166.7,161.4,36,40,162.6,157.0,163.2,166.1,7.994,8.079,7.629,7.699,8.287,7.701,8.221,4.494,-5.06,-8.416,1.792,-1.962,7.766,4.597,-4.639,-8.07,159.1,152.3,-7.686,172.3,156.6,168.4,163.8,163.6,36,165.5,0,5,probe,5,0,84,norm,36,-5.185,down,norm,162.270583801,159.5,159.9,158.9,163.4,0,167.4,158.2,159.9,10,6,8.239,4.531,1.22,-1.413,-4.628,-8.161,152.9,2,78.3,-8.01,-7.694,60,-7.918,-7.928,-5.249,-4.504,-4.568,-4.405,4.765,8.089,0,-1.707,2.056,4.663,8.198,-8.088,-7.787,-1.678,1.72,153.3,160.4,160.6,169.3,163.5,,164.9,166.0,165.7,160.1,0,norm,1.52,2.092,-1.255,-1.779,-4.379,-4.525,-1.768,-1.277,-1.831,-1.21,1.7,-1.537,163.3,159.9,-4.39,-8.494,1.348,-1.824,7.592,4.594,-4.557,-7.748,11,5.087,4.683,4.912,4.672,2.071,1.267,1.551,1.114,11,5.016,4.405,60,15.9592603359,norm,0,40,40,40,337.792,337.801,337.809327279,337.809,337.811,337.814,down,1,1.01131740934,8.98868259066,001,015,1920_1200,Intel(R) Core(TM) i5-3570 CPU @ 3.40GHz,orientation_search,LEPPC096,Intel(R) HD Graphics 2500,2018_Nov_28_1113,testMonitor,
153.7,144.8,146.6,142.7,36,40,143.6,143.1,145.3,150.4,8.279,8.302,8.187,7.695,8.075,8.062,7.928,5.273,-4.5,-8.041,2.064,-1.35,8.005,4.512,-4.426,-7.972,145.1,142.8,-7.713,148.1,146.9,151.4,143.1,146.1,36,142.0,2,5,probe,5,0,69,norm,36,-5.267,up,norm,147.270583801,148.9,147.2,,145.2,3,142.3,147.7,140.3,10,6,7.675,4.482,1.322,-1.248,-4.387,-7.781,153.9,2,78.3,-7.888,-7.729,60,-8.307,-7.747,-4.42,-5.061,-4.879,-4.327,4.886,7.788,15,-2.09,1.866,4.808,8.075,-7.693,-7.859,-1.546,1.152,152.3,144.0,147.1,149.8,144.1,137.3,141.2,146.4,149.1,148.7,1,norm,1.264,1.162,-1.879,-1.828,-4.806,-4.771,-2.06,-1.215,-2.058,-1.762,1.3,-1.909,145.5,157.3,-4.385,-8.404,1.606,-1.274,7.956,4.574,-5.145,-8.134,11,4.664,4.789,5.295,4.745,2.04,2.016,1.364,1.818,11,4.75,4.884,60,15.9592603359,norm,0,41,41,41,338.855,338.865,338.87124583,338.871,338.873,338.876,down,0,1.23215721099,-10,001,015,1920_1200,Intel(R) Core(TM) i5-3570 CPU @ 3.40GHz,orientation_search,LEPPC096,Intel(R) HD Graphics 2500,2018_Nov_28_1113,testMonitor,
126.1,128.5,112.8,102.4,36,10,119.0,129.1,114.0,139.1,7.607,7.894,8.064,7.677,8.339,7.757,8.078,4.945,-4.328,-7.717,1.508,-1.316,8.263,4.475,-4.327,-8.488,114.8,122.6,-8.25,136.9,116.4,127.3,128.7,138.1,36,111.1,1,5,prime,10,0,61,norm,36,-4.789,down,norm,121.074498589,105.5,101.1,133.8,119.3,2,141.1,127.3,121.1,10,5,7.895,5.066,1.746,-2.061,-4.914,-7.678,122.7,5,182.1,-7.839,-7.636,10,-8.239,-7.865,-4.945,-4.324,-4.768,-5.163,5.013,7.656,8,-1.48,1.937,5.085,8.151,-7.775,-7.89,-1.206,1.666,138.4,,116.7,116.4,119.5,110.2,106.7,126.7,119.3,122.8,0,norm,1.851,1.652,-1.191,-1.396,-5.136,-4.708,-1.43,-1.592,-1.603,-1.642,1.531,-1.558,125.1,112.0,-4.77,-7.959,1.712,-1.597,8.03,4.489,-4.588,-7.873,12,4.888,4.9,4.516,4.824,1.43,1.828,1.662,1.309,12,4.597,4.81,40,15.9592603359,norm,0,42,42,42,341.183,341.193,341.210191886,341.21,341.212,341.215,down,1,3.54694412742,6.45305587258,001,015,1920_1200,Intel(R) Core(TM) i5-3570 CPU @ 3.40GHz,orientation_search,LEPPC096,Intel(R) HD Graphics 2500,2018_Nov_28_1113,testMonitor,
126.4,120.9,118.0,103.1,36,10,110.2,118.1,104.4,101.6,7.596,8.248,8.097,8.336,8.243,8.0,8.0,4.752,-4.876,-8.098,1.843,-2.095,8.46,5.036,-4.499,-8.079,125.6,101.1,-8.203,115.2,130.2,101.6,118.1,,36,115.8,4,5,prime,10,0,106,norm,36,-5.27,down,norm,121.074498589,141.1,102.8,139.1,114.1,2,121.0,120.5,118.2,10,5,7.658,5.149,1.85,-1.51,-4.583,-8.152,129.3,5,227.1,-8.291,-7.653,10,-7.79,-8.302,-4.723,-4.924,-5.198,-4.497,4.631,7.946,26,-1.775,1.894,4.983,8.265,-7.555,-8.463,-1.158,1.431,117.4,130.3,118.8,109.8,133.1,103.0,139.6,122.4,127.8,127.3,1,norm,1.83,1.95,-1.95,-2.058,-4.427,-4.391,-1.204,-1.14,-2.028,-1.889,1.544,-1.951,110.6,117.9,-4.457,-8.5,1.863,-1.927,8.445,4.888,-4.382,-8.162,12,4.879,4.513,4.895,4.4,1.906,1.872,1.806,1.158,12,4.503,5.136,40,15.9592603359,norm,0,43,43,43,344.795,344.804,344.813594776,344.814,344.815,344.818,down,1,1.31594238247,8.68405761753,001,015,1920_1200,Intel(R) Core(TM) i5-3570 CPU @ 3.40GHz,orientation_search,LEPPC096,Intel(R) HD Graphics 2500,2018_Nov_28_1113,testMonitor,
127.3,113.3,119.9,111.8,36,10,122.3,135.0,124.0,121.2,8.304,7.938,7.853,8.464,8.047,8.385,7.676,5.098,-5.201,-8.413,1.624,-1.226,7.661,4.466,-4.706,-8.449,136.8,132.3,-7.782,113.9,125.2,125.1,118.0,126.8,36,101.1,1,5,prime,10,0,87,norm,36,-4.701,down,norm,121.074498589,119.9,115.3,116.6,125.6,0,133.0,123.8,132.4,10,5,8.181,4.74,1.121,-1.345,-4.687,-7.802,113.7,5,208.1,-8.272,-8.328,10,-7.883,-7.749,-5.08,-4.63,-4.834,-4.627,5.029,8.125,6,-1.692,1.667,4.593,7.763,-8.293,-8.208,-1.405,1.667,129.7,120.1,123.6,123.9,119.0,125.6,119.4,,121.8,141.1,2,norm,1.411,1.107,-1.102,-1.795,-5.07,-4.688,-1.924,-1.925,-2.084,-1.575,1.656,-1.886,131.1,130.4,-4.791,-8.121,1.432,-1.287,7.706,5.117,-4.471,-8.117,12,4.854,4.959,5.281,5.295,1.42,1.345,1.883,1.246,12,4.408,5.12,40,15.9592603359,norm,0,44,44,44,346.171,346.18,346.187232583,346.187,346.189,346.192,down,1,1.06305017072,8.93694982928,001,015,1920_1200,Intel(R) Core(TM) i5-3570 CPU @ 3.40GHz,orientation_search,LEPPC096,Intel(R) HD Graphics 2500,2018_Nov_28_1113,testMonitor,
131.0,124.0,122.4,128.5,36,10,112.4,134.1,131.1,141.1,8.188,8.483,8.183,8.392,8.045,8.394,8.078,4.577,-4.871,-7.669,1.368,-1.954,7.801,4.498,-5.281,-8.063,,127.2,-8.49,131.9,131.3,108.5,117.1,127.6,36,124.1,5,5,prime,10,0,97,norm,36,-5.186,up,norm,121.074498589,115.6,111.6,128.1,120.2,5,126.6,115.7,117.5,10,5,8.356,5.066,2.06,-1.456,-4.974,-8.267,115.4,5,218.1,-8.129,-7.646,10,-8.067,-7.575,-5.046,-4.538,-4.759,-4.828,4.527,7.694,35,-1.706,1.584,5.068,7.536,-7.639,-7.945,-1.929,1.68,121.9,114.0,121.1,140.5,119.5,107.2,138.6,118.9,122.3,134.0,3,norm,1.911,1.302,-1.102,-1.151,-5.123,-4.447,-1.523,-1.814,-1.826,-1.575,1.589,-1.86,101.1,118.7,-5.133,-8.474,1.711,-2.097,8.315,5.192,-5.157,-7.956,12,5.149,4.327,5.097,4.533,1.205,1.788,1.192,1.26,12,4.337,5.05,40,15.9592603359,norm,0,45,45,45,347.295,347.317,347.327007751,347.327,347.329,347.332,up,1,1.5730211965,8.4269788035,001,015,1920_1200,Intel(R) Core(TM) i5-3570 CPU @ 3.40GHz,orientation_search,LEPPC096,Intel(R) HD Graphics 2500,2018_Nov_28_1113,testMonitor,
114.3,119.7,121.2,122.1,36,10,128.3,120.5,106.5,133.1,7.935,7.674,8.27,7.99,7.602,7.726,8.442,5.002,-5.062,-8.016,1.401,-1.233,7.592,4.664,-5.192,-8.143,106.0,122.7,-8.46,130.0,114.9,111.6,110.5,141.1,36,130.1,2,5,prime,10,0,109,norm,36,-5.219,up,norm,121.074498589,,132.9,127.6,134.3,5,119.7,116.5,109.7,10,5,7.679,5.191,1.36,-1.65,-4.828,-8.11,112.5,5,230.1,-8.179,-7.634,10,-7.679,-7.686,-5.298,-4.88,-4.569,-5.043,4.798,7.599,17,-1.481,2.011,4.319,8.49,-8.36,-8.226,-1.817,1.293,115.4,116.3,120.4,118.7,136.7,101.1,122.0,118.2,127.0,122.9,4,norm,1.768,2.07,-1.393,-1.288,-4.448,-4.411,-1.265,-1.622,-2.032,-1.87,2.067,-1.481,132.9,132.3,-4.602,-8.009,1.721,-2.027,8.299,4.462,-5.122,-8.134,12,5.16,4.496,4.328,4.728,1.288,1.722,1.309,1.68,12,5.132,5.145,40,15.9592603359,norm,0,46,46,46,348.938,348.951,348.970324928,348.971,348.972,348.975,up,1,1.07032495821,8.92967504179,001,015,1920_1200,Intel(R) Core(TM) i5-3570 CPU @ 3.40GHz,orientation_search,LEPPC096,Intel(R) HD Graphics 2500,2018_Nov_28_1113,testMonitor,
210.0,212.6,212.0,216.8,36,20,199.9,213.6,207.5,216.1,8.33,7.65,7.99,8.0,8.197,7.665,7.956,5.115,-5.249,-7.97,1.858,-2.055,8.353,4.797,-4.302,-7.793,219.9,216.6,-7.983,210.7,209.7,199.9,213.9,209.0,36,208.9,1,5,probe,5,0,74,norm,36,-4.408,down,norm,209.851755511,211.4,211.8,206.6,207.2,1,212.0,208.7,208.7,10,5,7.836,4.435,1.378,-1.421,-4.478,-7.974,216.7,2,135.9,-8.459,-8.28,10,-8.347,-8.244,-4.559,-4.464,-4.73,-5.206,4.931,8.441,7,-1.642,1.45,4.542,7.845,-8.228,-7.55,-1.279,1.33,209.5,207.5,214.7,208.9,212.2,218.2,,210.3,215.9,212.6,0,norm,1.652,2.064,-1.958,-1.909,-5.297,-4.421,-1.687,-1.965,-1.766,-1.164,1.159,-1.317,216.1,202.8,-4.584,-7.83,1.502,-1.845,7.849,4.307,-5.245,-8.127,13,4.774,4.573,4.446,4.425,1.361,2.034,2.058,1.719,13,5.232,5.082,10,121.074498589,norm,0,47,47,47,350.087,350.109,350.119416266,350.12,350.122,350.124,down,1,0.825728376745,9.17427162325,001,015,1920_1200,Intel(R) Core(TM) i5-3570 CPU @ 3.40GHz,orientation_search,LEPPC096,Intel(R) HD Graphics 2500,2018_Nov_28_1113,testMonitor,
194.4,209.4,198.9,207.3,36,20,193.6,195.4,200.2,204.8,7.533,7.817,7.722,8.16,8.155,7.582,7.641,5.115,-4.907,-8.465,1.376,-1.248,8.46,5.08,-4.608,-8.458,200.1,196.7,-7.906,206.5,210.9,205.0,190.9,202.6,36,202.5,1,5,probe,5,0,65,norm,36,-5.14,down,norm,200.851755511,205.4,205.3,198.5,202.7,0,200.3,196.3,192.3,10,5,8.25,4.759,1.998,-1.988,-4.696,-7.892,195.1,2,135.9,-8.068,-7.931,10,-8.492,-7.648,-5.27,-4.661,-4.813,-5.023,5.15,8.427,6,-1.198,1.991,4.97,7.573,-7.571,-7.865,-1.185,1.494,193.1,196.7,192.2,199.8,191.8,200.4,202.3,,203.9,197.0,1,norm,1.816,1.45,-1.185,-1.948,-4.348,-5.132,-1.854,-1.884,-2.092,-1.6,1.505,-1.899,201.5,199.5,-4.43,-7.98,1.388,-1.413,7.598,5.166,-4.837,-7.762,13,4.722,4.801,4.77,4.393,1.79,1.945,2.074,1.348,13,4.735,5.014,10,121.074498589,norm,0,48,48,48,350.992,351.013,351.02428984,351.024,351.026,351.029,down,1,0.876717389852,9.12328261015,001,015,1920_1200,Intel(R) Core(TM) i5-3570 CPU @ 3.40GHz,orientation_search,LEPPC096,Intel(R) HD Graphics 2500,2018_Nov_28_1113,testMonitor,
49.4,65.0,61.4,65.9,36,80,68.0,59.2,40.4,61.8,8.017,8.329,8.397,7.924,7.775,7.798,7.748,4.573,-4.636,-8.053,1.552,-1.622,8.23,4.663,-5.084,-7.895,76.3,76.1,-7.68,65.8,56.1,64.1,58.9,72.2,36,62.0,1,5,prime,10,0,108,norm,36,-4.774,up,norm,56.3163951059,61.9,58.4,49.0,46.4,5,,51.6,59.2,10,5,7.806,5.062,1.643,-1.958,-5.173,-7.958,69.8,5,164.3,-8.241,-8.377,80,-8.059,-7.96,-4.799,-4.717,-5.147,-5.224,4.522,8.122,11,-1.907,1.58,4.844,8.287,-8.235,-7.672,-1.901,1.237,62.9,42.5,50.8,42.2,45.4,36.3,50.2,66.9,73.3,65.5,0,norm,1.99,1.828,-1.744,-1.641,-4.754,-5.139,-1.653,-1.385,-2.062,-2.051,1.973,-1.152,75.0,55.4,-5.101,-8.052,1.592,-1.3,7.715,4.965,-4.701,-8.127,14,5.298,5.071,4.768,5.285,1.275,1.727,1.928,1.495,14,5.288,4.371,20,121.074498589,norm,0,49,49,49,351.939,351.949,351.958067872,351.958,351.96,351.963,up,1,0.926350209425,9.07364979057,001,015,1920_1200,Intel(R) Core(TM) i5-3570 CPU @ 3.40GHz,orientation_search,LEPPC096,Intel(R) HD Graphics 2500,2018_Nov_28_1113,testMonitor,
63.3,47.4,51.4,54.0,36,80,,56.3,36.3,49.7,8.014,8.294,7.515,7.975,7.908,7.725,7.677,4.827,-4.97,-8.16,1.735,-1.15,8.401,5.29,-4.518,-7.637,56.0,42.2,-8.396,44.7,54.5,50.7,64.4,51.1,36,69.1,4,5,prime,10,0,102,norm,36,-4.951,down,norm,56.3163951059,66.4,46.3,62.4,59.1,0,63.6,74.8,52.3,10,5,7.757,4.641,1.397,-1.212,-4.672,-7.714,61.2,5,158.3,-8.374,-8.304,80,-8.094,-7.526,-4.533,-4.953,-4.622,-5.173,5.007,8.389,24,-1.895,1.759,5.224,8.11,-7.764,-8.399,-1.849,1.158,50.0,68.6,48.7,59.1,55.5,60.7,52.4,40.5,45.7,55.0,1,norm,1.986,2.047,-2.025,-1.868,-4.413,-5.058,-1.447,-1.357,-1.218,-1.853,1.159,-1.918,62.5,59.0,-4.317,-7.529,1.432,-1.667,8.336,4.708,-4.303,-8.313,14,5.248,4.964,5.246,4.558,1.176,1.682,1.965,1.949,14,4.504,4.753,20,121.074498589,norm,0,50,50,50,352.922,352.931,352.94082221,352.941,352.943,352.945,down,1,0.974800396856,9.02519960314,001,015,1920_1200,Intel(R) Core(TM) i5-3570 CPU @ 3.40GHz,orientation_search,LEPPC096,Intel(R) HD Graphics 2500,2018_Nov_28_1113,testMonitor,
67.5,59.3,65.6,57.7,36,80,58.2,61.5,53.7,61.4,7.973,7.846,8.465,8.341,7.511,7.779,7.857,5.014,-4.401,-7.636,1.362,-1.342,8.215,4.859,-5.043,-8.103,48.3,71.2,-8.144,76.3,63.3,62.3,41.6,64.3,36,67.8,0,5,prime,10,0,92,norm,36,-5.069,up,norm,56.3163951059,60.4,50.4,55.9,49.0,5,62.2,64.8,67.1,10,5,7.934,5.064,1.334,-1.838,-4.456,-7.591,60.1,5,148.3,-8.314,-7.717,80,-8.155,-7.66,-4.645,-5.084,-4.934,-4.929,4.411,7.974,5,-1.895,1.604,4.505,8.154,-8.051,-7.792,-1.609,2.042,47.8,74.8,67.7,53.4,58.9,57.1,56.9,52.3,,36.3,2,norm,1.125,1.176,-1.199,-1.929,-4.758,-4.501,-1.739,-1.557,-1.954,-1.681,1.109,-1.652,65.0,62.7,-4.474,-8.375,1.61,-1.687,7.801,4.663,-5.019,-7.824,14,4.497,5.169,5.193,4.716,1.55,1.323,1.113,1.881,14,4.921,5.15,20,121.074498589,norm,0,51,51,51,353.94,353.949,353.955664877,353.956,353.958,353.96,up,1,0.739562244999,9.260437755,001,015,1920_1200,Intel(R) Core(TM) i5-3570 CPU @ 3.40GHz,orientation_search,LEPPC096,Intel(R) HD Graphics 2500,2018_Nov_28_1113,testMonitor,
45.0,66.4,40.9,46.6,36,80,66.2,36.3,46.0,42.0,7.859,7.804,8.387,7.819,8.302,8.358,7.547,4.8,-5.249,-7.88,1.237,-1.342,8.019,5.127,-4.448,-7.896,62.4,56.0,-7.632,58.9,48.1,45.3,57.8,49.5,36,48.8,0,5,prime,10,0,70,norm,36,-4.838,down,norm,56.3163951059,75.0,76.3,44.9,62.8,1,61.4,64.3,62.7,10,5,7.693,5.147,1.565,-1.899,-4.383,-7.537,52.9,5,126.3,-8.374,-8.446,80,-7.685,-8.05,-4.666,-4.681,-4.451,-4.545,4.545,8.146,1,-1.538,1.921,4.788,8.481,-8.09,-8.013,-1.341,1.346,61.3,49.4,57.0,49.5,,50.1,57.5,65.7,42.9,66.8,3,norm,1.812,1.668,-1.942,-1.402,-4.939,-4.476,-1.789,-2.076,-1.511,-1.926,1.915,-1.471,38.0,59.0,-4.346,-8.477,1.71,-1.207,8.344,4.521,-4.984,-7.714,14,5.157,4.694,4.818,4.727,1.829,1.681,1.674,2.032,14,4.536,4.646,20,121.074498589,norm,0,52,52,52,354.731,354.741,354.750197483,354.75,354.752,354.755,down,1,0.907284416404,9.0927155836,001,015,1920_1200,Intel(R) Core(TM) i5-3570 CPU @ 3.40GHz,orientation_search,LEPPC096,Intel(R) HD Graphics 2500,2018_Nov_28_1113,testMonitor,
52.8,59.9,60.7,60.9,36,80,62.7,61.5,49.9,49.6,7.634,7.955,8.218,7.519,7.559,7.94,8.367,5.248,-5.061,-7.871,1.902,-1.549,7.747,4.388,-5.052,-8.363,66.6,44.6,-8.145,36.3,52.2,,72.6,55.8,36,76.3,5,5,prime,10,0,104,norm,36,-5.071,up,norm,56.3163951059,50.6,61.1,61.8,53.0,3,60.8,61.6,57.3,10,5,8.466,4.907,1.598,-1.835,-4.393,-8.035,53.8,5,160.3,-8.496,-7.953,80,-7.64,-8.048,-4.531,-4.64,-4.833,-4.813,4.61,7.823,33,-2.092,1.138,4.936,7.7,-7.847,-7.885,-1.157,1.524,67.1,54.4,51.9,52.6,53.0,60.3,46.4,71.7,51.2,59.9,4,norm,1.572,1.699,-1.314,-1.624,-4.836,-4.502,-1.535,-2.076,-1.187,-1.862,1.371,-1.885,59.8,45.3,-4.661,-7.514,1.895,-2.04,8.354,4.365,-4.628,-7.563,14,4.638,4.752,4.556,4.996,1.89,1.441,1.116,2.095,14,4.782,5.13,20,121.074498589,norm,0,53,53,53,355.694,355.705,355.717513913,355.718,355.719,355.722,up,1,1.21585391142,8.78414608858,001,015,1920_1200,Intel(R) Core(TM) i5-3570 CPU @ 3.40GHz,orientation_search,LEPPC096,Intel(R) HD Graphics 2500,2018_Nov_28_1113,testMonitor,
253.5,254.9,259.8,252.9,36,30,263.7,250.5,257.3,243.7,7.693,8.156,7.515,8.204,7.527,8.392,7.535,4.794,-4.803,-8.187,1.521,-2.073,7.545,4.508,-5.145,-8.304,254.1,257.9,-7.965,255.8,257.8,255.2,253.9,263.5,36,252.1,0,5,probe,5,0,109,norm,36,-5.289,up,norm,253.712515915,258.2,254.3,257.3,257.8,4,246.4,248.1,247.0,10,5,7.608,4.929,1.707,-1.589,-4.688,-8.455,251.7,2,144.7,-7.929,-7.804,80,-7.669,-7.706,-4.61,-5.261,-4.59,-5.042,4.974,8.029,4,-1.631,1.222,4.978,7.646,-8.286,-7.786,-1.853,2.04,253.3,249.5,248.8,249.9,252.9,255.8,262.5,254.2,244.8,,0,norm,1.788,2.06,-1.266,-1.556,-4.58,-4.864,-1.407,-1.822,-1.535,-1.199,1.73,-1.719,253.9,251.5,-5.196,-7.565,1.693,-1.64,7.603,4.602,-4.569,-7.751,15,4.528,4.947,4.449,4.981,2.073,1.736,1.15,1.173,15,5.01,4.732,80,56.3163951059,norm,0,54,54,54,356.97,356.979,356.996639852,356.997,356.999,357.001,up,1,1.00996302688,8.99003697312,001,015,1920_1200,Intel(R) Core(TM) i5-3570 CPU @ 3.40GHz,orientation_search,LEPPC096,Intel(R) HD Graphics 2500,2018_Nov_28_1113,testMonitor,
228.9,242.7,231.2,231.0,36,30,228.9,234.6,232.7,229.4,7.51,7.795,7.718,8.201,7.635,8.084,8.407,4.391,-4.453,-8.457,1.927,-2.04,8.334,4.921,-4.918,-7.706,222.7,238.9,-7.723,233.5,233.4,239.2,229.3,237.9,36,238.5,0,5,probe,5,0,88,norm,36,-4.601,up,norm,232.712515915,230.0,231.9,228.5,233.7,5,225.5,229.0,237.8,10,5,7.985,4.439,1.713,-2.027,-4.948,-8.112,229.7,2,144.7,-8.412,-7.828,80,-7.738,-7.949,-4.981,-4.827,-5.031,-4.399,5.032,8.086,5,-2.004,1.966,5.295,7.818,-7.637,-8.34,-1.479,1.533,236.9,229.8,237.5,223.1,230.3,222.7,238.0,242.5,,238.4,1,norm,1.93,1.679,-1.896,-1.437,-5.026,-4.388,-1.831,-1.659,-1.416,-1.986,1.672,-1.897,238.3,229.7,-5.287,-8.438,1.593,-1.683,7.898,4.656,-4.739,-8.173,15,4.648,4.602,5.133,4.983,1.81,1.425,1.59,1.373,15,5.243,5.297,80,56.3163951059,norm,0,55,55,55,358.028,358.038,358.057195266,358.057,358.059,358.062,up,1,0.842652271444,9.15734772856,001,015,1920_1200,Intel(R) Core(TM) i5-3570 CPU @ 3.40GHz,orientation_search,LEPPC096,Intel(R) HD Graphics 2500,2018_Nov_28_1113,testMonitor,
90.8,80.7,75.1,62.7,36,-30,78.2,69.6,59.9,60.7,8.186,7.503,8.133,8.058,7.604,8.385,7.753,5.236,-4.532,-8.425,1.132,-1.7,7.759,5.051,-4.376,-7.992,54.7,77.0,-8.205,77.0,64.0,72.1,75.0,70.2,36,60.3,3,5,prime,10,0,90,norm,36,-5.072,down,norm,70.8387683335,75.7,70.5,67.9,73.4,1,50.8,67.9,71.8,10,6,8.441,4.853,1.989,-1.866,-4.544,-8.075,75.6,6,160.8,-7.693,-8.367,-30,-8.118,-7.512,-4.708,-4.987,-5.279,-5.143,4.653,8.176,19,-1.791,2.079,4.573,7.8,-8.177,-7.54,-1.654,2.037,54.7,70.7,86.3,64.5,77.7,79.2,72.0,68.8,72.1,81.7,0,norm,1.993,1.882,-1.401,-1.511,-4.698,-4.502,-1.468,-1.249,-1.378,-1.145,1.744,-1.916,,69.7,-5.239,-8.339,1.975,-1.121,8.264,4.833,-4.309,-8.354,16,4.79,4.458,4.612,4.598,1.311,1.805,1.684,1.895,16,4.616,5.133,30,56.3163951059,norm,0,56,56,56,358.948,358.969,358.979797154,358.98,358.982,358.985,down,1,0.73913603861,9.26086396139,001,015,1920_1200,Intel(R) Core(TM) i5-3570 CPU @ 3.40GHz,orientation_search,LEPPC096,Intel(R) HD Graphics 2500,2018_Nov_28_1113,testMonitor,
68.9,62.3,90.4,76.6,36,-30,80.0,79.0,78.0,53.4,8.491,8.439,7.912,8.15,7.831,8.439,7.819,4.761,-4.354,-8.476,1.596,-1.402,7.51,4.394,-4.38,-7.708,73.5,67.4,-7.863,80.1,53.4,64.5,,72.5,36,86.2,5,5,prime,10,0,86,norm,36,-4.413,down,norm,70.8387683335,66.5,70.7,64.0,80.1,2,75.6,85.9,65.0,10,6,7.532,4.4,1.505,-1.192,-5.03,-7.59,90.8,6,156.8,-8.482,-8.283,-30,-7.641,-8.433,-4.617,-4.346,-5.079,-5.032,4.551,7.867,32,-1.499,1.699,4.388,7.805,-8.432,-7.885,-1.724,2.097,65.9,53.2,60.0,50.8,69.7,74.4,66.5,67.9,65.0,84.7,1,norm,1.481,1.862,-1.331,-1.102,-5.101,-4.486,-1.242,-1.925,-1.4,-1.553,1.885,-1.699,61.8,69.8,-5.098,-7.69,1.926,-1.243,8.472,4.763,-4.904,-7.672,16,5.11,4.815,4.915,5.042,2.013,1.384,1.998,1.505,16,4.348,5.08,30,56.3163951059,norm,0,57,57,57,359.742,359.752,359.758419764,359.759,359.76,359.763,up,0,0.893800357328,-10,001,015,1920_1200,Intel(R) Core(TM) i5-3570 CPU @ 3.40GHz,orientation_search,LEPPC096,Intel(R) HD Graphics 2500,2018_Nov_28_1113,testMonitor,
73.9,74.2,71.2,62.0,36,-30,72.7,68.1,67.9,90.8,7.783,8.102,8.41,8.385,8.167,7.875,7.877,5.202,-5.021,-8.128,2.079,-1.104,7.967,4.662,-4.537,-7.897,73.7,54.8,-8.497,76.8,62.4,59.3,54.4,70.1,36,78.3,3,5,prime,10,0,116,norm,36,-4.676,down,norm,70.8387683335,62.3,60.5,50.8,72.3,0,80.4,63.3,67.5,10,6,8.339,5.202,1.212,-1.147,-4.978,-8.135,87.4,6,186.8,-7.934,-7.754,-30,-8.396,-7.824,-4.904,-4.578,-4.844,-5.027,4.55,8.193,18,-1.973,1.342,4.321,7.736,-8.005,-8.44,-1.209,1.835,64.3,68.7,55.1,74.0,72.1,71.1,70.0,73.1,72.7,75.5,2,norm,1.508,1.995,-1.151,-1.751,-4.438,-4.923,-1.462,-1.763,-1.92,-1.726,1.633,-1.794,56.4,,-4.779,-8.244,1.322,-1.879,8.08,5.097,-4.931,-7.5,16,5.103,4.572,4.717,4.871,1.151,1.565,1.879,2.034,16,4.546,4.759,30,56.3163951059,norm,0,58,58,58,361.728,361.737,361.754534102,361.755,361.756,361.759,down,1,4.35894334625,5.64105665375,001,015,1920_1200,Intel(R) Core(TM) i5-3570 CPU @ 3.40GHz,orientation_search,LEPPC096,Intel(R) HD Graphics 2500,2018_Nov_28_1113,testMonitor,
71.3,79.0,,85.3,36,-30,50.8,67.0,68.3,75.2,8.115,8.465,7.863,8.293,7.729,8.416,7.521,5.218,-4.347,-8.42,1.584,-1.79,8.42,5.271,-5.001,-8.294,71.5,77.7,-7.584,85.9,72.0,57.6,68.4,62.6,36,64.9,3,5,prime,10,0,110,norm,36,-5.064,down,norm,70.8387683335,69.0,74.6,82.3,65.3,2,75.8,90.8,60.7,10,6,8.245,5.043,1.652,-2.086,-4.987,-8.014,69.8,6,180.8,-7.66,-8.367,-30,-8.255,-8.045,-4.395,-4.96,-4.451,-5.065,5.014,8.438,20,-1.436,1.829,4.864,7.546,-8.062,-7.689,-1.606,1.7,73.7,68.1,66.8,67.8,83.1,86.2,66.0,90.0,68.6,69.8,3,norm,1.31,1.769,-1.407,-1.307,-4.444,-4.826,-1.451,-1.26,-1.741,-1.669,1.224,-1.193,61.9,83.5,-4.969,-8.377,1.309,-1.618,8.471,4.593,-5.11,-7.617,16,5.029,5.143,5.069,4.709,1.812,1.865,1.47,2.087,16,4.701,4.34,30,56.3163951059,norm,0,59,59,59,366.151,366.164,366.183833799,366.184,366.186,366.188,down,1,2.68510170243,7.31489829757,001,015,1920_1200,Intel(R) Core(TM) i5-3570 CPU @ 3.40GHz,orientation_search,LEPPC096,Intel(R) HD Graphics 2500,2018_Nov_28_1113,testMonitor,
79.7,79.0,66.7,54.2,36,-30,77.3,,75.4,59.3,8.3,7.729,7.974,8.311,8.07,7.741,7.893,5.04,-4.592,-7.534,1.766,-1.488,7.567,5.183,-4.581,-7.633,68.7,84.5,-7.871,82.6,58.4,73.1,79.5,59.0,36,90.8,4,5,prime,10,0,65,norm,36,-5.243,down,norm,70.8387683335,69.9,66.6,60.6,61.3,1,77.6,50.8,72.7,10,6,7.748,4.598,1.689,-1.497,-4.985,-7.708,59.4,6,135.8,-7.836,-8.202,-30,-8.455,-8.415,-4.873,-4.781,-4.506,-4.507,4.551,8.213,25,-1.76,1.514,5.052,8.348,-8.257,-7.648,-1.714,1.754,83.7,58.1,69.8,70.9,76.0,62.1,71.5,71.1,79.3,63.2,4,norm,1.626,1.304,-1.216,-1.387,-5.078,-5.007,-1.194,-1.401,-1.578,-1.222,1.834,-1.872,81.3,77.3,-4.379,-8.01,1.579,-1.482,8.334,4.6,-4.611,-7.864,16,5.207,4.336,4.555,4.774,2.016,1.704,1.513,1.304,16,5.156,4.835,30,56.3163951059,norm,0,60,60,60,368.915,368.924,368.931309537,368.931,368.933,368.936,down,1,1.41850719706,8.58149280294,001,015,1920_1200,Intel(R) Core(TM) i5-3570 CPU @ 3.40GHz,orientation_search,LEPPC096,Intel(R) HD Graphics 2500,2018_Nov_28_1113,testMonitor,
75.0,68.6,61.6,72.8,36,-30,55.2,,54.8,57.0,8.261,8.373,8.12,8.413,8.27,8.087,8.198,4.954,-4.766,-7.759,1.939,-1.363,8.438,4.498,-5.047,-7.534,62.6,50.8,-8.208,67.7,59.5,76.8,74.7,66.4,36,82.3,4,5,prime,10,0,75,norm,36,-4.648,down,norm,70.8387683335,66.6,57.4,82.1,76.6,1,87.1,73.0,69.1,10,6,7.72,4.477,1.289,-1.476,-4.535,-8.162,85.6,6,145.8,-8.31,-7.653,-30,-7.808,-8.284,-5.268,-5.2,-4.712,-5.082,5.002,7.654,25,-1.839,1.199,5.206,7.874,-8.453,-7.631,-1.374,1.521,62.8,85.7,87.9,60.7,70.1,90.8,66.8,78.5,68.9,66.7,5,norm,1.619,1.105,-1.959,-1.663,-4.687,-4.491,-1.244,-1.373,-1.864,-1.55,2.02,-1.157,80.1,80.3,-4.515,-8.124,1.646,-1.166,8.485,5.037,-4.68,-7.746,16,5.25,4.619,5.287,4.423,1.748,1.591,1.967,2.009,16,4.434,4.458,30,56.3163951059,norm,0,61,61,61,370.398,370.419,370.429627803,370.43,370.432,370.435,down,1,1.54969364154,8.45030635846,001,015,1920_1200,Intel(R) Core(TM) i5-3570 CPU @ 3.40GHz,orientation_search,LEPPC096,Intel(R) HD Graphics 2500,2018_Nov_28_1113,testMonitor,
138.1,136.5,139.8,139.7,36,-30,144.6,142.4,139.8,140.2,8.232,7.904,7.741,7.678,7.679,8.164,8.388,4.608,-5.101,-8.054,1.858,-1.433,8.3,4.81,-4.416,-7.93,147.8,136.8,-8.026,142.7,136.7,136.3,141.1,138.4,36,137.4,2,5,probe,5,0,104,norm,36,-4.46,down,norm,140.74540597,140.5,149.1,143.3,130.7,1,139.6,,142.9,10,6,7.594,4.974,1.981,-1.991,-4.879,-8.345,148.4,2,36.7,-8.13,-7.913,-30,-7.998,-7.872,-4.923,-4.429,-4.526,-4.677,5.204,8.073,13,-2.088,1.957,4.312,8.124,-7.952,-7.996,-1.164,1.809,145.5,138.5,142.3,141.7,140.5,136.1,139.8,145.7,138.0,143.1,0,norm,1.425,1.996,-1.742,-1.754,-5.059,-4.391,-1.952,-1.374,-1.633,-1.838,2.077,-1.369,135.0,142.2,-4.502,-7.837,1.621,-1.216,8.311,4.31,-5.033,-7.572,17,4.417,4.687,4.751,5.192,1.315,1.108,1.168,2.077,17,4.502,4.531,-30,70.8387683335,norm,0,62,62,62,372.004,372.013,372.01978147,372.02,372.022,372.024,down,1,0.941475404543,9.05852459546,001,015,1920_1200,Intel(R) Core(TM) i5-3570 CPU @ 3.40GHz,orientation_search,LEPPC096,Intel(R) HD Graphics 2500,2018_Nov_28_1113,testMonitor,
105.7,111.1,114.5,112.6,36,-30,119.5,112.4,124.8,120.5,8.438,7.952,8.454,8.452,7.662,7.907,8.299,5.127,-5.215,-7.66,2.064,-1.701,8.387,4.325,-4.419,-7.764,118.3,120.4,-7.957,108.4,120.4,115.0,115.6,118.9,36,111.4,0,5,probe,5,0,79,norm,36,-5.113,up,norm,115.74540597,118.8,115.7,113.1,117.6,3,113.8,120.0,116.8,10,6,7.546,4.771,1.882,-1.459,-5.063,-8.333,113.3,2,36.7,-8.393,-7.785,-30,-8.103,-7.627,-5.257,-5.147,-4.757,-5.245,4.526,7.616,3,-1.844,1.733,4.443,7.559,-7.74,-7.701,-1.75,1.169,112.8,112.6,,115.3,108.8,111.3,116.9,111.2,118.4,121.6,1,norm,1.697,1.238,-1.692,-1.743,-4.969,-4.322,-1.315,-1.533,-1.691,-2.066,1.385,-1.134,125.7,115.0,-5.025,-7.934,1.198,-1.8,7.948,4.484,-5.003,-7.511,17,4.418,4.501,5.086,4.769,1.801,1.454,1.408,1.399,17,5.018,4.398,-30,70.8387683335,norm,0,63,63,63,373.002,373.012,373.017952585,373.018,373.02,373.022,up,1,0.786918844824,9.21308115518,001,015,1920_1200,Intel(R) Core(TM) i5-3570 CPU @ 3.40GHz,orientation_search,LEPPC096,Intel(R) HD Graphics 2500,2018_Nov_28_1113,testMonitor,
343.7,363.4,331.0,356.7,36,-60,343.5,348.2,357.7,354.2,7.809,7.833,7.826,8.051,8.441,7.801,8.242,4.906,-4.688,-7.874,1.7,-2.022,8.42,5.197,-5.175,-7.773,327.3,337.8,-8.136,353.4,338.9,346.5,338.4,350.3,36,,4,5,prime,10,0,99,norm,36,-4.347,up,norm,344.244558931,336.5,341.0,358.6,332.9,3,359.5,337.3,329.4,10,5,7.807,5.216,1.239,-1.948,-5.215,-7.743,343.0,5,443.2,-8.03,-7.526,-60,-8.36,-7.671,-5.037,-4.88,-4.427,-4.613,5.254,7.748,27,-2.005,1.581,5.112,7.712,-8.344,-8.479,-1.456,1.949,341.5,324.2,334.9,352.7,364.2,339.3,344.8,348.3,361.3,328.4,0,norm,1.976,1.86,-1.916,-1.2,-4.981,-4.36,-1.3,-1.785,-2.073,-1.831,1.212,-1.225,337.6,361.9,-5.021,-8.281,1.807,-1.419,7.875,5.268,-5.118,-7.845,18,5.212,5.208,4.93,4.508,1.586,1.511,1.259,1.325,18,4.733,4.937,-30,70.8387683335,norm,0,64,64,64,373.829,381.485,381.503039437,381.503,381.505,381.507,up,1,2.00226897548,7.99773102452,001,015,1920_1200,Intel(R) Core(TM) i5-3570 CPU @ 3.40GHz,orientation_search,LEPPC096,Intel(R) HD Graphics 2500,2018_Nov_28_1113,testMonitor,
353.9,328.0,343.4,341.1,36,-60,362.2,332.0,329.9,363.9,8.162,7.994,7.814,7.787,7.507,7.829,7.519,4.332,-4.355,-7.967,1.678,-1.909,7.97,4.959,-4.866,-7.946,354.6,360.0,-7.747,337.3,349.5,334.8,329.6,350.9,36,344.8,2,5,prime,10,0,74,norm,36,-5.183,up,norm,344.244558931,356.5,,351.8,350.0,4,324.2,344.5,353.4,10,5,7.957,4.537,1.773,-1.435,-4.576,-8.045,343.4,5,418.2,-8.134,-8.062,-60,-7.999,-7.504,-4.74,-4.977,-4.468,-4.825,5.295,8.383,16,-1.77,1.786,5.103,7.592,-8.166,-8.309,-1.674,1.546,341.4,357.2,345.7,347.8,360.0,342.2,338.6,337.2,364.2,353.2,1,norm,1.103,1.161,-1.828,-1.329,-4.971,-5.195,-1.166,-1.483,-1.125,-1.98,1.343,-1.803,352.8,328.8,-4.802,-8.276,1.639,-1.633,8.351,4.488,-5.285,-7.677,18,4.805,4.845,4.795,4.715,1.39,1.643,1.301,1.539,18,4.789,5.156,-30,70.8387683335,norm,0,65,65,65,383.542,383.552,383.562018009,383.562,383.564,383.566,up,1,0.756865258096,9.2431347419,001,015,1920_1200,Intel(R) Core(TM) i5-3570 CPU @ 3.40GHz,orientation_search,LEPPC096,Intel(R) HD Graphics 2500,2018_Nov_28_1113,testMonitor,
337.7,348.0,,343.9,36,-60,354.9,345.4,341.0,339.2,8.176,8.444,7.581,8.43,7.738,7.913,7.584,4.847,-5.064,-7.985,1.548,-1.319,7.53,4.478,-4.561,-8.378,346.0,364.2,-7.994,330.0,348.3,347.3,335.6,346.7,36,340.3,3,5,prime,10,0,85,norm,36,-4.872,down,norm,344.244558931,332.2,362.6,335.0,335.7,2,345.9,352.4,324.2,10,5,7.89,4.481,1.721,-1.492,-5.245,-7.509,354.2,5,429.2,-8.33,-7.555,-60,-8.245,-8.009,-5.034,-4.786,-5.053,-4.689,4.825,7.772,20,-1.485,1.422,4.801,8.434,-7.544,-8.219,-1.883,1.559,350.8,332.2,337.0,348.8,341.5,355.2,337.1,333.0,334.0,333.2,2,norm,1.99,1.674,-1.729,-1.289,-4.819,-5.144,-1.167,-1.977,-1.422,-1.861,1.38,-1.552,343.5,340.9,-5.218,-7.536,1.252,-1.469,7.981,4.939,-4.544,-8.123,18,4.331,4.872,4.979,4.703,1.921,2.02,1.232,1.532,18,4.818,5.125,-30,70.8387683335,norm,0,66,66,66,384.343,384.351,384.358738997,384.359,384.361,384.363,down,1,1.06288023147,8.93711976853,001,015,1920_1200,Intel(R) Core(TM) i5-3570 CPU @ 3.40GHz,orientation_search,LEPPC096,Intel(R) HD Graphics 2500,2018_Nov_28_1113,testMonitor,
345.7,338.2,349.1,361.3,36,-60,344.6,340.1,350.3,328.6,7.924,7.724,7.512,7.716,8.439,8.031,7.936,4.639,-4.817,-8.329,1.154,-1.231,8.119,4.712,-4.751,-8.112,337.1,338.6,-8.18,341.0,332.8,341.4,341.5,331.6,36,351.6,1,5,prime,10,0,113,norm,36,-4.832,down,norm,344.244558931,336.7,324.2,337.7,337.6,1,341.3,348.0,348.9,10,5,7.877,4.62,1.722,-2.064,-4.309,-7.882,356.3,5,457.2,-7.876,-7.522,-60,-7.683,-8.061,-4.557,-5.014,-5.127,-4.799,5.173,8.199,7,-1.761,1.318,5.103,8.165,-8.132,-7.981,-1.904,1.751,339.7,342.0,343.0,329.7,333.6,340.8,,341.2,344.4,364.2,3,norm,2.008,2.098,-1.588,-1.508,-4.845,-4.795,-1.45,-1.241,-1.842,-1.63,1.992,-1.218,352.1,346.4,-4.504,-8.451,1.894,-1.542,7.779,4.653,-4.407,-7.807,18,5.01,5.294,4.419,5.045,1.328,1.277,1.21,1.797,18,5.113,4.828,-30,70.8387683335,norm,0,67,67,67,385.459,385.469,385.480779209,385.481,385.483,385.485,down,1,0.924928213499,9.0750717865,001,015,1920_1200,Intel(R) Core(TM) i5-3570 CPU @ 3.40GHz,orientation_search,LEPPC096,Intel(R) HD Graphics 2500,2018_Nov_28_1113,testMonitor,
352.3,346.9,,324.2,36,-60,345.8,335.6,352.7,364.0,8.208,7.922,7.903,8.253,8.042,8.012,8.081,5.069,-4.885,-7.991,2.091,-1.6,8.126,4.349,-4.423,-8.273,341.1,363.6,-8.134,348.2,353.5,338.5,343.1,354.1,36,338.8,3,5,prime,10,0,87,norm,36,-4.901,down,norm,344.244558931,340.9,352.0,325.1,364.2,2,334.2,353.3,334.1,10,5,8.074,4.933,1.298,-2.034,-5.034,-8.175,363.3,5,431.2,-7.868,-7.614,-60,-8.427,-8.084,-4.504,-5.18,-5.102,-5.257,4.864,7.964,20,-1.792,1.525,5.158,7.817,-8.392,-7.91,-1.175,1.927,351.1,349.0,364.2,354.3,327.3,341.9,351.6,342.9,355.7,334.3,4,norm,1.974,1.81,-1.633,-1.286,-5.24,-5.007,-1.978,-1.283,-2.069,-1.625,1.227,-1.294,329.1,337.1,-4.838,-8.428,2.07,-1.449,8.056,4.483,-4.403,-7.863,18,5.082,4.693,4.973,4.509,1.299,1.736,1.317,1.32,18,4.647,4.954,-30,70.8387683335,norm,0,68,68,68,386.443,386.454,386.458481854,386.459,386.46,386.463,up,0,1.59344529602,-10,001,015,1920_1200,Intel(R) Core(TM) i5-3570 CPU @ 3.40GHz,orientation_search,LEPPC096,Intel(R) HD Graphics 2500,2018_Nov_28_1113,testMonitor,
368.2,364.0,365.3,366.9,36,-40,375.1,375.7,373.3,364.7,8.434,7.975,8.096,8.123,8.229,7.802,7.927,4.828,-5.033,-8.074,2.046,-1.106,8.148,4.325,-5.046,-7.523,364.1,370.2,-8.063,364.4,365.5,363.0,368.2,374.9,36,365.8,0,5,probe,5,0,79,norm,36,-5.216,down,norm,368.207998654,369.1,363.0,368.9,373.4,2,365.5,368.1,369.0,10,5,7.563,4.497,1.683,-1.183,-5.161,-8.341,358.2,1,289.2,-8.084,-7.878,-60,-8.481,-7.662,-4.898,-5.092,-5.095,-4.436,4.532,7.691,2,-2.083,1.544,4.602,7.702,-7.74,-8.157,-2.065,1.534,363.3,365.7,371.8,,372.2,365.5,364.3,369.4,361.3,378.2,0,norm,1.169,1.364,-1.94,-1.634,-5.084,-4.711,-1.827,-2.014,-2.015,-1.405,1.721,-2.093,368.7,372.9,-5.294,-8.321,1.155,-1.412,8.161,5.216,-4.661,-7.772,19,4.81,4.812,4.746,5.188,1.711,1.496,1.357,1.488,19,4.688,5.252,-60,344.244558931,norm,0,69,69,69,389.106,389.116,389.131122453,389.131,389.133,389.135,down,1,1.60475123522,8.39524876478,001,015,1920_1200,Intel(R) Core(TM) i5-3570 CPU @ 3.40GHz,orientation_search,LEPPC096,Intel(R) HD Graphics 2500,2018_Nov_28_1113,testMonitor,
247.7,232.1,250.0,248.4,36,60,246.8,236.8,245.5,235.1,8.354,8.285,8.393,8.041,7.924,7.797,7.779,5.293,-5.168,-8.328,2.039,-1.353,8.207,4.932,-5.248,-7.969,261.1,249.1,-7.616,250.4,237.3,256.4,,248.7,36,243.3,5,5,prime,10,0,84,norm,36,-4.687,down,norm,244.60593483,236.7,246.7,228.8,231.7,2,243.1,252.5,244.8,10,5,8.329,5.163,1.378,-1.89,-4.924,-7.653,224.6,5,328.6,-7.721,-7.961,60,-8.245,-7.763,-5.152,-4.981,-4.814,-4.86,4.702,8.212,32,-1.284,1.178,4.524,8.053,-7.927,-8.431,-2.024,1.338,248.7,239.4,238.2,251.1,264.6,262.0,240.1,228.6,244.0,236.7,0,norm,1.743,1.875,-1.132,-1.35,-4.838,-5.019,-1.541,-1.664,-1.254,-1.868,1.273,-1.996,248.6,245.2,-4.76,-8.371,1.692,-2.063,8.457,4.318,-4.726,-8.275,20,4.476,5.095,5.16,4.654,1.415,1.943,1.884,1.515,20,4.321,4.55,-40,344.244558931,norm,0,70,70,70,390.773,390.783,390.800135468,390.8,390.802,390.805,down,1,0.786045604706,9.21395439529,001,015,1920_1200,Intel(R) Core(TM) i5-3570 CPU @ 3.40GHz,orientation_search,LEPPC096,Intel(R) HD Graphics 2500,2018_Nov_28_1113,testMonitor,
250.4,239.4,242.5,253.7,36,60,237.5,247.5,264.6,238.5,8.122,7.583,7.778,7.66,7.505,7.63,8.033,5.156,-5.256,-7.709,1.879,-1.467,7.967,4.763,-4.57,-8.272,,247.9,-8.305,244.3,264.5,250.2,242.5,242.4,36,241.5,5,5,prime,10,0,107,norm,36,-4.699,up,norm,244.60593483,240.8,231.8,243.0,252.3,5,246.8,253.6,244.3,10,5,7.873,4.688,1.241,-1.478,-4.833,-8.442,224.6,5,351.6,-7.783,-8.291,60,-7.669,-8.331,-5.214,-4.947,-4.957,-4.475,5.264,7.84,35,-1.41,1.294,5.091,8.292,-7.724,-7.507,-1.618,1.523,254.8,251.0,229.3,257.6,256.9,230.8,247.5,236.4,242.8,232.6,1,norm,1.183,1.166,-2.097,-1.642,-4.763,-4.656,-1.506,-1.661,-1.962,-1.893,2.012,-1.325,246.7,245.4,-4.698,-8.382,1.52,-1.324,7.601,4.481,-4.485,-8.008,20,4.347,4.934,4.678,4.654,2.063,1.705,1.244,1.202,20,5.028,4.769,-40,344.244558931,norm,0,71,71,71,391.608,391.618,391.627004521,391.627,391.629,391.631,up,1,1.11208261884,8.88791738116,001,015,1920_1200,Intel(R) Core(TM) i5-3570 CPU @ 3.40GHz,orientation_search,LEPPC096,Intel(R) HD Graphics 2500,2018_Nov_28_1113,testMonitor,
252.9,251.2,236.2,248.5,36,60,236.6,251.0,240.2,254.4,7.58,7.932,8.43,8.277,8.003,8.284,7.979,5.277,-5.069,-7.532,1.204,-1.333,7.728,4.446,-4.546,-7.629,240.5,230.4,-8.444,249.2,224.7,243.2,247.2,226.3,36,232.1,1,5,prime,10,0,92,norm,36,-4.412,up,norm,244.60593483,239.5,248.5,243.2,240.2,3,260.6,264.6,251.3,10,5,7.782,4.319,1.604,-1.923,-4.673,-7.828,261.5,5,336.6,-8.051,-7.575,60,-7.511,-7.858,-4.597,-5.156,-5.171,-5.299,5.094,8.197,9,-1.382,1.28,4.747,7.794,-7.6,-8.123,-1.181,1.159,,246.9,259.9,242.4,246.3,252.9,241.7,245.2,245.7,233.5,2,norm,1.897,1.319,-1.442,-1.865,-5.071,-4.626,-1.919,-1.614,-1.481,-2.053,1.985,-1.61,237.9,224.6,-4.764,-8.296,1.618,-1.906,7.696,5.084,-4.789,-7.878,20,4.719,4.615,4.329,4.326,2.014,1.471,1.737,1.195,20,5.272,4.485,-40,344.244558931,norm,0,72,72,72,392.776,392.788,392.808557874,392.809,392.811,392.813,up,1,0.912839889788,9.08716011021,001,015,1920_1200,Intel(R) Core(TM) i5-3570 CPU @ 3.40GHz,orientation_search,LEPPC096,Intel(R) HD Graphics 2500,2018_Nov_28_1113,testMonitor,
239.2,238.0,242.9,246.0,36,60,240.9,264.6,249.0,251.6,8.053,7.591,8.434,8.085,8.044,7.643,7.936,4.682,-4.389,-8.474,1.777,-2.061,8.42,4.591,-4.803,-7.568,259.7,240.5,-7.678,244.6,235.2,258.3,,239.3,36,236.5,5,5,prime,10,0,82,norm,36,-4.982,down,norm,244.60593483,241.9,257.8,239.3,237.0,2,240.3,236.6,224.6,10,5,8.095,5.205,1.658,-1.769,-5.128,-7.899,254.3,5,326.6,-7.915,-7.769,60,-7.991,-7.872,-4.924,-4.987,-4.974,-4.345,4.523,7.72,32,-1.665,1.233,4.317,8.296,-7.655,-8.204,-1.585,1.885,250.9,248.2,249.8,254.6,240.9,258.0,229.3,226.4,244.6,240.5,3,norm,1.291,1.166,-2.076,-1.427,-5.193,-4.597,-1.634,-1.352,-1.791,-1.644,2.056,-2.0,245.9,237.3,-4.688,-8.105,1.479,-1.235,8.015,5.222,-4.486,-8.091,20,5.227,5.089,4.653,4.412,1.194,1.756,1.37,1.865,20,5.197,4.53,-40,344.244558931,norm,0,73,73,73,393.759,393.769,393.779642548,393.78,393.782,393.784,up,0,0.671968388284,-10,001,015,1920_1200,Intel(R) Core(TM) i5-3570 CPU @ 3.40GHz,orientation_search,LEPPC096,Intel(R) HD Graphics 2500,2018_Nov_28_1113,testMonitor,
243.4,252.3,264.2,242.7,36,60,241.0,244.9,235.2,238.0,7.961,7.795,7.846,7.744,8.324,8.162,7.964,4.81,-5.198,-7.771,2.029,-2.04,8.418,4.302,-4.758,-8.008,247.4,247.3,-7.875,261.1,252.6,246.6,241.9,250.6,36,243.0,1,5,prime,10,0,64,norm,36,-5.293,down,norm,244.60593483,246.1,235.1,230.0,242.6,1,246.8,246.9,258.7,10,5,8.271,5.151,1.962,-1.273,-4.842,-7.862,247.9,5,308.6,-8.159,-8.057,60,-7.911,-8.031,-4.894,-4.571,-4.834,-4.429,4.659,7.797,7,-1.161,2.063,4.794,8.201,-7.613,-8.363,-1.399,1.808,233.4,264.6,253.7,228.1,253.1,241.2,,224.6,230.9,235.6,4,norm,1.164,1.297,-1.66,-1.377,-4.953,-4.638,-1.897,-1.829,-1.623,-1.126,1.297,-1.497,253.8,248.6,-5.049,-7.833,2.003,-1.322,7.841,5.117,-4.705,-7.601,20,5.018,4.92,4.74,4.73,1.748,1.322,1.754,1.949,20,4.563,4.537,-40,344.244558931,norm,0,74,74,74,395.531,395.541,395.558131743,395.558,395.56,395.563,down,1,2.97160656561,7.02839343439,001,015,1920_1200,Intel(R) Core(TM) i5-3570 CPU @ 3.40GHz,orientation_search,LEPPC096,Intel(R) HD Graphics 2500,2018_Nov_28_1113,testMonitor,
373.7,374.3,375.6,372.8,36,-20,380.6,378.9,378.3,381.5,8.14,8.452,8.27,8.16,7.798,7.56,8.262,4.574,-5.212,-8.028,1.67,-1.932,8.234,4.809,-5.127,-7.863,367.9,377.0,-8.035,374.3,378.9,378.6,376.5,387.9,36,386.1,2,5,probe,5,0,71,norm,36,-5.028,down,norm,377.870459371,377.5,369.2,384.9,382.5,1,376.4,,375.9,10,5,7.735,4.934,1.21,-1.214,-5.053,-8.482,376.5,1,306.9,-8.446,-8.461,60,-8.078,-8.406,-4.5,-4.952,-4.923,-4.64,5.065,7.666,13,-1.809,1.197,4.644,7.629,-8.341,-8.481,-1.291,1.776,375.6,378.0,378.7,383.7,374.4,373.3,377.2,379.7,385.0,372.0,0,norm,1.368,1.261,-1.979,-1.833,-4.898,-4.898,-1.119,-1.451,-1.765,-1.377,1.42,-1.924,383.3,377.3,-5.281,-7.917,1.899,-1.918,8.444,5.262,-4.492,-8.257,21,4.579,4.969,4.717,4.671,1.922,1.61,1.777,1.986,21,4.751,5.227,60,244.60593483,norm,0,75,75,75,398.554,398.563,398.569591624,398.57,398.571,398.574,down,1,1.0465295421,8.9534704579,001,015,1920_1200,Intel(R) Core(TM) i5-3570 CPU @ 3.40GHz,orientation_search,LEPPC096,Intel(R) HD Graphics 2500,2018_Nov_28_1113,testMonitor,
28.3,39.6,60.9,36.6,36,-80,37.1,44.7,51.0,39.6,7.637,8.149,7.881,7.575,8.396,7.667,8.407,5.291,-4.679,-7.687,1.137,-1.68,8.427,4.914,-4.328,-7.663,38.4,46.2,-7.879,48.0,40.9,56.9,39.3,43.7,36,43.8,0,5,prime,10,0,63,norm,36,-4.514,down,norm,40.9489334348,30.0,46.6,54.0,40.6,2,42.7,35.5,34.0,10,6,7.62,4.827,1.58,-1.564,-5.07,-8.331,39.2,6,103.9,-7.925,-8.245,-80,-7.764,-8.204,-4.901,-4.649,-4.54,-5.015,4.687,8.422,2,-1.397,1.35,5.136,8.054,-8.154,-7.582,-1.675,1.682,34.1,38.0,39.2,,29.9,48.6,49.0,40.5,46.3,37.7,0,norm,1.169,1.713,-1.34,-1.8,-4.588,-5.205,-2.055,-1.601,-1.936,-1.5,1.425,-1.55,35.5,37.5,-4.789,-7.741,2.093,-1.721,7.608,4.655,-4.887,-7.602,22,5.26,4.501,5.234,5.191,1.475,1.602,2.074,1.223,22,4.79,4.956,-20,244.60593483,norm,0,76,76,76,399.661,399.671,399.679122739,399.679,399.681,399.683,down,1,0.889647259872,9.11035274013,001,015,1920_1200,Intel(R) Core(TM) i5-3570 CPU @ 3.40GHz,orientation_search,LEPPC096,Intel(R) HD Graphics 2500,2018_Nov_28_1113,testMonitor,
46.5,32.6,45.5,49.9,36,-80,53.6,31.0,40.7,26.4,8.461,7.94,8.11,8.14,7.733,8.195,7.997,5.158,-4.613,-7.572,1.671,-1.72,8.311,4.559,-4.773,-7.605,40.9,41.6,-8.131,48.2,32.6,38.9,20.9,25.4,36,32.0,2,5,prime,10,0,106,norm,36,-4.604,up,norm,40.9489334348,,28.0,34.8,60.9,5,31.6,36.3,41.6,10,6,7.551,4.832,1.218,-1.93,-4.702,-8.045,33.6,6,146.9,-7.974,-7.824,-80,-7.6,-7.843,-4.446,-5.098,-4.948,-4.998,4.336,8.09,17,-1.8,1.567,4.641,7.653,-7.613,-8.229,-1.571,2.027,39.2,47.9,48.6,35.6,33.2,30.4,47.4,48.3,44.9,46.3,1,norm,1.369,1.502,-1.933,-1.563,-4.595,-4.591,-1.159,-1.952,-1.133,-1.61,1.965,-1.195,32.5,29.9,-4.788,-8.159,1.153,-1.472,7.911,4.46,-5.24,-8.257,22,5.034,5.238,5.055,5.193,1.422,1.763,1.786,1.142,22,5.021,5.095,-20,244.60593483,norm,0,77,77,77,400.606,400.616,400.627732875,400.628,400.63,400.632,up,1,0.724017785979,9.27598221402,001,015,1920_1200,Intel(R) Core(TM) i5-3570 CPU @ 3.40GHz,orientation_search,LEPPC096,Intel(R) HD Graphics 2500,2018_Nov_28_1113,testMonitor,
46.4,59.5,39.0,37.0,36,-80,20.9,35.3,60.9,42.6,7.899,8.409,7.585,7.875,8.232,7.708,8.099,5.272,-5.223,-7.947,1.223,-1.194,7.824,4.483,-4.488,-8.158,42.3,38.5,-8.154,,26.9,44.1,43.6,34.4,36,38.8,5,5,prime,10,0,80,norm,36,-5.134,down,norm,40.9489334348,35.9,57.0,33.6,25.7,1,51.7,31.8,29.8,10,6,8.232,4.951,1.136,-1.12,-4.422,-7.895,44.1,6,120.9,-7.539,-8.389,-80,-7.612,-7.781,-5.237,-5.052,-5.037,-4.882,4.318,7.657,31,-1.527,1.797,4.936,8.237,-7.936,-8.292,-1.554,1.368,25.1,57.4,40.7,39.1,33.6,35.9,31.9,34.4,40.4,46.9,2,norm,1.984,1.675,-1.498,-1.886,-4.33,-4.655,-2.063,-1.962,-2.032,-2.033,1.557,-1.364,35.5,27.8,-5.153,-7.593,1.851,-1.988,8.003,5.128,-4.309,-8.262,22,5.219,4.693,4.405,4.546,1.189,1.556,1.242,1.704,22,4.343,4.678,-20,244.60593483,norm,0,78,78,78,401.389,401.399,401.407657045,401.408,401.41,401.412,down,1,0.537338486029,9.46266151397,001,015,1920_1200,Intel(R) Core(TM) i5-3570 CPU @ 3.40GHz,orientation_search,LEPPC096,Intel(R) HD Graphics 2500,2018_Nov_28_1113,testMonitor,
32.6,36.6,29.0,43.5,36,-80,58.3,45.9,36.5,21.2,7.876,7.583,8.087,7.808,7.681,7.53,7.699,4.872,-4.343,-8.241,1.705,-1.175,7.866,5.196,-4.581,-7.771,52.4,33.0,-8.487,21.2,45.9,28.1,30.4,31.6,36,44.8,1,5,prime,10,0,85,norm,36,-4.736,down,norm,40.9489334348,44.1,40.9,43.1,60.9,0,40.3,20.9,21.6,10,6,8.38,4.489,1.409,-1.34,-4.874,-8.3,38.1,6,125.9,-8.361,-7.5,-80,-8.357,-8.274,-4.738,-4.851,-5.07,-5.129,4.729,8.388,6,-1.466,1.229,5.292,7.76,-7.682,-7.901,-2.047,1.593,33.6,56.4,59.8,46.7,39.8,26.5,34.6,,35.1,23.2,3,norm,1.29,2.017,-1.243,-1.316,-4.591,-5.092,-1.105,-2.09,-1.433,-1.633,1.728,-1.788,53.0,37.9,-4.426,-7.762,1.819,-1.333,7.774,4.991,-5.268,-8.187,22,4.414,4.949,5.271,4.392,1.938,1.669,1.637,1.427,22,5.093,4.436,-20,244.60593483,norm,0,79,79,79,401.97,401.979,401.985903797,401.986,401.988,401.99,down,1,0.70718414319,9.29281585681,001,015,1920_1200,Intel(R) Core(TM) i5-3570 CPU @ 3.40GHz,orientation_search,LEPPC096,Intel(R) HD Graphics 2500,2018_Nov_28_1113,testMonitor,
44.3,52.5,44.0,31.3,36,-80,49.0,40.1,51.0,31.4,8.083,7.795,7.67,7.781,7.664,8.395,7.987,5.072,-4.344,-7.569,1.844,-1.423,7.671,4.39,-4.305,-7.999,30.0,27.9,-7.635,34.7,37.8,43.8,39.5,29.4,36,39.4,0,5,prime,10,0,112,norm,36,-4.506,down,norm,40.9489334348,41.4,60.9,44.9,55.9,2,35.4,32.3,29.0,10,6,7.877,4.784,1.551,-1.551,-4.724,-7.803,59.7,6,152.9,-8.022,-7.858,-80,-7.992,-7.933,-4.372,-4.926,-4.309,-4.318,4.389,7.726,2,-1.544,1.739,4.595,8.334,-7.708,-8.157,-1.76,1.869,32.6,41.1,20.9,,44.5,38.5,50.0,33.8,46.1,44.1,4,norm,2.028,1.721,-1.622,-1.331,-4.487,-5.266,-1.27,-1.901,-1.936,-1.603,1.699,-1.27,50.4,37.6,-4.5,-8.451,1.544,-1.621,7.584,4.498,-4.47,-8.122,22,4.421,5.189,5.12,4.839,1.349,1.54,2.071,1.42,22,4.841,4.451,-20,244.60593483,norm,0,80,80,80,402.729,402.739,402.749156114,402.749,402.751,402.754,down,1,0.843815585453,9.15618441455,001,015,1920_1200,Intel(R) Core(TM) i5-3570 CPU @ 3.40GHz,orientation_search,LEPPC096,Intel(R) HD Graphics 2500,2018_Nov_28_1113,testMonitor,
45.4,38.0,35.8,36.4,36,-80,37.0,33.8,38.1,37.7,7.624,8.173,8.179,8.14,7.759,7.839,8.206,5.09,-4.647,-7.936,1.514,-1.143,7.957,4.445,-4.853,-8.022,42.8,38.1,-8.085,53.3,43.5,23.4,,55.2,36,27.8,5,5,prime,10,0,63,norm,36,-5.148,down,norm,40.9489334348,48.8,46.3,54.8,40.5,2,41.2,29.4,37.1,10,6,7.888,4.679,2.071,-1.316,-4.937,-8.093,47.7,6,103.9,-7.615,-8.432,-80,-7.65,-8.179,-4.528,-5.162,-4.726,-4.612,4.672,8.354,32,-1.368,1.87,4.314,8.071,-7.955,-8.191,-1.389,1.561,44.8,20.9,24.3,60.9,35.4,53.5,34.1,45.1,31.0,41.8,5,norm,1.706,1.187,-1.366,-1.749,-4.892,-4.504,-1.981,-2.067,-1.91,-1.744,1.165,-1.348,49.7,39.4,-5.054,-8.164,1.598,-1.573,8.296,4.899,-4.991,-8.231,22,5.086,4.792,4.309,4.789,1.292,2.089,1.661,1.3,22,4.921,4.865,-20,244.60593483,norm,0,81,81,81,403.629,403.642,403.661398953,403.662,403.663,403.666,down,1,0.612759508222,9.38724049178,001,015,1920_1200,Intel(R) Core(TM) i5-3570 CPU @ 3.40GHz,orientation_search,LEPPC096,Intel(R) HD Graphics 2500,2018_Nov_28_1113,testMonitor,
75.2,73.6,77.9,72.1,36,-10,68.4,81.8,86.7,74.6,7.914,7.506,8.037,8.259,8.232,8.417,7.921,4.417,-4.889,-8.328,1.141,-1.423,7.822,4.825,-4.648,-7.508,74.4,84.2,-8.428,77.6,80.2,,78.5,75.9,36,84.2,5,5,probe,5,0,108,norm,36,-4.494,up,norm,76.651558918,75.5,76.3,81.4,77.6,3,77.3,73.5,79.3,10,6,8.13,4.565,1.911,-1.511,-4.615,-7.598,77.3,1,-31.3,-8.184,-7.767,-80,-7.6,-7.803,-4.405,-4.539,-4.665,-5.09,4.442,7.748,33,-1.3,1.642,4.707,7.886,-8.395,-7.811,-1.3,1.709,76.3,75.7,74.8,72.8,71.8,74.5,82.5,78.9,67.7,66.7,0,norm,1.162,1.981,-1.914,-1.937,-5.222,-5.146,-1.932,-1.509,-1.57,-1.414,1.523,-1.949,83.6,80.0,-4.498,-7.682,1.178,-1.818,7.58,4.968,-4.7,-7.534,23,4.97,4.928,5.008,4.436,1.273,2.04,1.413,1.195,23,4.808,4.851,-80,40.9489334348,norm,0,82,82,82,404.296,404.305,404.324711911,404.325,404.327,404.329,up,1,1.07862783279,8.92137216721,001,015,1920_1200,Intel(R) Core(TM) i5-3570 CPU @ 3.40GHz,orientation_search,LEPPC096,Intel(R) HD Graphics 2500,2018_Nov_28_1113,testMonitor,
188.5,186.7,197.0,176.2,36,30,189.4,193.3,195.6,190.3,8.342,8.251,7.844,7.769,7.571,7.855,8.469,5.01,-4.516,-7.983,1.243,-1.801,7.719,5.132,-5.206,-8.225,176.9,192.7,-7.709,206.2,203.2,184.0,190.5,,36,166.2,4,5,prime,10,0,105,norm,36,-5.129,down,norm,186.159342431,189.4,179.5,178.4,184.4,2,172.2,192.4,189.8,10,5,7.578,4.444,2.023,-1.381,-4.505,-7.821,175.2,5,291.2,-8.311,-7.886,30,-8.031,-8.064,-5.26,-4.683,-5.192,-4.787,4.416,8.096,26,-1.391,1.101,4.728,8.405,-8.016,-8.083,-1.917,1.393,182.2,183.8,176.1,168.9,188.4,198.9,187.7,179.2,183.9,183.8,0,norm,1.221,1.547,-1.39,-1.734,-4.912,-4.726,-1.262,-1.947,-1.958,-1.592,1.458,-2.047,189.9,187.4,-4.431,-7.794,1.722,-1.46,7.553,4.43,-5.243,-8.021,24,4.749,4.732,4.92,4.39,2.012,1.937,2.089,1.838,24,5.049,5.023,-10,40.9489334348,norm,0,83,83,83,405.449,405.458,405.464464741,405.465,405.466,405.469,down,1,0.653275374905,9.34672462509,001,015,1920_1200,Intel(R) Core(TM) i5-3570 CPU @ 3.40GHz,orientation_search,LEPPC096,Intel(R) HD Graphics 2500,2018_Nov_28_1113,testMonitor,
182.0,185.3,193.4,177.6,36,30,181.4,194.2,178.5,200.8,7.659,7.94,8.108,7.928,8.457,7.677,8.304,4.683,-4.792,-7.716,1.861,-2.026,8.301,4.866,-4.732,-8.122,178.2,176.3,-8.272,171.8,172.3,201.8,,172.6,36,188.4,5,5,prime,10,0,66,norm,36,-4.843,down,norm,186.159342431,182.2,178.7,195.0,174.6,2,199.3,193.1,185.4,10,5,8.398,4.909,1.224,-1.565,-5.112,-8.457,174.1,5,252.2,-8.303,-7.586,30,-8.107,-8.068,-4.686,-5.161,-4.86,-4.875,5.048,8.361,32,-1.804,2.009,4.816,7.59,-7.629,-7.567,-1.914,1.698,192.4,166.2,204.0,194.9,193.3,192.5,184.5,202.7,202.7,175.3,1,norm,1.881,1.811,-1.629,-1.22,-5.023,-4.428,-1.696,-1.547,-2.061,-1.297,1.289,-1.618,206.2,186.7,-4.671,-8.344,1.566,-1.607,8.203,5.269,-5.22,-7.778,24,4.639,4.393,4.766,5.22,1.949,1.426,1.681,2.06,24,4.438,4.463,-10,40.9489334348,norm,0,84,84,84,406.155,406.168,406.187431802,406.188,406.189,406.192,down,1,1.85527093837,8.14472906163,001,015,1920_1200,Intel(R) Core(TM) i5-3570 CPU @ 3.40GHz,orientation_search,LEPPC096,Intel(R) HD Graphics 2500,2018_Nov_28_1113,testMonitor,
196.1,173.6,189.6,187.5,36,30,166.2,179.1,189.8,195.0,7.767,8.221,7.777,7.724,7.712,7.565,7.839,4.979,-4.386,-7.86,1.936,-1.176,8.285,5.085,-5.22,-8.419,178.5,172.6,-8.446,187.9,196.9,179.5,,173.9,36,176.0,5,5,prime,10,0,87,norm,36,-5.175,down,norm,186.159342431,200.9,170.9,176.8,196.4,2,192.1,192.3,187.0,10,5,7.823,4.575,1.84,-1.129,-4.964,-7.656,184.4,5,273.2,-7.581,-8.275,30,-8.13,-8.424,-5.091,-4.584,-4.973,-5.083,5.138,7.876,32,-1.894,1.4,4.957,8.002,-7.894,-8.055,-1.384,1.64,191.4,187.5,171.2,194.8,186.7,186.3,180.0,181.6,190.4,206.2,2,norm,1.236,1.356,-1.217,-1.283,-5.298,-4.498,-2.072,-1.674,-1.882,-1.744,2.005,-1.372,196.5,183.8,-4.759,-8.098,1.484,-1.18,7.723,4.907,-4.694,-7.967,24,5.199,4.533,4.827,4.933,1.854,1.367,1.584,1.514,24,4.668,4.561,-10,40.9489334348,norm,0,85,85,85,408.079,408.089,408.099821639,408.1,408.102,408.104,down,1,0.687670712708,9.31232928729,001,015,1920_1200,Intel(R) Core(TM) i5-3570 CPU @ 3.40GHz,orientation_search,LEPPC096,Intel(R) HD Graphics 2500,2018_Nov_28_1113,testMonitor,
180.4,177.7,,178.1,36,30,203.5,187.1,187.4,174.7,8.349,7.536,8.38,8.056,8.273,7.692,7.747,4.787,-4.743,-7.713,1.284,-1.814,8.205,4.956,-5.039,-8.402,194.1,196.5,-8.181,188.4,187.0,195.1,174.1,176.1,36,193.4,3,5,prime,10,0,116,norm,36,-4.558,down,norm,186.159342431,181.0,173.3,181.8,184.1,2,184.7,192.1,206.2,10,5,8.03,5.013,1.214,-1.1,-4.586,-8.272,183.2,5,302.2,-7.811,-7.794,30,-7.811,-7.776,-4.795,-5.241,-4.81,-4.618,4.422,7.504,20,-1.282,1.687,5.061,8.347,-7.6,-8.246,-1.896,1.122,175.4,188.0,179.4,166.2,193.3,195.4,192.3,200.4,189.6,179.2,3,norm,1.968,1.31,-1.376,-1.776,-4.555,-5.29,-1.252,-2.098,-1.8,-1.572,1.751,-1.704,200.4,182.9,-4.414,-7.664,1.311,-1.62,8.36,4.407,-4.662,-7.7,24,4.691,4.816,4.594,4.584,1.501,1.652,1.583,1.551,24,4.817,4.464,-10,40.9489334348,norm,0,86,86,86,408.825,408.837,408.856979084,408.857,408.859,408.862,down,1,1.4226575779,8.5773424221,001,015,1920_1200,Intel(R) Core(TM) i5-3570 CPU @ 3.40GHz,orientation_search,LEPPC096,Intel(R) HD Graphics 2500,2018_Nov_28_1113,testMonitor,
187.3,174.5,166.2,181.6,36,30,188.3,190.7,202.5,186.6,7.599,7.834,8.296,8.268,8.319,8.37,8.364,5.08,-5.025,-7.644,1.223,-1.818,7.785,4.833,-4.307,-8.374,198.8,199.3,-8.32,178.0,,185.9,193.1,184.1,36,206.2,5,5,prime,10,0,114,norm,36,-4.57,down,norm,186.159342431,197.7,167.1,186.5,175.8,0,200.5,199.6,186.3,10,5,7.674,4.396,1.555,-1.563,-4.954,-8.455,198.5,5,300.2,-8.311,-7.799,30,-7.694,-7.581,-5.284,-4.322,-4.34,-5.044,4.533,7.999,30,-1.501,2.098,4.767,8.27,-7.989,-8.207,-1.941,1.546,187.8,179.0,195.8,186.2,175.5,191.0,191.2,177.7,184.8,180.6,4,norm,2.091,1.919,-1.409,-1.322,-4.931,-5.095,-1.893,-1.915,-1.353,-1.666,1.764,-1.95,180.1,182.1,-4.776,-8.071,1.232,-1.679,7.506,4.429,-5.293,-7.63,24,4.502,5.102,4.365,4.564,1.162,1.406,1.808,1.132,24,5.135,5.065,-10,40.9489334348,norm,0,87,87,87,410.301,410.31,410.316869955,410.317,410.319,410.321,down,1,1.51565025598,8.48434974402,001,015,1920_1200,Intel(R) Core(TM) i5-3570 CPU @ 3.40GHz,orientation_search,LEPPC096,Intel(R) HD Graphics 2500,2018_Nov_28_1113,testMonitor,
295.3,295.8,300.1,300.2,36,-80,297.1,300.6,,297.3,8.138,7.554,7.854,8.104,7.654,8.494,8.317,5.104,-4.501,-8.228,1.354,-1.977,8.38,4.895,-5.237,-7.855,308.6,289.0,-8.061,304.1,302.7,301.0,296.5,299.4,36,302.3,4,5,probe,5,0,83,norm,36,-4.607,up,norm,298.639474753,296.9,295.6,304.4,294.7,4,292.8,306.9,302.1,10,5,7.716,4.828,1.582,-1.742,-4.964,-7.817,303.4,2,215.6,-7.877,-7.942,30,-8.428,-7.85,-4.337,-5.198,-4.528,-4.894,4.793,7.806,28,-1.556,1.148,4.488,7.565,-7.743,-7.51,-1.664,1.712,288.6,294.3,304.0,294.4,297.0,299.6,302.8,295.2,297.4,304.8,0,norm,1.808,1.895,-1.677,-1.23,-4.588,-4.376,-1.17,-2.01,-2.019,-1.501,1.674,-1.335,292.3,294.7,-4.949,-7.842,1.481,-1.116,7.979,4.471,-4.88,-8.395,25,4.678,5.013,4.908,5.28,1.897,2.097,1.361,1.419,25,4.961,4.795,30,186.159342431,norm,0,88,88,88,411.876,411.885,411.891404908,411.892,411.893,411.896,up,1,0.994352463633,9.00564753637,001,015,1920_1200,Intel(R) Core(TM) i5-3570 CPU @ 3.40GHz,orientation_search,LEPPC096,Intel(R) HD Graphics 2500,2018_Nov_28_1113,testMonitor,
302.3,310.7,312.1,304.9,36,-80,304.1,316.5,305.5,307.5,8.365,7.608,7.74,8.477,7.898,8.081,8.428,4.388,-5.222,-7.83,1.255,-1.175,8.027,4.82,-4.693,-8.323,299.6,311.2,-8.426,316.8,305.0,302.7,313.0,303.4,36,315.9,1,5,probe,5,0,94,norm,36,-4.354,up,norm,309.639474753,319.6,308.8,315.3,310.7,3,306.0,309.8,316.3,10,5,8.17,4.596,1.478,-1.609,-4.789,-7.743,312.1,2,215.6,-7.634,-8.473,30,-8.182,-8.039,-5.184,-5.095,-5.135,-4.996,4.657,8.134,9,-1.877,1.952,4.852,8.467,-8.414,-7.94,-1.742,1.397,,301.5,307.4,304.0,314.1,307.9,304.7,300.0,305.5,310.3,1,norm,1.492,2.014,-1.97,-1.392,-4.36,-4.904,-1.75,-1.295,-1.905,-1.274,1.288,-1.305,309.5,307.4,-4.738,-8.245,1.498,-1.875,8.019,4.741,-4.569,-7.581,25,4.901,4.429,5.043,5.166,1.797,1.121,1.595,1.46,25,5.044,4.384,30,186.159342431,norm,0,89,89,89,412.907,412.916,412.935570092,412.936,412.938,412.94,up,1,0.690202294092,9.30979770591,001,015,1920_1200,Intel(R) Core(TM) i5-3570 CPU @ 3.40GHz,orientation_search,LEPPC096,Intel(R) HD Graphics 2500,2018_Nov_28_1113,testMonitor,
309.8,313.9,289.2,312.6,36,-80,298.0,297.5,299.4,300.8,7.529,8.084,8.274,7.973,7.6,8.367,7.885,4.958,-5.251,-8.152,1.458,-1.457,8.119,4.736,-4.774,-8.071,309.8,317.4,-8.039,329.2,299.5,317.0,324.0,312.3,36,319.8,2,5,prime,10,0,97,norm,36,-4.958,down,norm,309.195343073,318.4,301.0,301.5,328.3,0,295.7,309.7,,10,5,8.284,5.13,1.46,-1.572,-5.111,-7.759,306.8,5,406.2,-8.412,-8.324,-80,-8.426,-8.073,-4.835,-4.656,-4.788,-4.82,5.207,8.327,12,-1.494,1.623,4.419,8.494,-7.576,-8.029,-2.036,2.043,315.6,294.4,313.4,310.8,290.3,300.2,315.1,302.8,309.9,304.6,0,norm,1.159,1.789,-2.018,-1.148,-4.588,-4.335,-1.509,-1.423,-1.347,-2.022,1.299,-1.231,303.1,305.6,-4.778,-7.944,2.092,-1.225,8.276,4.408,-4.671,-7.788,26,5.049,4.904,5.283,5.225,1.946,1.235,1.364,1.808,26,4.934,4.551,-80,186.159342431,norm,0,90,90,90,413.669,413.679,413.685350423,413.686,413.687,413.69,down,1,0.623757564637,9.37624243536,001,015,1920_1200,Intel(R) Core(TM) i5-3570 CPU @ 3.40GHz,orientation_search,LEPPC096,Intel(R) HD Graphics 2500,2018_Nov_28_1113,testMonitor,
320.5,318.4,317.5,323.4,36,-80,297.1,305.7,311.1,313.8,8.455,8.48,7.583,8.227,7.516,7.691,7.727,4.651,-5.103,-7.78,2.048,-2.074,7.575,4.535,-5.076,-8.281,322.4,326.7,-7.874,309.1,292.2,305.5,312.7,316.7,36,316.0,2,5,prime,10,0,106,norm,36,-5.288,down,norm,309.195343073,300.9,315.3,294.1,315.1,1,314.3,,306.3,10,5,8.347,5.048,1.491,-1.814,-4.501,-8.132,301.6,5,415.2,-7.91,-7.511,-80,-8.369,-7.653,-4.741,-5.138,-4.903,-4.839,4.405,7.716,13,-2.088,1.254,4.879,8.45,-7.671,-7.751,-1.651,1.645,323.0,322.7,299.1,329.2,316.4,310.4,302.1,302.0,289.2,320.0,1,norm,1.157,1.638,-1.178,-1.721,-5.078,-5.005,-1.29,-1.297,-1.637,-2.081,1.956,-1.177,296.6,320.8,-4.511,-8.345,2.051,-1.375,7.906,5.278,-4.892,-7.826,26,4.328,4.385,4.875,4.686,1.204,1.453,1.995,1.605,26,4.828,4.942,-80,186.159342431,norm,0,91,91,91,414.345,414.357,414.377091528,414.377,414.379,414.381,down,1,0.79268289372,9.20731710628,001,015,1920_1200,Intel(R) Core(TM) i5-3570 CPU @ 3.40GHz,orientation_search,LEPPC096,Intel(R) HD Graphics 2500,2018_Nov_28_1113,testMonitor,
317.0,305.5,302.7,289.2,36,-80,299.7,304.0,293.1,329.2,8.08,8.419,8.48,7.883,8.105,7.692,8.312,4.792,-5.203,-8.206,1.867,-1.46,8.179,5.144,-4.582,-8.013,298.2,,-7.644,318.3,310.9,315.6,315.6,312.3,36,318.7,5,5,prime,10,0,72,norm,36,-4.762,up,norm,309.195343073,303.6,319.7,311.6,297.1,4,313.4,322.1,323.5,10,5,8.087,5.152,1.89,-1.203,-4.441,-7.995,325.1,5,381.2,-8.156,-8.358,-80,-7.889,-7.863,-5.21,-4.425,-5.146,-4.769,4.492,8.3,34,-1.39,1.34,4.624,8.495,-8.457,-8.451,-1.195,1.21,307.5,292.3,300.7,310.1,291.5,302.9,322.7,307.1,325.5,310.7,2,norm,1.843,2.08,-1.403,-1.39,-4.65,-5.204,-1.272,-1.516,-1.984,-1.45,1.871,-1.317,297.8,304.4,-5.153,-7.64,1.146,-1.389,8.293,4.893,-4.45,-8.244,26,4.759,4.915,4.93,4.716,1.171,1.655,1.811,1.219,26,5.139,5.267,-80,186.159342431,norm,0,92,92,92,415.207,415.217,415.228640707,415.229,415.23,415.233,up,1,0.770493599499,9.2295064005,001,015,1920_1200,Intel(R) Core(TM) i5-3570 CPU @ 3.40GHz,orientation_search,LEPPC096,Intel(R) HD Graphics 2500,2018_Nov_28_1113,testMonitor,
310.7,329.2,290.3,305.0,36,-80,317.7,311.3,310.3,300.3,7.835,8.373,7.673,8.298,8.212,8.117,8.362,4.708,-4.787,-7.786,1.547,-1.172,8.261,4.415,-4.721,-8.331,324.3,296.0,-8.303,306.3,304.6,312.1,312.2,305.3,36,310.9,1,5,prime,10,0,82,norm,36,-4.545,down,norm,309.195343073,303.6,299.5,294.9,289.8,1,296.8,289.2,324.8,10,5,7.833,4.467,1.21,-1.425,-4.992,-7.598,319.5,5,391.2,-8.161,-8.133,-80,-8.489,-7.943,-4.486,-4.596,-5.216,-4.396,4.312,7.874,7,-1.933,1.587,5.206,7.58,-8.481,-8.107,-1.434,1.832,310.7,304.7,293.2,295.0,301.8,307.7,,321.1,312.4,303.9,3,norm,1.488,1.529,-1.75,-1.82,-4.555,-4.869,-1.148,-1.935,-1.518,-2.006,2.099,-2.055,297.9,302.6,-4.663,-8.092,2.088,-1.764,8.069,4.419,-4.885,-8.029,26,5.172,4.772,4.736,5.053,1.977,1.375,1.22,1.804,26,5.122,5.232,-80,186.159342431,norm,0,93,93,93,416.036,416.046,416.055317181,416.055,416.057,416.06,down,1,0.689846115944,9.31015388406,001,015,1920_1200,Intel(R) Core(TM) i5-3570 CPU @ 3.40GHz,orientation_search,LEPPC096,Intel(R) HD Graphics 2500,2018_Nov_28_1113,testMonitor,
316.1,307.2,307.7,289.2,36,-80,311.7,329.2,313.7,309.8,7.761,8.319,7.771,7.719,8.279,8.126,7.859,4.825,-4.558,-7.698,1.121,-1.752,7.559,4.645,-4.523,-8.116,307.8,328.1,-8.469,,306.6,315.0,292.1,316.9,36,315.3,5,5,prime,10,0,96,norm,36,-4.595,down,norm,309.195343073,313.0,313.9,303.8,306.0,1,318.0,313.5,310.5,10,5,8.056,4.791,1.368,-1.893,-4.977,-8.033,296.5,5,405.2,-7.917,-8.299,-80,-7.769,-8.171,-4.655,-4.847,-4.552,-5.142,5.289,7.716,31,-1.218,1.768,4.67,7.757,-8.356,-8.088,-1.376,1.562,320.5,309.4,307.8,304.7,296.9,295.6,297.4,312.7,299.6,321.2,4,norm,1.303,1.326,-1.432,-1.678,-4.64,-5.061,-2.036,-1.553,-2.054,-1.242,2.025,-1.346,324.8,323.3,-4.348,-7.565,1.206,-1.201,8.23,4.305,-4.681,-8.169,26,5.181,4.635,4.67,5.291,1.654,1.589,1.267,2.037,26,4.829,4.968,-80,186.159342431,norm,0,94,94,94,416.789,416.799,416.805104153,416.805,416.807,416.81,up,0,0.673138946586,-10,001,015,1920_1200,Intel(R) Core(TM) i5-3570 CPU @ 3.40GHz,orientation_search,LEPPC096,Intel(R) HD Graphics 2500,2018_Nov_28_1113,testMonitor,
322.4,335.4,325.9,333.3,36,30,334.8,321.9,326.4,332.3,8.435,8.109,8.323,8.268,8.078,8.488,7.593,4.464,-5.19,-8.143,1.383,-2.08,7.901,4.5,-5.003,-8.389,332.1,324.9,-8.053,329.5,332.9,322.0,321.8,329.8,36,325.2,3,5,probe,5,0,92,norm,36,-4.856,down,norm,325.425261806,324.5,318.7,328.5,330.4,1,331.0,330.0,315.4,10,5,8.28,4.649,1.592,-1.24,-4.963,-8.32,323.6,2,233.4,-8.027,-7.857,-80,-8.088,-7.523,-4.639,-4.342,-4.991,-4.649,4.69,8.044,19,-1.968,1.402,4.348,8.183,-7.954,-8.233,-1.762,1.669,331.2,322.6,326.2,328.9,325.4,322.4,323.0,327.5,332.9,331.7,0,norm,1.828,1.257,-1.814,-1.705,-5.268,-4.722,-1.708,-1.126,-1.746,-1.815,1.44,-1.602,,328.8,-4.78,-7.767,1.476,-1.391,7.799,4.32,-4.589,-8.457,27,4.395,4.681,4.86,4.772,1.303,1.879,1.702,1.661,27,4.831,5.151,-80,309.195343073,norm,0,95,95,95,418.549,418.558,418.567035291,418.567,418.569,418.571,down,1,0.583842673106,9.41615732689,001,015,1920_1200,Intel(R) Core(TM) i5-3570 CPU @ 3.40GHz,orientation_search,LEPPC096,Intel(R) HD Graphics 2500,2018_Nov_28_1113,testMonitor,
315.8,315.0,317.8,319.3,36,30,318.3,311.8,320.3,316.6,8.114,8.457,7.615,7.61,8.417,7.978,8.025,4.533,-5.14,-8.175,1.294,-1.615,8.305,4.531,-5.141,-7.65,,311.0,-7.56,305.4,319.4,319.0,322.8,309.5,36,320.3,5,5,probe,5,0,82,norm,36,-4.571,up,norm,315.425261806,311.1,310.3,321.5,319.2,5,311.3,320.1,315.0,10,5,8.128,4.733,1.359,-1.768,-4.74,-7.537,316.0,2,233.4,-8.31,-8.154,-80,-8.164,-7.999,-4.414,-4.979,-4.958,-4.363,5.184,7.51,35,-1.983,2.016,5.092,7.773,-8.007,-7.903,-1.516,1.477,315.2,325.4,319.3,314.3,317.3,317.4,311.8,311.4,315.6,307.9,1,norm,2.046,1.556,-1.4,-1.307,-5.011,-5.057,-2.06,-1.833,-1.371,-1.732,1.292,-1.29,312.1,317.7,-4.544,-8.448,1.451,-1.469,7.78,4.71,-4.408,-8.021,27,4.943,4.641,4.949,5.02,1.403,1.702,1.472,1.57,27,5.236,4.629,-80,309.195343073,norm,0,96,96,96,419.172,419.184,419.188180983,419.188,419.191,419.194,up,1,0.740296937845,9.25970306215,001,015,1920_1200,Intel(R) Core(TM) i5-3570 CPU @ 3.40GHz,orientation_search,LEPPC096,Intel(R) HD Graphics 2500,2018_Nov_28_1113,testMonitor,
