d_ori_22,d_ori_23,d_ori_20,d_ori_21,set_size,ctpd,d_ori_24,d_ori_25,d_ori_28,d_ori_29,stim_pos_x_30,stim_pos_x_31,stim_pos_x_32,stim_pos_x_33,stim_pos_x_34,stim_pos_x_35,stim_pos_y_11,stim_pos_y_10,stim_pos_y_13,stim_pos_y_12,stim_pos_y_15,stim_pos_y_14,stim_pos_y_17,stim_pos_y_16,stim_pos_y_19,stim_pos_y_18,d_ori_35,d_ori_34,stim_pos_x_3,d_ori_31,d_ori_30,d_ori_33,d_ori_32,d_ori_26,test_set_size,d_ori_27,targetCol,dsd_test,seq_type,dsd,blockRepN,targetDist,dtype_test,prime_set_size,stim_pos_y_25,correctResponse,dtype,distrMean,d_ori_17,d_ori_16,d_ori_15,d_ori_14,targetRow,d_ori_11,d_ori_13,d_ori_12,dsd_prime,streak_length_prime,stim_pos_y_35,stim_pos_y_34,stim_pos_y_33,stim_pos_y_32,stim_pos_y_31,stim_pos_y_30,d_ori_10,nextProbe,targetOri,stim_pos_x_1,stim_pos_x_2,ctpd_prime,stim_pos_x_4,stim_pos_x_5,stim_pos_x_6,stim_pos_x_7,stim_pos_x_8,stim_pos_x_9,stim_pos_y_28,stim_pos_y_29,targetPos,stim_pos_y_20,stim_pos_y_21,stim_pos_y_22,stim_pos_y_23,stim_pos_y_24,stim_pos_x_0,stim_pos_y_26,stim_pos_y_27,d_ori_9,d_ori_8,d_ori_3,d_ori_2,d_ori_1,d_ori_0,d_ori_7,d_ori_6,d_ori_5,d_ori_4,trialN,dtype_prime,stim_pos_x_18,stim_pos_x_19,stim_pos_x_12,stim_pos_x_13,stim_pos_x_10,stim_pos_x_11,stim_pos_x_16,stim_pos_x_17,stim_pos_x_14,stim_pos_x_15,stim_pos_y_9,stim_pos_y_8,d_ori_19,d_ori_18,stim_pos_y_1,stim_pos_y_0,stim_pos_y_3,stim_pos_y_2,stim_pos_y_5,stim_pos_y_4,stim_pos_y_7,stim_pos_y_6,totBlockN,stim_pos_x_27,stim_pos_x_26,stim_pos_x_25,stim_pos_x_24,stim_pos_x_23,stim_pos_x_22,stim_pos_x_21,stim_pos_x_20,blockN,stim_pos_x_29,stim_pos_x_28,prevDistrCTPD,prevDistrMean,prevDistrType,trials.thisRepN,trials.thisTrialN,trials.thisN,trials.thisIndex,timeStart,timeBeforeDraw,timeDraw,timeAfterSaving,timeAfterWritingToTemp,timeAfterPreparingNext,answer,correct,rt,trialScore,session,participant,resolution,cpu_info,expName,pc_name,graphic_card,date,monitorName,
140.6,133.8,119.9,132.1,36,-40,134.9,123.7,108.5,125.0,8.455,7.749,7.543,7.938,8.187,7.882,8.419,4.999,-4.367,-7.969,1.646,-1.205,7.908,5.035,-4.596,-8.289,125.5,120.6,-8.103,137.9,130.2,125.8,129.8,129.3,36,120.4,1,5,prime,10,0,109,norm,36,-4.717,down,norm,128.471295479,131.6,139.7,122.8,130.0,1,148.5,129.6,129.8,10,6,7.635,5.297,1.344,-1.8,-4.722,-7.98,140.9,6,237.5,-8.321,-8.407,-40,-7.935,-7.525,-5.217,-4.962,-5.17,-4.435,4.488,7.69,7,-1.552,1.692,5.265,8.333,-8.262,-7.893,-1.19,1.209,121.5,143.3,124.9,117.5,115.7,129.8,,139.7,141.3,115.4,0,norm,1.247,1.996,-1.468,-1.995,-4.414,-5.099,-1.692,-1.875,-2.056,-1.712,1.665,-1.809,137.7,126.9,-4.447,-7.657,1.504,-1.359,8.409,4.596,-5.027,-8.193,0,4.73,5.015,4.969,4.964,1.185,1.634,1.725,1.424,0,5.202,4.892,,,,0,0,0,0,3162.891,3162.908,3162.92749015,3162.928,3162.928,3162.931,down,1,1.10272994078,8.89727005922,001,024,1920_1200,Intel(R) Core(TM) i5-3570 CPU @ 3.40GHz,orientation_search,LEPPC096,Intel(R) HD Graphics 2500,2019_Jan_03_1518,testMonitor,
128.6,125.9,136.7,,36,-40,128.4,129.0,110.0,135.8,7.729,7.87,8.277,8.268,8.038,8.04,7.559,5.116,-5.166,-8.037,1.372,-1.756,8.073,5.01,-5.296,-8.074,119.6,145.1,-7.614,135.4,148.5,143.6,116.7,126.3,36,110.4,3,5,prime,10,0,102,norm,36,-4.891,up,norm,128.471295479,136.7,129.7,148.2,144.1,3,139.7,119.7,136.0,10,6,8.002,5.191,1.179,-1.41,-4.63,-7.909,135.9,6,230.5,-8.39,-7.908,-40,-7.767,-7.976,-5.155,-4.702,-5.281,-4.712,4.434,7.874,21,-1.104,1.653,5.113,7.939,-7.56,-7.986,-1.132,1.522,130.8,109.7,139.1,136.4,129.5,108.5,118.7,131.7,129.6,124.5,1,norm,1.553,1.441,-1.769,-1.386,-5.177,-4.421,-1.164,-1.652,-2.062,-1.604,1.439,-1.755,124.1,119.6,-4.758,-8.306,1.134,-1.498,7.619,4.601,-5.143,-7.514,0,4.441,5.247,5.274,4.85,2.087,1.166,1.294,1.606,0,5.014,5.19,,,,0,1,1,1,3164.073,3164.083,3164.08892524,3164.089,3164.09,3164.093,up,1,0.980544104626,9.01945589537,001,024,1920_1200,Intel(R) Core(TM) i5-3570 CPU @ 3.40GHz,orientation_search,LEPPC096,Intel(R) HD Graphics 2500,2019_Jan_03_1518,testMonitor,
119.7,128.0,128.8,130.0,36,-40,125.4,123.9,128.9,129.7,7.588,7.864,8.408,7.999,7.759,8.003,7.533,5.184,-4.914,-8.199,1.985,-1.98,8.057,4.527,-4.499,-8.065,147.7,147.9,-7.975,136.3,122.8,124.9,,148.5,36,119.0,5,5,prime,10,0,74,norm,36,-5.026,down,norm,128.471295479,136.8,108.5,121.9,132.5,2,127.4,129.5,135.4,10,6,7.835,4.347,1.489,-1.783,-4.819,-7.998,120.2,6,202.5,-8.123,-7.583,-40,-7.66,-8.164,-5.115,-4.955,-4.926,-4.963,4.67,7.54,32,-1.769,1.302,4.992,8.295,-7.96,-8.412,-1.299,2.045,142.0,123.5,133.6,129.5,140.3,126.9,117.9,139.1,111.7,119.3,2,norm,1.102,1.773,-1.837,-1.685,-4.801,-4.705,-1.294,-1.942,-1.348,-1.636,1.873,-1.483,120.9,133.3,-4.307,-7.652,1.47,-1.838,7.574,4.823,-4.481,-7.734,0,4.856,5.167,4.705,5.295,1.523,1.595,1.26,1.689,0,4.96,4.916,,,,0,2,2,2,3165.106,3165.116,3165.13319513,3165.133,3165.135,3165.138,down,1,1.64111727115,8.35888272885,001,024,1920_1200,Intel(R) Core(TM) i5-3570 CPU @ 3.40GHz,orientation_search,LEPPC096,Intel(R) HD Graphics 2500,2019_Jan_03_1518,testMonitor,
132.9,136.3,136.0,134.4,36,-40,129.1,116.3,119.1,120.2,8.001,8.253,8.434,8.053,7.69,8.298,8.228,5.058,-4.936,-8.015,1.438,-1.516,7.795,4.817,-4.751,-8.008,131.8,136.6,-8.336,129.2,142.3,116.0,137.1,114.7,36,140.7,1,5,prime,10,0,93,norm,36,-5.192,up,norm,128.471295479,119.9,122.5,126.9,130.5,5,,131.0,136.1,10,6,8.031,4.763,2.036,-2.032,-4.589,-8.341,128.0,6,221.5,-7.552,-7.5,-40,-7.919,-8.364,-4.584,-4.624,-5.156,-4.892,5.233,7.531,11,-1.86,1.48,5.227,7.624,-7.676,-8.252,-1.569,1.688,142.8,125.9,128.9,133.5,128.8,148.5,136.5,140.3,127.1,108.5,3,norm,1.881,1.972,-1.941,-1.652,-4.386,-4.664,-1.863,-1.954,-1.722,-1.77,1.142,-2.046,126.1,126.1,-4.48,-7.817,1.815,-1.796,7.566,4.865,-5.107,-7.745,0,4.448,5.095,4.44,4.776,1.265,1.291,1.524,1.732,0,5.238,5.106,,,,0,3,3,3,3166.811,3166.823,3166.82737994,3166.828,3166.829,3166.832,up,1,1.0501532028,8.9498467972,001,024,1920_1200,Intel(R) Core(TM) i5-3570 CPU @ 3.40GHz,orientation_search,LEPPC096,Intel(R) HD Graphics 2500,2019_Jan_03_1518,testMonitor,
127.0,148.5,145.4,118.1,36,-40,131.4,135.9,135.8,118.9,8.186,7.918,8.222,8.04,8.096,8.028,7.633,4.937,-5.041,-7.951,1.427,-1.458,8.37,4.77,-4.426,-8.176,125.5,133.0,-8.335,133.4,134.1,143.6,138.0,125.0,36,112.9,1,5,prime,10,0,111,norm,36,-4.895,up,norm,128.471295479,131.2,128.2,119.1,126.3,4,141.8,140.8,145.8,10,6,7.607,4.6,1.329,-1.291,-4.638,-7.559,,6,239.5,-8.389,-8.326,-40,-8.481,-8.31,-4.597,-4.956,-4.317,-4.666,4.63,8.034,10,-1.172,1.376,4.869,8.329,-7.699,-8.388,-1.173,1.207,133.3,110.9,116.6,129.7,112.6,133.3,108.5,128.4,114.8,121.9,4,norm,1.126,1.739,-1.507,-1.597,-5.266,-4.421,-1.669,-2.014,-1.706,-1.498,1.533,-1.315,128.7,126.3,-5.121,-8.32,1.244,-1.795,8.341,5.265,-5.124,-7.786,0,4.897,4.365,5.094,5.159,1.751,1.846,1.694,2.018,0,5.106,5.13,,,,0,4,4,4,3167.915,3167.928,3167.94740032,3167.948,3167.949,3167.952,up,1,1.40043719621,8.59956280379,001,024,1920_1200,Intel(R) Core(TM) i5-3570 CPU @ 3.40GHz,orientation_search,LEPPC096,Intel(R) HD Graphics 2500,2019_Jan_03_1518,testMonitor,
134.6,129.6,138.1,123.3,36,-40,132.7,122.8,133.0,124.8,8.249,7.846,7.971,7.565,8.014,7.538,8.277,5.145,-4.366,-7.845,1.691,-1.928,7.98,5.128,-4.615,-7.67,138.9,,-7.988,148.5,122.6,140.1,116.0,126.3,36,137.3,5,5,prime,10,0,77,norm,36,-4.337,up,norm,128.471295479,108.5,124.2,115.4,134.3,4,109.2,134.4,110.5,10,6,7.597,4.751,1.627,-1.999,-4.325,-8.417,141.9,6,205.5,-7.51,-8.25,-40,-7.919,-8.206,-5.045,-4.716,-4.347,-4.476,4.367,7.93,34,-1.578,1.61,4.481,7.841,-8.222,-7.654,-2.057,1.907,128.9,137.9,131.9,138.5,114.9,127.1,136.8,137.7,124.9,138.0,5,norm,2.082,1.297,-1.574,-1.104,-4.422,-4.566,-1.992,-2.038,-1.962,-1.141,1.387,-1.259,130.0,117.1,-4.324,-7.606,1.924,-1.642,8.046,4.451,-4.317,-7.517,0,4.463,4.863,4.528,5.043,1.222,1.927,1.128,2.0,0,5.275,4.361,,,,0,5,5,5,3169.385,3169.396,3169.40726378,3169.407,3169.409,3169.412,up,1,0.859987642358,9.14001235764,001,024,1920_1200,Intel(R) Core(TM) i5-3570 CPU @ 3.40GHz,orientation_search,LEPPC096,Intel(R) HD Graphics 2500,2019_Jan_03_1518,testMonitor,
212.0,200.2,205.3,202.6,36,30,205.5,201.6,197.6,206.0,8.422,8.323,8.258,7.519,7.85,8.222,8.1,4.336,-4.78,-7.698,1.681,-1.88,8.08,4.355,-4.616,-8.486,212.9,207.3,-7.615,202.8,210.2,203.6,196.5,197.7,36,206.4,3,5,probe,5,0,113,norm,36,-4.648,down,norm,202.925207458,198.9,203.9,202.7,195.8,1,209.6,207.3,204.3,10,6,7.87,4.827,1.527,-1.752,-5.096,-8.452,198.9,2,89.9,-8.376,-7.651,-40,-8.17,-8.17,-4.509,-5.117,-4.801,-5.104,4.669,7.733,19,-1.696,1.983,5.253,8.101,-8.168,-8.172,-1.527,1.21,210.1,197.1,192.9,204.4,203.4,202.7,206.0,201.8,203.9,205.3,0,norm,1.492,1.148,-1.926,-1.281,-5.032,-4.424,-2.091,-1.692,-1.372,-1.308,1.207,-1.884,,199.8,-5.104,-7.669,1.725,-1.333,7.569,5.116,-4.512,-7.518,1,4.468,4.878,5.034,4.778,1.858,1.483,2.004,1.748,1,5.223,5.163,-40,128.471295479,norm,0,6,6,6,3170.313,3170.322,3170.3287375,3170.329,3170.331,3170.334,down,1,0.974548805603,9.0254511944,001,024,1920_1200,Intel(R) Core(TM) i5-3570 CPU @ 3.40GHz,orientation_search,LEPPC096,Intel(R) HD Graphics 2500,2019_Jan_03_1518,testMonitor,
185.1,,173.3,183.4,36,30,177.4,169.9,179.9,181.7,8.307,7.517,8.364,8.132,7.934,8.294,7.536,4.93,-4.926,-8.244,1.269,-1.36,8.483,4.783,-4.597,-8.317,180.6,172.1,-7.897,178.6,181.8,182.5,173.0,180.3,36,178.1,3,5,probe,5,0,90,norm,36,-5.055,up,norm,179.925207458,184.3,179.4,182.0,184.4,5,180.2,180.5,176.4,10,6,7.546,5.075,1.564,-1.294,-4.417,-8.148,181.3,2,89.9,-7.758,-8.148,-40,-8.238,-7.803,-4.993,-4.609,-4.94,-4.426,4.427,7.769,23,-1.109,1.634,4.755,7.803,-7.692,-7.599,-1.213,1.119,172.9,189.9,173.4,177.3,189.7,179.9,183.8,180.0,175.5,182.6,1,norm,1.605,1.136,-1.978,-1.374,-5.178,-4.814,-1.957,-1.98,-1.555,-1.995,1.298,-1.673,189.8,181.0,-4.522,-7.882,2.091,-2.011,8.155,5.299,-4.52,-7.833,1,4.971,4.717,4.523,4.329,1.837,1.806,1.401,1.951,1,4.832,4.572,-40,128.471295479,norm,0,7,7,7,3171.327,3171.336,3171.3426074,3171.343,3171.344,3171.347,up,1,1.5666749876,8.4333250124,001,024,1920_1200,Intel(R) Core(TM) i5-3570 CPU @ 3.40GHz,orientation_search,LEPPC096,Intel(R) HD Graphics 2500,2019_Jan_03_1518,testMonitor,
305.6,281.6,300.4,282.1,36,60,284.6,299.7,294.1,288.4,7.723,7.648,8.393,7.619,7.516,8.439,8.237,5.058,-4.892,-7.809,2.044,-1.666,8.262,4.603,-4.706,-8.005,300.5,,-7.907,285.6,309.6,297.7,285.1,291.1,36,302.3,5,5,prime,10,0,84,norm,36,-4.903,up,norm,291.702028349,283.9,311.7,309.9,281.4,4,279.6,298.2,294.0,10,6,8.069,5.264,1.572,-1.436,-4.956,-8.4,291.8,6,375.7,-7.521,-8.026,60,-8.076,-7.864,-5.088,-5.17,-4.323,-4.448,5.223,8.488,34,-1.33,1.402,4.855,7.712,-8.034,-7.51,-1.383,1.64,276.7,283.5,287.0,271.7,308.6,297.1,290.7,282.8,294.7,294.1,0,norm,1.141,1.713,-1.657,-1.755,-4.586,-5.098,-1.989,-1.622,-1.392,-2.036,1.784,-2.038,280.7,296.9,-4.736,-7.943,1.128,-1.779,8.054,5.087,-4.382,-8.068,2,5.021,4.436,4.5,4.372,1.469,1.682,2.027,1.609,2,5.146,5.09,30,128.471295479,norm,0,8,8,8,3172.933,3172.943,3172.94942089,3172.95,3172.952,3172.955,down,0,1.6062623135,-10,001,024,1920_1200,Intel(R) Core(TM) i5-3570 CPU @ 3.40GHz,orientation_search,LEPPC096,Intel(R) HD Graphics 2500,2019_Jan_03_1518,testMonitor,
280.3,311.7,299.9,276.4,36,60,,301.2,305.1,297.0,8.036,7.536,7.777,7.694,8.256,7.88,8.496,5.005,-4.753,-7.98,1.655,-2.09,7.697,4.546,-4.905,-8.444,287.7,273.7,-7.516,303.3,290.8,293.1,298.7,287.5,36,284.1,4,5,prime,10,0,75,norm,36,-4.432,down,norm,291.702028349,282.0,291.2,292.8,278.5,0,288.0,283.8,296.2,10,6,7.559,4.642,1.252,-1.971,-5.029,-8.227,291.1,6,366.7,-8.002,-8.491,60,-8.142,-7.521,-4.829,-4.543,-5.106,-4.522,5.061,7.793,24,-1.61,1.407,4.405,8.141,-7.837,-8.282,-1.775,1.197,290.1,271.7,281.8,299.1,311.2,307.6,301.5,291.1,280.2,309.7,1,norm,1.118,1.944,-1.768,-1.57,-4.612,-4.391,-2.004,-1.334,-1.947,-1.145,1.815,-2.044,284.2,306.4,-4.391,-8.328,1.81,-2.054,7.866,4.592,-4.647,-8.48,2,5.15,4.593,4.877,5.081,1.555,1.1,1.406,2.065,2,4.695,5.011,30,128.471295479,norm,0,9,9,9,3175.636,3175.646,3175.66276941,3175.663,3175.665,3175.667,up,0,1.04614496719,-10,001,024,1920_1200,Intel(R) Core(TM) i5-3570 CPU @ 3.40GHz,orientation_search,LEPPC096,Intel(R) HD Graphics 2500,2019_Jan_03_1518,testMonitor,
302.2,292.1,294.1,276.0,36,60,283.0,303.4,293.4,288.0,8.249,8.445,8.223,7.64,8.478,8.138,8.0,4.747,-4.597,-7.544,1.341,-1.748,7.75,4.359,-5.133,-7.57,271.7,292.6,-7.744,296.0,302.0,304.9,289.2,298.6,36,288.8,2,5,prime,10,0,94,norm,36,-4.957,up,norm,291.702028349,,284.8,296.7,290.7,5,278.9,286.0,300.0,10,6,8.278,4.784,1.974,-1.856,-5.22,-7.899,293.1,6,385.7,-8.067,-7.567,60,-7.651,-7.86,-4.579,-4.452,-4.768,-4.436,4.364,7.826,17,-1.332,1.528,4.536,8.24,-7.609,-7.821,-1.591,1.294,296.6,284.6,283.5,285.1,289.9,311.7,279.6,282.1,309.3,290.1,2,norm,1.719,1.389,-2.099,-1.793,-4.666,-5.014,-1.98,-1.562,-1.249,-1.845,1.933,-1.487,288.3,298.7,-4.73,-8.235,2.066,-1.589,8.456,4.862,-5.224,-8.442,2,4.571,5.06,4.555,5.153,1.683,1.658,1.103,1.831,2,4.805,4.928,30,128.471295479,norm,0,10,10,10,3177.789,3177.798,3177.81545635,3177.816,3177.817,3177.82,up,1,1.144960547,8.855039453,001,024,1920_1200,Intel(R) Core(TM) i5-3570 CPU @ 3.40GHz,orientation_search,LEPPC096,Intel(R) HD Graphics 2500,2019_Jan_03_1518,testMonitor,
278.8,297.0,294.2,287.8,36,60,297.4,309.4,292.0,,7.59,8.09,8.494,7.814,7.687,8.399,7.867,4.577,-5.07,-8.118,1.427,-1.37,8.028,4.47,-4.326,-8.491,271.7,280.8,-7.703,289.1,289.3,295.4,296.7,292.8,36,300.8,4,5,prime,10,0,83,norm,36,-4.862,up,norm,291.702028349,295.7,281.7,285.5,280.4,5,282.1,293.9,284.2,10,6,7.502,4.844,1.122,-1.986,-4.772,-8.257,311.7,6,374.7,-8.414,-7.711,60,-7.589,-7.813,-4.719,-4.866,-4.452,-5.179,4.747,7.618,29,-1.137,1.626,5.18,8.15,-8.162,-8.466,-1.378,1.887,280.0,293.6,301.1,283.4,290.1,294.7,298.5,290.4,282.1,305.4,3,norm,1.69,1.73,-2.001,-1.371,-4.882,-4.483,-1.874,-1.258,-1.781,-1.713,1.7,-2.095,290.1,296.9,-4.861,-7.932,1.258,-1.238,7.647,4.648,-4.449,-7.726,2,5.268,4.922,4.81,4.699,1.881,1.124,1.779,1.775,2,4.76,4.411,30,128.471295479,norm,0,11,11,11,3178.998,3179.008,3179.01649477,3179.017,3179.018,3179.021,up,1,1.57438206493,8.42561793507,001,024,1920_1200,Intel(R) Core(TM) i5-3570 CPU @ 3.40GHz,orientation_search,LEPPC096,Intel(R) HD Graphics 2500,2019_Jan_03_1518,testMonitor,
292.0,287.7,284.9,291.7,36,60,286.4,311.7,306.6,291.0,7.98,8.464,7.57,8.172,8.459,8.104,7.872,4.716,-4.387,-8.308,1.17,-1.277,8.026,4.36,-4.858,-8.085,283.8,302.4,-8.289,,311.1,281.8,302.3,289.1,36,300.0,5,5,prime,10,0,109,norm,36,-4.752,down,norm,291.702028349,299.6,288.4,282.0,298.3,1,293.1,291.8,271.7,10,6,8.356,5.082,1.407,-1.242,-4.905,-8.182,303.7,6,400.7,-8.461,-8.438,60,-7.865,-7.888,-4.352,-5.29,-4.391,-5.006,4.851,8.278,31,-1.506,1.128,4.782,7.82,-8.374,-7.934,-2.071,1.296,291.8,295.0,302.6,294.0,293.5,302.8,290.5,288.6,302.5,285.1,4,norm,1.757,1.894,-1.696,-1.542,-4.468,-4.685,-1.754,-1.498,-1.849,-2.002,1.124,-1.57,284.0,294.8,-4.334,-7.956,1.816,-1.244,7.577,4.309,-5.127,-8.222,2,5.285,5.166,4.974,5.232,1.144,1.806,2.081,1.896,2,4.726,5.025,30,128.471295479,norm,0,12,12,12,3180.629,3180.642,3180.66083849,3180.661,3180.663,3180.665,down,1,0.894289916869,9.10571008313,001,024,1920_1200,Intel(R) Core(TM) i5-3570 CPU @ 3.40GHz,orientation_search,LEPPC096,Intel(R) HD Graphics 2500,2019_Jan_03_1518,testMonitor,
280.0,282.3,284.8,286.3,36,60,271.7,287.6,289.2,292.7,8.19,8.425,7.889,8.275,8.471,7.779,7.787,4.562,-5.278,-7.855,1.992,-1.781,7.901,5.217,-4.312,-8.271,295.5,293.4,-7.894,287.5,287.3,289.7,278.2,305.6,36,294.8,3,5,prime,10,0,96,norm,36,-4.497,down,norm,291.702028349,305.0,297.7,296.4,297.3,1,278.9,311.7,309.6,10,6,8.006,4.313,1.807,-1.35,-4.955,-8.156,296.9,6,387.7,-7.757,-7.877,60,-8.469,-8.256,-4.511,-4.615,-4.356,-4.93,5.237,7.662,19,-1.721,1.41,5.268,8.479,-7.594,-8.448,-2.036,1.969,302.3,293.7,290.2,302.8,296.6,286.9,278.8,295.3,288.1,309.4,5,norm,1.297,1.952,-1.446,-1.631,-4.889,-5.117,-1.173,-2.093,-1.203,-1.492,1.875,-1.357,,287.9,-5.084,-7.98,1.68,-1.224,7.996,5.274,-4.504,-7.824,2,4.979,4.548,4.368,4.805,1.927,1.81,1.345,1.846,2,4.451,4.759,30,128.471295479,norm,0,13,13,13,3181.576,3181.586,3181.60599246,3181.606,3181.608,3181.611,down,1,1.34770681774,8.65229318226,001,024,1920_1200,Intel(R) Core(TM) i5-3570 CPU @ 3.40GHz,orientation_search,LEPPC096,Intel(R) HD Graphics 2500,2019_Jan_03_1518,testMonitor,
430.6,427.7,423.7,421.9,36,-60,415.6,423.0,417.8,423.1,7.785,7.57,8.02,7.643,7.85,8.298,8.294,4.64,-5.162,-8.432,1.564,-1.897,8.099,4.44,-4.392,-7.897,419.7,423.8,-8.145,421.8,416.2,423.8,429.2,432.7,36,428.4,2,5,probe,5,0,72,norm,36,-4.843,up,norm,425.069798893,423.0,,415.1,425.0,4,422.3,423.9,424.7,10,6,8.323,4.594,1.347,-1.936,-4.649,-7.716,428.1,2,353.1,-7.797,-7.937,60,-8.303,-7.885,-4.61,-4.478,-4.68,-4.795,4.758,8.249,16,-1.58,1.949,4.753,7.94,-7.684,-7.781,-1.45,1.944,425.7,424.5,428.9,421.9,423.8,428.4,418.2,434.6,425.9,417.2,0,norm,1.758,1.216,-1.522,-2.072,-4.56,-4.538,-2.035,-1.214,-1.282,-1.815,1.75,-1.43,435.1,421.7,-4.657,-8.043,1.503,-1.796,7.912,4.534,-4.447,-8.191,3,4.805,4.943,4.408,4.562,1.301,1.908,1.203,1.846,3,4.431,4.877,60,291.702028349,norm,0,14,14,14,3182.995,3183.005,3183.01094862,3183.011,3183.013,3183.016,up,1,0.92630871353,9.07369128647,001,024,1920_1200,Intel(R) Core(TM) i5-3570 CPU @ 3.40GHz,orientation_search,LEPPC096,Intel(R) HD Graphics 2500,2019_Jan_03_1518,testMonitor,
450.2,451.9,447.8,447.3,36,-60,451.0,445.1,444.4,451.6,8.322,8.414,7.595,7.718,7.555,7.849,7.8,4.33,-4.41,-8.387,2.064,-1.809,7.765,5.275,-4.985,-8.358,443.7,448.6,-7.943,441.7,451.8,443.9,435.1,441.6,36,445.4,2,5,probe,5,0,92,norm,36,-4.637,up,norm,445.069798893,443.8,,449.5,450.7,4,448.6,449.4,449.0,10,6,7.831,4.68,1.114,-1.509,-4.618,-8.348,447.3,2,353.1,-8.286,-7.92,60,-8.16,-7.553,-5.197,-4.529,-4.955,-5.3,5.164,7.651,16,-1.589,1.996,5.292,7.842,-8.36,-8.304,-1.645,1.831,442.0,451.8,446.5,442.0,450.0,448.5,441.3,444.2,439.8,437.6,1,norm,1.618,1.876,-1.864,-2.056,-5.111,-4.409,-1.974,-1.542,-1.419,-1.659,2.087,-1.346,441.1,455.1,-5.179,-7.651,1.322,-1.683,8.143,4.667,-4.368,-7.656,3,4.893,4.805,4.798,4.988,1.671,1.712,1.384,1.905,3,5.217,4.439,60,291.702028349,norm,0,15,15,15,3183.962,3183.972,3183.9781423,3183.978,3183.98,3183.983,up,1,1.22969825191,8.77030174809,001,024,1920_1200,Intel(R) Core(TM) i5-3570 CPU @ 3.40GHz,orientation_search,LEPPC096,Intel(R) HD Graphics 2500,2019_Jan_03_1518,testMonitor,
86.0,98.4,91.0,98.8,36,-10,103.2,102.6,75.9,83.2,7.998,7.547,7.593,8.209,8.129,8.218,8.313,4.866,-5.086,-7.727,1.134,-1.702,8.296,4.72,-5.099,-7.704,102.4,90.3,-8.21,86.3,104.1,92.9,98.5,84.5,36,88.8,1,5,prime,10,0,82,norm,36,-4.574,up,norm,95.8521972589,84.2,98.1,107.6,112.5,4,86.4,99.2,108.4,10,6,7.858,4.327,1.711,-1.759,-4.764,-8.443,,6,177.9,-7.887,-8.228,-10,-7.744,-7.781,-4.519,-5.23,-5.074,-5.157,5.016,7.691,10,-1.962,1.678,4.41,8.483,-8.326,-8.401,-1.332,1.706,107.9,101.4,97.5,90.7,93.5,84.3,84.3,103.0,85.9,101.2,0,norm,2.022,1.628,-1.168,-1.89,-4.937,-4.655,-1.743,-1.145,-1.748,-1.592,1.972,-1.477,115.9,87.8,-4.484,-8.282,1.569,-1.477,8.432,4.439,-5.222,-7.65,4,4.332,4.642,4.907,4.579,1.857,1.853,1.609,1.437,4,4.752,4.867,-60,291.702028349,norm,0,16,16,16,3185.245,3185.255,3185.2719186,3185.272,3185.274,3185.277,down,0,1.33119906886,-10,001,024,1920_1200,Intel(R) Core(TM) i5-3570 CPU @ 3.40GHz,orientation_search,LEPPC096,Intel(R) HD Graphics 2500,2019_Jan_03_1518,testMonitor,
,96.0,87.5,112.1,36,-10,88.9,99.6,85.0,98.4,8.205,8.446,8.467,8.157,8.019,8.052,8.35,4.956,-5.163,-7.597,1.396,-1.7,8.018,4.709,-4.725,-8.039,108.5,85.3,-8.123,92.4,98.2,85.2,98.4,102.5,36,75.9,3,5,prime,10,0,74,norm,36,-4.623,up,norm,95.8521972589,91.6,97.2,85.4,108.0,4,115.9,109.1,106.0,10,6,8.205,4.85,1.244,-1.999,-4.656,-8.073,103.1,6,169.9,-7.758,-8.316,-10,-7.625,-8.282,-4.556,-5.018,-4.557,-4.921,4.64,8.281,22,-1.346,1.748,5.219,8.162,-7.859,-7.831,-1.143,1.667,96.6,97.3,88.8,100.4,109.0,98.7,92.6,82.8,87.4,94.5,1,norm,1.292,2.05,-1.932,-1.689,-5.06,-5.188,-1.269,-1.729,-1.664,-1.127,1.206,-1.137,86.7,94.2,-4.454,-8.383,1.567,-1.858,7.877,4.602,-4.448,-7.695,4,5.048,5.12,4.335,4.575,1.928,1.826,1.256,1.113,4,5.105,4.878,-60,291.702028349,norm,0,17,17,17,3187.657,3187.667,3187.67426498,3187.674,3187.676,3187.679,up,1,0.753795508444,9.24620449156,001,024,1920_1200,Intel(R) Core(TM) i5-3570 CPU @ 3.40GHz,orientation_search,LEPPC096,Intel(R) HD Graphics 2500,2019_Jan_03_1518,testMonitor,
94.3,83.3,92.2,,36,-10,98.5,99.4,103.2,97.5,7.618,7.711,8.479,8.009,7.717,7.85,7.909,4.403,-4.448,-7.965,1.847,-1.917,7.646,4.837,-4.502,-8.397,100.5,75.9,-7.852,79.4,91.5,98.6,108.7,109.3,36,82.5,3,5,prime,10,0,91,norm,36,-5.263,up,norm,95.8521972589,102.0,90.5,103.7,95.2,3,99.0,115.9,83.1,10,6,7.73,4.615,1.603,-1.738,-4.941,-8.344,77.4,6,186.9,-7.654,-7.702,-10,-8.464,-8.395,-4.508,-5.146,-4.774,-5.002,4.993,8.422,21,-1.485,1.879,4.668,7.872,-7.523,-7.988,-1.684,1.246,92.5,107.7,89.6,104.8,89.0,81.5,97.8,85.9,97.9,95.4,2,norm,1.857,1.885,-1.974,-1.695,-4.408,-4.972,-1.536,-1.933,-1.504,-1.683,1.635,-2.037,97.8,91.9,-4.366,-7.948,1.568,-1.278,8.395,4.865,-4.802,-7.736,4,4.508,4.998,5.2,4.642,1.267,1.472,1.263,1.134,4,4.782,4.895,-60,291.702028349,norm,0,18,18,18,3188.465,3188.476,3188.48528055,3188.485,3188.487,3188.49,up,1,1.85849017592,8.14150982408,001,024,1920_1200,Intel(R) Core(TM) i5-3570 CPU @ 3.40GHz,orientation_search,LEPPC096,Intel(R) HD Graphics 2500,2019_Jan_03_1518,testMonitor,
95.5,92.8,85.0,,36,-10,99.5,106.9,108.5,84.4,7.682,7.733,8.405,8.066,8.127,8.232,7.524,4.805,-4.751,-7.935,1.506,-1.666,7.82,5.12,-5.234,-8.037,93.1,85.7,-8.165,95.6,89.0,100.0,113.8,112.4,36,103.5,3,5,prime,10,0,96,norm,36,-4.835,up,norm,95.8521972589,102.7,102.2,79.7,99.2,3,105.1,96.7,115.9,10,6,8.351,5.202,1.949,-1.917,-4.738,-7.964,75.9,6,191.9,-7.788,-8.094,-10,-8.327,-7.545,-5.028,-4.781,-5.181,-4.598,4.921,7.655,21,-1.61,1.323,4.432,7.51,-7.545,-8.402,-2.033,1.886,94.6,94.3,90.0,93.8,114.7,95.2,82.2,115.1,88.8,92.9,3,norm,2.06,1.155,-2.1,-1.81,-4.723,-4.766,-1.445,-2.046,-1.822,-1.853,1.691,-1.549,113.7,96.5,-4.899,-8.107,1.614,-1.603,7.907,5.081,-5.221,-7.575,4,5.247,4.304,5.082,4.604,2.012,1.733,1.118,2.091,4,4.719,5.234,-60,291.702028349,norm,0,19,19,19,3190.381,3190.392,3190.39691886,3190.397,3190.399,3190.402,down,0,1.74534196175,-10,001,024,1920_1200,Intel(R) Core(TM) i5-3570 CPU @ 3.40GHz,orientation_search,LEPPC096,Intel(R) HD Graphics 2500,2019_Jan_03_1518,testMonitor,
109.4,106.8,96.9,98.3,36,-10,103.7,106.7,85.1,99.8,8.258,8.405,8.109,7.746,7.853,7.788,7.508,5.018,-4.617,-8.016,1.398,-1.805,8.347,5.035,-5.097,-8.291,79.0,98.0,-7.564,103.2,108.9,98.1,89.5,100.4,36,75.9,0,5,prime,10,0,117,norm,36,-5.131,up,norm,95.8521972589,106.9,110.6,101.2,106.8,4,92.3,86.6,90.1,10,6,8.409,4.995,1.718,-1.565,-4.577,-7.589,96.8,6,212.9,-8.426,-8.129,-10,-7.913,-8.253,-5.29,-4.365,-4.303,-4.582,4.56,8.107,4,-1.778,1.84,5.199,8.49,-8.23,-7.89,-1.895,2.096,98.8,81.6,88.6,115.9,96.1,108.5,108.2,94.3,101.4,,4,norm,1.268,1.142,-1.406,-1.245,-4.557,-5.202,-2.053,-1.922,-1.699,-1.576,2.088,-1.834,96.7,98.5,-4.857,-7.604,2.085,-1.282,8.334,4.616,-4.823,-7.716,4,4.677,4.307,5.047,5.259,1.843,1.984,1.978,1.258,4,4.744,4.692,-60,291.702028349,norm,0,20,20,20,3193.217,3193.227,3193.24323522,3193.243,3193.245,3193.248,up,1,1.38032568763,8.61967431237,001,024,1920_1200,Intel(R) Core(TM) i5-3570 CPU @ 3.40GHz,orientation_search,LEPPC096,Intel(R) HD Graphics 2500,2019_Jan_03_1518,testMonitor,
105.1,96.1,76.4,95.5,36,-10,91.0,99.5,97.8,91.8,7.905,7.876,8.009,8.402,8.492,7.765,8.1,4.482,-4.853,-8.164,1.271,-1.534,7.942,5.011,-4.552,-8.361,99.5,98.6,-7.539,115.0,93.3,108.5,109.7,102.3,36,94.9,1,5,prime,10,0,89,norm,36,-4.887,down,norm,95.8521972589,80.8,104.8,95.1,75.9,1,100.6,99.9,93.2,10,6,7.811,4.892,1.813,-1.313,-5.287,-8.137,87.9,6,184.9,-8.274,-7.541,-10,-8.224,-8.313,-4.771,-4.565,-5.185,-4.325,4.688,8.076,7,-1.239,1.714,4.421,7.813,-8.019,-7.642,-1.237,1.455,81.1,93.3,85.1,82.0,111.1,99.7,,105.0,104.8,107.1,5,norm,1.64,1.423,-2.076,-1.541,-4.979,-4.641,-1.951,-2.073,-1.16,-1.989,1.179,-1.896,100.1,91.0,-4.528,-8.396,1.59,-1.885,7.539,4.466,-5.255,-8.145,4,4.786,5.009,5.22,4.345,1.663,1.532,1.389,2.041,4,4.935,4.77,-60,291.702028349,norm,0,21,21,21,3194.648,3194.657,3194.66366167,3194.664,3194.666,3194.668,down,1,1.57234066894,8.42765933106,001,024,1920_1200,Intel(R) Core(TM) i5-3570 CPU @ 3.40GHz,orientation_search,LEPPC096,Intel(R) HD Graphics 2500,2019_Jan_03_1518,testMonitor,
200.4,188.3,184.4,194.3,36,-20,193.5,188.7,187.8,187.6,8.497,8.097,7.871,8.165,8.184,7.658,7.585,4.825,-5.24,-7.791,1.691,-1.774,8.184,4.403,-4.776,-7.519,190.9,193.7,-7.962,187.4,187.0,192.1,186.7,192.7,36,,4,5,probe,5,0,102,norm,36,-4.908,up,norm,190.44281719,186.9,196.1,183.5,184.5,3,186.5,192.5,183.0,10,6,8.43,5.223,1.912,-1.429,-5.187,-8.195,194.9,1,88.4,-7.641,-8.192,-10,-8.439,-8.448,-5.221,-5.159,-4.633,-5.241,4.302,8.123,27,-1.387,1.949,4.611,8.059,-7.861,-8.36,-1.762,1.38,193.8,187.6,190.6,191.1,186.9,193.4,198.5,183.5,187.9,192.9,0,norm,1.21,1.595,-1.511,-1.222,-4.808,-5.183,-1.615,-1.159,-2.026,-1.554,1.417,-1.635,187.7,180.4,-4.613,-7.712,2.077,-1.684,8.295,4.447,-4.9,-7.547,5,4.334,4.345,5.006,5.049,2.0,1.856,1.289,1.727,5,5.109,4.926,-10,95.8521972589,norm,0,22,22,22,3196.273,3196.283,3196.30058266,3196.301,3196.302,3196.305,up,1,1.18168001789,8.81831998211,001,024,1920_1200,Intel(R) Core(TM) i5-3570 CPU @ 3.40GHz,orientation_search,LEPPC096,Intel(R) HD Graphics 2500,2019_Jan_03_1518,testMonitor,
258.7,268.7,254.5,256.6,36,40,267.0,248.2,255.8,259.8,8.112,8.23,8.037,8.007,7.659,7.685,7.62,4.37,-4.413,-7.72,1.784,-2.074,8.036,4.997,-5.217,-8.218,243.3,274.1,-8.458,264.6,256.1,273.8,256.7,247.3,36,261.6,1,5,prime,10,0,80,norm,36,-4.626,down,norm,255.51941619,241.6,253.9,236.3,256.2,0,252.8,241.2,262.2,10,5,8.472,4.954,1.676,-1.81,-4.563,-8.345,242.8,5,335.5,-7.918,-7.543,40,-7.703,-8.157,-5.087,-4.812,-4.341,-4.934,5.121,7.965,6,-1.482,1.576,4.982,8.048,-7.633,-8.089,-1.476,1.372,246.4,268.1,265.6,263.5,252.4,275.5,274.1,,253.7,235.5,0,norm,1.758,1.561,-1.406,-1.89,-4.718,-5.147,-1.646,-1.232,-2.036,-1.687,1.45,-1.366,260.1,263.9,-4.986,-7.974,1.38,-1.522,7.699,4.712,-4.747,-7.672,6,4.994,5.161,4.49,5.093,1.199,1.697,1.325,1.457,6,4.753,4.976,-20,95.8521972589,norm,0,23,23,23,3197.52,3197.532,3197.55284855,3197.553,3197.555,3197.558,down,1,1.279878621,8.720121379,001,024,1920_1200,Intel(R) Core(TM) i5-3570 CPU @ 3.40GHz,orientation_search,LEPPC096,Intel(R) HD Graphics 2500,2019_Jan_03_1518,testMonitor,
253.5,269.2,,262.2,36,40,256.9,260.0,245.8,254.0,7.627,7.695,7.761,7.605,8.486,8.174,7.729,4.463,-5.037,-8.136,1.557,-1.308,7.56,4.331,-4.396,-8.463,258.2,246.9,-8.241,241.0,252.7,248.2,250.8,259.2,36,259.0,3,5,prime,10,0,99,norm,36,-5.159,down,norm,255.51941619,269.6,267.6,253.1,247.3,2,251.1,252.6,250.4,10,5,8.483,4.96,1.454,-1.445,-4.579,-8.474,249.7,5,354.5,-7.522,-8.016,40,-8.448,-8.442,-4.762,-5.234,-4.676,-4.496,4.903,7.772,20,-1.811,1.239,4.753,8.381,-8.263,-8.376,-1.74,1.146,275.5,246.0,247.7,265.5,259.6,240.5,235.5,246.1,257.6,261.2,1,norm,2.016,1.108,-1.698,-1.938,-4.93,-4.526,-1.594,-1.26,-1.205,-1.241,1.974,-1.966,251.6,246.5,-4.308,-7.602,2.032,-1.932,8.252,5.255,-4.357,-7.799,6,4.506,4.998,4.462,4.929,1.429,1.939,1.508,1.956,6,4.703,4.565,-20,95.8521972589,norm,0,24,24,24,3198.876,3198.898,3198.90783322,3198.908,3198.91,3198.912,down,1,1.87181252602,8.12818747398,001,024,1920_1200,Intel(R) Core(TM) i5-3570 CPU @ 3.40GHz,orientation_search,LEPPC096,Intel(R) HD Graphics 2500,2019_Jan_03_1518,testMonitor,
252.8,264.2,,246.2,36,40,262.8,269.2,235.5,248.3,8.03,8.237,8.203,8.457,8.112,8.002,7.858,4.976,-4.431,-7.916,1.828,-1.876,8.125,4.48,-4.656,-7.884,265.6,253.8,-8.042,244.6,264.6,259.4,254.3,275.5,36,265.5,3,5,prime,10,0,87,norm,36,-4.99,down,norm,255.51941619,260.9,257.1,251.9,266.3,2,262.0,255.8,260.7,10,5,8.299,4.606,2.063,-1.3,-4.526,-8.464,250.2,5,342.5,-8.285,-8.272,40,-7.657,-8.455,-4.894,-4.91,-4.738,-4.888,4.428,7.71,20,-1.39,2.084,5.125,7.962,-8.085,-8.015,-1.661,1.339,252.5,262.3,249.8,255.7,253.0,246.0,260.1,259.3,256.8,254.2,2,norm,1.196,1.454,-1.53,-1.988,-4.678,-4.487,-1.654,-1.694,-1.26,-1.89,1.518,-1.102,263.4,272.4,-5.12,-7.531,1.512,-1.11,7.609,4.914,-4.577,-7.55,6,5.232,5.027,4.363,5.073,1.154,1.474,1.569,1.383,6,5.216,5.087,-20,95.8521972589,norm,0,25,25,25,3200.826,3200.848,3200.85774099,3200.858,3200.86,3200.862,down,1,1.93877834388,8.06122165612,001,024,1920_1200,Intel(R) Core(TM) i5-3570 CPU @ 3.40GHz,orientation_search,LEPPC096,Intel(R) HD Graphics 2500,2019_Jan_03_1518,testMonitor,
254.0,239.6,255.3,256.2,36,40,252.5,253.2,239.2,245.5,7.728,8.01,7.978,8.357,8.364,7.655,8.487,4.95,-4.454,-7.876,1.558,-1.276,7.748,4.854,-4.632,-7.835,245.6,263.3,-8.411,256.3,270.8,272.6,237.0,260.2,36,273.7,0,5,prime,10,0,83,norm,36,-5.232,down,norm,255.51941619,235.5,264.7,237.8,261.4,1,262.0,275.5,253.4,10,5,8.396,4.859,1.955,-1.763,-4.503,-7.955,261.0,5,338.5,-7.909,-8.366,40,-8.099,-8.373,-4.991,-5.196,-4.863,-4.5,4.368,7.777,1,-1.746,1.639,4.805,7.578,-8.306,-7.644,-1.666,1.992,258.5,262.1,264.6,257.2,,250.6,258.6,255.3,245.4,258.7,3,norm,1.753,1.117,-1.845,-1.224,-4.791,-4.515,-1.768,-1.525,-1.823,-1.151,2.095,-1.906,261.0,258.0,-4.909,-8.332,1.354,-2.056,8.435,5.012,-4.668,-7.689,6,4.93,4.786,4.544,5.278,1.429,1.123,2.069,1.478,6,4.964,4.436,-20,95.8521972589,norm,0,26,26,26,3202.837,3202.85,3202.87011222,3202.87,3202.873,3202.876,down,1,1.3494973783,8.6505026217,001,024,1920_1200,Intel(R) Core(TM) i5-3570 CPU @ 3.40GHz,orientation_search,LEPPC096,Intel(R) HD Graphics 2500,2019_Jan_03_1518,testMonitor,
260.2,269.4,255.3,268.5,36,40,235.5,263.9,248.5,247.3,8.365,7.955,7.571,8.081,8.227,8.383,8.29,4.498,-5.209,-7.709,2.001,-1.713,8.15,4.91,-4.45,-8.281,253.9,260.8,-8.014,250.2,249.5,260.5,241.4,256.6,36,272.6,2,5,prime,10,0,77,norm,36,-5.138,down,norm,255.51941619,264.5,265.2,267.0,,2,266.5,256.2,251.5,10,5,7.659,5.294,1.282,-2.069,-5.241,-7.802,259.0,5,332.5,-8.113,-8.317,40,-8.112,-8.062,-5.095,-4.788,-4.651,-4.981,4.713,7.686,14,-1.687,1.437,5.005,8.335,-8.285,-7.914,-1.503,1.681,247.7,249.8,272.5,247.6,248.7,247.9,249.4,246.8,275.1,275.5,4,norm,1.981,1.981,-1.364,-1.348,-5.181,-5.008,-1.335,-1.971,-1.257,-1.945,1.792,-1.475,261.7,259.6,-4.978,-8.485,1.6,-1.859,8.008,4.928,-4.411,-8.122,6,5.073,4.481,4.632,4.99,2.046,1.512,1.169,1.337,6,4.51,4.68,-20,95.8521972589,norm,0,27,27,27,3204.242,3204.253,3204.27195572,3204.272,3204.274,3204.277,down,1,0.923510887191,9.07648911281,001,024,1920_1200,Intel(R) Core(TM) i5-3570 CPU @ 3.40GHz,orientation_search,LEPPC096,Intel(R) HD Graphics 2500,2019_Jan_03_1518,testMonitor,
403.9,414.4,413.4,409.4,36,30,404.0,409.7,408.0,405.8,7.97,8.438,7.909,8.035,8.186,8.475,7.871,4.992,-5.044,-7.726,1.82,-2.074,7.978,5.136,-4.638,-8.057,408.4,412.1,-8.497,404.2,409.5,409.3,407.0,405.5,36,406.0,1,5,probe,5,0,114,norm,36,-5.077,down,norm,407.897665136,413.3,417.9,406.7,415.7,2,402.1,407.9,410.6,10,5,7.991,4.495,1.797,-1.338,-4.93,-7.767,406.8,1,293.9,-7.724,-7.52,40,-8.245,-7.503,-5.181,-4.785,-4.585,-4.945,4.53,7.898,8,-1.978,1.221,5.176,7.733,-8.214,-8.169,-1.236,1.514,409.1,,408.3,408.6,410.1,409.3,408.9,406.8,397.9,399.8,0,norm,1.91,1.324,-1.76,-1.725,-4.424,-5.146,-1.275,-1.965,-1.344,-1.599,1.559,-1.588,407.9,406.4,-4.686,-8.42,1.124,-1.44,7.759,4.734,-4.719,-7.775,7,5.275,4.828,4.99,4.861,2.058,1.795,1.602,1.442,7,4.801,4.411,40,255.51941619,norm,0,28,28,28,3205.24,3205.262,3205.27242872,3205.273,3205.275,3205.278,down,1,1.09539111765,8.90460888235,001,024,1920_1200,Intel(R) Core(TM) i5-3570 CPU @ 3.40GHz,orientation_search,LEPPC096,Intel(R) HD Graphics 2500,2019_Jan_03_1518,testMonitor,
172.8,168.3,178.0,146.7,36,40,163.6,169.7,170.0,157.9,8.493,8.484,8.404,7.979,8.32,7.602,7.673,4.306,-4.622,-8.325,1.516,-1.533,7.634,5.292,-5.13,-7.727,166.2,143.1,-8.082,162.6,163.1,149.5,,162.9,36,181.7,5,5,prime,10,0,92,norm,36,-4.656,down,norm,162.663351892,156.4,165.3,167.2,142.7,2,170.3,158.7,168.2,10,6,8.467,4.429,1.323,-1.679,-4.932,-8.103,155.2,6,254.7,-7.851,-8.097,40,-8.461,-7.512,-4.471,-5.261,-4.775,-4.84,4.939,7.862,32,-1.177,1.408,4.745,8.221,-8.272,-8.208,-1.73,1.421,162.7,182.7,166.6,147.2,178.1,165.1,178.1,166.2,173.7,151.3,0,norm,1.73,1.706,-1.291,-1.792,-5.05,-4.334,-1.621,-2.082,-1.879,-1.413,1.663,-1.54,150.5,154.0,-4.771,-8.185,1.892,-1.72,7.821,5.035,-5.25,-7.558,8,4.895,4.896,5.078,4.666,1.238,2.097,1.782,1.313,8,4.636,4.645,30,255.51941619,norm,0,29,29,29,3206.406,3206.416,3206.42456569,3206.425,3206.426,3206.429,up,0,1.21466623643,-10,001,024,1920_1200,Intel(R) Core(TM) i5-3570 CPU @ 3.40GHz,orientation_search,LEPPC096,Intel(R) HD Graphics 2500,2019_Jan_03_1518,testMonitor,
148.4,,158.4,178.5,36,40,175.0,166.7,142.7,154.5,7.562,8.033,7.726,7.831,7.767,8.386,8.417,4.936,-5.064,-7.635,1.576,-1.563,7.83,4.754,-4.856,-8.031,146.5,163.8,-7.761,168.8,160.6,155.5,154.6,155.0,36,174.0,3,5,prime,10,0,102,norm,36,-5.268,up,norm,162.663351892,151.2,171.7,177.2,166.3,5,178.0,163.5,167.6,10,6,7.627,5.152,1.157,-1.757,-5.059,-7.787,182.4,6,264.7,-7.529,-7.791,40,-7.634,-8.099,-5.17,-4.755,-5.21,-4.34,5.003,7.631,23,-1.759,1.125,5.221,8.348,-8.226,-8.142,-1.274,1.65,177.4,158.0,171.2,148.7,164.7,157.5,154.6,160.0,169.3,175.4,1,norm,1.226,1.245,-1.763,-1.898,-5.189,-4.943,-1.935,-1.582,-1.13,-1.388,1.318,-1.854,182.7,148.7,-4.42,-7.601,1.2,-1.395,8.472,4.638,-4.936,-8.29,8,4.914,4.782,4.54,4.719,1.252,1.8,2.003,1.953,8,5.057,4.935,30,255.51941619,norm,0,30,30,30,3208.71,3208.72,3208.73342562,3208.734,3208.735,3208.738,down,0,0.755495514695,-10,001,024,1920_1200,Intel(R) Core(TM) i5-3570 CPU @ 3.40GHz,orientation_search,LEPPC096,Intel(R) HD Graphics 2500,2019_Jan_03_1518,testMonitor,
154.0,169.0,157.5,168.5,36,40,170.2,169.2,173.1,176.8,7.601,7.79,7.505,8.023,8.367,7.559,8.115,4.987,-4.728,-7.711,1.532,-1.624,7.552,4.404,-4.487,-8.471,161.6,,-7.929,143.0,156.3,142.7,173.7,166.9,36,145.7,5,5,prime,10,0,84,norm,36,-4.844,up,norm,162.663351892,165.5,166.7,174.0,150.8,4,145.8,169.7,164.0,10,6,8.094,5.068,2.091,-1.778,-5.156,-7.844,158.5,6,246.7,-8.113,-7.537,40,-7.54,-7.71,-4.683,-5.016,-4.865,-5.141,5.299,7.688,34,-1.707,1.957,5.063,7.746,-7.505,-7.94,-1.222,2.065,154.0,151.4,144.2,164.7,163.6,161.4,157.0,156.9,182.7,161.3,2,norm,1.88,2.046,-1.718,-1.421,-4.807,-4.555,-1.257,-1.663,-1.26,-1.218,1.88,-1.913,156.7,157.2,-5.238,-7.585,1.486,-1.865,8.285,5.186,-5.138,-7.851,8,5.113,4.412,4.662,5.002,1.468,1.599,1.664,1.64,8,4.867,4.815,30,255.51941619,norm,0,31,31,31,3210.547,3210.558,3210.56312254,3210.563,3210.565,3210.568,up,1,1.75583026379,8.24416973621,001,024,1920_1200,Intel(R) Core(TM) i5-3570 CPU @ 3.40GHz,orientation_search,LEPPC096,Intel(R) HD Graphics 2500,2019_Jan_03_1518,testMonitor,
157.9,170.0,181.8,152.5,36,40,176.4,156.5,167.1,174.7,7.913,8.421,8.081,7.805,8.24,8.038,7.558,5.202,-5.013,-8.021,1.718,-1.813,7.753,4.867,-5.201,-7.753,171.9,175.2,-8.122,182.7,180.8,176.5,164.4,154.6,36,160.5,1,5,prime,10,0,104,norm,36,-4.604,up,norm,162.663351892,154.6,169.2,145.4,145.3,5,,162.1,160.0,10,6,8.089,4.678,1.435,-1.364,-4.499,-8.313,142.7,6,266.7,-8.416,-7.844,40,-8.199,-7.762,-5.007,-5.207,-4.446,-5.009,4.438,7.89,11,-1.662,1.609,4.565,7.635,-7.587,-7.518,-1.127,1.338,151.2,157.3,155.7,161.1,150.4,149.1,168.8,173.0,155.5,148.8,3,norm,1.252,1.455,-1.952,-1.928,-4.729,-5.264,-1.544,-1.425,-1.772,-1.12,1.557,-1.86,151.4,176.0,-4.805,-8.154,1.567,-1.402,7.846,4.451,-4.57,-8.311,8,4.44,4.474,4.597,4.774,1.567,1.575,1.984,1.237,8,5.008,4.571,30,255.51941619,norm,0,32,32,32,3212.356,3212.366,3212.38367831,3212.384,3212.386,3212.388,down,0,2.02764109946,-10,001,024,1920_1200,Intel(R) Core(TM) i5-3570 CPU @ 3.40GHz,orientation_search,LEPPC096,Intel(R) HD Graphics 2500,2019_Jan_03_1518,testMonitor,
167.0,153.6,167.8,167.1,36,40,163.2,166.9,163.8,164.2,8.249,8.091,7.553,8.061,8.253,7.868,7.523,5.127,-5.3,-8.247,1.28,-1.335,8.116,4.799,-4.592,-8.232,149.9,158.5,-8.249,159.0,156.5,142.7,,173.9,36,149.4,5,5,prime,10,0,101,norm,36,-5.144,down,norm,162.663351892,155.5,152.6,171.0,164.7,2,163.2,173.1,148.7,10,6,7.936,4.595,1.871,-1.138,-4.621,-8.401,171.6,6,263.7,-8.162,-7.583,40,-8.379,-7.598,-4.911,-4.557,-5.273,-4.617,5.126,7.795,32,-1.434,1.541,5.07,8.379,-7.936,-8.298,-2.088,1.373,172.9,152.4,180.3,170.4,162.7,176.7,164.3,182.7,152.9,179.7,4,norm,1.276,1.362,-1.985,-2.007,-5.023,-4.523,-1.708,-1.352,-1.5,-1.364,1.963,-1.559,176.7,160.7,-4.324,-7.636,1.181,-1.536,7.846,4.424,-5.292,-7.969,8,4.321,4.762,4.62,4.574,1.642,1.696,1.271,1.162,8,4.677,4.979,30,255.51941619,norm,0,33,33,33,3215.482,3215.492,3215.50348196,3215.504,3215.505,3215.508,up,0,0.770700187055,-10,001,024,1920_1200,Intel(R) Core(TM) i5-3570 CPU @ 3.40GHz,orientation_search,LEPPC096,Intel(R) HD Graphics 2500,2019_Jan_03_1518,testMonitor,
165.6,158.3,167.9,142.7,36,40,144.3,166.9,162.7,151.6,7.641,8.308,7.883,7.952,7.55,8.434,7.879,5.089,-4.547,-8.325,1.252,-1.523,8.223,4.55,-4.385,-8.105,162.8,176.5,-7.961,158.3,163.1,172.6,166.3,154.6,36,162.5,2,5,prime,10,0,63,norm,36,-4.307,up,norm,162.663351892,163.7,158.5,,154.7,3,166.1,154.8,155.9,10,6,8.458,4.961,1.521,-1.926,-4.891,-8.106,169.2,6,225.7,-8.103,-8.348,40,-8.125,-8.341,-4.314,-4.408,-4.815,-4.658,4.767,8.457,15,-1.762,1.369,4.448,7.612,-7.732,-7.731,-1.91,1.868,149.6,167.5,161.6,176.8,159.6,162.5,168.0,162.8,156.1,165.3,5,norm,1.139,1.903,-2.031,-1.803,-4.943,-4.848,-1.91,-1.449,-2.012,-1.611,1.652,-1.496,172.3,182.7,-4.639,-7.881,1.332,-1.966,7.571,4.554,-4.431,-7.855,8,4.557,4.314,5.135,5.087,1.711,1.107,2.086,1.169,8,4.534,5.281,30,255.51941619,norm,0,34,34,34,3217.349,3217.359,3217.37546896,3217.376,3217.377,3217.38,down,0,0.722490883447,-10,001,024,1920_1200,Intel(R) Core(TM) i5-3570 CPU @ 3.40GHz,orientation_search,LEPPC096,Intel(R) HD Graphics 2500,2019_Jan_03_1518,testMonitor,
316.0,313.1,315.2,313.3,36,-30,309.8,306.5,313.5,313.5,7.746,7.582,7.616,8.31,8.439,8.498,8.304,4.495,-4.755,-7.735,1.223,-1.184,7.716,5.29,-4.567,-8.241,313.6,312.7,-7.892,312.6,300.0,313.4,307.8,314.6,36,309.6,2,5,probe,5,0,103,norm,36,-4.523,down,norm,309.745935503,303.6,310.7,306.8,306.0,1,318.7,,303.3,10,6,7.508,4.416,1.497,-1.655,-4.322,-8.166,317.4,1,206.7,-7.945,-8.453,40,-8.056,-8.091,-4.474,-4.623,-5.254,-4.442,4.991,8.071,13,-1.658,1.711,4.666,8.092,-8.464,-7.63,-1.289,1.184,307.0,300.1,315.2,313.3,319.7,304.4,302.3,311.8,315.5,299.7,0,norm,2.09,1.219,-1.467,-1.526,-4.422,-5.06,-1.843,-2.048,-1.624,-1.589,1.693,-1.814,311.4,311.6,-4.783,-8.388,1.133,-1.158,8.011,5.142,-5.069,-8.231,9,5.266,5.107,4.52,4.998,1.342,1.593,1.831,2.075,9,4.669,4.587,40,162.663351892,norm,0,35,35,35,3219.174,3219.183,3219.20057538,3219.201,3219.202,3219.205,down,1,1.65641762923,8.34358237077,001,024,1920_1200,Intel(R) Core(TM) i5-3570 CPU @ 3.40GHz,orientation_search,LEPPC096,Intel(R) HD Graphics 2500,2019_Jan_03_1518,testMonitor,
230.4,,246.8,225.5,36,60,234.3,262.4,254.4,255.2,7.883,7.736,8.318,7.53,8.073,7.688,8.382,4.568,-5.058,-8.466,1.215,-1.14,7.776,5.021,-4.909,-8.262,242.7,262.0,-8.144,249.8,226.9,261.1,260.6,241.0,36,247.5,3,5,prime,10,0,108,norm,36,-4.611,up,norm,242.385391319,237.9,247.2,245.1,244.8,5,243.5,222.4,243.7,10,5,8.313,5.218,1.795,-1.584,-5.251,-7.532,251.0,5,350.4,-8.364,-7.718,60,-8.139,-8.393,-4.955,-4.933,-4.364,-5.122,4.56,8.371,23,-2.046,2.081,4.316,7.673,-7.927,-7.893,-1.17,2.1,246.1,225.5,232.6,248.2,250.5,253.1,256.7,241.3,240.1,240.9,0,norm,1.51,1.688,-1.289,-1.529,-4.878,-4.918,-1.689,-1.563,-1.977,-1.622,1.446,-1.701,255.2,236.8,-4.528,-8.464,1.622,-1.283,7.557,4.523,-5.058,-8.183,10,4.399,5.092,4.83,4.698,1.553,2.097,1.515,1.193,10,5.033,5.118,-30,162.663351892,norm,0,36,36,36,3220.894,3220.905,3220.9103784,3220.911,3220.912,3220.915,up,1,1.1654689853,8.8345310147,001,024,1920_1200,Intel(R) Core(TM) i5-3570 CPU @ 3.40GHz,orientation_search,LEPPC096,Intel(R) HD Graphics 2500,2019_Jan_03_1518,testMonitor,
231.5,232.0,239.9,250.4,36,60,222.4,261.3,240.0,246.7,7.606,7.582,7.83,8.265,7.536,8.272,7.873,4.905,-4.433,-7.786,1.105,-2.077,8.117,5.064,-4.94,-7.824,253.7,233.3,-7.579,236.2,252.0,245.8,244.6,238.7,36,242.2,1,5,prime,10,0,105,norm,36,-5.21,up,norm,242.385391319,244.5,257.9,254.3,252.6,5,,229.9,262.4,10,5,8.458,4.755,2.053,-1.979,-5.033,-8.009,256.5,5,347.4,-7.854,-7.678,60,-7.589,-7.749,-4.396,-4.52,-4.323,-4.384,4.912,7.884,11,-1.99,1.226,5.263,7.916,-7.977,-8.266,-1.408,1.837,255.2,247.5,227.2,238.9,238.1,236.4,234.9,246.6,243.7,237.5,1,norm,1.151,1.215,-1.944,-1.381,-4.623,-4.704,-1.181,-1.443,-1.759,-1.264,2.049,-1.23,251.6,252.2,-5.022,-7.682,1.804,-1.685,8.341,4.837,-4.573,-7.734,10,5.218,4.896,4.794,4.439,1.111,1.416,1.802,2.058,10,4.942,4.68,-30,162.663351892,norm,0,37,37,37,3222.118,3222.128,3222.13558848,3222.136,3222.138,3222.14,up,1,1.31463457261,8.68536542739,001,024,1920_1200,Intel(R) Core(TM) i5-3570 CPU @ 3.40GHz,orientation_search,LEPPC096,Intel(R) HD Graphics 2500,2019_Jan_03_1518,testMonitor,
255.2,250.6,246.0,243.9,36,60,243.3,236.0,245.8,237.4,8.312,8.063,8.212,7.817,7.909,8.138,7.55,4.644,-4.543,-8.414,1.792,-1.89,8.188,4.439,-4.649,-8.125,222.4,262.4,-8.421,243.4,232.4,244.2,,253.1,36,246.1,5,5,prime,10,0,103,norm,36,-4.548,down,norm,242.385391319,229.7,232.3,243.5,251.4,2,233.3,232.4,254.9,10,5,8.181,5.045,1.386,-1.474,-5.05,-7.78,236.4,5,345.4,-8.38,-8.418,60,-8.175,-8.068,-4.451,-5.083,-5.188,-4.313,5.094,8.065,32,-2.003,1.901,4.42,8.465,-8.494,-8.373,-1.179,1.956,249.0,225.8,230.0,245.5,250.2,233.2,249.5,255.6,243.9,255.5,2,norm,1.447,1.758,-1.104,-1.537,-4.433,-4.48,-1.982,-1.462,-1.931,-1.544,1.936,-1.897,256.0,233.3,-4.468,-7.994,1.968,-1.696,7.901,4.987,-4.846,-8.121,10,5.21,5.03,4.607,4.308,1.659,1.413,1.476,1.727,10,4.86,4.589,-30,162.663351892,norm,0,38,38,38,3223.488,3223.497,3223.50590218,3223.506,3223.508,3223.511,down,1,2.04435712326,7.95564287674,001,024,1920_1200,Intel(R) Core(TM) i5-3570 CPU @ 3.40GHz,orientation_search,LEPPC096,Intel(R) HD Graphics 2500,2019_Jan_03_1518,testMonitor,
228.6,234.4,243.2,243.6,36,60,232.5,252.1,258.2,247.1,7.587,8.49,7.902,8.284,7.89,8.001,8.025,5.192,-4.912,-8.42,1.767,-1.325,8.068,4.444,-5.015,-8.021,237.3,260.2,-8.021,237.8,255.0,250.2,258.2,240.6,36,240.3,0,5,prime,10,0,93,norm,36,-4.712,down,norm,242.385391319,254.0,242.4,243.3,227.7,0,222.4,235.6,237.7,10,5,7.989,4.669,1.858,-2.011,-4.426,-7.614,229.1,5,335.4,-7.629,-7.538,60,-7.581,-8.031,-4.566,-5.129,-4.343,-4.459,5.068,7.584,0,-1.625,1.292,5.005,8.127,-8.221,-7.838,-1.569,1.131,235.7,260.4,236.3,262.4,247.5,,222.7,252.8,244.4,248.5,3,norm,1.904,1.807,-1.652,-1.508,-5.264,-4.32,-1.392,-1.105,-1.456,-1.786,2.04,-1.184,246.4,239.8,-4.994,-7.91,1.322,-1.637,8.266,4.526,-4.743,-8.126,10,4.99,4.987,4.789,5.089,2.031,1.558,1.336,1.218,10,4.528,4.591,-30,162.663351892,norm,0,39,39,39,3225.597,3225.607,3225.61290115,3225.613,3225.615,3225.618,down,1,1.18157225827,8.81842774173,001,024,1920_1200,Intel(R) Core(TM) i5-3570 CPU @ 3.40GHz,orientation_search,LEPPC096,Intel(R) HD Graphics 2500,2019_Jan_03_1518,testMonitor,
243.7,222.4,247.8,238.4,36,60,242.5,238.0,242.0,232.4,7.549,7.827,7.699,8.178,8.175,7.973,7.631,5.15,-4.903,-7.715,1.7,-1.846,8.262,5.233,-5.229,-7.733,245.7,245.6,-7.804,249.5,237.7,243.3,237.4,252.5,36,258.2,2,5,prime,10,0,101,norm,36,-4.732,down,norm,242.385391319,223.2,234.5,226.2,,2,253.4,245.1,244.3,10,5,7.591,4.959,2.09,-1.489,-4.782,-8.09,262.4,5,343.4,-7.506,-7.719,60,-7.505,-7.667,-4.615,-4.346,-4.853,-5.258,4.42,7.534,14,-1.144,1.31,5.078,7.564,-7.82,-8.276,-2.073,1.416,241.7,232.9,250.0,235.8,233.1,246.1,229.6,258.1,233.8,251.1,4,norm,2.014,1.889,-1.109,-1.261,-4.473,-5.233,-1.313,-1.374,-1.514,-1.515,1.354,-1.411,253.8,241.7,-4.919,-7.584,1.593,-1.673,7.776,5.14,-4.718,-7.67,10,5.181,4.544,4.769,4.34,1.803,1.359,1.284,1.96,10,4.611,4.349,-30,162.663351892,norm,0,40,40,40,3226.829,3226.839,3226.84522276,3226.845,3226.847,3226.85,down,1,1.26560846912,8.73439153088,001,024,1920_1200,Intel(R) Core(TM) i5-3570 CPU @ 3.40GHz,orientation_search,LEPPC096,Intel(R) HD Graphics 2500,2019_Jan_03_1518,testMonitor,
385.2,383.7,386.7,382.0,36,-30,392.2,377.2,377.6,378.7,8.012,7.949,8.156,8.037,7.855,8.254,7.582,4.724,-5.045,-8.058,1.595,-1.617,7.751,5.107,-5.298,-8.284,387.4,382.1,-7.884,382.0,385.7,391.9,378.3,382.1,36,382.9,1,5,probe,5,0,75,norm,36,-4.994,down,norm,383.733585383,381.2,380.7,393.7,378.3,2,388.6,390.5,378.4,10,5,8.333,5.003,1.95,-1.133,-5.148,-7.771,378.4,1,308.7,-8.147,-8.161,60,-7.848,-8.417,-4.371,-4.528,-4.434,-5.245,4.971,8.48,8,-1.758,1.827,4.958,8.014,-7.816,-8.414,-1.442,1.603,382.4,,381.6,386.9,386.0,383.4,389.9,392.0,385.8,378.4,0,norm,1.757,1.975,-1.335,-1.759,-4.892,-4.776,-1.281,-1.342,-2.058,-1.568,1.567,-1.847,373.7,382.5,-4.742,-7.575,1.323,-1.222,8.133,5.296,-4.888,-7.731,11,4.464,4.683,4.952,4.454,1.775,2.065,1.769,1.479,11,5.192,4.656,60,242.385391319,norm,0,41,41,41,3228.155,3228.17,3228.18788359,3228.188,3228.191,3228.196,down,1,2.20991092776,7.79008907224,001,024,1920_1200,Intel(R) Core(TM) i5-3570 CPU @ 3.40GHz,orientation_search,LEPPC096,Intel(R) HD Graphics 2500,2019_Jan_03_1518,testMonitor,
301.6,295.7,296.5,284.1,36,-80,274.2,314.2,293.3,,7.81,8.027,8.05,7.831,7.653,7.992,7.721,4.907,-4.679,-8.456,1.384,-1.73,7.681,4.743,-4.952,-7.89,286.2,301.2,-7.611,293.3,276.2,300.6,281.8,301.5,36,279.2,4,5,prime,10,0,65,norm,36,-4.796,up,norm,294.233203239,298.5,296.2,275.1,285.0,5,293.5,290.0,292.4,10,5,7.528,4.767,1.792,-1.864,-5.156,-8.281,303.7,5,359.2,-7.551,-7.864,-80,-7.754,-7.811,-4.446,-4.54,-5.05,-5.15,4.928,8.38,29,-1.724,1.796,5.039,8.11,-8.128,-8.001,-2.011,1.118,308.5,289.5,300.6,297.6,300.3,300.1,285.4,296.4,295.7,282.6,0,norm,1.615,1.145,-1.755,-1.631,-4.333,-4.857,-1.557,-1.988,-1.304,-1.352,1.988,-1.519,282.7,301.1,-4.322,-8.186,1.215,-1.215,7.777,5.196,-5.217,-8.459,12,4.724,4.65,5.081,4.409,1.284,1.41,1.248,1.558,12,4.889,5.13,-30,242.385391319,norm,0,42,42,42,3230.449,3230.465,3230.48083524,3230.481,3230.483,3230.486,down,0,2.3992777992,-10,001,024,1920_1200,Intel(R) Core(TM) i5-3570 CPU @ 3.40GHz,orientation_search,LEPPC096,Intel(R) HD Graphics 2500,2019_Jan_03_1518,testMonitor,
292.6,281.3,286.0,307.8,36,-80,312.6,303.7,293.9,306.8,7.554,7.926,8.3,8.047,8.388,7.936,7.862,4.471,-4.496,-8.258,1.219,-1.949,8.191,5.162,-4.845,-8.093,314.2,282.3,-8.346,288.0,295.6,291.0,294.2,293.3,36,283.6,1,5,prime,10,0,73,norm,36,-4.347,up,norm,294.233203239,278.3,300.4,285.6,287.0,4,295.4,292.0,296.1,10,5,7.943,4.351,1.522,-1.939,-4.437,-8.271,,5,367.2,-7.811,-7.65,-80,-7.609,-8.203,-4.721,-5.238,-4.98,-4.946,4.346,7.963,10,-1.403,1.804,5.29,8.249,-7.787,-8.129,-1.232,1.525,295.2,296.0,312.5,291.3,290.6,299.3,298.4,281.0,293.4,296.5,1,norm,1.635,1.481,-1.507,-2.014,-5.169,-5.058,-1.489,-1.407,-1.566,-1.239,1.568,-1.751,298.5,274.2,-5.119,-8.176,1.315,-1.92,8.103,4.853,-4.903,-7.543,12,4.89,4.616,4.634,5.162,1.633,1.943,1.702,1.435,12,5.107,4.385,-30,242.385391319,norm,0,43,43,43,3233.95,3233.959,3233.97317329,3233.973,3233.975,3233.978,up,1,0.974684938919,9.02531506108,001,024,1920_1200,Intel(R) Core(TM) i5-3570 CPU @ 3.40GHz,orientation_search,LEPPC096,Intel(R) HD Graphics 2500,2019_Jan_03_1518,testMonitor,
298.5,286.3,305.3,274.2,36,-80,314.2,296.4,304.4,302.5,7.601,7.809,8.227,7.6,8.313,7.649,7.75,5.088,-4.952,-8.363,1.225,-1.308,7.844,4.982,-4.364,-7.557,292.2,292.5,-7.739,296.8,281.8,300.1,279.2,306.9,36,300.9,1,5,prime,10,0,104,norm,36,-4.358,down,norm,294.233203239,295.6,298.2,303.8,287.9,1,285.9,289.0,285.7,10,5,8.036,5.16,1.338,-1.735,-5.071,-7.847,289.2,5,398.2,-8.078,-7.891,-80,-8.041,-8.085,-4.732,-4.607,-4.511,-5.214,5.253,8.277,7,-1.569,2.052,4.807,8.387,-8.36,-8.381,-1.592,1.845,299.9,301.0,303.0,298.6,276.4,274.8,,283.6,279.5,286.6,2,norm,1.422,1.249,-2.02,-1.588,-4.836,-4.676,-1.58,-1.468,-1.206,-1.515,1.467,-1.235,306.0,308.9,-5.058,-8.381,1.396,-1.302,7.848,4.701,-4.936,-7.569,12,4.5,5.163,4.962,4.867,1.491,1.917,1.178,1.398,12,5.067,4.707,-30,242.385391319,norm,0,44,44,44,3234.985,3234.994,3235.00248964,3235.003,3235.004,3235.007,down,1,1.6380788722,8.3619211278,001,024,1920_1200,Intel(R) Core(TM) i5-3570 CPU @ 3.40GHz,orientation_search,LEPPC096,Intel(R) HD Graphics 2500,2019_Jan_03_1518,testMonitor,
281.3,302.9,289.8,295.8,36,-80,295.3,313.2,290.3,285.1,7.777,8.292,7.701,7.889,7.759,8.043,7.711,4.79,-4.864,-8.458,1.394,-1.201,8.253,4.588,-4.434,-8.216,290.1,294.5,-8.308,295.5,278.3,289.6,301.7,295.0,36,288.0,0,5,prime,10,0,109,norm,36,-4.396,up,norm,294.233203239,298.5,303.4,294.9,287.1,5,278.0,285.4,303.0,10,5,7.726,4.632,2.084,-1.542,-4.824,-8.423,299.8,5,403.2,-8.148,-8.087,-80,-8.173,-8.105,-4.763,-4.439,-4.927,-5.169,4.658,8.089,5,-1.646,1.711,5.164,8.054,-7.76,-7.898,-1.914,1.386,309.6,298.4,299.7,292.2,280.8,289.2,305.6,314.2,,292.1,3,norm,1.369,1.395,-1.922,-1.458,-4.787,-4.694,-1.967,-1.288,-1.201,-1.94,1.457,-1.563,309.2,282.4,-4.996,-8.351,1.303,-1.243,8.476,5.042,-4.63,-7.614,12,4.356,5.112,4.782,5.021,1.448,1.765,1.604,2.04,12,4.79,4.613,-30,242.385391319,norm,0,45,45,45,3236.689,3236.705,3236.72071542,3236.721,3236.723,3236.726,up,1,1.71990767083,8.28009232917,001,024,1920_1200,Intel(R) Core(TM) i5-3570 CPU @ 3.40GHz,orientation_search,LEPPC096,Intel(R) HD Graphics 2500,2019_Jan_03_1518,testMonitor,
293.4,274.9,302.6,297.8,36,-80,310.5,289.3,285.4,297.1,8.497,8.033,8.278,7.945,8.392,7.917,8.319,5.097,-5.074,-8.327,1.586,-1.762,8.437,5.282,-5.144,-7.519,310.0,286.4,-7.942,308.4,294.1,308.8,294.1,286.6,36,302.3,0,5,prime,10,0,60,norm,36,-4.894,up,norm,294.233203239,284.3,278.0,300.5,295.1,3,291.7,314.2,282.0,10,5,7.708,4.722,1.837,-1.672,-4.967,-7.636,289.0,5,354.2,-7.843,-8.289,-80,-8.18,-7.854,-4.988,-5.102,-4.617,-4.983,4.74,7.754,3,-1.617,1.244,5.143,8.346,-8.343,-8.211,-1.988,1.202,309.6,299.5,,274.2,301.4,286.2,296.1,279.6,285.0,292.2,4,norm,1.686,1.864,-1.938,-1.598,-4.69,-4.696,-1.637,-1.216,-1.136,-2.074,1.126,-1.104,302.7,304.5,-4.829,-8.185,1.32,-1.856,8.071,4.898,-4.889,-8.094,12,4.705,5.062,4.335,5.063,1.356,1.757,1.646,1.302,12,4.736,4.357,-30,242.385391319,norm,0,46,46,46,3238.466,3238.476,3238.48481993,3238.485,3238.487,3238.489,down,0,1.36524296174,-10,001,024,1920_1200,Intel(R) Core(TM) i5-3570 CPU @ 3.40GHz,orientation_search,LEPPC096,Intel(R) HD Graphics 2500,2019_Jan_03_1518,testMonitor,
313.9,305.5,310.2,313.7,36,80,312.8,296.1,304.7,312.5,8.22,8.467,7.675,8.074,8.448,7.745,7.52,4.691,-5.137,-8.221,1.631,-1.902,8.423,5.241,-4.809,-8.43,311.0,307.4,-8.37,307.8,304.7,308.5,304.4,304.9,36,308.3,0,5,probe,5,0,85,norm,36,-4.668,up,norm,306.149222721,316.1,309.6,298.9,301.8,3,307.4,308.8,300.4,10,5,7.96,5.201,1.526,-1.905,-4.399,-8.309,306.4,1,221.1,-7.774,-8.425,-80,-8.006,-8.07,-4.638,-4.488,-4.9,-4.535,4.484,8.151,3,-2.014,1.991,4.482,7.586,-8.421,-8.367,-1.616,1.876,312.2,309.0,,303.4,310.1,309.8,305.5,309.5,301.7,302.2,0,norm,1.629,1.815,-1.515,-1.892,-4.937,-5.281,-1.833,-1.51,-1.827,-1.291,1.493,-1.574,303.1,305.3,-5.174,-8.239,2.009,-1.247,7.773,5.141,-4.731,-8.499,13,4.932,5.249,4.894,4.996,1.544,1.508,1.198,1.423,13,5.202,4.944,-80,294.233203239,norm,0,47,47,47,3240.905,3240.914,3240.93047904,3240.931,3240.932,3240.935,down,0,1.11164320153,-10,001,024,1920_1200,Intel(R) Core(TM) i5-3570 CPU @ 3.40GHz,orientation_search,LEPPC096,Intel(R) HD Graphics 2500,2019_Jan_03_1518,testMonitor,
241.1,248.7,235.8,243.7,36,-40,246.3,256.7,237.0,250.6,7.66,7.756,7.748,8.075,8.471,8.402,8.411,4.488,-4.809,-7.794,1.899,-1.571,8.139,5.276,-4.893,-7.815,244.8,260.9,-8.274,250.4,230.8,250.3,242.7,250.0,36,250.3,0,5,prime,10,0,94,norm,36,-4.601,down,norm,243.901876236,254.1,247.4,249.6,223.9,0,242.3,240.6,244.4,10,5,8.109,4.518,1.9,-1.141,-4.708,-7.801,241.3,5,337.9,-7.52,-8.375,-40,-8.312,-7.585,-5.102,-4.86,-4.382,-4.714,4.838,8.251,0,-1.868,1.393,5.063,7.565,-7.595,-8.286,-1.524,1.107,236.5,231.3,249.5,263.9,262.0,,245.4,242.0,241.1,250.5,0,norm,1.84,1.405,-1.529,-1.939,-4.807,-4.376,-2.092,-1.613,-1.859,-1.292,1.494,-1.703,262.5,237.1,-4.938,-7.551,1.287,-1.464,7.682,4.4,-4.403,-8.156,14,4.965,5.008,4.62,4.772,1.769,1.899,1.782,1.202,14,4.667,4.463,80,294.233203239,norm,0,48,48,48,3243.119,3243.128,3243.14556817,3243.146,3243.148,3243.15,down,1,1.36458221713,8.63541778287,001,024,1920_1200,Intel(R) Core(TM) i5-3570 CPU @ 3.40GHz,orientation_search,LEPPC096,Intel(R) HD Graphics 2500,2019_Jan_03_1518,testMonitor,
237.8,249.2,,247.9,36,-40,259.9,223.9,249.6,245.7,7.612,7.826,8.28,8.186,7.677,7.992,7.578,4.719,-4.778,-8.2,1.176,-1.466,8.092,4.428,-4.43,-7.918,236.0,255.3,-8.209,247.2,240.3,234.1,239.0,242.8,36,258.6,3,5,prime,10,0,103,norm,36,-4.437,down,norm,243.901876236,252.4,236.4,242.7,229.4,2,246.6,248.6,234.1,10,5,8.029,5.014,1.607,-1.123,-4.882,-8.367,226.2,5,346.9,-7.89,-7.99,-40,-7.893,-8.176,-4.826,-4.54,-5.265,-5.042,4.844,8.29,20,-1.881,1.503,4.801,7.68,-7.791,-7.578,-1.949,1.421,248.7,237.7,233.2,263.9,251.1,241.9,246.0,251.4,236.3,257.4,1,norm,1.758,1.639,-1.169,-1.54,-4.652,-4.394,-1.57,-1.954,-1.457,-1.399,1.927,-2.057,230.6,224.7,-5.123,-8.171,2.024,-1.173,8.172,4.55,-4.903,-8.408,14,4.661,4.447,4.346,5.244,1.781,1.34,1.506,2.02,14,5.171,4.439,80,294.233203239,norm,0,49,49,49,3244.535,3244.545,3244.55115971,3244.551,3244.553,3244.556,down,1,1.24692168169,8.75307831831,001,024,1920_1200,Intel(R) Core(TM) i5-3570 CPU @ 3.40GHz,orientation_search,LEPPC096,Intel(R) HD Graphics 2500,2019_Jan_03_1518,testMonitor,
244.2,238.1,244.2,231.1,36,-40,250.3,246.0,253.6,236.2,7.91,7.944,7.651,8.448,7.525,8.261,7.604,4.869,-4.938,-8.5,1.243,-1.879,8.445,5.128,-4.946,-7.596,235.9,245.1,-7.573,255.1,246.3,260.3,232.3,251.5,36,240.8,0,5,prime,10,0,81,norm,36,-5.176,up,norm,243.901876236,250.7,248.3,223.9,238.6,5,235.4,249.0,255.3,10,5,8.179,5.25,1.562,-1.126,-4.885,-7.733,242.8,5,324.9,-7.989,-8.251,-40,-8.018,-8.368,-4.55,-5.194,-4.948,-5.285,5.248,7.95,5,-1.34,1.805,5.143,7.501,-8.228,-7.644,-1.77,1.966,251.0,251.7,248.3,238.4,247.1,249.4,246.2,236.5,,228.6,2,norm,1.8,2.032,-1.525,-1.272,-5.284,-4.351,-1.516,-1.923,-1.855,-1.434,2.047,-1.551,263.9,251.3,-4.907,-8.282,1.638,-2.031,7.53,4.784,-5.224,-8.314,14,4.442,5.258,4.827,4.911,1.628,1.269,1.298,2.089,14,4.878,5.259,80,294.233203239,norm,0,50,50,50,3245.845,3245.855,3245.86074196,3245.861,3245.863,3245.865,up,1,0.809133851042,9.19086614896,001,024,1920_1200,Intel(R) Core(TM) i5-3570 CPU @ 3.40GHz,orientation_search,LEPPC096,Intel(R) HD Graphics 2500,2019_Jan_03_1518,testMonitor,
262.1,243.9,246.0,246.4,36,-40,243.9,,241.8,249.9,8.277,7.667,8.371,7.561,8.261,8.149,8.021,5.258,-5.108,-7.971,1.738,-1.601,8.316,4.499,-5.176,-7.852,251.7,251.0,-8.041,251.9,233.1,251.6,250.8,242.1,36,251.0,4,5,prime,10,0,63,norm,36,-4.932,down,norm,243.901876236,223.9,225.3,243.5,247.3,1,244.7,237.4,226.2,10,5,7.648,4.712,1.567,-1.315,-4.766,-7.818,237.3,5,306.9,-7.66,-7.799,-40,-7.503,-8.14,-5.123,-4.912,-4.919,-4.756,4.835,7.983,25,-1.83,1.376,5.033,7.689,-8.325,-7.855,-1.57,2.025,245.6,250.1,240.5,237.8,256.1,227.1,263.9,241.9,254.8,243.3,3,norm,1.907,1.59,-1.319,-1.585,-4.465,-4.618,-1.843,-1.456,-1.837,-1.364,1.818,-1.979,243.5,236.7,-4.591,-7.71,1.896,-1.3,7.613,5.082,-5.002,-7.519,14,4.543,4.539,4.822,5.057,1.846,1.756,1.761,1.161,14,4.425,4.574,80,294.233203239,norm,0,51,51,51,3246.707,3246.717,3246.73339966,3246.734,3246.735,3246.738,down,1,0.842386902947,9.15761309705,001,024,1920_1200,Intel(R) Core(TM) i5-3570 CPU @ 3.40GHz,orientation_search,LEPPC096,Intel(R) HD Graphics 2500,2019_Jan_03_1518,testMonitor,
233.2,250.2,238.3,251.2,36,-40,238.6,229.6,223.9,237.3,8.134,7.838,8.145,8.198,7.68,7.951,8.251,5.054,-5.094,-7.568,2.097,-1.945,7.974,4.713,-4.857,-7.567,251.4,243.5,-7.562,,231.3,251.9,234.5,243.1,36,234.7,5,5,prime,10,0,68,norm,36,-4.947,down,norm,243.901876236,244.8,250.8,249.6,244.5,1,245.1,244.1,242.6,10,5,7.895,4.416,1.557,-1.953,-4.354,-8.461,233.2,5,311.9,-8.198,-7.71,-40,-8.341,-8.195,-4.961,-5.212,-5.217,-5.254,4.4,8.375,31,-1.865,1.34,4.611,8.42,-7.726,-8.317,-2.039,1.828,254.9,233.2,251.2,263.9,248.7,245.5,242.2,237.4,247.9,234.2,4,norm,1.985,1.49,-1.614,-1.216,-5.004,-4.554,-1.592,-1.874,-1.268,-1.93,1.411,-1.585,227.3,245.1,-4.683,-8.057,1.103,-1.133,8.498,5.086,-5.127,-8.483,14,4.606,4.416,5.267,4.811,2.053,2.073,2.071,1.484,14,4.878,4.865,80,294.233203239,norm,0,52,52,52,3247.624,3247.647,3247.65588276,3247.656,3247.658,3247.66,down,1,1.29683974513,8.70316025487,001,024,1920_1200,Intel(R) Core(TM) i5-3570 CPU @ 3.40GHz,orientation_search,LEPPC096,Intel(R) HD Graphics 2500,2019_Jan_03_1518,testMonitor,
303.8,294.4,303.7,305.4,36,-10,302.2,298.1,296.1,310.9,8.035,7.945,8.118,8.26,7.7,8.024,8.266,4.539,-4.666,-8.317,2.065,-1.986,8.217,4.872,-4.863,-8.152,307.1,303.8,-7.702,,306.5,300.1,297.3,305.4,36,300.2,5,5,probe,5,0,106,norm,36,-4.724,down,norm,301.356329682,297.4,298.5,304.8,295.3,1,299.6,296.8,302.1,10,5,7.903,4.492,1.948,-1.985,-4.419,-8.185,298.0,2,195.4,-7.725,-7.514,-40,-8.392,-7.505,-5.168,-4.706,-4.952,-5.194,4.531,8.314,31,-1.148,1.645,4.941,8.369,-8.015,-7.782,-1.757,1.245,311.4,303.2,299.5,296.6,297.2,300.9,306.4,293.2,301.8,310.8,0,norm,1.208,2.007,-1.167,-1.533,-5.233,-4.791,-1.122,-1.85,-1.527,-1.769,2.098,-1.636,295.3,291.4,-5.131,-8.063,1.916,-1.964,8.034,5.215,-4.921,-8.214,15,4.706,4.61,4.943,4.702,1.49,1.226,2.084,1.602,15,4.403,5.177,-40,243.901876236,norm,0,53,53,53,3248.996,3249.006,3249.011827,3249.012,3249.014,3249.017,down,1,1.26239711144,8.73760288856,001,024,1920_1200,Intel(R) Core(TM) i5-3570 CPU @ 3.40GHz,orientation_search,LEPPC096,Intel(R) HD Graphics 2500,2019_Jan_03_1518,testMonitor,
287.2,288.0,279.1,286.6,36,-10,290.2,293.4,284.9,295.2,8.359,7.842,8.118,7.991,7.891,7.827,8.211,5.038,-4.605,-7.815,1.308,-1.131,7.864,5.233,-4.911,-7.574,290.2,286.0,-7.865,,276.4,289.1,276.4,287.6,36,289.6,5,5,probe,5,0,91,norm,36,-4.508,down,norm,286.356329682,278.2,288.3,288.3,287.3,1,289.4,283.3,283.6,10,5,7.918,4.962,1.841,-1.228,-4.616,-8.213,287.3,2,195.4,-7.747,-7.913,-40,-7.731,-7.94,-5.208,-4.815,-5.118,-4.482,5.087,8.097,31,-1.397,1.401,4.839,7.815,-7.961,-8.27,-1.294,1.345,290.5,281.6,296.4,292.0,284.9,277.0,280.2,285.4,286.6,278.1,1,norm,1.825,1.897,-1.693,-1.917,-5.187,-5.096,-1.199,-1.971,-1.335,-1.234,2.023,-1.985,283.2,288.4,-4.47,-8.031,1.335,-1.202,7.572,4.914,-5.03,-8.185,15,5.008,5.109,5.09,4.697,1.122,1.722,1.611,1.818,15,5.267,5.019,-40,243.901876236,norm,0,54,54,54,3250.322,3250.332,3250.33788832,3250.338,3250.34,3250.342,down,1,1.72130432013,8.27869567987,001,024,1920_1200,Intel(R) Core(TM) i5-3570 CPU @ 3.40GHz,orientation_search,LEPPC096,Intel(R) HD Graphics 2500,2019_Jan_03_1518,testMonitor,
43.3,50.2,65.5,38.7,36,-80,40.1,31.6,49.8,,7.675,7.544,8.433,7.505,8.166,8.067,7.628,4.747,-4.583,-7.822,2.004,-2.049,7.973,4.841,-4.526,-7.664,52.3,60.8,-7.543,44.8,37.5,44.4,71.6,53.3,36,33.8,4,5,prime,10,0,85,norm,36,-4.862,up,norm,51.6086424105,66.8,43.8,57.5,51.6,5,51.6,48.4,44.8,10,6,8.223,5.2,1.851,-1.832,-4.707,-8.19,61.4,6,136.6,-8.374,-7.959,-80,-8.062,-8.053,-5.12,-4.347,-4.567,-4.84,4.683,7.528,29,-1.928,1.656,4.817,8.139,-8.344,-8.091,-1.755,2.01,55.9,56.0,42.5,44.2,43.0,49.7,59.6,45.2,38.1,58.2,0,norm,2.078,1.745,-1.793,-1.803,-4.552,-4.904,-1.867,-2.098,-1.473,-2.075,1.132,-1.556,48.8,47.9,-4.569,-7.766,1.499,-1.722,7.833,4.448,-4.609,-8.495,16,4.833,5.21,4.797,5.284,1.12,1.128,1.845,1.826,16,4.865,4.839,-10,243.901876236,norm,0,55,55,55,3252.096,3252.106,3252.11508457,3252.115,3252.117,3252.12,up,1,1.31580513799,8.68419486201,001,024,1920_1200,Intel(R) Core(TM) i5-3570 CPU @ 3.40GHz,orientation_search,LEPPC096,Intel(R) HD Graphics 2500,2019_Jan_03_1518,testMonitor,
42.5,54.9,49.8,47.7,36,-80,48.1,47.3,57.1,53.3,7.723,8.07,8.362,7.665,8.333,8.041,7.636,4.97,-4.78,-7.707,1.795,-1.275,8.176,5.034,-4.956,-8.48,49.1,61.3,-7.956,49.5,71.6,57.0,47.3,49.6,36,60.9,2,5,prime,10,0,62,norm,36,-4.597,up,norm,51.6086424105,,40.7,50.0,61.5,5,35.2,33.5,36.0,10,6,7.599,4.565,1.349,-1.692,-4.486,-8.094,31.6,6,113.6,-7.683,-8.499,-80,-8.35,-7.817,-4.639,-5.277,-5.153,-4.819,4.412,8.048,17,-1.348,1.711,4.859,7.929,-7.954,-7.604,-1.209,1.261,59.1,35.1,51.7,42.3,45.3,32.7,65.0,49.4,47.7,61.4,1,norm,1.559,2.014,-1.984,-1.52,-4.53,-5.22,-1.519,-1.947,-1.775,-1.191,1.873,-1.482,47.2,57.6,-5.136,-7.875,1.508,-1.452,7.946,4.563,-4.999,-8.243,16,5.178,4.834,4.873,4.972,1.754,1.88,1.308,1.926,16,5.236,5.024,-10,243.901876236,norm,0,56,56,56,3253.474,3253.496,3253.50558826,3253.506,3253.508,3253.51,up,1,1.21464239047,8.78535760953,001,024,1920_1200,Intel(R) Core(TM) i5-3570 CPU @ 3.40GHz,orientation_search,LEPPC096,Intel(R) HD Graphics 2500,2019_Jan_03_1518,testMonitor,
55.4,45.7,58.2,55.1,36,-80,54.4,67.7,49.5,57.3,8.051,7.819,7.607,7.624,8.016,7.505,7.866,4.811,-5.008,-8.445,1.495,-1.77,8.018,4.602,-4.42,-8.435,51.2,42.9,-8.011,48.4,41.1,48.7,46.1,55.0,36,65.1,0,5,prime,10,0,73,norm,36,-4.365,up,norm,51.6086424105,44.4,54.9,54.7,41.8,5,55.4,41.8,55.8,10,6,8.346,4.901,1.483,-1.773,-4.609,-8.207,56.0,6,124.6,-8.431,-7.886,-80,-8.111,-7.968,-4.665,-4.706,-5.218,-4.801,4.812,8.133,5,-1.613,2.028,4.777,8.22,-8.367,-8.289,-1.154,1.207,45.1,71.6,54.4,62.9,42.3,43.8,58.5,45.2,,69.3,2,norm,1.204,1.37,-1.404,-1.831,-5.161,-4.469,-1.325,-1.305,-2.025,-2.054,1.516,-2.046,31.6,50.3,-5.263,-8.124,1.16,-1.337,7.771,4.838,-4.534,-7.641,16,4.735,5.169,4.703,4.316,1.867,1.461,1.237,1.722,16,4.336,4.463,-10,243.901876236,norm,0,57,57,57,3254.758,3254.771,3254.79010447,3254.79,3254.792,3254.795,up,1,1.42709547956,8.57290452044,001,024,1920_1200,Intel(R) Core(TM) i5-3570 CPU @ 3.40GHz,orientation_search,LEPPC096,Intel(R) HD Graphics 2500,2019_Jan_03_1518,testMonitor,
54.1,41.5,39.7,55.2,36,-80,53.1,50.9,49.4,54.5,8.056,8.159,7.613,7.773,8.366,7.554,7.797,5.227,-4.437,-8.383,1.364,-2.028,8.171,4.618,-4.82,-7.6,58.6,42.9,-7.505,57.0,,52.2,46.5,71.6,36,58.5,5,5,prime,10,0,71,norm,36,-4.767,down,norm,51.6086424105,57.0,65.6,40.3,56.7,0,60.0,58.5,58.8,10,6,7.639,5.264,1.691,-1.742,-4.973,-8.079,36.6,6,122.6,-7.638,-8.238,-80,-8.499,-7.932,-4.623,-4.779,-5.269,-5.227,4.809,7.773,30,-1.332,1.288,4.89,7.91,-8.346,-8.353,-1.798,1.638,41.5,59.6,58.1,52.3,37.6,52.6,37.5,31.6,51.9,53.2,3,norm,1.623,1.653,-1.741,-2.061,-4.49,-4.943,-1.125,-1.913,-1.87,-1.767,2.01,-1.707,48.9,47.3,-4.335,-7.833,1.332,-1.817,8.424,5.113,-5.085,-8.349,16,4.629,4.445,4.922,4.994,1.962,1.382,1.547,1.451,16,4.96,4.381,-10,243.901876236,norm,0,58,58,58,3256.266,3256.289,3256.29791674,3256.298,3256.3,3256.302,down,1,1.11179563462,8.88820436538,001,024,1920_1200,Intel(R) Core(TM) i5-3570 CPU @ 3.40GHz,orientation_search,LEPPC096,Intel(R) HD Graphics 2500,2019_Jan_03_1518,testMonitor,
44.0,49.6,55.8,55.7,36,-80,57.1,53.6,58.5,44.1,8.106,8.495,8.186,7.596,7.845,7.839,8.366,4.316,-5.1,-7.594,1.275,-1.705,8.385,4.863,-4.644,-7.532,51.8,59.9,-7.904,67.5,69.2,56.1,54.6,60.5,36,54.4,2,5,prime,10,0,107,norm,36,-4.776,up,norm,51.6086424105,60.8,31.7,,33.9,3,31.6,55.7,71.6,10,6,7.577,4.398,1.171,-1.921,-5.027,-8.276,46.6,6,158.6,-7.672,-7.935,-80,-7.673,-7.743,-5.125,-4.634,-5.275,-4.762,5.254,7.902,15,-1.654,1.797,4.383,8.125,-7.664,-8.134,-2.085,1.581,66.0,38.8,58.1,53.2,68.0,45.2,46.5,65.2,61.2,44.9,4,norm,1.745,1.421,-1.615,-1.407,-4.547,-4.455,-1.172,-1.688,-1.944,-1.636,1.182,-1.755,65.1,45.7,-4.914,-8.454,1.143,-1.584,7.911,5.296,-4.593,-7.692,16,5.009,5.171,5.288,5.216,1.623,2.053,1.582,1.86,16,4.835,4.689,-10,243.901876236,norm,0,59,59,59,3257.451,3257.47,3257.48347218,3257.484,3257.487,3257.493,up,1,0.884464774223,9.11553522578,001,024,1920_1200,Intel(R) Core(TM) i5-3570 CPU @ 3.40GHz,orientation_search,LEPPC096,Intel(R) HD Graphics 2500,2019_Jan_03_1518,testMonitor,
37.5,57.0,35.5,51.6,36,-80,60.1,50.7,66.7,60.7,8.279,7.505,7.946,8.268,7.97,8.221,8.491,4.901,-5.106,-8.359,1.87,-1.534,7.518,5.292,-4.593,-8.158,55.0,35.3,-7.796,38.1,40.5,,62.5,58.0,36,65.0,5,5,prime,10,0,112,norm,36,-4.772,up,norm,51.6086424105,55.0,49.8,57.9,52.9,3,56.0,48.9,62.7,10,6,7.646,5.024,1.361,-1.833,-4.396,-7.536,53.1,6,163.6,-8.176,-8.454,-80,-7.801,-8.354,-4.357,-5.063,-4.682,-4.657,4.714,7.824,33,-1.254,1.305,4.683,7.817,-8.279,-8.054,-1.412,1.888,50.2,40.3,59.5,50.6,35.0,36.2,31.6,54.4,71.6,47.4,5,norm,1.101,1.781,-1.448,-1.526,-5.203,-4.347,-1.909,-1.195,-1.666,-1.956,1.906,-1.273,50.9,63.1,-4.482,-8.203,1.769,-1.14,8.343,4.715,-4.967,-8.179,16,4.565,5.057,5.121,5.031,2.077,1.111,1.879,1.351,16,4.638,4.834,-10,243.901876236,norm,0,60,60,60,3258.418,3258.427,3258.43406062,3258.434,3258.436,3258.439,up,1,1.046739909,8.953260091,001,024,1920_1200,Intel(R) Core(TM) i5-3570 CPU @ 3.40GHz,orientation_search,LEPPC096,Intel(R) HD Graphics 2500,2019_Jan_03_1518,testMonitor,
93.8,95.7,89.5,103.3,36,20,100.4,98.3,91.1,95.6,8.102,7.531,7.964,8.15,8.227,7.73,7.784,5.148,-5.078,-7.603,2.023,-1.273,7.919,4.451,-4.746,-7.523,98.2,97.1,-7.657,83.9,92.7,98.3,91.4,93.3,36,91.7,1,5,probe,5,0,114,norm,36,-4.572,down,norm,93.8444061334,87.3,99.1,103.8,95.6,0,85.8,86.4,95.5,10,6,7.515,4.841,1.778,-1.245,-4.922,-8.099,94.4,2,-20.2,-7.928,-7.518,-80,-8.445,-7.858,-4.671,-4.985,-4.558,-5.298,4.632,7.751,6,-1.745,1.976,5.243,7.944,-7.922,-7.597,-1.945,1.973,90.6,93.7,88.7,89.5,84.8,85.9,101.2,,88.5,91.0,0,norm,1.649,1.2,-1.883,-1.125,-4.791,-4.751,-2.028,-1.909,-2.046,-1.41,2.048,-1.675,83.8,84.8,-4.646,-7.502,1.486,-1.257,8.068,4.928,-4.76,-8.388,17,4.705,4.321,5.16,4.905,1.546,1.181,2.011,1.714,17,4.631,4.872,-80,51.6086424105,norm,0,61,61,61,3259.525,3259.535,3259.54136506,3259.542,3259.543,3259.546,down,1,1.05968223285,8.94031776715,001,024,1920_1200,Intel(R) Core(TM) i5-3570 CPU @ 3.40GHz,orientation_search,LEPPC096,Intel(R) HD Graphics 2500,2019_Jan_03_1518,testMonitor,
53.2,54.0,42.8,52.3,36,20,49.9,52.2,52.5,55.0,8.154,8.102,7.869,8.352,8.264,7.507,8.449,4.351,-4.638,-8.005,1.432,-1.906,7.773,4.728,-5.135,-8.26,49.3,58.1,-8.24,61.4,53.2,48.1,47.1,61.1,36,49.9,1,5,probe,5,0,73,norm,36,-4.795,down,norm,52.8444061334,50.8,52.6,50.8,49.3,2,55.7,52.7,49.9,10,6,8.235,4.396,1.965,-1.551,-5.265,-8.037,56.6,2,-20.2,-7.813,-8.363,-80,-7.566,-7.716,-4.943,-4.55,-5.153,-5.129,5.237,7.592,8,-1.654,1.391,4.824,8.296,-7.667,-8.154,-1.998,1.312,48.1,,61.2,54.1,48.4,49.9,54.9,57.8,48.2,46.2,1,norm,1.28,1.733,-1.885,-1.456,-4.711,-4.919,-1.53,-1.861,-2.068,-1.263,1.865,-1.835,54.9,58.3,-4.486,-8.297,1.545,-1.674,8.283,4.315,-4.751,-8.06,17,4.868,5.112,4.827,5.017,1.157,1.739,1.514,1.3,17,5.148,5.209,-80,51.6086424105,norm,0,62,62,62,3260.639,3260.652,3260.67096246,3260.671,3260.673,3260.676,down,1,1.49201959957,8.50798040043,001,024,1920_1200,Intel(R) Core(TM) i5-3570 CPU @ 3.40GHz,orientation_search,LEPPC096,Intel(R) HD Graphics 2500,2019_Jan_03_1518,testMonitor,
159.3,148.7,170.7,154.7,36,10,162.3,176.9,177.3,169.9,8.064,8.295,8.071,8.327,7.884,7.528,7.532,5.072,-4.891,-8.134,1.487,-1.527,7.967,4.775,-5.236,-8.321,170.4,188.7,-7.797,181.3,178.0,183.7,175.7,165.0,36,156.4,1,5,prime,10,0,90,norm,36,-4.312,up,norm,168.676465761,179.0,150.3,165.7,184.7,5,,167.2,158.9,10,6,7.598,4.481,1.341,-1.76,-4.888,-7.687,158.1,6,258.7,-7.892,-7.653,10,-7.726,-7.857,-4.643,-4.588,-4.569,-4.592,4.432,8.241,11,-1.367,2.083,5.231,8.008,-7.778,-7.761,-1.958,1.694,174.2,158.9,162.1,163.5,168.7,183.9,171.5,173.6,183.4,164.2,0,norm,1.578,2.065,-1.499,-1.199,-4.943,-4.731,-1.491,-1.436,-1.518,-1.597,1.804,-1.148,165.3,166.9,-5.106,-8.218,1.923,-2.005,8.216,5.062,-4.793,-7.77,18,4.461,4.499,4.858,5.059,1.241,1.989,1.432,1.413,18,4.595,5.177,20,51.6086424105,norm,0,63,63,63,3262.199,3276.912,3276.91920926,3276.919,3276.921,3276.924,up,1,1.62005916819,8.37994083181,001,024,1920_1200,Intel(R) Core(TM) i5-3570 CPU @ 3.40GHz,orientation_search,LEPPC096,Intel(R) HD Graphics 2500,2019_Jan_03_1518,testMonitor,
169.7,171.2,,171.3,36,10,182.7,188.7,174.5,175.6,8.336,8.042,7.771,7.767,7.812,7.822,8.301,4.748,-4.846,-7.874,1.788,-2.001,7.745,4.892,-5.257,-7.546,164.6,161.6,-8.016,180.9,173.7,148.7,170.4,167.5,36,169.2,3,5,prime,10,0,108,norm,36,-4.376,down,norm,168.676465761,184.4,172.8,164.2,159.4,2,173.9,161.6,151.0,10,6,7.679,5.299,1.321,-1.328,-5.13,-8.16,186.9,6,276.7,-7.914,-7.782,10,-7.938,-7.781,-5.159,-4.987,-4.769,-5.108,4.521,7.988,20,-1.19,1.726,4.984,7.685,-7.959,-7.983,-1.627,1.525,176.6,166.8,158.5,161.7,151.1,172.7,159.4,168.4,171.6,178.8,1,norm,1.815,1.773,-1.987,-1.172,-5.279,-5.222,-2.009,-1.868,-1.938,-1.619,1.74,-1.195,175.5,165.4,-4.516,-7.936,1.81,-1.42,7.561,4.913,-4.393,-8.327,18,4.64,4.722,5.14,4.93,1.205,1.545,1.201,1.159,18,5.188,4.306,20,51.6086424105,norm,0,64,64,64,3278.577,3278.59,3278.60920714,3278.609,3278.611,3278.614,down,1,0.944816807121,9.05518319288,001,024,1920_1200,Intel(R) Core(TM) i5-3570 CPU @ 3.40GHz,orientation_search,LEPPC096,Intel(R) HD Graphics 2500,2019_Jan_03_1518,testMonitor,
161.5,175.0,159.2,160.4,36,10,163.8,159.4,157.0,157.5,8.364,8.088,7.568,7.945,7.997,7.848,8.19,4.408,-4.429,-7.678,1.758,-1.877,7.859,4.906,-4.948,-7.988,188.7,160.2,-8.013,177.5,161.1,154.9,181.4,162.0,36,,4,5,prime,10,0,64,norm,36,-4.551,up,norm,168.676465761,188.7,161.5,176.3,166.7,3,148.7,152.0,176.4,10,6,7.927,4.682,1.157,-1.901,-4.568,-7.527,167.6,6,232.7,-8.258,-8.194,10,-7.997,-7.854,-4.644,-4.958,-4.961,-4.684,4.379,8.009,27,-1.881,1.213,4.74,7.562,-8.424,-8.125,-1.294,1.257,171.9,171.1,163.5,169.4,165.3,165.8,172.0,173.1,163.1,153.1,2,norm,1.855,2.077,-2.084,-1.167,-4.343,-4.776,-2.086,-2.082,-1.412,-1.244,2.036,-1.763,170.1,171.5,-5.107,-8.107,1.476,-1.392,7.917,4.893,-4.571,-7.906,18,5.098,4.874,4.689,5.281,1.601,1.789,1.922,1.23,18,5.113,4.403,20,51.6086424105,norm,0,65,65,65,3279.591,3279.6,3279.61656468,3279.617,3279.618,3279.621,up,1,1.00644957981,8.99355042019,001,024,1920_1200,Intel(R) Core(TM) i5-3570 CPU @ 3.40GHz,orientation_search,LEPPC096,Intel(R) HD Graphics 2500,2019_Jan_03_1518,testMonitor,
169.1,174.8,173.5,163.3,36,10,173.8,171.6,168.7,188.7,8.165,7.862,8.121,8.178,7.888,8.125,7.661,4.767,-4.516,-8.29,1.465,-1.165,7.818,4.978,-4.799,-7.875,158.6,156.7,-8.061,165.8,164.4,153.4,148.7,,36,176.6,4,5,prime,10,0,92,norm,36,-4.924,down,norm,168.676465761,179.5,173.1,186.4,166.6,2,169.3,182.7,172.7,10,6,7.79,4.915,2.096,-1.119,-5.114,-7.548,167.2,6,260.7,-7.648,-8.078,10,-8.33,-8.433,-4.469,-4.63,-4.723,-4.416,4.347,8.349,26,-1.332,2.046,5.03,7.714,-7.646,-7.677,-1.384,1.476,172.4,171.1,187.8,182.5,166.1,148.8,168.1,178.9,172.1,170.2,3,norm,1.742,1.414,-1.471,-1.2,-5.276,-4.483,-1.223,-1.844,-1.218,-1.338,1.883,-1.994,162.4,165.2,-4.9,-8.142,1.294,-1.47,8.061,4.856,-5.031,-7.58,18,4.355,5.039,4.67,4.904,1.487,1.344,2.012,1.401,18,4.875,5.129,20,51.6086424105,norm,0,66,66,66,3280.644,3280.653,3280.66198491,3280.662,3280.664,3280.667,down,1,1.04501273646,8.95498726354,001,024,1920_1200,Intel(R) Core(TM) i5-3570 CPU @ 3.40GHz,orientation_search,LEPPC096,Intel(R) HD Graphics 2500,2019_Jan_03_1518,testMonitor,
165.7,159.8,166.4,154.5,36,10,152.8,170.3,168.4,179.3,7.803,8.082,8.436,7.936,8.137,7.762,7.579,4.601,-5.051,-7.638,1.612,-1.205,8.22,4.322,-4.64,-7.583,160.7,171.7,-8.468,164.5,165.4,148.7,166.6,161.9,36,152.3,0,5,prime,10,0,96,norm,36,-4.442,down,norm,168.676465761,176.5,171.5,172.6,173.5,0,188.7,167.5,154.2,10,6,7.844,4.777,1.784,-1.127,-4.777,-8.208,172.4,6,264.7,-8.106,-8.245,10,-7.922,-8.213,-4.769,-4.995,-4.616,-5.22,5.229,8.139,0,-1.615,1.853,4.488,8.135,-7.758,-7.847,-1.61,1.99,159.4,165.3,172.9,164.4,164.3,,178.1,168.4,184.2,169.5,4,norm,2.007,1.602,-1.313,-1.555,-5.194,-5.027,-2.057,-1.414,-1.295,-1.726,1.385,-2.088,171.0,164.5,-5.254,-7.769,2.07,-1.445,8.492,4.338,-4.408,-7.758,18,4.921,5.174,4.596,4.673,1.932,1.297,1.521,2.07,18,4.845,5.221,20,51.6086424105,norm,0,67,67,67,3281.754,3281.764,3281.77055258,3281.771,3281.772,3281.775,down,1,1.4331605054,8.5668394946,001,024,1920_1200,Intel(R) Core(TM) i5-3570 CPU @ 3.40GHz,orientation_search,LEPPC096,Intel(R) HD Graphics 2500,2019_Jan_03_1518,testMonitor,
165.3,,176.9,148.7,36,10,165.2,157.2,168.7,160.8,7.872,8.212,7.928,7.797,8.156,8.025,7.56,4.683,-4.378,-8.223,1.288,-2.02,7.691,4.472,-4.396,-7.816,166.0,176.2,-7.676,166.5,169.2,187.4,154.4,159.8,36,164.2,3,5,prime,10,0,103,norm,36,-4.797,up,norm,168.676465761,165.9,188.7,157.1,172.2,5,169.5,172.4,161.1,10,6,7.929,4.689,1.426,-1.239,-4.918,-8.473,178.6,6,271.7,-8.334,-8.009,10,-7.752,-8.056,-5.169,-4.363,-4.914,-4.842,4.463,7.795,23,-1.482,1.732,4.792,7.959,-8.413,-8.008,-1.951,2.077,157.4,153.1,169.6,162.0,162.8,164.9,168.7,164.8,172.0,156.6,5,norm,1.249,1.689,-1.297,-1.687,-4.71,-4.358,-1.503,-1.739,-1.204,-1.801,1.676,-1.631,165.2,174.4,-5.093,-7.616,1.508,-1.567,7.536,4.788,-4.471,-8.137,18,4.415,4.844,5.059,5.06,1.521,1.841,1.377,1.803,18,4.776,4.609,20,51.6086424105,norm,0,68,68,68,3283.241,3283.251,3283.26698972,3283.267,3283.269,3283.272,down,0,1.19735376158,-10,001,024,1920_1200,Intel(R) Core(TM) i5-3570 CPU @ 3.40GHz,orientation_search,LEPPC096,Intel(R) HD Graphics 2500,2019_Jan_03_1518,testMonitor,
296.6,293.8,291.8,293.7,36,-20,301.7,306.0,286.0,294.9,8.443,8.304,7.607,8.389,7.919,7.56,7.599,4.978,-4.858,-7.755,2.041,-1.189,8.406,5.103,-4.513,-7.544,296.0,299.1,-7.767,300.0,296.0,300.3,302.4,293.2,36,291.6,0,5,probe,5,0,114,norm,36,-5.297,up,norm,296.036179793,291.2,288.9,298.7,290.5,3,296.9,301.8,294.3,10,6,8.163,4.421,1.317,-1.488,-4.898,-7.526,295.7,2,182.0,-8.382,-7.865,10,-8.319,-8.393,-4.499,-5.064,-5.104,-4.324,5.188,7.517,3,-1.404,1.845,5.045,7.923,-7.795,-7.76,-1.747,1.852,295.8,301.8,,293.6,298.2,294.5,300.5,294.7,292.1,290.8,0,norm,1.719,1.259,-1.829,-1.542,-4.427,-4.33,-1.779,-1.93,-1.231,-1.681,1.826,-1.616,289.8,301.1,-4.64,-8.345,1.106,-1.298,7.864,4.984,-4.555,-8.294,19,4.717,4.579,5.168,4.925,1.684,1.94,1.58,1.948,19,5.066,5.157,10,168.676465761,norm,0,69,69,69,3285.536,3285.545,3285.56030208,3285.56,3285.562,3285.565,up,1,0.958926677871,9.04107332213,001,024,1920_1200,Intel(R) Core(TM) i5-3570 CPU @ 3.40GHz,orientation_search,LEPPC096,Intel(R) HD Graphics 2500,2019_Jan_03_1518,testMonitor,
242.7,242.2,248.8,255.0,36,-20,243.5,242.1,244.8,246.6,8.082,8.419,8.025,7.764,8.443,8.463,7.535,4.934,-4.617,-7.699,1.405,-1.76,8.379,5.15,-4.723,-8.341,,235.0,-8.459,236.0,249.3,244.7,253.7,248.4,36,246.5,5,5,probe,5,0,63,norm,36,-4.464,up,norm,245.036179793,240.5,249.8,242.0,251.1,5,249.2,247.7,251.2,10,6,7.927,4.443,1.151,-1.853,-4.416,-7.657,245.8,2,182.0,-7.572,-8.471,10,-8.311,-7.91,-5.208,-4.702,-4.859,-5.287,4.578,7.978,35,-1.13,1.194,4.858,8.005,-8.404,-7.953,-1.449,1.503,243.7,244.6,246.1,243.9,249.7,244.3,245.4,246.4,238.6,245.5,1,norm,2.059,2.032,-1.551,-1.666,-4.743,-4.681,-1.35,-1.572,-1.288,-1.597,1.889,-1.232,249.1,248.3,-4.772,-7.896,1.935,-1.573,8.481,4.741,-4.519,-7.515,19,4.688,5.174,4.907,5.167,1.653,1.551,1.854,1.815,19,5.167,4.791,10,168.676465761,norm,0,70,70,70,3286.544,3286.553,3286.55947169,3286.56,3286.561,3286.564,up,1,1.29683189709,8.70316810291,001,024,1920_1200,Intel(R) Core(TM) i5-3570 CPU @ 3.40GHz,orientation_search,LEPPC096,Intel(R) HD Graphics 2500,2019_Jan_03_1518,testMonitor,
128.2,129.0,119.7,,36,10,122.8,120.8,128.5,140.8,8.094,8.161,8.102,8.243,8.24,7.831,7.535,4.689,-4.429,-8.204,1.868,-2.009,7.552,5.271,-4.529,-8.394,137.6,127.5,-8.054,133.8,129.7,132.7,137.4,121.1,36,129.5,3,5,prime,10,0,75,norm,36,-4.936,up,norm,129.78776723,126.0,139.9,145.7,109.8,3,145.8,131.5,133.6,10,5,8.333,4.682,1.698,-1.146,-4.368,-8.239,137.7,5,204.8,-8.449,-8.442,10,-8.411,-7.835,-4.504,-4.784,-4.636,-5.243,4.377,8.468,21,-1.471,1.546,4.923,8.04,-7.913,-8.245,-1.553,2.051,135.7,122.3,120.3,130.7,144.6,148.9,126.4,121.9,140.0,149.8,0,norm,2.075,1.327,-1.712,-1.52,-4.406,-5.182,-1.115,-1.507,-2.009,-1.336,1.704,-1.643,142.9,113.6,-4.315,-8.349,1.673,-1.831,7.807,4.923,-4.654,-8.414,20,4.971,4.759,4.314,4.764,1.801,1.632,1.612,1.749,20,4.917,4.62,-20,168.676465761,norm,0,71,71,71,3287.9,3287.91,3287.916537,3287.917,3287.918,3287.921,up,1,0.94043307297,9.05956692703,001,024,1920_1200,Intel(R) Core(TM) i5-3570 CPU @ 3.40GHz,orientation_search,LEPPC096,Intel(R) HD Graphics 2500,2019_Jan_03_1518,testMonitor,
115.5,129.8,129.0,137.5,36,10,135.2,129.0,130.6,126.4,7.834,8.316,8.251,8.497,8.275,7.876,7.843,4.428,-4.638,-7.983,1.719,-1.391,7.674,4.957,-5.073,-7.583,135.5,135.2,-8.47,109.8,,139.2,114.9,146.4,36,129.6,5,5,prime,10,0,116,norm,36,-5.062,down,norm,129.78776723,127.0,122.1,128.6,138.3,0,141.0,119.9,132.2,10,5,7.965,4.501,1.758,-1.368,-4.532,-7.897,126.9,5,245.8,-8.327,-7.717,10,-8.037,-8.175,-4.811,-4.328,-5.28,-4.739,4.977,8.442,30,-1.957,1.299,4.669,8.49,-7.976,-8.307,-2.053,1.449,144.0,123.5,130.7,123.9,133.4,149.8,132.9,136.9,131.8,131.7,1,norm,1.354,1.763,-1.474,-1.234,-4.945,-5.162,-1.935,-1.358,-1.73,-1.396,1.309,-1.79,132.8,126.7,-5.294,-7.752,1.387,-1.602,8.038,4.669,-5.024,-8.419,20,5.19,5.065,4.726,4.41,2.027,1.439,1.386,1.246,20,5.271,4.901,-20,168.676465761,norm,0,72,72,72,3288.899,3288.909,3288.91579445,3288.916,3288.918,3288.921,down,1,1.41656522068,8.58343477932,001,024,1920_1200,Intel(R) Core(TM) i5-3570 CPU @ 3.40GHz,orientation_search,LEPPC096,Intel(R) HD Graphics 2500,2019_Jan_03_1518,testMonitor,
122.2,109.8,138.0,142.6,36,10,120.0,125.7,118.4,121.0,7.801,7.639,7.808,7.772,7.866,8.185,8.29,4.868,-4.649,-8.166,1.85,-1.353,7.589,4.714,-4.902,-8.085,123.6,129.5,-8.063,133.7,133.5,140.9,145.0,144.7,36,115.2,0,5,prime,10,0,119,norm,36,-4.384,down,norm,129.78776723,149.8,120.9,116.4,143.6,2,135.5,117.6,143.3,10,5,7.963,4.367,1.288,-1.649,-4.367,-8.409,128.8,5,248.8,-8.058,-7.613,10,-7.519,-8.147,-4.534,-4.393,-5.199,-5.063,4.625,7.523,2,-1.255,1.306,4.581,7.692,-7.695,-8.43,-1.825,1.516,139.6,129.9,116.0,,139.5,126.9,140.8,130.8,120.3,128.5,2,norm,1.773,1.262,-2.037,-2.009,-5.033,-5.001,-1.217,-1.101,-1.378,-1.469,1.629,-1.67,130.5,139.5,-4.899,-8.041,1.549,-1.404,8.075,4.674,-4.766,-8.222,20,4.933,4.793,5.248,4.904,2.038,1.446,1.205,1.766,20,5.182,5.119,-20,168.676465761,norm,0,73,73,73,3290.37,3290.384,3290.40235212,3290.403,3290.404,3290.407,down,1,0.979583323398,9.0204166766,001,024,1920_1200,Intel(R) Core(TM) i5-3570 CPU @ 3.40GHz,orientation_search,LEPPC096,Intel(R) HD Graphics 2500,2019_Jan_03_1518,testMonitor,
124.6,126.8,132.2,121.8,36,10,138.8,130.0,,132.8,8.425,8.132,7.681,7.698,8.016,7.904,7.79,5.046,-4.732,-7.641,1.672,-1.346,7.503,5.013,-4.302,-7.688,125.1,149.8,-7.749,118.0,123.8,121.6,132.2,129.2,36,144.3,4,5,prime,10,0,109,norm,36,-5.199,up,norm,129.78776723,135.8,122.6,132.3,120.0,4,122.3,115.4,122.0,10,5,8.401,4.7,1.922,-1.299,-4.855,-7.971,142.1,5,238.8,-7.878,-8.393,10,-7.639,-8.332,-5.224,-4.842,-4.532,-5.042,4.666,8.062,28,-1.102,1.267,4.463,7.51,-8.052,-8.206,-1.921,1.525,136.0,135.0,109.8,138.7,123.0,135.0,117.9,118.4,124.3,123.5,3,norm,1.445,2.088,-1.466,-1.267,-5.189,-5.089,-1.427,-1.322,-1.493,-1.803,1.501,-1.286,130.6,124.2,-4.392,-8.376,1.133,-1.348,8.481,4.428,-4.351,-8.205,20,4.396,4.983,4.958,4.923,1.393,1.306,1.374,1.147,20,5.046,5.004,-20,168.676465761,norm,0,74,74,74,3291.419,3291.43,3291.4350875,3291.435,3291.437,3291.44,up,1,1.23707510786,8.76292489214,001,024,1920_1200,Intel(R) Core(TM) i5-3570 CPU @ 3.40GHz,orientation_search,LEPPC096,Intel(R) HD Graphics 2500,2019_Jan_03_1518,testMonitor,
137.3,120.1,117.0,112.8,36,10,127.2,128.0,121.1,143.0,8.497,7.865,8.085,8.261,8.459,7.505,7.858,5.017,-4.634,-8.027,1.358,-1.382,7.937,4.855,-4.375,-7.687,132.7,132.7,-7.621,137.4,,109.8,130.2,142.2,36,124.9,5,5,prime,10,0,78,norm,36,-4.34,down,norm,129.78776723,149.8,122.2,133.9,139.5,0,145.0,142.8,138.7,10,5,7.799,4.587,1.732,-1.828,-4.849,-7.642,132.5,5,207.8,-7.558,-8.236,10,-8.191,-8.26,-5.059,-4.798,-4.376,-5.252,4.55,8.429,30,-1.825,1.998,4.468,7.703,-8.445,-8.33,-1.367,1.298,146.0,115.3,123.9,137.6,118.6,138.7,129.9,122.8,118.7,141.6,4,norm,1.795,1.612,-1.918,-1.735,-4.81,-5.064,-1.111,-1.933,-2.026,-1.529,1.985,-1.84,132.1,121.9,-4.594,-8.358,1.299,-1.119,7.78,5.12,-5.035,-8.15,20,4.738,4.719,5.229,4.377,1.269,1.514,1.289,1.436,20,4.362,4.568,-20,168.676465761,norm,0,75,75,75,3292.71,3292.723,3292.74215143,3292.742,3292.744,3292.747,down,1,1.84177354842,8.15822645158,001,024,1920_1200,Intel(R) Core(TM) i5-3570 CPU @ 3.40GHz,orientation_search,LEPPC096,Intel(R) HD Graphics 2500,2019_Jan_03_1518,testMonitor,
258.8,266.0,253.6,250.8,36,-60,248.6,,251.3,252.2,8.01,7.964,7.741,8.491,7.598,8.171,7.649,4.597,-4.73,-7.702,1.125,-1.792,7.74,5.099,-4.324,-7.963,256.1,247.3,-8.123,251.5,246.0,258.4,249.8,260.3,36,251.5,4,5,probe,5,0,112,norm,36,-5.273,down,norm,256.032190711,251.0,262.4,248.1,250.4,1,260.2,263.1,258.6,10,5,7.642,4.99,1.836,-1.347,-4.916,-7.669,261.6,1,144.0,-8.492,-8.053,10,-8.145,-7.892,-4.353,-5.153,-4.8,-4.707,4.421,8.292,25,-1.752,1.601,4.817,7.742,-7.629,-7.881,-1.259,1.648,258.3,254.8,260.5,256.6,256.7,251.6,256.5,259.9,259.5,257.1,0,norm,1.173,1.275,-1.461,-1.697,-5.249,-5.106,-2.08,-1.223,-1.117,-1.539,1.809,-1.999,261.6,256.0,-4.381,-7.904,1.613,-1.647,8.228,4.597,-5.248,-8.254,21,5.273,5.128,4.31,4.303,1.176,1.817,1.925,1.606,21,5.26,4.438,10,129.78776723,norm,0,76,76,76,3294.608,3294.618,3294.62448878,3294.625,3294.626,3294.629,down,1,0.993151981223,9.00684801878,001,024,1920_1200,Intel(R) Core(TM) i5-3570 CPU @ 3.40GHz,orientation_search,LEPPC096,Intel(R) HD Graphics 2500,2019_Jan_03_1518,testMonitor,
94.9,101.9,80.4,93.8,36,80,90.5,113.7,90.1,91.5,8.247,8.348,8.328,7.608,8.018,7.52,7.568,4.645,-4.947,-7.848,1.428,-1.728,7.801,4.714,-4.387,-8.25,116.3,85.9,-7.625,93.9,,107.6,100.3,94.4,36,89.8,5,5,prime,10,0,88,norm,36,-4.974,down,norm,96.2644827395,101.9,102.1,103.2,99.3,0,98.0,76.4,96.9,10,6,8.264,5.021,1.104,-1.904,-4.415,-7.675,106.7,6,184.3,-7.526,-7.801,80,-8.145,-8.001,-4.381,-5.151,-4.718,-4.56,4.477,8.138,30,-1.992,1.615,4.425,8.293,-8.332,-8.225,-1.519,1.942,84.4,99.4,83.4,103.6,81.2,103.0,94.9,85.9,76.3,98.6,0,norm,1.895,1.73,-1.485,-2.018,-4.506,-4.764,-1.572,-1.664,-1.92,-1.925,1.12,-1.951,104.5,97.8,-5.236,-8.092,1.6,-1.249,7.536,5.027,-4.743,-7.545,22,4.663,4.423,5.259,5.245,1.328,1.799,2.092,1.4,22,4.411,4.938,-60,129.78776723,norm,0,77,77,77,3295.656,3295.668,3295.69961898,3295.7,3295.702,3295.706,down,1,1.09071066721,8.90928933279,001,024,1920_1200,Intel(R) Core(TM) i5-3570 CPU @ 3.40GHz,orientation_search,LEPPC096,Intel(R) HD Graphics 2500,2019_Jan_03_1518,testMonitor,
80.6,92.9,92.1,101.3,36,80,101.6,108.5,100.9,116.3,7.743,7.778,8.344,7.697,8.085,7.555,8.377,4.677,-4.706,-7.859,1.772,-1.606,7.904,4.48,-4.587,-7.67,87.4,93.7,-7.859,87.1,,79.5,92.1,97.1,36,90.6,5,5,prime,10,0,88,norm,36,-4.479,down,norm,96.2644827395,86.0,106.4,110.8,94.4,0,98.6,76.3,98.9,10,6,7.759,5.041,1.983,-1.989,-4.914,-8.021,96.6,6,184.3,-8.054,-8.233,80,-7.642,-7.53,-4.398,-4.396,-4.595,-4.413,4.401,7.599,30,-2.029,1.332,4.549,7.994,-7.612,-8.278,-1.493,1.684,102.4,102.3,87.3,105.9,86.3,98.3,99.2,94.0,101.8,106.6,1,norm,1.417,1.424,-1.951,-2.071,-4.806,-5.283,-1.322,-1.231,-1.804,-1.528,1.824,-1.982,101.5,92.5,-4.411,-7.937,1.399,-1.258,8.02,4.66,-5.06,-8.223,22,4.453,4.342,4.472,4.9,1.545,1.718,1.776,1.124,22,4.503,4.601,-60,129.78776723,norm,0,78,78,78,3296.839,3296.849,3296.85515295,3296.855,3296.857,3296.86,down,1,1.87722616452,8.12277383548,001,024,1920_1200,Intel(R) Core(TM) i5-3570 CPU @ 3.40GHz,orientation_search,LEPPC096,Intel(R) HD Graphics 2500,2019_Jan_03_1518,testMonitor,
111.8,106.0,114.6,97.8,36,80,92.1,103.5,95.8,81.8,8.26,8.307,8.206,8.142,8.251,7.992,7.799,4.815,-4.381,-8.102,1.301,-1.164,7.576,4.322,-5.19,-8.354,95.1,77.7,-7.909,116.3,95.9,103.0,95.9,82.5,36,110.5,0,5,prime,10,0,112,norm,36,-4.917,up,norm,96.2644827395,94.7,105.3,97.2,95.7,4,104.3,96.8,96.5,10,6,7.593,4.42,1.895,-1.15,-4.739,-7.62,110.9,6,208.3,-7.822,-8.254,80,-7.928,-7.926,-5.175,-5.254,-4.901,-4.592,4.802,7.535,4,-1.756,1.957,4.886,8.446,-8.128,-7.602,-1.915,1.461,76.3,93.5,92.0,94.4,98.5,107.5,104.7,107.2,96.8,,2,norm,1.948,1.723,-1.811,-1.506,-4.44,-4.563,-2.091,-1.591,-2.07,-1.313,1.639,-1.73,89.3,84.7,-4.519,-7.631,1.224,-1.225,7.632,5.185,-5.18,-7.88,22,4.768,4.526,5.125,4.663,1.623,2.066,1.25,1.543,22,4.367,4.922,-60,129.78776723,norm,0,79,79,79,3298.77,3298.779,3298.78834228,3298.789,3298.79,3298.793,up,1,1.4185788467,8.5814211533,001,024,1920_1200,Intel(R) Core(TM) i5-3570 CPU @ 3.40GHz,orientation_search,LEPPC096,Intel(R) HD Graphics 2500,2019_Jan_03_1518,testMonitor,
94.9,95.9,91.1,96.2,36,80,92.7,105.7,77.4,106.8,8.133,7.979,7.649,7.8,7.748,7.647,8.466,5.104,-5.251,-8.087,1.559,-1.112,7.543,4.918,-4.618,-7.725,105.3,99.0,-7.962,96.8,104.1,116.3,96.0,108.1,36,100.0,0,5,prime,10,0,118,norm,36,-4.981,up,norm,96.2644827395,89.3,100.5,86.1,90.0,3,97.1,99.4,114.0,10,6,8.147,5.106,1.236,-1.301,-4.839,-7.562,76.3,6,214.3,-8.19,-8.463,80,-7.902,-7.92,-4.803,-4.656,-5.067,-5.201,4.787,7.866,3,-1.249,1.31,5.145,7.633,-7.777,-7.962,-2.089,1.899,87.1,93.6,,103.3,111.8,95.4,113.6,84.2,86.5,87.9,3,norm,1.412,1.332,-1.318,-1.972,-5.177,-4.894,-1.276,-1.322,-1.827,-1.288,1.92,-1.735,108.7,86.5,-4.637,-8.205,2.059,-1.986,8.405,4.853,-4.357,-7.977,22,4.548,4.65,4.631,5.157,1.684,1.732,2.043,1.475,22,4.698,5.11,-60,129.78776723,norm,0,80,80,80,3300.245,3300.258,3300.27679766,3300.277,3300.279,3300.282,down,0,1.32343132014,-10,001,024,1920_1200,Intel(R) Core(TM) i5-3570 CPU @ 3.40GHz,orientation_search,LEPPC096,Intel(R) HD Graphics 2500,2019_Jan_03_1518,testMonitor,
86.8,113.0,88.9,110.3,36,80,105.5,88.8,76.3,80.1,7.644,7.836,7.755,8.449,8.324,8.001,7.547,5.117,-4.967,-7.995,1.1,-1.777,8.289,4.708,-4.492,-8.06,93.2,95.2,-8.443,116.3,102.0,84.8,99.2,86.7,36,,4,5,prime,10,0,63,norm,36,-4.726,up,norm,96.2644827395,115.2,101.2,92.1,87.0,3,85.4,89.9,92.2,10,6,8.39,4.96,1.996,-1.879,-4.785,-7.93,114.8,6,159.3,-7.541,-7.816,80,-8.362,-7.941,-4.986,-4.786,-5.222,-5.082,4.945,8.123,27,-1.286,1.6,4.702,7.817,-8.098,-7.829,-1.259,1.484,96.4,81.7,95.2,105.1,98.6,84.4,97.9,81.8,83.9,98.3,4,norm,1.215,2.068,-1.142,-1.454,-4.834,-5.273,-1.764,-1.318,-1.276,-2.055,1.136,-1.657,103.6,102.7,-4.632,-7.615,1.884,-1.279,8.048,4.367,-4.368,-8.259,22,4.883,4.876,5.16,5.097,1.978,1.147,1.622,1.842,22,4.967,5.168,-60,129.78776723,norm,0,81,81,81,3302.677,3302.687,3302.70401267,3302.704,3302.706,3302.709,up,1,0.91050125131,9.08949874869,001,024,1920_1200,Intel(R) Core(TM) i5-3570 CPU @ 3.40GHz,orientation_search,LEPPC096,Intel(R) HD Graphics 2500,2019_Jan_03_1518,testMonitor,
80.2,76.3,80.4,90.3,36,80,87.4,109.1,85.4,94.7,7.798,7.705,8.286,7.974,7.638,7.651,7.548,5.044,-4.554,-8.124,1.359,-1.305,7.669,4.599,-5.251,-8.096,108.1,95.8,-8.287,81.8,92.0,105.1,84.9,105.6,36,93.8,2,5,prime,10,0,64,norm,36,-5.22,down,norm,96.2644827395,105.6,101.9,102.5,,2,101.6,94.2,87.8,10,6,8.014,4.488,1.589,-1.667,-4.391,-8.32,88.7,6,160.3,-8.371,-8.453,80,-7.686,-8.053,-4.967,-4.762,-5.062,-4.702,4.607,7.702,14,-1.426,1.856,4.858,8.013,-7.602,-7.913,-2.085,1.791,89.2,97.5,116.3,91.2,88.1,94.9,98.7,86.9,106.7,100.8,5,norm,1.883,2.08,-1.707,-1.783,-4.308,-4.427,-1.258,-2.067,-2.054,-1.645,1.171,-1.96,91.6,108.6,-5.105,-7.608,1.796,-1.695,8.39,5.259,-5.082,-7.653,22,4.682,5.023,4.94,4.792,2.037,1.514,1.638,1.165,22,5.278,4.93,-60,129.78776723,norm,0,82,82,82,3303.652,3303.662,3303.67109739,3303.671,3303.673,3303.676,down,1,1.53546967049,8.46453032951,001,024,1920_1200,Intel(R) Core(TM) i5-3570 CPU @ 3.40GHz,orientation_search,LEPPC096,Intel(R) HD Graphics 2500,2019_Jan_03_1518,testMonitor,
268.0,265.1,264.9,256.6,36,0,,266.1,266.5,264.4,8.256,7.91,7.553,8.434,7.592,8.36,7.584,4.448,-4.987,-8.039,1.877,-1.694,7.8,4.562,-4.722,-8.473,263.6,266.6,-7.7,269.3,257.8,269.3,269.9,263.3,36,263.3,4,5,probe,5,0,80,norm,36,-4.758,down,norm,264.018266912,266.5,258.3,266.0,263.9,0,266.7,271.3,265.1,10,6,7.714,4.889,1.61,-1.651,-4.92,-8.008,254.4,2,184.0,-7.512,-7.593,80,-7.653,-7.948,-5.131,-5.053,-5.054,-4.331,5.218,7.902,24,-1.117,1.106,4.527,7.517,-8.216,-7.732,-1.471,1.927,264.6,269.8,264.8,265.4,273.5,274.0,260.2,254.0,265.9,264.7,0,norm,1.194,1.712,-1.935,-1.14,-4.724,-4.519,-1.756,-1.269,-1.419,-1.981,2.044,-1.253,269.5,263.0,-4.419,-8.007,1.67,-1.651,7.647,4.902,-5.004,-8.033,23,5.052,4.463,4.597,5.034,1.33,1.361,1.795,1.273,23,5.051,5.066,80,96.2644827395,norm,0,83,83,83,3305.244,3305.254,3305.26220151,3305.262,3305.264,3305.267,down,1,1.451745872,8.548254128,001,024,1920_1200,Intel(R) Core(TM) i5-3570 CPU @ 3.40GHz,orientation_search,LEPPC096,Intel(R) HD Graphics 2500,2019_Jan_03_1518,testMonitor,
251.9,249.5,244.9,257.2,36,0,247.5,248.1,,261.0,8.322,7.896,8.063,7.597,8.029,8.373,7.512,5.269,-4.909,-7.647,2.072,-1.371,7.665,4.874,-4.974,-8.188,248.6,260.3,-7.957,249.0,253.8,258.6,260.0,249.9,36,243.9,4,5,probe,5,0,67,norm,36,-4.68,up,norm,251.018266912,250.2,250.1,249.6,255.7,4,246.3,250.7,252.8,10,6,7.574,4.598,1.753,-1.547,-4.824,-7.757,246.9,2,184.0,-7.724,-7.629,80,-8.355,-8.061,-4.406,-4.762,-4.871,-4.784,4.517,7.827,28,-1.22,1.763,4.771,7.693,-8.275,-7.932,-1.613,1.927,255.3,249.9,255.1,249.3,255.3,256.2,241.0,248.5,256.0,247.5,1,norm,1.76,1.693,-2.038,-1.883,-4.844,-4.489,-2.08,-1.637,-1.692,-1.593,1.696,-2.061,248.6,255.6,-4.544,-7.874,1.554,-1.782,8.298,5.279,-4.836,-8.276,23,4.436,4.847,4.759,5.103,2.09,1.707,1.935,1.268,23,4.506,4.978,80,96.2644827395,norm,0,84,84,84,3306.761,3306.782,3306.79299919,3306.793,3306.795,3306.798,up,1,1.31901830676,8.68098169324,001,024,1920_1200,Intel(R) Core(TM) i5-3570 CPU @ 3.40GHz,orientation_search,LEPPC096,Intel(R) HD Graphics 2500,2019_Jan_03_1518,testMonitor,
183.4,188.3,186.0,186.8,36,0,201.6,190.6,190.8,191.2,8.069,8.016,8.078,7.523,8.411,8.199,7.743,4.482,-4.62,-8.286,1.831,-1.55,7.911,4.304,-4.41,-7.9,173.4,184.2,-7.855,174.9,203.8,192.4,191.7,183.9,36,203.2,2,5,prime,10,0,77,norm,36,-4.575,down,norm,189.305382215,187.8,194.4,183.7,181.1,0,197.0,192.2,,10,5,7.62,4.943,1.429,-1.949,-5.01,-8.189,201.0,5,266.3,-7.869,-7.934,0,-8.187,-8.242,-5.15,-4.519,-4.791,-5.263,4.64,7.805,12,-1.182,1.787,5.164,8.11,-7.713,-8.402,-1.806,2.016,183.7,196.6,173.8,183.7,184.6,169.3,196.0,209.3,188.7,196.5,0,norm,1.38,2.086,-1.381,-1.866,-4.622,-4.686,-1.92,-1.457,-1.684,-1.821,1.838,-1.208,195.6,192.2,-4.427,-7.75,1.826,-1.323,8.442,4.367,-5.068,-7.699,24,4.78,4.529,5.1,4.346,1.761,2.003,1.444,2.011,24,4.495,4.968,0,96.2644827395,norm,0,85,85,85,3308.134,3308.144,3308.1637557,3308.164,3308.166,3308.168,down,1,1.21759959239,8.78240040761,001,024,1920_1200,Intel(R) Core(TM) i5-3570 CPU @ 3.40GHz,orientation_search,LEPPC096,Intel(R) HD Graphics 2500,2019_Jan_03_1518,testMonitor,
182.9,187.1,202.5,196.8,36,0,200.7,172.9,184.2,183.3,7.816,8.198,8.466,8.15,7.981,7.572,8.421,4.727,-4.473,-8.338,1.269,-2.063,7.933,4.611,-4.929,-8.451,202.4,188.5,-8.411,169.3,197.8,193.6,198.2,191.1,36,178.5,0,5,prime,10,0,80,norm,36,-4.728,down,norm,189.305382215,190.0,179.9,179.6,209.3,2,192.1,179.5,195.3,10,5,7.512,4.648,2.006,-1.155,-5.16,-7.973,199.3,5,269.3,-8.119,-7.889,0,-8.395,-8.36,-5.298,-4.766,-4.66,-5.074,5.019,8.082,2,-1.819,1.914,5.275,7.539,-7.592,-8.271,-1.47,1.517,186.1,200.1,177.5,,194.0,185.8,199.3,189.3,186.5,185.6,1,norm,2.047,1.963,-1.351,-1.393,-4.943,-4.47,-1.754,-1.347,-1.156,-1.71,1.38,-1.114,186.8,190.9,-4.767,-7.874,1.415,-1.702,7.813,4.829,-5.078,-8.414,24,4.983,4.809,4.874,5.188,1.307,1.22,1.922,1.796,24,4.363,5.038,0,96.2644827395,norm,0,86,86,86,3309.428,3309.449,3309.46056315,3309.461,3309.463,3309.466,down,1,1.6859546341,8.3140453659,001,024,1920_1200,Intel(R) Core(TM) i5-3570 CPU @ 3.40GHz,orientation_search,LEPPC096,Intel(R) HD Graphics 2500,2019_Jan_03_1518,testMonitor,
198.6,183.4,170.8,172.4,36,0,175.7,182.0,191.9,184.2,7.732,7.574,8.103,8.292,7.864,8.315,7.697,4.341,-4.515,-8.409,1.124,-1.881,7.827,4.852,-4.41,-7.78,187.3,202.7,-7.734,171.3,184.7,182.4,169.3,203.6,36,186.4,1,5,prime,10,0,117,norm,36,-5.096,down,norm,189.305382215,197.4,206.3,195.2,193.3,2,203.6,181.9,188.3,10,5,7.547,5.145,1.195,-1.181,-4.7,-8.469,175.4,5,306.3,-8.398,-7.79,0,-8.335,-8.434,-4.558,-5.061,-5.155,-4.538,4.43,8.251,8,-1.857,1.842,4.983,7.899,-8.007,-7.705,-1.185,1.7,193.4,,177.3,185.8,209.3,187.4,193.8,183.3,188.4,204.0,2,norm,2.053,1.255,-1.903,-1.816,-4.385,-4.598,-1.229,-1.966,-1.834,-1.568,1.364,-1.478,181.5,193.6,-4.852,-7.97,1.701,-1.152,7.672,4.326,-4.551,-7.638,24,5.221,4.487,5.074,4.921,1.877,1.8,1.511,1.727,24,5.112,4.947,0,96.2644827395,norm,0,87,87,87,3311.191,3311.213,3311.22313759,3311.223,3311.225,3311.228,up,0,1.00917828302,-10,001,024,1920_1200,Intel(R) Core(TM) i5-3570 CPU @ 3.40GHz,orientation_search,LEPPC096,Intel(R) HD Graphics 2500,2019_Jan_03_1518,testMonitor,
185.0,184.2,177.2,194.1,36,0,183.4,180.8,169.3,,7.551,8.14,8.221,8.287,8.37,8.277,8.437,4.695,-5.105,-7.702,1.871,-1.813,7.685,4.485,-5.297,-7.971,188.0,183.2,-7.578,199.4,200.9,178.9,171.2,187.7,36,184.7,4,5,prime,10,0,102,norm,36,-4.626,up,norm,189.305382215,209.3,194.8,183.4,173.7,5,174.6,180.3,183.8,10,5,7.889,5.143,1.357,-1.227,-4.935,-7.683,184.9,5,291.3,-8.331,-7.672,0,-8.125,-7.569,-4.845,-5.039,-4.637,-4.379,4.869,7.982,29,-1.254,1.611,4.786,8.271,-7.835,-7.979,-1.845,1.299,176.8,185.6,180.7,179.2,182.5,200.2,178.5,190.2,189.7,187.4,3,norm,1.918,1.281,-1.162,-1.299,-4.725,-4.956,-1.478,-1.436,-1.301,-1.26,2.042,-1.7,180.6,193.6,-5.063,-7.556,1.855,-1.257,7.921,4.541,-4.304,-7.556,24,4.68,4.421,5.162,4.463,1.267,2.067,2.09,2.097,24,5.299,4.765,0,96.2644827395,norm,0,88,88,88,3313.303,3313.313,3313.32709334,3313.327,3313.329,3313.332,up,1,1.07831197107,8.92168802893,001,024,1920_1200,Intel(R) Core(TM) i5-3570 CPU @ 3.40GHz,orientation_search,LEPPC096,Intel(R) HD Graphics 2500,2019_Jan_03_1518,testMonitor,
188.5,189.2,190.4,195.3,36,0,204.3,197.1,196.1,194.2,8.339,7.57,8.453,8.336,7.909,7.586,7.961,5.289,-4.428,-8.43,1.421,-1.169,8.285,4.422,-4.823,-7.783,188.7,197.1,-8.073,201.0,169.3,192.0,194.6,189.2,36,207.3,1,5,prime,10,0,107,norm,36,-4.765,down,norm,189.305382215,185.1,198.2,209.3,187.3,0,207.5,181.8,184.3,10,5,7.874,4.357,1.925,-1.598,-5.001,-8.266,180.5,5,296.3,-7.793,-7.727,0,-7.532,-8.135,-5.131,-4.318,-4.464,-4.516,4.46,8.024,6,-1.795,1.226,4.907,7.569,-8.188,-8.296,-1.806,1.685,207.9,196.0,195.5,192.7,184.8,196.8,186.9,,202.7,194.8,4,norm,2.063,1.681,-1.66,-1.809,-4.576,-5.095,-1.155,-1.725,-1.753,-1.525,1.901,-1.946,197.2,179.1,-5.075,-8.119,1.502,-1.823,8.133,4.924,-4.781,-8.376,24,4.965,4.566,4.916,4.799,1.221,1.861,1.494,1.22,24,5.164,5.038,0,96.2644827395,norm,0,89,89,89,3314.451,3314.46,3314.46676853,3314.467,3314.469,3314.472,up,0,1.43400326418,-10,001,024,1920_1200,Intel(R) Core(TM) i5-3570 CPU @ 3.40GHz,orientation_search,LEPPC096,Intel(R) HD Graphics 2500,2019_Jan_03_1518,testMonitor,
289.6,296.4,284.6,290.0,36,20,293.7,290.0,281.0,288.3,8.039,7.829,7.952,8.237,7.912,8.227,7.597,4.677,-5.196,-8.211,1.73,-1.84,8.262,5.072,-5.273,-8.1,290.6,294.4,-7.76,290.0,292.8,301.0,294.6,290.8,36,290.9,2,5,probe,5,0,99,norm,36,-5.032,up,norm,290.978747968,290.2,286.7,,286.5,3,294.0,293.6,285.7,10,5,8.04,4.988,2.048,-1.593,-4.636,-8.422,281.6,1,192.0,-8.438,-7.778,0,-7.618,-7.824,-4.967,-5.109,-5.297,-4.595,5.253,8.376,15,-1.29,1.572,4.305,8.47,-7.905,-8.385,-1.346,1.659,300.0,285.3,296.1,291.9,289.4,298.7,297.4,283.8,282.5,290.9,0,norm,1.128,2.062,-2.004,-1.512,-4.883,-4.485,-1.77,-1.743,-1.534,-1.811,1.695,-1.861,291.7,296.5,-4.365,-7.828,1.518,-1.847,8.159,4.573,-5.105,-8.199,25,4.464,4.86,4.738,4.931,1.532,1.487,1.558,1.978,25,5.251,4.442,0,189.305382215,norm,0,90,90,90,3316.982,3316.991,3317.00864492,3317.009,3317.011,3317.013,up,1,0.757194313552,9.24280568645,001,024,1920_1200,Intel(R) Core(TM) i5-3570 CPU @ 3.40GHz,orientation_search,LEPPC096,Intel(R) HD Graphics 2500,2019_Jan_03_1518,testMonitor,
22.9,-3.8,14.8,10.5,36,20,12.6,11.2,-15.2,5.0,8.283,7.869,8.395,8.185,7.684,7.765,7.996,4.443,-4.723,-8.223,1.71,-1.701,7.935,4.494,-4.37,-7.797,2.4,-2.7,-8.18,5.8,0.5,24.8,-6.1,-5.2,36,4.1,2,5,prime,10,0,64,norm,36,-4.645,down,norm,4.79419582946,-4.0,8.0,10.0,,2,10.7,22.5,3.7,10,6,7.623,4.502,2.018,-1.889,-4.88,-8.444,0.1,6,68.8,-8.085,-7.809,20,-8.213,-7.721,-5.07,-4.786,-4.503,-4.711,4.53,7.828,14,-1.744,1.832,4.36,7.77,-8.267,-8.111,-1.495,1.405,5.6,4.2,7.6,20.2,20.0,10.5,16.3,-5.7,7.5,1.7,0,norm,1.349,1.758,-1.687,-1.763,-4.449,-4.812,-1.971,-1.361,-1.889,-1.337,1.162,-1.317,1.4,4.1,-5.096,-7.58,1.818,-2.045,8.076,4.906,-5.054,-7.804,26,4.507,4.519,4.877,4.831,1.851,1.252,1.242,1.406,26,5.165,4.405,20,189.305382215,norm,0,91,91,91,3317.789,3317.799,3317.8049442,3317.805,3317.807,3317.81,down,1,2.73219951288,7.26780048712,001,024,1920_1200,Intel(R) Core(TM) i5-3570 CPU @ 3.40GHz,orientation_search,LEPPC096,Intel(R) HD Graphics 2500,2019_Jan_03_1518,testMonitor,
9.9,-14.6,24.8,1.7,36,20,15.5,19.7,22.9,14.2,7.557,7.624,8.133,7.817,7.98,8.239,8.285,4.712,-5.044,-8.259,1.675,-1.937,7.561,4.388,-4.324,-7.933,-3.6,3.8,-7.727,5.1,-1.1,-2.5,17.3,-3.1,36,-0.5,2,5,prime,10,0,103,norm,36,-5.088,up,norm,4.79419582946,3.2,,0.6,15.5,4,1.7,-15.2,4.0,10,6,8.176,5.105,1.928,-1.795,-4.528,-8.061,8.1,6,107.8,-7.859,-7.86,20,-8.291,-8.341,-5.245,-5.264,-4.726,-4.761,5.059,8.302,16,-1.876,1.18,4.325,8.163,-8.487,-8.032,-1.518,1.963,9.6,-2.1,-4.2,10.2,7.5,2.4,-13.7,2.3,-1.0,-3.3,1,norm,1.543,1.497,-1.877,-1.103,-4.316,-4.997,-1.114,-1.884,-1.527,-1.452,1.22,-1.424,3.6,6.1,-4.33,-7.672,1.691,-1.512,7.752,4.801,-4.398,-7.998,26,4.679,4.528,4.571,4.814,1.214,1.16,1.778,2.003,26,4.445,4.336,20,189.305382215,norm,0,92,92,92,3320.574,3320.584,3320.59619267,3320.596,3320.598,3320.601,up,1,1.85856744892,8.14143255108,001,024,1920_1200,Intel(R) Core(TM) i5-3570 CPU @ 3.40GHz,orientation_search,LEPPC096,Intel(R) HD Graphics 2500,2019_Jan_03_1518,testMonitor,
-3.4,6.0,5.8,15.7,36,20,11.6,16.8,-3.1,-7.5,8.189,8.257,7.894,7.662,8.152,7.884,8.189,4.814,-5.026,-8.277,1.336,-2.068,8.29,5.292,-5.018,-8.231,-0.7,-14.5,-7.98,0.6,16.5,13.1,16.5,-11.4,36,10.3,2,5,prime,10,0,62,norm,36,-4.715,down,norm,4.79419582946,4.9,24.8,9.1,12.4,0,-9.4,-5.5,,10,6,8.432,5.216,1.292,-1.844,-5.1,-8.261,-6.2,6,66.8,-7.535,-8.243,20,-8.13,-7.518,-4.425,-4.978,-4.713,-4.369,4.821,7.683,12,-1.808,1.588,4.965,8.25,-7.773,-7.762,-1.938,2.07,15.7,4.5,0.8,-2.0,-2.8,16.8,-15.2,-4.2,-10.6,22.6,2,norm,2.08,1.696,-2.074,-1.465,-4.586,-4.972,-1.919,-1.393,-1.863,-1.268,1.789,-1.384,23.1,7.6,-4.962,-7.862,1.489,-1.617,7.514,4.599,-4.809,-8.313,26,5.11,4.859,4.893,4.797,1.534,1.577,1.809,1.864,26,5.225,5.263,20,189.305382215,norm,0,93,93,93,3322.501,3322.523,3322.53276059,3322.533,3322.535,3322.537,down,1,1.99067230236,8.00932769764,001,024,1920_1200,Intel(R) Core(TM) i5-3570 CPU @ 3.40GHz,orientation_search,LEPPC096,Intel(R) HD Graphics 2500,2019_Jan_03_1518,testMonitor,
12.2,5.0,0.1,5.9,36,20,9.7,21.4,4.1,10.3,7.589,8.393,7.623,8.006,8.032,8.429,7.862,4.836,-5.127,-7.937,1.678,-1.47,8.455,4.965,-4.748,-8.026,2.4,-12.3,-8.003,9.8,,-1.5,-6.1,4.8,36,15.5,5,5,prime,10,0,115,norm,36,-5.265,down,norm,4.79419582946,24.8,0.8,-15.2,7.0,0,9.6,13.2,13.3,10,6,7.996,5.139,1.223,-2.034,-4.315,-7.713,7.0,6,119.8,-8.352,-7.761,20,-7.723,-8.175,-4.586,-4.518,-5.243,-4.959,4.378,7.622,30,-1.579,2.026,4.61,7.976,-7.981,-8.013,-1.324,1.786,-13.9,-10.4,7.0,9.2,-7.7,4.4,-2.9,13.7,23.3,10.7,3,norm,1.449,1.967,-2.011,-1.211,-4.776,-4.683,-1.614,-1.141,-1.655,-1.351,2.024,-1.708,8.0,-2.3,-5.011,-8.424,1.701,-1.199,8.055,4.69,-4.808,-8.425,26,4.988,4.65,4.728,4.414,1.629,1.793,1.52,1.26,26,4.599,4.746,20,189.305382215,norm,0,94,94,94,3324.547,3324.558,3324.57738847,3324.578,3324.58,3324.583,down,1,2.00947650855,7.99052349145,001,024,1920_1200,Intel(R) Core(TM) i5-3570 CPU @ 3.40GHz,orientation_search,LEPPC096,Intel(R) HD Graphics 2500,2019_Jan_03_1518,testMonitor,
-15.2,11.9,-8.5,-12.5,36,20,-14.0,-1.7,15.6,5.5,7.594,8.13,7.998,8.092,8.022,7.758,7.997,4.901,-5.023,-8.309,1.431,-1.106,7.908,5.003,-5.264,-8.039,,10.2,-7.868,24.8,6.9,-5.0,11.1,-6.4,36,7.4,5,5,prime,10,0,110,norm,36,-4.996,up,norm,4.79419582946,-13.9,4.0,3.6,-0.1,5,13.2,14.3,13.9,10,6,8.051,4.429,1.845,-1.739,-5.295,-7.925,5.2,6,114.8,-8.26,-7.813,20,-7.84,-8.448,-5.06,-5.251,-4.972,-4.421,4.43,8.47,35,-1.407,1.694,4.687,8.015,-7.882,-7.779,-1.37,1.681,13.5,20.7,-4.4,15.3,9.6,3.0,16.2,2.8,18.1,-5.9,4,norm,1.343,1.356,-1.21,-1.895,-4.59,-5.041,-1.791,-2.044,-1.98,-1.505,2.05,-1.277,10.4,3.1,-5.005,-8.415,1.833,-1.673,7.645,4.841,-4.722,-8.484,26,5.026,4.385,4.379,4.771,1.734,1.2,1.475,1.939,26,4.763,4.751,20,189.305382215,norm,0,95,95,95,3326.634,3326.644,3326.64982739,3326.65,3326.652,3326.654,up,1,1.38316305602,8.61683694398,001,024,1920_1200,Intel(R) Core(TM) i5-3570 CPU @ 3.40GHz,orientation_search,LEPPC096,Intel(R) HD Graphics 2500,2019_Jan_03_1518,testMonitor,
