d_ori_22,d_ori_23,d_ori_20,d_ori_21,set_size,ctpd,d_ori_24,d_ori_25,d_ori_28,d_ori_29,stim_pos_x_30,stim_pos_x_31,stim_pos_x_32,stim_pos_x_33,stim_pos_x_34,stim_pos_x_35,stim_pos_y_11,stim_pos_y_10,stim_pos_y_13,stim_pos_y_12,stim_pos_y_15,stim_pos_y_14,stim_pos_y_17,stim_pos_y_16,stim_pos_y_19,stim_pos_y_18,d_ori_35,d_ori_34,stim_pos_x_3,d_ori_31,d_ori_30,d_ori_33,d_ori_32,d_ori_26,test_set_size,d_ori_27,targetCol,dsd_test,seq_type,dsd,blockRepN,targetDist,dtype_test,prime_set_size,stim_pos_y_25,correctResponse,dtype,distrMean,d_ori_17,d_ori_16,stim_pos_y_3,d_ori_14,targetRow,d_ori_11,d_ori_13,d_ori_12,dsd_prime,streak_length_prime,stim_pos_y_35,stim_pos_y_34,stim_pos_y_33,stim_pos_y_32,stim_pos_y_31,stim_pos_y_30,d_ori_10,nextProbe,targetOri,stim_pos_x_1,stim_pos_x_2,ctpd_prime,stim_pos_x_4,stim_pos_x_5,stim_pos_x_6,stim_pos_x_7,stim_pos_x_8,stim_pos_x_9,stim_pos_y_28,stim_pos_y_29,targetPos,stim_pos_y_20,stim_pos_y_21,stim_pos_y_22,stim_pos_y_23,stim_pos_y_24,stim_pos_x_0,stim_pos_y_26,stim_pos_y_27,d_ori_9,d_ori_8,d_ori_3,d_ori_2,d_ori_1,d_ori_0,d_ori_7,d_ori_6,d_ori_5,d_ori_4,trialN,dtype_prime,stim_pos_x_18,stim_pos_x_19,stim_pos_x_12,stim_pos_x_13,stim_pos_x_10,stim_pos_x_11,stim_pos_x_16,stim_pos_x_17,stim_pos_x_14,stim_pos_x_15,stim_pos_y_9,stim_pos_y_8,d_ori_19,d_ori_18,stim_pos_y_1,stim_pos_y_0,d_ori_15,stim_pos_y_2,stim_pos_y_5,stim_pos_y_4,stim_pos_y_7,stim_pos_y_6,totBlockN,stim_pos_x_27,stim_pos_x_26,stim_pos_x_25,stim_pos_x_24,stim_pos_x_23,stim_pos_x_22,stim_pos_x_21,stim_pos_x_20,blockN,stim_pos_x_29,stim_pos_x_28,prevDistrCTPD,prevDistrMean,prevDistrType,trials.thisRepN,trials.thisTrialN,trials.thisN,trials.thisIndex,timeStart,timeBeforeDraw,timeDraw,timeAfterSaving,timeAfterWritingToTemp,timeAfterPreparingNext,answer,correct,rt,trialScore,session,participant,resolution,cpu_info,expName,pc_name,graphic_card,date,monitorName,
,325.3,321.2,299.6,36,40,313.2,315.6,318.5,313.7,8.333,7.72,7.959,8.339,7.755,7.861,8.121,4.356,-4.635,-7.554,1.116,-1.68,7.526,4.417,-4.424,-7.826,309.3,307.4,-7.532,303.0,326.7,329.8,320.4,309.8,36,323.2,3,5,prime,10,0,96,norm,36,-5.258,up,norm,309.773006072,313.4,311.2,1.123,302.5,4,310.7,329.8,321.1,10,5,8.425,4.745,1.958,-1.272,-4.771,-7.908,320.2,5,405.8,-7.695,-8.011,40,-7.713,-8.41,-4.312,-4.686,-4.342,-4.719,4.563,8.36,22,-1.842,1.605,5.017,8.45,-7.646,-7.933,-1.178,2.089,301.9,318.7,320.4,321.6,290.8,300.9,303.6,318.9,310.9,289.8,0,norm,1.205,1.201,-1.471,-1.731,-5.01,-5.128,-2.008,-1.454,-1.224,-1.969,1.118,-1.366,299.7,312.5,-4.861,-7.755,312.5,-2.046,7.782,4.722,-5.022,-8.281,0,4.321,4.402,5.115,4.584,1.274,1.35,2.069,1.146,0,5.226,4.912,,,,0,0,0,0,2104.838,2104.848,2104.8555923,2104.856,2104.856,2104.859,up,1,2.11258409949,7.88741590051,001,307,1366_768,Intel(R) Core(TM) i5-4200U CPU @ 1.60GHz,orientation_search,GRVLAPTOP8,Intel(R) HD Graphics 4400,2018_nov_08_1319,testMonitor,
312.9,317.2,321.5,310.1,36,40,296.0,319.2,322.1,320.8,8.309,8.431,8.443,8.44,7.589,8.338,8.115,4.584,-4.813,-7.578,1.131,-1.808,8.488,5.158,-4.396,-7.96,305.0,304.2,-8.025,315.2,306.1,329.8,321.8,296.0,36,314.0,1,5,prime,10,0,65,norm,36,-4.911,down,norm,309.773006072,301.6,308.7,1.846,312.7,1,309.2,320.9,298.5,10,5,7.771,4.754,1.756,-1.833,-4.933,-7.882,319.2,5,374.8,-8.188,-8.02,40,-7.789,-8.313,-4.957,-5.27,-4.862,-4.816,5.089,8.209,7,-1.301,1.647,5.191,8.373,-8.408,-7.745,-1.701,1.287,303.3,321.4,289.8,304.9,319.3,290.3,,313.4,299.9,307.9,1,norm,1.202,1.646,-1.251,-1.57,-4.908,-4.814,-1.17,-1.175,-1.378,-1.5,1.873,-1.991,299.1,326.5,-5.224,-8.279,305.5,-2.087,8.295,4.563,-5.221,-8.415,0,5.127,4.498,4.918,4.372,1.641,1.367,1.439,2.079,0,4.315,5.177,,,,0,1,1,1,2106.997,2107.008,2107.01778266,2107.018,2107.02,2107.023,down,1,2.21001299897,7.78998700103,001,307,1366_768,Intel(R) Core(TM) i5-4200U CPU @ 1.60GHz,orientation_search,GRVLAPTOP8,Intel(R) HD Graphics 4400,2018_nov_08_1319,testMonitor,
317.6,314.9,315.2,308.9,36,40,303.2,299.9,309.6,307.1,8.117,8.171,8.046,8.402,7.573,8.195,7.993,5.252,-4.44,-7.556,1.18,-1.641,8.345,4.838,-5.167,-8.404,300.9,315.8,-7.816,320.2,300.4,302.0,318.2,310.5,36,309.2,0,5,prime,10,0,86,norm,36,-5.242,down,norm,309.773006072,302.4,299.8,1.133,294.5,2,305.4,296.7,321.3,10,5,8.26,5.126,2.05,-1.334,-4.499,-8.278,315.0,5,395.8,-7.726,-8.216,40,-8.491,-7.637,-4.648,-5.168,-4.374,-5.198,4.9,7.563,2,-1.806,1.713,5.181,8.363,-7.512,-7.769,-1.43,1.127,294.1,289.8,306.5,,308.7,310.8,301.8,296.6,296.9,306.0,2,norm,1.496,1.873,-1.543,-1.15,-4.533,-5.181,-1.535,-1.18,-1.125,-1.945,1.551,-1.543,304.9,312.9,-4.767,-8.122,307.3,-1.962,8.472,4.766,-5.079,-8.218,0,4.954,5.034,4.987,4.716,1.575,1.934,1.363,1.817,0,5.061,5.016,,,,0,2,2,2,2109.257,2109.27,2109.27306358,2109.273,2109.276,2109.279,up,0,0.935495573969,-10,001,307,1366_768,Intel(R) Core(TM) i5-4200U CPU @ 1.60GHz,orientation_search,GRVLAPTOP8,Intel(R) HD Graphics 4400,2018_nov_08_1319,testMonitor,
294.4,323.9,308.7,311.8,36,40,304.5,311.1,299.0,321.5,8.272,8.357,8.316,7.753,7.584,8.268,8.096,4.533,-4.31,-8.053,1.228,-1.831,8.183,4.918,-5.26,-7.977,324.8,301.5,-8.407,308.7,311.4,312.4,306.1,324.0,36,298.7,1,5,prime,10,0,115,norm,36,-4.38,up,norm,309.773006072,289.8,301.4,2.089,320.2,5,,322.6,302.6,10,5,8.384,5.185,1.375,-2.008,-4.971,-8.436,310.7,5,424.8,-7.767,-7.528,40,-7.714,-7.844,-4.84,-5.052,-4.568,-4.691,4.395,7.511,11,-1.792,1.244,4.948,7.81,-7.985,-8.426,-1.424,1.661,313.7,310.2,320.1,300.3,292.7,303.1,301.5,306.7,316.2,307.5,3,norm,1.807,1.397,-1.722,-1.597,-4.652,-4.783,-1.211,-1.846,-1.318,-2.037,1.812,-1.352,328.1,329.8,-4.664,-7.858,317.4,-1.405,8.127,4.437,-4.796,-8.107,0,4.553,4.546,4.706,4.601,1.172,1.601,1.259,1.134,0,5.184,4.957,,,,0,3,3,3,2111.248,2111.253,2111.25945638,2111.26,2111.262,2111.264,down,0,0.879998054394,-10,001,307,1366_768,Intel(R) Core(TM) i5-4200U CPU @ 1.60GHz,orientation_search,GRVLAPTOP8,Intel(R) HD Graphics 4400,2018_nov_08_1319,testMonitor,
326.3,,296.3,311.3,36,40,304.2,322.9,317.0,329.4,8.065,7.534,7.668,8.229,7.957,8.051,8.086,4.65,-4.56,-7.645,1.325,-2.058,8.133,4.383,-4.625,-7.738,289.8,304.5,-8.456,305.1,294.8,298.2,296.2,300.7,36,315.4,3,5,prime,10,0,104,norm,36,-4.673,up,norm,309.773006072,296.1,305.1,1.602,310.8,5,307.4,319.4,311.0,10,5,8.308,4.938,1.283,-2.091,-5.009,-7.986,312.1,5,413.8,-8.13,-8.171,40,-8.203,-7.81,-4.693,-5.24,-4.905,-4.424,5.125,7.883,23,-2.098,1.442,4.69,7.849,-8.49,-7.517,-1.211,1.925,323.1,319.2,310.9,315.5,313.8,321.1,329.8,308.0,308.0,299.8,4,norm,1.891,2.042,-1.111,-1.292,-4.562,-4.475,-2.095,-1.289,-1.298,-1.431,1.754,-1.835,310.4,300.3,-4.803,-8.161,302.5,-1.472,7.505,4.349,-4.482,-8.055,0,5.139,5.221,5.169,4.919,1.195,1.559,1.512,1.752,0,4.671,4.651,,,,0,4,4,4,2113.182,2113.187,2113.20499771,2113.205,2113.207,2113.21,down,0,0.714121306752,-10,001,307,1366_768,Intel(R) Core(TM) i5-4200U CPU @ 1.60GHz,orientation_search,GRVLAPTOP8,Intel(R) HD Graphics 4400,2018_nov_08_1319,testMonitor,
468.6,466.3,464.3,467.4,36,-10,459.7,472.3,466.2,463.0,8.05,7.71,8.172,7.599,8.391,8.241,8.014,4.628,-5.07,-7.831,2.066,-1.987,7.768,5.299,-4.568,-7.814,465.6,454.4,-8.04,461.5,471.0,463.8,466.7,465.6,36,459.0,3,5,probe,5,0,106,norm,36,-5.27,down,norm,464.430568893,458.6,465.6,1.806,466.5,0,456.2,461.3,458.0,10,5,8.409,4.832,1.157,-1.195,-4.634,-7.69,474.4,2,358.4,-7.938,-7.536,40,-8.005,-7.838,-4.429,-4.616,-5.288,-4.342,4.568,8.412,18,-2.038,1.649,4.898,7.614,-7.835,-8.146,-1.136,1.559,465.9,468.2,458.9,459.8,469.8,468.0,461.0,465.7,463.3,472.1,0,norm,1.634,2.078,-1.767,-1.369,-5.148,-4.728,-1.299,-1.414,-1.546,-1.534,1.178,-1.377,462.7,,-4.779,-8.102,458.4,-1.978,7.746,4.822,-5.123,-7.552,1,4.323,4.975,4.31,5.285,1.67,2.004,1.911,1.413,1,4.628,4.769,40,309.773006072,norm,0,5,5,5,2114.961,2114.967,2114.98478634,2114.985,2114.987,2114.99,down,1,2.50994289468,7.49005710532,001,307,1366_768,Intel(R) Core(TM) i5-4200U CPU @ 1.60GHz,orientation_search,GRVLAPTOP8,Intel(R) HD Graphics 4400,2018_nov_08_1319,testMonitor,
422.5,432.8,416.4,434.6,36,-10,420.2,425.1,428.6,421.4,7.821,8.298,7.854,7.767,7.963,7.569,7.792,4.775,-4.418,-7.996,1.78,-1.952,8.487,4.497,-5.044,-8.382,421.1,429.8,-7.76,434.3,425.3,422.0,426.6,427.9,36,429.7,3,5,probe,5,0,68,norm,36,-4.696,down,norm,426.430568893,436.4,426.9,1.53,420.0,1,426.3,432.6,429.9,10,5,7.929,4.531,1.4,-1.624,-5.114,-8.253,430.8,2,358.4,-7.83,-7.861,40,-7.826,-7.78,-4.5,-5.214,-5.2,-4.814,4.512,8.017,19,-1.397,1.954,4.939,8.212,-7.928,-8.158,-1.113,1.136,427.4,428.2,424.4,427.9,427.4,423.7,431.4,428.2,427.0,424.0,1,norm,1.519,1.763,-1.24,-1.245,-5.241,-4.884,-1.704,-1.975,-2.014,-1.415,1.117,-1.558,,425.9,-5.051,-8.234,425.0,-1.749,7.883,4.66,-4.651,-8.129,1,5.255,5.136,4.733,4.949,1.221,1.282,1.984,1.379,1,4.672,4.319,40,309.773006072,norm,0,6,6,6,2117.52,2117.535,2117.54091775,2117.542,2117.55,2117.559,down,1,3.56708927074,6.43291072926,001,307,1366_768,Intel(R) Core(TM) i5-4200U CPU @ 1.60GHz,orientation_search,GRVLAPTOP8,Intel(R) HD Graphics 4400,2018_nov_08_1319,testMonitor,
49.1,62.8,56.8,50.0,36,10,26.8,64.4,50.4,44.7,8.08,8.184,8.237,7.515,7.886,8.176,7.671,4.766,-4.829,-7.876,1.229,-1.863,7.733,4.392,-4.647,-8.029,43.6,43.9,-8.163,29.9,43.3,38.7,66.8,43.9,36,46.8,2,5,prime,10,0,69,norm,36,-4.999,up,norm,46.8244733825,51.6,49.5,1.327,57.8,3,44.0,45.2,42.4,10,6,8.321,4.317,2.038,-1.192,-4.729,-8.067,44.7,6,115.8,-7.602,-7.902,10,-7.7,-8.146,-4.965,-4.675,-4.971,-5.266,4.375,7.682,15,-1.623,1.771,4.914,8.373,-7.944,-7.62,-1.123,2.043,42.4,37.5,38.6,53.9,56.8,32.6,53.7,50.9,36.7,58.1,0,norm,1.768,1.733,-1.225,-1.269,-4.978,-4.779,-1.129,-1.575,-1.689,-1.992,1.903,-1.691,36.8,34.7,-5.253,-8.322,,-1.983,7.868,4.631,-5.239,-8.329,2,5.031,5.278,4.654,4.842,1.504,1.543,1.586,1.114,2,4.907,4.397,-10,309.773006072,norm,0,7,7,7,2121.146,2121.164,2121.16944087,2121.17,2121.173,2121.177,up,1,1.26329181368,8.73670818632,001,307,1366_768,Intel(R) Core(TM) i5-4200U CPU @ 1.60GHz,orientation_search,GRVLAPTOP8,Intel(R) HD Graphics 4400,2018_nov_08_1319,testMonitor,
56.3,33.9,30.6,31.3,36,10,48.8,29.9,47.1,54.8,8.378,7.813,7.911,8.037,7.983,7.996,8.471,4.307,-4.519,-7.606,1.63,-1.881,8.07,4.968,-4.695,-8.394,31.4,66.8,-7.899,55.6,42.9,56.9,26.8,33.4,36,50.5,1,5,prime,10,0,106,norm,36,-4.57,up,norm,46.8244733825,37.7,35.7,2.066,49.6,4,44.6,47.4,60.4,10,6,8.242,4.629,1.324,-1.794,-4.942,-7.586,,6,152.8,-8.285,-7.601,10,-7.967,-7.892,-4.324,-5.277,-4.4,-4.819,4.507,7.545,10,-1.863,1.924,4.551,7.614,-7.959,-8.307,-2.095,1.574,56.3,46.7,48.8,27.1,51.8,47.8,47.0,52.2,39.0,64.2,1,norm,1.147,1.417,-1.441,-1.323,-5.149,-5.015,-1.839,-1.824,-2.091,-2.033,1.302,-2.009,46.5,49.1,-5.185,-8.219,52.8,-1.141,7.755,4.465,-4.875,-8.377,2,4.824,4.699,5.038,4.975,1.118,1.996,2.056,2.043,2,4.42,4.518,-10,309.773006072,norm,0,8,8,8,2122.46,2122.469,2122.4869718,2122.487,2122.491,2122.495,up,1,1.24310302743,8.75689697257,001,307,1366_768,Intel(R) Core(TM) i5-4200U CPU @ 1.60GHz,orientation_search,GRVLAPTOP8,Intel(R) HD Graphics 4400,2018_nov_08_1319,testMonitor,
47.4,49.2,45.5,43.6,36,10,46.5,43.3,52.1,63.1,7.738,7.769,7.606,8.181,7.507,7.85,8.218,5.263,-4.355,-8.358,1.197,-1.701,7.73,5.13,-4.877,-8.298,52.8,48.9,-7.728,36.6,38.1,49.2,44.1,54.4,36,34.5,1,5,prime,10,0,118,norm,36,-4.441,up,norm,46.8244733825,46.9,27.8,1.405,41.3,4,33.2,47.4,35.9,10,6,8.431,5.271,1.112,-1.651,-4.609,-7.661,,6,164.8,-8.312,-8.249,10,-7.604,-8.354,-4.897,-4.498,-4.806,-4.49,4.864,8.483,10,-1.61,1.296,4.771,7.523,-7.882,-7.889,-1.392,1.442,38.5,43.7,30.2,42.3,59.2,57.3,52.8,41.7,66.8,64.6,2,norm,2.06,1.798,-1.312,-1.299,-4.808,-4.519,-1.114,-1.244,-1.84,-1.476,1.509,-1.423,42.9,37.2,-4.302,-7.724,26.8,-1.302,8.078,4.807,-4.763,-7.913,2,4.335,4.613,4.456,4.861,1.556,2.066,1.595,1.468,2,4.976,4.723,-10,309.773006072,norm,0,9,9,9,2123.757,2123.772,2123.77703444,2123.777,2123.78,2123.784,up,1,0.968480289806,9.03151971019,001,307,1366_768,Intel(R) Core(TM) i5-4200U CPU @ 1.60GHz,orientation_search,GRVLAPTOP8,Intel(R) HD Graphics 4400,2018_nov_08_1319,testMonitor,
46.3,53.1,46.7,26.8,36,10,41.1,43.2,51.6,46.3,7.842,8.375,8.273,7.888,8.415,7.581,8.219,4.666,-5.092,-8.278,1.964,-1.845,8.387,4.785,-4.959,-7.925,51.7,50.0,-7.993,66.8,42.8,42.7,61.4,37.6,36,37.1,2,5,prime,10,0,78,norm,36,-4.553,up,norm,46.8244733825,56.5,48.2,2.086,44.9,3,65.3,41.8,33.9,10,6,8.419,4.327,2.023,-1.317,-5.235,-8.046,35.9,6,124.8,-8.433,-8.072,10,-7.671,-7.503,-4.682,-4.537,-4.578,-4.547,4.563,7.623,15,-1.72,1.947,5.017,7.933,-8.043,-8.091,-1.489,1.649,34.2,56.7,52.7,40.2,46.0,44.4,45.0,37.3,30.6,36.2,3,norm,1.711,1.124,-1.941,-1.685,-4.726,-5.148,-1.992,-1.911,-2.048,-1.325,1.597,-1.915,27.7,37.2,-4.322,-7.778,,-1.255,8.143,4.324,-4.879,-7.536,2,4.956,4.399,5.097,5.166,1.367,1.595,1.498,1.291,2,5.145,5.239,-10,309.773006072,norm,0,10,10,10,2124.772,2124.779,2124.7827057,2124.783,2124.786,2124.789,up,1,0.927631041699,9.0723689583,001,307,1366_768,Intel(R) Core(TM) i5-4200U CPU @ 1.60GHz,orientation_search,GRVLAPTOP8,Intel(R) HD Graphics 4400,2018_nov_08_1319,testMonitor,
45.6,45.2,30.2,47.6,36,10,60.4,26.8,49.3,38.2,7.767,8.435,8.489,8.391,7.965,7.881,7.581,5.059,-4.309,-7.808,1.914,-1.915,7.982,4.795,-4.682,-8.354,28.7,58.0,-8.219,64.1,66.8,53.0,56.5,42.9,36,31.5,1,5,prime,10,0,111,norm,36,-4.663,up,norm,46.8244733825,39.1,49.7,1.184,58.9,4,43.0,46.5,49.7,10,6,8.228,4.652,1.262,-1.951,-4.607,-7.877,,6,157.8,-7.699,-8.137,10,-7.907,-8.035,-4.894,-4.583,-5.149,-4.389,4.631,7.85,10,-2.069,1.414,5.262,7.504,-7.754,-7.999,-1.188,1.109,49.5,45.3,65.8,49.5,39.6,55.4,50.4,28.5,45.1,45.4,4,norm,1.229,1.122,-1.231,-1.618,-5.086,-4.447,-1.696,-1.879,-1.786,-1.57,1.32,-1.753,50.3,55.1,-4.372,-8.322,47.1,-1.226,7.782,4.91,-4.433,-8.03,2,4.417,4.69,4.889,4.531,1.547,1.671,1.954,1.315,2,4.628,5.298,-10,309.773006072,norm,0,11,11,11,2125.738,2125.752,2125.7573624,2125.758,2125.761,2125.764,up,1,1.0341458321,8.9658541679,001,307,1366_768,Intel(R) Core(TM) i5-4200U CPU @ 1.60GHz,orientation_search,GRVLAPTOP8,Intel(R) HD Graphics 4400,2018_nov_08_1319,testMonitor,
53.6,58.9,35.3,51.4,36,10,58.1,44.7,59.5,45.5,8.112,7.689,7.698,8.177,7.99,7.965,8.4,4.561,-4.978,-7.592,1.653,-1.532,7.567,5.027,-5.023,-8.368,55.4,33.3,-7.726,,47.4,48.8,44.0,45.1,36,36.1,5,5,prime,10,0,91,norm,36,-5.061,down,norm,46.8244733825,55.5,34.4,1.352,50.1,1,44.6,43.2,44.2,10,6,8.477,4.709,1.193,-1.369,-4.796,-8.345,44.4,6,137.8,-8.444,-8.347,10,-8.128,-7.714,-4.326,-4.62,-5.171,-4.612,4.371,7.83,31,-1.502,1.568,5.277,7.987,-8.187,-7.937,-1.758,1.873,41.0,51.3,50.3,43.3,34.6,63.0,47.1,57.9,37.0,46.0,5,norm,1.897,2.095,-1.583,-1.107,-5.156,-4.963,-1.611,-1.905,-1.942,-1.174,1.604,-1.532,26.8,66.8,-4.691,-8.283,40.0,-1.948,8.18,4.959,-5.055,-7.772,2,4.41,5.162,5.223,5.185,1.681,1.341,1.481,1.156,2,4.982,4.474,-10,309.773006072,norm,0,12,12,12,2126.818,2126.826,2126.84487228,2126.845,2126.847,2126.85,down,1,0.88018324396,9.11981675604,001,307,1366_768,Intel(R) Core(TM) i5-4200U CPU @ 1.60GHz,orientation_search,GRVLAPTOP8,Intel(R) HD Graphics 4400,2018_nov_08_1319,testMonitor,
178.1,176.2,177.2,178.9,36,30,179.7,189.1,181.6,181.2,8.217,7.624,8.121,8.457,7.972,7.981,7.774,4.888,-4.894,-8.026,1.45,-1.171,8.482,5.003,-4.534,-8.44,179.6,184.1,-7.692,184.5,186.5,188.0,173.9,181.2,36,186.9,1,5,probe,5,0,118,norm,36,-5.086,up,norm,179.105283675,171.9,176.8,1.409,171.7,3,172.5,169.1,177.7,10,6,8.482,4.77,1.473,-1.814,-4.696,-7.724,183.2,1,61.1,-8.246,-7.635,10,-8.394,-8.311,-4.938,-4.609,-5.087,-4.586,4.788,8.34,9,-1.77,1.33,5.138,7.619,-7.696,-7.728,-2.032,1.866,,175.2,177.5,174.5,181.1,180.4,175.3,178.4,182.2,178.0,0,norm,1.725,1.53,-1.356,-1.706,-4.855,-5.096,-1.851,-2.042,-1.788,-1.515,1.995,-1.959,177.6,179.0,-5.168,-7.571,184.6,-1.22,8.327,4.558,-5.054,-7.67,3,4.418,5.07,4.579,4.675,1.488,1.791,1.362,1.654,3,5.219,5.223,10,46.8244733825,norm,0,13,13,13,2127.749,2127.763,2127.76855945,2127.769,2127.772,2127.776,up,1,1.21745047964,8.78254952036,001,307,1366_768,Intel(R) Core(TM) i5-4200U CPU @ 1.60GHz,orientation_search,GRVLAPTOP8,Intel(R) HD Graphics 4400,2018_nov_08_1319,testMonitor,
225.5,238.4,220.6,211.9,36,20,220.1,225.8,237.6,241.9,7.825,7.936,8.071,8.217,8.057,7.9,8.48,5.182,-4.422,-7.764,1.906,-1.415,7.795,4.733,-4.384,-8.375,236.5,231.0,-7.702,229.6,237.3,227.9,215.2,231.2,36,224.8,0,5,prime,10,0,90,norm,36,-4.368,up,norm,225.035786462,232.8,217.6,1.287,238.7,5,224.9,219.2,219.3,10,5,7.821,5.007,1.38,-1.425,-4.506,-7.629,217.4,5,315.0,-8.42,-8.269,20,-8.493,-7.605,-5.077,-4.534,-4.603,-4.662,4.892,7.541,5,-1.577,1.594,5.005,7.546,-8.348,-7.982,-1.505,1.833,214.1,236.7,223.5,224.0,245.0,236.9,212.2,232.5,,205.0,0,norm,1.15,1.627,-1.95,-1.113,-5.129,-4.419,-1.745,-1.69,-1.975,-1.683,1.606,-1.421,238.0,223.5,-4.939,-8.399,221.7,-1.256,8.281,4.522,-4.435,-8.066,4,4.407,4.901,4.451,4.738,2.068,2.079,1.742,1.535,4,5.098,5.186,30,46.8244733825,norm,0,14,14,14,2129.015,2129.028,2129.03372681,2129.034,2129.037,2129.041,up,1,1.21607293702,8.78392706298,001,307,1366_768,Intel(R) Core(TM) i5-4200U CPU @ 1.60GHz,orientation_search,GRVLAPTOP8,Intel(R) HD Graphics 4400,2018_nov_08_1319,testMonitor,
217.4,212.9,217.0,227.7,36,20,218.6,229.0,213.8,232.5,8.162,7.893,8.206,8.098,8.382,7.751,8.213,4.386,-4.444,-8.39,1.383,-1.778,7.513,4.937,-4.567,-7.511,207.0,,-8.244,242.4,228.8,238.0,214.2,222.0,36,217.5,5,5,prime,10,0,91,norm,36,-4.85,up,norm,225.035786462,207.7,245.0,1.974,230.3,4,206.5,232.8,218.8,10,5,8.471,4.441,1.956,-1.572,-5.047,-8.285,211.8,5,316.0,-8.197,-8.415,20,-7.802,-7.735,-4.371,-4.671,-4.549,-4.67,4.66,8.336,34,-1.618,1.87,5.158,7.752,-7.591,-8.189,-1.444,1.185,226.5,213.1,222.9,224.3,235.7,222.9,209.5,209.5,222.6,213.7,1,norm,1.917,1.814,-1.584,-1.21,-4.98,-4.679,-1.588,-1.13,-1.632,-1.855,1.522,-1.571,205.0,227.0,-4.363,-8.312,226.0,-1.497,8.008,5.015,-4.971,-7.562,4,4.665,4.797,4.975,4.649,1.321,1.946,1.125,1.461,4,4.788,4.938,30,46.8244733825,norm,0,15,15,15,2130.273,2130.283,2130.2886436,2130.289,2130.294,2130.298,up,1,2.12230498981,7.87769501019,001,307,1366_768,Intel(R) Core(TM) i5-4200U CPU @ 1.60GHz,orientation_search,GRVLAPTOP8,Intel(R) HD Graphics 4400,2018_nov_08_1319,testMonitor,
222.3,222.9,221.7,218.1,36,20,215.8,241.2,222.6,217.8,8.184,8.373,8.153,8.31,8.298,7.912,8.103,4.536,-5.002,-8.308,1.738,-1.241,7.695,4.415,-4.864,-7.555,245.0,227.5,-7.763,225.3,219.5,232.7,229.8,229.0,36,234.1,0,5,prime,10,0,94,norm,36,-4.849,down,norm,225.035786462,215.4,205.0,2.088,228.5,2,227.4,216.0,214.5,10,5,7.84,4.848,1.551,-1.642,-4.425,-8.148,228.3,5,319.0,-8.289,-8.109,20,-7.702,-7.804,-4.619,-4.704,-4.506,-4.386,4.77,8.496,2,-2.029,1.607,5.22,8.346,-8.286,-7.564,-1.372,1.11,228.3,238.1,232.6,,229.8,232.6,220.3,215.8,222.8,238.5,2,norm,1.686,1.464,-2.029,-1.346,-4.926,-5.007,-1.657,-1.218,-1.811,-1.58,1.313,-1.596,232.8,225.9,-4.561,-8.14,224.4,-1.995,7.786,4.425,-4.676,-7.599,4,4.682,5.204,4.613,4.918,1.868,1.362,1.464,1.846,4,4.622,4.455,30,46.8244733825,norm,0,16,16,16,2132.44,2132.451,2132.46699007,2132.467,2132.47,2132.474,down,1,2.22539265766,7.77460734234,001,307,1366_768,Intel(R) Core(TM) i5-4200U CPU @ 1.60GHz,orientation_search,GRVLAPTOP8,Intel(R) HD Graphics 4400,2018_nov_08_1319,testMonitor,
242.5,219.7,235.7,221.0,36,20,216.1,205.0,240.4,221.2,7.865,8.113,7.957,8.079,8.329,8.304,8.148,4.301,-5.098,-7.689,1.511,-1.578,8.441,4.427,-4.84,-8.095,233.0,221.0,-7.845,236.8,236.1,228.6,223.9,217.6,36,242.8,2,5,prime,10,0,63,norm,36,-4.575,up,norm,225.035786462,224.8,229.8,1.94,245.0,3,216.3,230.1,228.5,10,5,7.929,4.873,1.983,-1.846,-4.523,-8.306,240.8,5,288.0,-8.133,-7.559,20,-7.776,-8.296,-4.914,-4.798,-4.819,-4.54,4.926,7.96,15,-1.194,2.059,4.909,7.511,-8.479,-7.658,-1.158,1.155,215.3,227.1,230.7,220.4,216.1,206.0,227.3,231.9,216.8,214.0,3,norm,1.378,1.831,-1.822,-1.935,-4.956,-4.319,-1.448,-1.408,-1.114,-1.387,1.728,-1.502,234.1,240.7,-5.195,-7.623,,-1.404,7.629,4.471,-5.082,-8.468,4,4.593,5.07,4.873,5.174,1.248,1.104,1.7,1.255,4,4.556,4.336,30,46.8244733825,norm,0,17,17,17,2134.719,2134.729,2134.74577221,2134.746,2134.749,2134.752,up,1,0.862084645465,9.13791535453,001,307,1366_768,Intel(R) Core(TM) i5-4200U CPU @ 1.60GHz,orientation_search,GRVLAPTOP8,Intel(R) HD Graphics 4400,2018_nov_08_1319,testMonitor,
232.9,243.3,228.0,239.1,36,20,210.3,217.8,231.3,217.4,7.836,8.033,7.523,7.682,7.59,8.353,8.492,4.813,-4.763,-8.12,1.531,-1.264,7.572,5.139,-4.783,-7.847,231.6,232.7,-7.672,232.7,236.5,222.8,226.8,205.0,36,216.5,1,5,prime,10,0,95,norm,36,-5.279,down,norm,225.035786462,237.4,245.0,1.654,218.9,1,224.1,228.6,224.1,10,5,8.297,4.82,1.655,-1.67,-4.83,-8.297,231.2,5,320.0,-8.459,-8.378,20,-8.169,-8.396,-5.237,-4.582,-5.226,-4.802,4.973,7.791,7,-1.91,1.674,4.324,7.619,-7.739,-7.52,-1.675,1.205,226.5,217.0,212.3,223.0,224.5,241.3,,219.0,223.6,217.6,4,norm,1.412,1.336,-1.573,-1.24,-4.389,-5.013,-1.343,-1.222,-1.395,-1.885,1.639,-1.67,244.8,233.6,-4.396,-8.385,228.0,-1.161,8.105,5.007,-4.711,-7.525,4,4.444,4.655,4.343,5.143,2.004,1.195,1.589,1.791,4,5.164,4.985,30,46.8244733825,norm,0,18,18,18,2135.633,2135.642,2135.6608184,2135.661,2135.665,2135.67,down,1,0.924751901763,9.07524809824,001,307,1366_768,Intel(R) Core(TM) i5-4200U CPU @ 1.60GHz,orientation_search,GRVLAPTOP8,Intel(R) HD Graphics 4400,2018_nov_08_1319,testMonitor,
322.1,321.7,311.6,312.7,36,80,320.4,320.9,309.7,322.6,7.744,8.165,7.98,8.456,8.048,8.106,8.419,4.527,-4.341,-8.37,1.599,-1.283,8.256,4.986,-4.918,-7.719,315.5,319.4,-7.78,315.5,309.4,320.4,311.6,329.4,36,316.2,2,5,probe,5,0,79,norm,36,-4.821,up,norm,319.406929545,321.0,325.8,1.453,329.4,3,320.2,315.2,322.2,10,5,7.508,4.887,1.117,-1.727,-4.397,-7.687,313.7,1,240.4,-7.532,-7.89,20,-7.817,-7.608,-4.668,-5.06,-5.247,-4.745,4.677,7.691,15,-1.918,1.263,5.192,8.073,-7.703,-8.183,-1.988,1.423,313.7,324.6,329.0,316.4,319.4,321.9,317.9,321.8,316.6,324.8,0,norm,1.401,1.285,-1.347,-1.312,-4.956,-4.933,-1.141,-1.796,-1.182,-1.398,1.215,-1.548,324.2,313.1,-4.598,-7.988,,-1.28,8.309,4.797,-4.757,-7.772,5,5.089,4.907,5.208,5.043,1.431,1.651,1.933,1.469,5,4.576,5.23,20,225.035786462,norm,0,19,19,19,2136.615,2136.623,2136.64215084,2136.643,2136.647,2136.652,up,1,0.824667874787,9.17533212521,001,307,1366_768,Intel(R) Core(TM) i5-4200U CPU @ 1.60GHz,orientation_search,GRVLAPTOP8,Intel(R) HD Graphics 4400,2018_nov_08_1319,testMonitor,
126.7,112.1,135.2,120.9,36,-10,145.9,128.6,139.6,125.8,8.291,7.781,7.867,7.886,7.522,8.253,8.388,4.666,-4.537,-7.945,1.611,-1.847,7.619,4.835,-4.32,-7.763,126.0,146.5,-8.357,135.3,137.2,152.1,135.4,119.1,36,147.0,2,5,prime,10,0,100,norm,36,-4.574,up,norm,132.078436527,141.7,147.4,1.426,127.4,3,146.1,130.2,146.5,10,5,8.236,5.0,1.137,-1.178,-4.797,-8.247,130.2,5,232.1,-8.336,-8.373,-10,-8.032,-7.717,-5.003,-5.171,-4.5,-4.758,4.501,8.285,15,-1.163,1.199,4.529,8.433,-7.688,-7.919,-1.441,1.233,129.5,127.3,142.2,147.4,133.5,119.6,126.3,122.2,145.1,134.7,0,norm,1.364,2.089,-2.056,-1.978,-4.484,-4.445,-1.951,-1.69,-1.987,-1.438,1.452,-1.504,125.4,120.8,-5.28,-7.773,,-1.475,7.662,4.473,-4.444,-7.693,6,4.987,4.939,5.154,4.5,1.63,1.402,1.875,2.027,6,5.162,4.985,80,225.035786462,norm,0,20,20,20,2137.497,2137.51,2137.51581898,2137.516,2137.521,2137.525,up,1,0.966805551403,9.0331944486,001,307,1366_768,Intel(R) Core(TM) i5-4200U CPU @ 1.60GHz,orientation_search,GRVLAPTOP8,Intel(R) HD Graphics 4400,2018_nov_08_1319,testMonitor,
,140.1,128.5,119.1,36,-10,132.5,142.3,135.7,139.6,8.304,8.308,8.438,8.014,7.735,7.853,8.354,4.653,-4.952,-7.69,1.776,-1.807,8.351,4.403,-5.116,-8.303,112.1,130.2,-7.54,143.4,138.9,134.8,126.5,133.3,36,128.5,3,5,prime,10,0,83,norm,36,-4.344,up,norm,132.078436527,136.5,145.6,1.94,149.5,4,119.7,129.3,137.9,10,5,7.861,5.101,1.619,-1.233,-4.873,-7.824,134.2,5,215.1,-8.27,-7.865,-10,-7.596,-8.177,-4.501,-5.176,-4.573,-4.858,4.536,7.737,22,-1.644,1.371,5.133,7.609,-8.136,-8.086,-1.777,1.136,137.9,125.3,140.9,146.3,134.0,134.5,130.2,126.3,137.2,125.5,1,norm,2.067,1.435,-1.977,-1.949,-4.705,-4.865,-1.537,-1.732,-1.581,-1.742,2.02,-1.227,122.4,145.2,-4.682,-8.327,152.1,-1.489,7.826,5.095,-4.77,-8.368,6,4.598,5.189,4.915,4.309,1.363,2.012,1.389,1.269,6,4.609,5.062,80,225.035786462,norm,0,21,21,21,2138.512,2138.521,2138.53821264,2138.539,2138.541,2138.544,up,1,0.795497171508,9.20450282849,001,307,1366_768,Intel(R) Core(TM) i5-4200U CPU @ 1.60GHz,orientation_search,GRVLAPTOP8,Intel(R) HD Graphics 4400,2018_nov_08_1319,testMonitor,
140.3,120.2,152.1,136.6,36,-10,122.7,142.0,128.3,130.6,8.211,8.062,7.532,7.696,7.813,8.242,8.272,4.511,-4.606,-8.339,1.877,-1.474,7.528,4.38,-4.976,-7.844,129.7,132.0,-7.828,137.5,131.3,134.5,129.5,129.5,36,121.8,1,5,prime,10,0,78,norm,36,-5.052,down,norm,132.078436527,143.9,119.6,1.75,112.1,2,122.9,116.5,142.6,10,5,8.196,4.912,1.506,-1.914,-5.265,-7.505,120.6,5,210.1,-8.47,-7.712,-10,-8.09,-7.564,-5.257,-5.076,-4.683,-4.485,4.513,8.272,8,-1.304,2.044,5.096,7.516,-8.135,-8.182,-1.717,2.002,128.7,,141.0,138.3,138.2,131.6,137.0,117.2,140.8,139.6,2,norm,1.938,1.97,-2.075,-1.599,-4.875,-4.746,-1.212,-1.327,-2.061,-1.612,1.249,-1.434,136.5,130.4,-5.113,-8.048,120.5,-1.182,8.222,5.215,-4.902,-7.525,6,5.142,4.744,4.521,4.679,1.576,1.683,1.412,1.109,6,4.381,4.369,80,225.035786462,norm,0,22,22,22,2139.36,2139.374,2139.37741723,2139.378,2139.381,2139.385,down,1,0.920147152076,9.07985284792,001,307,1366_768,Intel(R) Core(TM) i5-4200U CPU @ 1.60GHz,orientation_search,GRVLAPTOP8,Intel(R) HD Graphics 4400,2018_nov_08_1319,testMonitor,
133.5,142.7,125.6,124.0,36,-10,,141.9,143.4,135.4,8.355,8.064,7.62,7.626,7.782,8.169,8.191,4.788,-4.96,-8.296,1.483,-1.35,8.253,4.404,-5.135,-8.077,149.6,127.4,-8.09,130.1,122.8,131.1,136.0,112.1,36,135.4,4,5,prime,10,0,100,norm,36,-4.916,down,norm,132.078436527,136.6,133.0,1.228,137.5,0,138.2,138.5,134.7,10,5,7.87,5.075,1.29,-1.598,-5.205,-8.159,129.0,5,232.1,-7.954,-8.075,-10,-8.312,-7.836,-4.609,-5.011,-5.225,-5.263,5.162,8.221,24,-1.486,1.978,5.112,7.513,-7.776,-7.608,-1.403,1.992,147.3,131.6,113.0,149.6,149.5,125.4,152.1,136.9,132.2,126.8,3,norm,1.954,1.38,-1.874,-2.098,-5.037,-4.882,-1.87,-1.916,-1.521,-1.672,1.778,-2.006,122.6,133.4,-4.427,-8.301,128.3,-2.044,7.817,4.349,-4.724,-8.255,6,4.74,4.364,5.07,5.239,1.52,1.42,1.391,1.805,6,5.186,4.487,80,225.035786462,norm,0,23,23,23,2140.325,2140.338,2140.34348113,2140.344,2140.346,2140.35,up,0,1.51862583095,-10,001,307,1366_768,Intel(R) Core(TM) i5-4200U CPU @ 1.60GHz,orientation_search,GRVLAPTOP8,Intel(R) HD Graphics 4400,2018_nov_08_1319,testMonitor,
146.1,141.3,148.4,141.1,36,-10,112.4,126.4,136.8,,8.49,8.199,7.841,8.039,8.194,8.016,8.242,4.556,-4.698,-8.249,1.114,-1.363,8.039,4.35,-4.67,-7.973,129.6,116.0,-8.429,138.5,112.1,123.4,130.7,122.7,36,152.1,4,5,prime,10,0,60,norm,36,-5.076,up,norm,132.078436527,143.5,131.9,1.941,129.9,5,132.1,140.7,134.1,10,5,8.103,5.15,1.895,-1.476,-4.799,-8.283,117.5,5,192.1,-7.84,-7.708,-10,-7.836,-8.259,-4.433,-4.577,-4.514,-4.47,4.536,8.056,29,-1.277,1.998,4.47,7.978,-8.381,-7.766,-1.841,1.25,131.5,140.3,137.9,131.5,140.1,122.9,132.4,123.1,135.0,122.1,4,norm,1.713,1.294,-1.108,-1.544,-5.122,-5.131,-1.71,-1.653,-1.716,-1.958,1.103,-1.401,122.6,139.8,-4.496,-8.029,146.9,-1.274,8.205,4.383,-4.357,-7.644,6,4.345,4.741,4.739,4.474,1.652,1.251,1.2,1.542,6,4.97,5.016,80,225.035786462,norm,0,24,24,24,2142.9,2142.905,2142.91294841,2142.913,2142.916,2142.918,up,1,2.22662070991,7.77337929009,001,307,1366_768,Intel(R) Core(TM) i5-4200U CPU @ 1.60GHz,orientation_search,GRVLAPTOP8,Intel(R) HD Graphics 4400,2018_nov_08_1319,testMonitor,
220.2,212.6,215.0,,36,-30,219.8,207.9,209.3,220.1,7.777,8.226,7.789,7.758,7.673,8.258,8.103,5.26,-4.54,-8.012,2.038,-1.221,8.414,4.51,-4.453,-8.342,212.5,209.6,-7.623,212.4,203.2,207.2,214.3,213.3,36,204.1,3,5,probe,5,0,84,norm,36,-4.489,up,norm,210.183986143,210.8,200.2,1.432,208.0,3,204.6,210.3,207.4,10,5,8.492,4.341,1.929,-1.579,-4.32,-7.723,208.2,1,126.2,-7.891,-8.173,-10,-8.337,-8.064,-4.772,-4.47,-4.782,-4.304,4.759,7.839,21,-1.759,1.514,4.553,7.972,-8.48,-7.858,-1.921,1.188,208.7,212.7,210.9,208.7,208.4,213.6,208.4,206.3,210.8,207.5,0,norm,2.045,1.103,-1.123,-1.995,-4.908,-4.682,-1.563,-1.631,-1.997,-1.434,2.097,-1.444,203.2,209.1,-4.951,-7.55,206.5,-1.775,8.124,5.008,-4.478,-7.506,7,5.062,4.428,4.426,5.248,1.523,1.253,1.308,2.038,7,5.116,4.9,-10,132.078436527,norm,0,25,25,25,2145.164,2145.17,2145.17538924,2145.176,2145.178,2145.182,down,0,1.11111507769,-10,001,307,1366_768,Intel(R) Core(TM) i5-4200U CPU @ 1.60GHz,orientation_search,GRVLAPTOP8,Intel(R) HD Graphics 4400,2018_nov_08_1319,testMonitor,
6.7,3.7,-10.3,-16.6,36,0,-5.8,-6.2,3.7,,7.979,7.992,7.941,8.415,7.607,8.448,7.746,4.322,-4.559,-7.766,1.646,-1.401,7.744,4.805,-4.482,-7.939,-6.7,8.6,-8.467,-2.2,23.4,20.6,-11.9,-2.0,36,2.1,4,5,prime,10,0,88,norm,36,-4.872,up,norm,3.39851634417,7.3,3.1,2.009,14.3,5,-0.4,0.1,4.4,10,6,8.16,4.466,1.673,-1.133,-4.809,-7.716,7.7,6,91.4,-8.216,-7.989,0,-7.531,-8.31,-4.547,-4.675,-4.686,-4.309,4.52,8.16,29,-1.736,1.609,4.441,8.11,-8.01,-7.946,-1.671,1.717,-12.0,-10.8,8.2,4.2,15.9,-2.0,-6.4,8.9,-2.1,-14.3,0,norm,2.021,1.855,-1.272,-1.564,-4.388,-5.077,-1.566,-1.403,-1.609,-1.407,1.296,-1.342,17.9,-4.9,-5.173,-7.833,9.9,-1.615,8.011,4.452,-4.309,-8.171,8,4.71,5.166,4.803,5.265,1.764,1.83,1.458,1.319,8,5.263,4.978,-30,132.078436527,norm,0,26,26,26,2147.33,2147.335,2147.35357954,2147.354,2147.356,2147.359,up,1,2.32710813777,7.67289186223,001,307,1366_768,Intel(R) Core(TM) i5-4200U CPU @ 1.60GHz,orientation_search,GRVLAPTOP8,Intel(R) HD Graphics 4400,2018_nov_08_1319,testMonitor,
2.7,14.6,,-9.8,36,0,-15.7,10.8,-6.4,-5.1,8.309,7.614,8.08,8.054,7.558,7.649,8.181,4.368,-4.91,-8.007,1.433,-1.364,7.704,5.02,-5.078,-8.242,6.4,-0.5,-8.291,14.7,10.6,5.8,-7.5,16.1,36,-16.6,3,5,prime,10,0,113,norm,36,-4.406,down,norm,3.39851634417,23.2,-3.8,2.042,5.3,2,-4.2,14.2,-1.6,10,6,7.957,5.238,1.265,-1.555,-4.805,-7.937,19.0,6,116.4,-7.884,-7.829,0,-7.782,-8.139,-4.904,-4.681,-4.724,-5.143,4.872,8.422,20,-1.963,1.345,4.722,8.094,-7.655,-7.54,-1.283,1.763,5.4,23.4,-2.0,2.7,8.1,1.8,11.1,2.5,0.6,-5.3,1,norm,1.19,1.374,-1.62,-1.241,-5.121,-5.004,-1.451,-1.838,-2.085,-1.894,1.806,-1.741,10.9,10.4,-4.341,-7.702,9.1,-1.259,7.672,4.461,-5.282,-8.388,8,5.278,4.425,4.477,4.535,1.784,1.68,1.921,1.973,8,4.747,5.283,-30,132.078436527,norm,0,27,27,27,2149.705,2149.717,2149.72132139,2149.722,2149.726,2149.731,down,1,2.81618217655,7.18381782345,001,307,1366_768,Intel(R) Core(TM) i5-4200U CPU @ 1.60GHz,orientation_search,GRVLAPTOP8,Intel(R) HD Graphics 4400,2018_nov_08_1319,testMonitor,
1.4,-13.1,-9.6,-1.0,36,0,-7.6,,-3.4,2.7,7.758,8.099,8.284,7.798,8.34,7.768,8.165,5.253,-4.807,-7.866,1.118,-1.648,8.179,4.851,-4.518,-8.412,2.3,-2.7,-7.74,1.0,-10.0,23.4,0.8,5.3,36,-1.3,4,5,prime,10,0,83,norm,36,-4.723,down,norm,3.39851634417,-2.7,23.1,1.116,5.8,1,7.7,-2.3,-16.6,10,6,7.569,5.086,1.891,-2.057,-4.62,-7.636,-3.8,6,86.4,-7.781,-8.342,0,-8.498,-7.895,-4.546,-5.288,-4.451,-4.503,4.993,7.624,25,-1.671,1.277,4.823,8.038,-8.017,-8.255,-1.576,1.39,-7.4,4.4,4.0,5.2,12.8,-11.8,10.9,1.4,6.3,-0.2,2,norm,2.094,1.385,-1.582,-2.021,-5.243,-5.244,-1.877,-1.842,-1.354,-1.111,1.4,-1.283,2.7,9.7,-5.197,-8.273,-2.4,-1.313,8.205,5.174,-4.397,-8.209,8,4.827,5.295,4.35,4.418,1.482,1.689,2.008,1.802,8,5.231,4.809,-30,132.078436527,norm,0,28,28,28,2152.567,2152.576,2152.59336923,2152.594,2152.596,2152.6,up,0,2.99133446708,-10,001,307,1366_768,Intel(R) Core(TM) i5-4200U CPU @ 1.60GHz,orientation_search,GRVLAPTOP8,Intel(R) HD Graphics 4400,2018_nov_08_1319,testMonitor,
-3.4,0.7,6.1,6.2,36,0,16.6,10.9,16.3,-8.0,7.896,8.164,8.279,8.006,8.004,7.933,8.44,5.17,-4.644,-8.424,1.963,-1.519,7.899,4.301,-4.831,-8.055,5.4,-3.1,-7.796,5.4,-5.4,-8.8,-7.5,12.4,36,3.1,1,5,prime,10,0,96,norm,36,-5.009,down,norm,3.39851634417,5.3,-11.7,2.068,23.0,2,-1.4,-3.8,1.3,10,6,7.6,5.086,1.899,-1.973,-4.784,-8.285,2.4,6,99.4,-7.939,-7.878,0,-8.145,-8.415,-4.301,-5.267,-5.199,-4.584,4.694,8.045,8,-1.638,1.812,5.272,7.67,-7.715,-7.628,-1.592,2.055,-16.6,,-4.7,23.3,-0.3,0.8,23.4,-10.9,-11.7,0.1,3,norm,1.416,1.687,-1.331,-1.925,-5.028,-4.816,-1.452,-1.426,-1.531,-1.601,1.691,-1.817,20.8,-0.6,-5.047,-7.934,-2.9,-2.019,7.77,4.742,-5.231,-7.574,8,4.937,5.042,4.64,4.368,1.683,1.354,1.186,1.323,8,4.451,4.342,-30,132.078436527,norm,0,29,29,29,2156.628,2156.632,2156.63553801,2156.636,2156.638,2156.641,down,1,0.912805166745,9.08719483326,001,307,1366_768,Intel(R) Core(TM) i5-4200U CPU @ 1.60GHz,orientation_search,GRVLAPTOP8,Intel(R) HD Graphics 4400,2018_nov_08_1319,testMonitor,
12.1,20.0,-4.1,-4.8,36,0,-7.1,-9.4,13.1,14.1,7.64,7.986,7.769,7.857,7.759,8.072,7.962,4.581,-5.183,-8.296,1.948,-1.569,7.622,5.253,-4.383,-8.459,21.1,-8.8,-8.092,-9.6,-0.8,-0.7,-0.1,6.0,36,23.4,0,5,prime,10,0,105,norm,36,-4.614,up,norm,3.39851634417,4.9,-9.6,1.425,-3.9,3,15.9,11.1,13.4,10,6,8.176,4.437,1.524,-1.992,-5.16,-8.434,14.1,6,108.4,-7.767,-8.143,0,-7.834,-7.67,-4.884,-4.452,-4.603,-5.272,5.087,7.957,3,-1.417,1.878,4.84,7.712,-7.924,-7.779,-1.91,1.708,-7.5,6.3,,-16.6,-10.7,16.3,0.7,-1.1,-0.5,-9.2,4,norm,1.266,1.832,-1.531,-1.368,-4.631,-4.379,-1.622,-1.72,-1.31,-1.605,1.45,-1.104,8.1,12.4,-4.594,-8.427,21.9,-1.344,7.997,4.359,-4.634,-7.524,8,5.201,5.01,5.158,4.647,1.357,1.722,1.591,1.6,8,4.403,4.568,-30,132.078436527,norm,0,30,30,30,2157.575,2157.589,2157.5949458,2157.596,2157.599,2157.603,up,1,4.29228357476,5.70771642524,001,307,1366_768,Intel(R) Core(TM) i5-4200U CPU @ 1.60GHz,orientation_search,GRVLAPTOP8,Intel(R) HD Graphics 4400,2018_nov_08_1319,testMonitor,
-8.8,10.0,1.2,-14.5,36,0,20.8,-4.6,23.4,8.3,7.823,7.988,8.39,8.111,8.426,7.993,7.945,4.301,-4.532,-7.674,1.891,-1.979,8.249,5.103,-4.797,-7.74,-7.5,-16.6,-8.028,4.7,3.3,7.4,-0.0,12.2,36,2.6,3,5,prime,10,0,67,norm,36,-4.872,down,norm,3.39851634417,8.5,12.2,1.576,-8.5,0,-15.9,6.5,-4.4,10,6,7.517,4.611,1.644,-1.464,-4.52,-8.027,16.2,6,70.4,-7.603,-8.052,0,-8.418,-8.374,-5.112,-4.365,-4.535,-4.697,4.824,7.652,18,-1.997,1.169,4.432,8.246,-7.982,-8.43,-2.099,1.934,6.1,-3.5,-2.9,-7.6,-9.2,7.0,4.2,4.3,16.2,9.4,5,norm,1.999,1.909,-1.167,-2.061,-4.851,-5.073,-1.645,-1.247,-1.283,-1.293,1.601,-1.228,19.0,,-4.977,-7.795,3.1,-1.582,7.664,4.583,-5.28,-7.912,8,5.048,4.997,5.075,5.257,1.221,1.5,1.98,1.431,8,4.907,5.114,-30,132.078436527,norm,0,31,31,31,2161.915,2161.923,2161.94157515,2161.942,2161.945,2161.949,down,1,2.37405927048,7.62594072952,001,307,1366_768,Intel(R) Core(TM) i5-4200U CPU @ 1.60GHz,orientation_search,GRVLAPTOP8,Intel(R) HD Graphics 4400,2018_nov_08_1319,testMonitor,
114.1,102.0,110.6,113.9,36,80,119.8,114.3,120.4,109.6,7.925,8.246,8.051,8.28,8.199,7.684,8.137,5.01,-4.552,-8.25,1.489,-1.327,7.942,4.654,-4.382,-7.779,112.4,106.8,-8.262,108.9,116.5,112.1,118.7,117.4,36,108.0,2,5,probe,5,0,107,norm,36,-5.224,down,norm,110.412944242,113.8,108.9,1.747,111.4,1,106.4,,100.4,10,6,7.711,4.524,1.373,-2.049,-4.872,-8.109,110.0,1,3.4,-7.902,-8.312,0,-8.366,-7.529,-4.921,-5.016,-4.894,-4.503,4.732,8.477,13,-1.81,1.812,5.027,8.241,-8.052,-7.926,-2.075,2.091,106.7,109.1,113.5,114.1,113.6,111.7,109.7,109.8,114.3,110.9,0,norm,2.075,1.873,-1.345,-1.673,-4.42,-5.039,-1.894,-2.012,-1.987,-1.127,1.447,-1.873,111.1,107.6,-5.044,-7.552,108.8,-1.703,8.18,5.283,-4.378,-8.107,9,5.184,4.569,4.946,4.548,1.833,1.1,1.485,1.457,9,4.947,4.756,0,3.39851634417,norm,0,32,32,32,2164.343,2164.357,2164.3633388,2164.364,2164.368,2164.372,down,1,1.34877442438,8.65122557562,001,307,1366_768,Intel(R) Core(TM) i5-4200U CPU @ 1.60GHz,orientation_search,GRVLAPTOP8,Intel(R) HD Graphics 4400,2018_nov_08_1319,testMonitor,
340.0,344.2,335.7,304.5,36,20,332.8,321.3,326.4,309.5,8.295,8.062,7.924,7.718,8.377,7.999,8.248,5.124,-4.602,-7.583,1.11,-1.438,8.482,4.673,-4.432,-8.365,308.7,320.6,-7.631,318.1,338.9,324.5,334.4,323.1,36,307.3,0,5,prime,10,0,85,norm,36,-5.024,up,norm,324.537256886,319.6,327.4,1.954,318.9,3,328.6,331.9,335.8,10,6,7.523,5.167,1.71,-1.743,-4.895,-8.385,330.1,6,409.5,-8.193,-8.092,20,-8.437,-8.433,-4.477,-4.968,-4.352,-4.687,5.287,8.106,3,-1.828,1.108,4.779,7.591,-7.514,-7.77,-1.492,1.491,324.7,336.8,,344.5,337.3,307.6,325.5,322.5,314.5,319.9,0,norm,1.763,1.681,-2.04,-1.667,-5.056,-4.31,-1.462,-1.137,-1.909,-1.79,1.443,-1.245,328.4,309.6,-4.901,-8.052,322.3,-1.378,8.325,4.374,-5.236,-8.167,10,5.033,4.702,5.218,4.349,1.668,1.264,1.576,1.764,10,5.25,4.818,80,3.39851634417,norm,0,33,33,33,2165.741,2165.755,2165.75785103,2165.758,2165.761,2165.764,up,1,4.08168020038,5.91831979962,001,307,1366_768,Intel(R) Core(TM) i5-4200U CPU @ 1.60GHz,orientation_search,GRVLAPTOP8,Intel(R) HD Graphics 4400,2018_nov_08_1319,testMonitor,
310.3,304.5,305.5,344.5,36,20,317.7,332.5,316.4,320.3,7.54,7.578,8.197,7.82,7.773,8.203,7.566,4.908,-4.67,-7.97,1.951,-1.888,7.564,5.213,-4.5,-8.433,313.2,315.9,-7.747,318.6,327.1,326.5,326.9,336.3,36,306.0,0,5,prime,10,0,99,norm,36,-5.265,up,norm,324.537256886,329.7,320.4,1.313,324.5,3,310.7,328.8,318.5,10,6,8.196,5.018,1.222,-1.23,-4.44,-8.091,325.0,6,423.5,-7.97,-7.604,20,-7.748,-7.972,-4.464,-4.67,-5.146,-4.501,4.746,8.284,3,-2.059,2.059,5.287,8.228,-8.29,-7.529,-1.575,1.544,312.2,330.1,,308.7,342.3,322.8,323.2,313.0,343.6,343.1,1,norm,2.052,1.493,-1.462,-1.688,-4.3,-4.936,-1.467,-1.927,-1.528,-1.807,1.375,-1.242,318.5,329.1,-4.649,-7.546,317.7,-1.416,8.217,4.732,-5.225,-7.685,10,5.079,4.384,4.828,5.133,1.665,1.426,1.394,1.98,10,4.639,5.209,80,3.39851634417,norm,0,34,34,34,2169.866,2169.88,2169.88493927,2169.885,2169.89,2169.894,up,1,2.03101367413,7.96898632587,001,307,1366_768,Intel(R) Core(TM) i5-4200U CPU @ 1.60GHz,orientation_search,GRVLAPTOP8,Intel(R) HD Graphics 4400,2018_nov_08_1319,testMonitor,
338.3,309.2,323.0,308.4,36,20,316.2,329.8,322.7,320.1,7.824,7.978,8.082,8.177,7.982,7.501,8.107,5.034,-5.199,-8.212,1.145,-1.666,8.283,5.195,-5.293,-7.842,304.5,331.2,-7.837,309.7,319.0,332.1,328.7,,36,321.6,4,5,prime,10,0,87,norm,36,-5.087,down,norm,324.537256886,328.4,321.7,1.103,344.5,2,318.6,335.2,330.1,10,6,8.269,4.895,1.144,-1.435,-5.276,-7.602,328.5,6,411.5,-7.798,-8.018,20,-7.901,-7.794,-5.162,-4.761,-4.895,-4.517,5.053,7.834,26,-1.1,1.744,5.103,8.225,-8.239,-8.26,-1.354,1.586,315.8,318.2,322.5,311.0,337.0,329.4,306.7,319.2,325.5,316.8,2,norm,1.909,1.858,-1.158,-1.925,-4.367,-4.504,-1.472,-1.572,-1.893,-1.257,1.429,-2.06,319.9,328.7,-4.988,-7.861,324.3,-1.333,8.084,4.871,-4.962,-7.549,10,5.131,4.909,4.443,4.59,1.316,1.922,1.383,1.896,10,4.636,5.213,80,3.39851634417,norm,0,35,35,35,2171.945,2171.959,2171.96431464,2171.965,2171.968,2171.971,down,1,1.41745387106,8.58254612894,001,307,1366_768,Intel(R) Core(TM) i5-4200U CPU @ 1.60GHz,orientation_search,GRVLAPTOP8,Intel(R) HD Graphics 4400,2018_nov_08_1319,testMonitor,
304.5,326.6,333.6,,36,20,326.4,321.8,336.9,319.8,7.966,8.031,7.77,7.761,7.792,7.71,7.653,4.627,-4.99,-7.74,1.732,-1.197,7.816,4.432,-4.71,-8.056,332.9,327.4,-7.546,338.9,322.5,318.8,316.3,338.5,36,324.5,3,5,prime,10,0,89,norm,36,-5.292,up,norm,324.537256886,326.1,313.5,1.993,323.4,3,330.8,315.6,332.6,10,6,8.452,4.807,1.617,-1.121,-5.003,-7.604,331.2,6,413.5,-7.742,-7.905,20,-7.811,-8.27,-4.646,-4.675,-4.774,-4.644,4.752,8.319,21,-1.853,1.985,4.94,7.579,-8.43,-7.82,-1.362,1.44,327.4,320.3,337.2,308.2,316.2,312.1,331.1,320.2,322.6,321.3,3,norm,1.111,1.467,-1.424,-1.829,-4.812,-5.067,-1.935,-1.685,-1.128,-1.315,1.964,-1.545,317.2,332.4,-4.996,-8.056,344.5,-1.223,7.898,4.433,-4.523,-8.195,10,4.556,4.495,5.133,4.622,1.859,1.505,1.863,1.49,10,4.378,4.376,80,3.39851634417,norm,0,36,36,36,2173.409,2173.424,2173.42987853,2173.43,2173.433,2173.436,up,1,3.54519629424,6.45480370576,001,307,1366_768,Intel(R) Core(TM) i5-4200U CPU @ 1.60GHz,orientation_search,GRVLAPTOP8,Intel(R) HD Graphics 4400,2018_nov_08_1319,testMonitor,
309.5,322.7,325.2,316.7,36,20,344.5,329.6,319.8,317.2,7.951,8.326,8.146,8.084,7.601,7.966,7.857,4.93,-4.376,-7.703,1.808,-1.354,7.979,4.397,-4.598,-8.044,329.2,315.6,-7.96,330.0,,316.6,309.9,334.9,36,325.2,5,5,prime,10,0,80,norm,36,-4.871,down,norm,324.537256886,304.5,318.1,1.869,324.5,0,326.7,334.5,327.6,10,6,8.454,4.736,1.464,-1.368,-4.555,-7.555,323.1,6,404.5,-7.976,-8.377,20,-8.472,-7.775,-4.313,-5.03,-4.85,-5.136,4.918,8.411,30,-1.323,1.58,5.267,8.361,-7.719,-7.703,-1.176,2.064,319.3,335.5,333.1,320.0,317.0,327.1,332.8,310.9,333.6,323.7,4,norm,1.507,1.715,-1.387,-1.787,-5.273,-4.476,-1.318,-1.764,-1.101,-1.774,1.602,-1.876,321.9,321.7,-4.645,-8.122,333.2,-1.672,7.583,4.872,-4.416,-7.98,10,5.091,4.41,5.016,5.198,1.664,1.206,1.862,1.281,10,4.352,4.302,80,3.39851634417,norm,0,37,37,37,2177.002,2177.009,2177.02817068,2177.029,2177.032,2177.037,down,1,1.90706072031,8.09293927969,001,307,1366_768,Intel(R) Core(TM) i5-4200U CPU @ 1.60GHz,orientation_search,GRVLAPTOP8,Intel(R) HD Graphics 4400,2018_nov_08_1319,testMonitor,
319.6,313.2,330.5,323.8,36,20,330.6,321.2,317.9,321.5,7.732,8.356,7.963,8.24,7.914,7.659,8.099,4.659,-4.493,-8.417,1.478,-1.374,7.583,4.567,-4.362,-8.078,319.8,333.2,-7.505,332.1,331.1,331.5,332.3,314.0,36,310.0,2,5,prime,10,0,78,norm,36,-5.249,up,norm,324.537256886,313.8,,1.442,326.8,4,323.6,320.3,344.5,10,6,7.652,4.824,1.849,-1.428,-4.575,-7.975,320.4,6,402.5,-8.07,-7.603,20,-7.845,-7.67,-5.275,-4.608,-5.206,-4.781,4.734,7.684,16,-1.938,1.729,4.737,8.259,-7.671,-7.649,-1.508,1.511,304.5,327.3,326.0,341.5,329.6,321.5,321.5,323.8,329.4,320.4,5,norm,1.336,1.993,-1.75,-1.452,-4.836,-4.698,-2.083,-1.93,-1.655,-1.992,1.356,-1.808,334.4,328.2,-4.567,-8.435,314.3,-2.092,8.161,4.667,-4.348,-7.62,10,5.046,5.066,4.615,5.084,1.199,1.826,1.441,1.118,10,5.251,5.143,80,3.39851634417,norm,0,38,38,38,2178.964,2178.978,2178.98322004,2178.984,2178.986,2178.99,up,1,1.40105455417,8.59894544583,001,307,1366_768,Intel(R) Core(TM) i5-4200U CPU @ 1.60GHz,orientation_search,GRVLAPTOP8,Intel(R) HD Graphics 4400,2018_nov_08_1319,testMonitor,
424.3,430.3,435.0,429.1,36,-40,428.4,434.8,434.9,424.5,7.771,8.046,7.944,7.588,7.739,7.799,7.632,4.332,-4.379,-8.334,1.231,-1.178,7.762,4.767,-5.234,-7.527,427.7,428.8,-7.99,437.3,432.1,433.3,440.1,423.3,36,439.3,1,5,probe,5,0,88,norm,36,-4.51,down,norm,430.07074661,432.9,439.5,1.613,430.7,1,427.5,426.0,427.6,10,6,7.998,4.611,2.087,-1.692,-5.186,-8.349,433.8,2,342.1,-8.048,-8.185,20,-8.244,-8.118,-4.537,-4.632,-4.959,-4.374,4.46,7.683,7,-1.743,1.574,4.948,7.74,-8.015,-8.191,-1.505,1.959,433.4,437.9,420.1,428.9,421.6,425.5,,429.9,438.6,433.7,0,norm,1.399,1.897,-1.821,-1.25,-5.185,-4.889,-1.167,-1.658,-1.267,-1.655,1.39,-1.419,436.4,432.0,-5.016,-8.156,430.7,-2.079,8.197,4.718,-5.28,-7.887,11,4.431,5.017,4.875,4.445,1.241,1.279,2.038,1.217,11,4.896,5.036,20,324.537256886,norm,0,39,39,39,2180.411,2180.421,2180.43780732,2180.438,2180.441,2180.444,down,1,1.47763824847,8.52236175153,001,307,1366_768,Intel(R) Core(TM) i5-4200U CPU @ 1.60GHz,orientation_search,GRVLAPTOP8,Intel(R) HD Graphics 4400,2018_nov_08_1319,testMonitor,
,433.3,447.9,445.4,36,-40,445.9,433.1,438.2,442.3,7.807,7.558,7.723,8.134,7.801,8.003,8.445,4.416,-4.586,-7.624,1.578,-1.41,8.314,4.527,-4.311,-7.943,439.1,440.1,-8.45,438.2,441.9,429.1,439.7,435.5,36,430.3,3,5,probe,5,0,97,norm,36,-4.707,up,norm,439.07074661,434.0,439.3,1.844,445.1,4,444.5,439.2,438.0,10,6,8.445,5.202,1.226,-1.121,-5.14,-7.622,449.1,2,342.1,-7.709,-7.666,20,-8.042,-8.15,-4.522,-4.749,-4.704,-4.878,4.581,7.504,22,-1.26,1.294,4.864,7.588,-7.529,-8.073,-1.951,1.8,433.9,437.2,443.0,441.9,444.6,446.3,435.1,446.6,438.9,446.5,1,norm,1.816,1.583,-1.228,-1.695,-4.429,-4.982,-1.652,-1.296,-1.253,-1.801,2.055,-1.803,436.4,429.5,-4.983,-8.138,444.7,-1.142,8.463,4.508,-4.826,-8.496,11,5.276,5.117,5.005,4.671,1.657,1.493,1.942,1.133,11,4.881,5.149,20,324.537256886,norm,0,40,40,40,2181.941,2181.95,2181.96817417,2181.968,2181.971,2181.975,up,1,0.927501185883,9.07249881412,001,307,1366_768,Intel(R) Core(TM) i5-4200U CPU @ 1.60GHz,orientation_search,GRVLAPTOP8,Intel(R) HD Graphics 4400,2018_nov_08_1319,testMonitor,
341.5,335.0,346.2,351.9,36,40,347.1,337.1,342.0,353.1,7.64,8.221,8.416,7.744,8.021,8.164,7.531,4.789,-4.528,-8.322,1.991,-1.112,7.882,4.547,-4.5,-7.606,337.7,329.6,-7.78,338.0,347.2,347.3,,338.8,36,358.3,5,5,prime,10,0,97,norm,36,-4.695,down,norm,339.888275563,338.4,336.1,2.003,340.5,2,326.9,319.9,344.7,10,6,8.242,4.777,1.938,-1.51,-5.118,-8.162,353.5,6,436.9,-7.505,-8.197,40,-7.565,-8.196,-4.742,-4.676,-4.336,-4.664,4.729,7.989,32,-1.389,1.45,4.798,8.393,-8.112,-7.991,-1.365,1.226,336.4,359.9,353.9,355.4,356.9,337.6,330.7,344.6,328.7,333.8,0,norm,1.559,1.923,-1.56,-1.91,-5.299,-5.094,-1.815,-1.522,-1.178,-1.165,1.229,-2.045,337.3,342.2,-4.533,-7.554,341.9,-1.216,7.607,4.744,-5.211,-7.586,12,4.585,4.564,4.403,5.104,2.042,1.651,1.941,1.389,12,4.607,4.707,-40,324.537256886,norm,0,41,41,41,2182.922,2182.937,2182.9417349,2182.942,2182.947,2182.951,down,1,1.66585867493,8.33414132507,001,307,1366_768,Intel(R) Core(TM) i5-4200U CPU @ 1.60GHz,orientation_search,GRVLAPTOP8,Intel(R) HD Graphics 4400,2018_nov_08_1319,testMonitor,
328.7,324.7,356.4,346.0,36,40,347.6,339.3,344.5,347.6,7.943,8.292,8.135,7.51,8.166,7.791,8.026,5.035,-5.232,-8.465,1.545,-1.555,8.076,4.959,-4.95,-8.241,319.9,333.1,-7.544,340.5,352.8,358.9,333.8,327.7,36,333.7,0,5,prime,10,0,94,norm,36,-4.973,up,norm,339.888275563,329.3,332.4,1.654,345.5,3,352.0,358.6,348.0,10,6,7.969,4.499,1.844,-1.73,-4.582,-7.79,322.1,6,433.9,-8.436,-7.764,40,-8.12,-8.252,-5.182,-4.757,-4.801,-4.484,4.5,7.919,3,-1.289,1.627,4.864,8.221,-8.164,-7.86,-1.835,2.012,336.6,349.3,,352.3,353.7,350.4,359.9,338.7,345.0,340.5,1,norm,1.336,1.356,-1.346,-1.735,-4.955,-5.171,-1.947,-1.668,-1.491,-1.557,1.12,-1.192,337.9,353.5,-4.324,-8.345,336.6,-1.538,8.379,4.408,-4.834,-8.009,12,4.508,4.392,4.618,4.642,1.208,1.142,1.265,1.86,12,4.9,4.831,-40,324.537256886,norm,0,42,42,42,2184.638,2184.649,2184.65298019,2184.653,2184.657,2184.661,up,1,1.53354363133,8.46645636867,001,307,1366_768,Intel(R) Core(TM) i5-4200U CPU @ 1.60GHz,orientation_search,GRVLAPTOP8,Intel(R) HD Graphics 4400,2018_nov_08_1319,testMonitor,
350.8,349.8,345.0,351.2,36,40,349.2,340.2,356.8,340.4,7.537,8.287,8.422,8.35,8.286,8.237,8.013,4.849,-5.243,-7.713,1.262,-1.14,7.987,5.066,-4.746,-7.756,334.6,347.0,-8.119,357.3,330.7,347.6,340.8,319.9,36,335.1,3,5,prime,10,0,105,norm,36,-4.716,down,norm,339.888275563,342.6,349.8,1.795,341.9,0,334.4,337.7,330.2,10,6,7.934,4.601,1.931,-1.317,-4.393,-8.011,356.7,6,444.9,-8.371,-7.661,40,-7.535,-7.889,-4.861,-5.018,-4.96,-4.971,5.047,8.139,18,-2.007,1.474,5.183,8.38,-7.59,-8.038,-1.143,1.999,344.3,335.9,341.0,339.3,333.4,349.8,340.4,326.2,348.0,330.5,2,norm,1.419,2.047,-1.986,-1.239,-4.714,-4.961,-1.148,-1.514,-1.585,-1.502,1.244,-1.219,355.9,,-4.303,-8.224,359.9,-1.469,7.557,4.948,-5.147,-8.201,12,4.925,4.506,4.747,4.582,1.849,1.63,1.718,1.214,12,4.807,4.45,-40,324.537256886,norm,0,43,43,43,2186.211,2186.219,2186.22688935,2186.227,2186.231,2186.236,down,1,2.80473835392,7.19526164608,001,307,1366_768,Intel(R) Core(TM) i5-4200U CPU @ 1.60GHz,orientation_search,GRVLAPTOP8,Intel(R) HD Graphics 4400,2018_nov_08_1319,testMonitor,
359.9,329.6,342.2,329.4,36,40,355.7,341.5,331.4,339.7,7.772,7.85,7.584,8.012,8.258,7.94,7.803,4.83,-4.629,-8.295,2.03,-1.42,7.596,4.905,-4.6,-7.553,335.6,354.3,-7.94,343.8,355.7,325.8,339.3,348.5,36,356.9,0,5,prime,10,0,66,norm,36,-4.462,up,norm,339.888275563,334.0,329.3,1.367,345.6,4,340.8,320.1,349.2,10,6,7.646,4.878,1.773,-1.411,-4.667,-8.169,334.5,6,405.9,-8.171,-7.6,40,-8.333,-8.234,-5.029,-5.215,-5.106,-5.139,4.836,7.734,4,-1.976,1.753,4.948,7.819,-8.175,-8.476,-1.262,1.327,348.9,352.2,319.9,328.5,332.0,322.5,329.1,349.5,343.1,,3,norm,1.801,1.447,-1.796,-1.563,-4.943,-4.34,-1.849,-1.212,-1.325,-1.924,1.101,-1.747,348.5,333.7,-4.807,-8.07,341.8,-1.934,8.194,4.493,-4.425,-7.576,12,4.838,4.635,4.446,4.336,1.673,1.562,1.917,1.966,12,5.019,5.153,-40,324.537256886,norm,0,44,44,44,2189.061,2189.068,2189.0874367,2189.088,2189.091,2189.096,up,1,1.14057494443,8.85942505557,001,307,1366_768,Intel(R) Core(TM) i5-4200U CPU @ 1.60GHz,orientation_search,GRVLAPTOP8,Intel(R) HD Graphics 4400,2018_nov_08_1319,testMonitor,
,346.6,356.9,330.6,36,40,347.8,342.3,321.8,319.9,8.189,7.969,7.911,8.366,7.605,8.05,8.069,4.508,-4.377,-7.904,1.549,-1.254,7.748,5.293,-5.181,-8.1,332.1,330.5,-8.082,359.9,339.9,349.9,329.2,343.4,36,332.9,3,5,prime,10,0,91,norm,36,-4.396,up,norm,339.888275563,346.9,353.8,2.021,354.2,4,357.4,331.1,328.2,10,6,7.826,5.183,1.202,-1.612,-4.868,-8.479,359.5,6,430.9,-8.348,-8.075,40,-7.87,-8.269,-5.103,-4.675,-4.654,-5.056,4.547,8.21,22,-1.635,1.628,4.31,8.017,-8.158,-8.017,-1.196,1.425,351.9,341.5,346.4,329.5,322.7,340.6,339.1,339.9,347.2,332.1,4,norm,1.654,1.638,-1.892,-1.646,-4.383,-5.071,-1.826,-1.294,-1.155,-1.409,1.162,-1.641,346.6,348.9,-4.595,-7.714,335.6,-1.96,8.12,4.992,-4.937,-8.021,12,4.514,5.164,4.86,4.499,1.18,1.915,1.631,1.586,12,4.685,4.946,-40,324.537256886,norm,0,45,45,45,2190.253,2190.259,2190.26878458,2190.269,2190.272,2190.276,up,1,1.12702888556,8.87297111444,001,307,1366_768,Intel(R) Core(TM) i5-4200U CPU @ 1.60GHz,orientation_search,GRVLAPTOP8,Intel(R) HD Graphics 4400,2018_nov_08_1319,testMonitor,
326.3,341.8,339.7,354.9,36,40,355.5,346.3,334.8,332.7,8.184,8.367,7.902,7.518,8.239,7.63,7.559,4.737,-4.763,-7.943,1.332,-2.078,8.165,4.648,-4.642,-7.95,319.9,328.1,-7.564,326.0,328.9,334.8,329.9,359.9,36,353.5,3,5,prime,10,0,69,norm,36,-5.168,down,norm,339.888275563,341.7,346.2,1.17,336.0,0,336.0,333.8,352.2,10,6,8.404,4.62,1.707,-1.679,-4.764,-7.632,333.9,6,408.9,-7.829,-8.077,40,-8.288,-7.673,-5.014,-4.981,-4.93,-5.174,4.686,8.262,18,-1.779,1.621,4.42,8.1,-7.999,-8.46,-1.148,1.927,340.3,326.5,335.3,351.1,331.6,351.2,330.9,340.8,337.6,341.0,5,norm,1.912,1.458,-1.48,-1.375,-4.804,-5.003,-2.081,-1.337,-1.327,-1.393,1.687,-1.616,340.5,,-4.983,-7.806,333.6,-1.987,8.294,4.795,-4.482,-7.925,12,5.25,4.814,4.98,4.631,1.702,1.37,1.347,1.245,12,4.86,5.204,-40,324.537256886,norm,0,46,46,46,2191.423,2191.434,2191.44919804,2191.449,2191.453,2191.456,down,1,1.21065513821,8.78934486179,001,307,1366_768,Intel(R) Core(TM) i5-4200U CPU @ 1.60GHz,orientation_search,GRVLAPTOP8,Intel(R) HD Graphics 4400,2018_nov_08_1319,testMonitor,
490.7,486.9,496.9,491.6,36,0,483.1,493.8,483.5,486.2,8.096,7.551,8.119,8.215,7.831,7.541,8.477,4.362,-4.7,-8.459,1.715,-1.394,8.074,4.665,-5.172,-8.472,496.3,491.1,-8.309,485.6,488.7,487.2,483.4,485.9,36,482.3,0,5,probe,5,0,99,norm,36,-5.216,up,norm,486.927033006,483.6,485.9,1.7,476.9,5,496.9,496.2,494.1,10,6,8.401,5.24,1.643,-1.905,-5.144,-8.006,484.9,1,387.9,-8.425,-7.694,40,-7.869,-8.164,-4.67,-4.404,-4.412,-5.118,4.573,8.496,5,-1.973,1.226,4.667,7.869,-7.786,-7.664,-1.32,1.555,477.9,488.2,494.3,480.2,481.5,485.4,490.2,487.7,,494.8,0,norm,1.838,1.295,-1.673,-1.201,-4.847,-4.96,-1.745,-1.167,-1.763,-1.189,1.815,-1.559,493.2,478.1,-4.374,-8.226,477.3,-1.558,8.175,4.654,-4.315,-7.562,13,5.173,5.203,4.813,4.544,1.599,1.648,1.704,1.766,13,4.311,4.95,40,339.888275563,norm,0,47,47,47,2192.687,2192.697,2192.71337207,2192.714,2192.716,2192.72,up,1,0.878400069256,9.12159993074,001,307,1366_768,Intel(R) Core(TM) i5-4200U CPU @ 1.60GHz,orientation_search,GRVLAPTOP8,Intel(R) HD Graphics 4400,2018_nov_08_1319,testMonitor,
272.6,,310.7,283.9,36,-80,280.4,286.0,286.3,296.1,7.681,8.065,7.807,7.555,8.399,8.395,7.636,4.34,-4.604,-8.242,1.366,-1.152,8.329,4.815,-5.233,-8.223,303.7,280.6,-7.883,300.2,289.1,279.1,281.9,286.6,36,285.8,3,5,prime,10,0,91,norm,36,-4.872,up,norm,290.747675434,296.1,292.9,1.683,303.2,5,270.7,283.2,297.1,10,6,8.245,4.665,1.246,-1.613,-5.053,-7.57,307.8,6,381.7,-8.311,-7.846,-80,-7.892,-8.317,-4.347,-5.051,-4.85,-4.456,4.588,7.945,23,-2.072,1.191,5.152,8.216,-7.574,-8.012,-1.771,1.189,277.3,297.4,296.9,290.8,285.6,275.2,282.5,300.5,292.3,282.4,0,norm,1.998,1.813,-1.213,-1.817,-4.315,-5.131,-1.789,-1.814,-1.102,-1.288,1.308,-1.201,298.7,274.3,-4.858,-7.839,292.4,-1.397,7.531,5.138,-4.423,-8.443,14,4.937,5.267,4.612,5.209,1.484,1.134,1.717,1.324,14,4.406,5.262,0,339.888275563,norm,0,48,48,48,2193.618,2193.625,2193.64500544,2193.645,2193.65,2193.654,down,0,1.47455919306,-10,001,307,1366_768,Intel(R) Core(TM) i5-4200U CPU @ 1.60GHz,orientation_search,GRVLAPTOP8,Intel(R) HD Graphics 4400,2018_nov_08_1319,testMonitor,
285.7,274.5,283.7,296.8,36,-80,298.1,274.0,,281.2,7.826,7.84,7.84,8.324,7.721,7.595,7.886,4.669,-5.027,-7.594,1.713,-1.346,8.099,5.014,-4.375,-7.541,294.7,277.2,-8.131,295.6,289.6,293.5,299.3,297.1,36,301.2,4,5,prime,10,0,101,norm,36,-5.211,up,norm,290.747675434,270.7,271.0,1.84,292.4,4,300.8,304.3,304.2,10,6,7.795,4.724,1.857,-1.677,-4.498,-8.35,300.8,6,391.7,-7.654,-7.703,-80,-8.344,-7.615,-4.782,-4.844,-5.239,-5.288,5.227,8.127,28,-1.703,1.172,4.766,7.995,-7.516,-7.835,-1.826,1.654,282.0,297.1,300.6,279.6,291.5,310.7,277.3,310.1,282.0,295.2,1,norm,1.688,1.1,-1.523,-1.528,-5.152,-4.534,-1.227,-1.759,-1.958,-2.015,1.882,-1.419,295.3,301.3,-4.474,-8.251,286.0,-1.758,8.475,4.876,-4.345,-7.519,14,4.748,4.448,4.578,4.685,1.188,1.135,1.873,1.465,14,4.339,4.823,0,339.888275563,norm,0,49,49,49,2196.157,2196.162,2196.17332315,2196.174,2196.176,2196.179,up,1,1.27856571351,8.72143428649,001,307,1366_768,Intel(R) Core(TM) i5-4200U CPU @ 1.60GHz,orientation_search,GRVLAPTOP8,Intel(R) HD Graphics 4400,2018_nov_08_1319,testMonitor,
279.7,293.9,305.9,289.0,36,-80,291.6,286.0,308.6,280.1,8.214,7.917,7.78,8.272,7.614,8.058,8.178,5.024,-4.611,-8.206,1.276,-2.004,7.638,5.199,-4.532,-7.511,310.7,300.9,-8.467,292.7,276.7,295.4,309.2,286.7,36,270.7,1,5,prime,10,0,103,norm,36,-4.938,down,norm,290.747675434,295.4,293.0,2.062,305.0,0,278.6,278.8,282.8,10,6,8.059,5.223,2.03,-1.69,-5.245,-7.785,296.8,6,393.7,-8.314,-7.846,-80,-8.411,-7.594,-4.809,-5.188,-4.842,-4.795,4.79,8.47,6,-1.229,1.115,4.335,8.082,-7.59,-7.664,-1.753,1.238,285.3,290.7,289.6,302.6,293.7,292.5,271.7,,276.0,304.5,2,norm,1.942,1.218,-2.016,-1.929,-4.339,-4.687,-1.739,-1.517,-1.221,-1.407,1.105,-1.196,297.7,280.2,-4.519,-7.999,295.7,-1.213,7.503,5.246,-5.019,-8.29,14,4.539,4.884,4.684,4.445,1.578,1.936,1.543,1.321,14,4.949,4.578,0,339.888275563,norm,0,50,50,50,2197.477,2197.487,2197.50384592,2197.504,2197.507,2197.511,down,1,1.72623136558,8.27376863442,001,307,1366_768,Intel(R) Core(TM) i5-4200U CPU @ 1.60GHz,orientation_search,GRVLAPTOP8,Intel(R) HD Graphics 4400,2018_nov_08_1319,testMonitor,
296.7,286.8,298.7,285.1,36,-80,270.7,285.0,284.6,284.8,7.641,7.864,7.575,8.423,7.862,7.569,8.424,4.303,-4.94,-7.564,1.974,-1.811,7.79,4.4,-5.083,-8.283,,280.5,-7.984,285.5,279.3,293.6,310.7,297.0,36,274.4,5,5,prime,10,0,87,norm,36,-4.726,up,norm,290.747675434,289.3,279.6,1.195,278.2,5,304.2,300.5,302.3,10,6,8.252,4.452,1.401,-1.11,-4.494,-8.087,285.7,6,377.7,-8.392,-8.461,-80,-8.319,-8.425,-5.142,-5.108,-4.858,-4.576,5.01,7.66,35,-1.519,1.94,4.548,8.02,-8.355,-7.841,-1.237,1.355,293.9,295.3,283.1,282.5,281.5,293.2,295.8,289.2,300.4,298.4,3,norm,1.235,1.979,-1.987,-2.099,-4.727,-4.985,-1.369,-1.722,-1.11,-1.387,1.388,-1.143,282.8,289.0,-4.325,-8.228,296.9,-2.096,8.202,4.972,-4.735,-8.413,14,5.263,4.805,4.912,4.996,1.371,1.409,1.266,1.46,14,5.059,4.506,0,339.888275563,norm,0,51,51,51,2199.257,2199.267,2199.28363634,2199.284,2199.287,2199.29,up,1,1.51005579338,8.48994420662,001,307,1366_768,Intel(R) Core(TM) i5-4200U CPU @ 1.60GHz,orientation_search,GRVLAPTOP8,Intel(R) HD Graphics 4400,2018_nov_08_1319,testMonitor,
284.6,287.7,301.2,306.3,36,-80,295.0,284.6,289.5,291.7,7.506,7.863,8.32,8.062,8.073,8.248,8.499,4.724,-4.44,-8.127,2.033,-1.704,8.35,5.234,-4.317,-7.603,286.9,,-8.288,288.3,286.1,300.6,295.9,297.5,36,285.8,5,5,prime,10,0,78,norm,36,-4.847,up,norm,290.747675434,310.7,301.0,1.531,289.9,4,303.3,272.3,273.4,10,6,8.055,4.561,1.721,-1.658,-4.682,-8.336,292.0,6,368.7,-7.872,-8.391,-80,-8.101,-7.959,-4.918,-4.873,-5.056,-4.323,5.026,8.041,34,-1.934,1.819,4.97,8.331,-7.891,-8.231,-1.399,1.671,301.4,298.9,283.9,286.5,300.2,280.7,270.7,304.2,279.9,298.8,4,norm,1.317,1.377,-1.273,-1.437,-4.77,-4.807,-1.902,-1.465,-1.128,-1.483,1.622,-1.494,289.1,292.2,-5.08,-7.893,295.7,-1.186,8.426,4.364,-5.216,-8.382,14,4.922,4.358,5.229,4.359,1.359,1.772,1.749,2.064,14,4.824,4.9,0,339.888275563,norm,0,52,52,52,2200.821,2200.834,2200.84003147,2200.841,2200.848,2200.855,down,0,2.34124814197,-10,001,307,1366_768,Intel(R) Core(TM) i5-4200U CPU @ 1.60GHz,orientation_search,GRVLAPTOP8,Intel(R) HD Graphics 4400,2018_nov_08_1319,testMonitor,
281.9,295.5,291.8,278.7,36,-80,295.0,293.4,295.6,291.6,7.973,8.023,7.741,7.825,8.169,7.742,8.247,4.508,-4.416,-8.09,1.667,-1.152,8.343,5.131,-5.176,-8.496,292.0,296.6,-8.026,270.7,289.1,306.9,281.9,280.2,36,296.3,1,5,prime,10,0,92,norm,36,-4.467,down,norm,290.747675434,277.0,295.0,1.36,310.7,1,290.5,286.5,299.1,10,6,8.163,4.335,1.933,-1.475,-4.999,-8.357,277.9,6,382.7,-7.628,-8.052,-80,-8.383,-7.729,-5.097,-4.516,-4.534,-4.304,4.567,8.239,7,-1.925,1.784,4.957,7.504,-8.293,-8.207,-1.226,1.592,272.1,305.1,274.7,295.2,293.4,283.0,,295.5,304.3,302.7,5,norm,1.643,1.148,-1.809,-1.56,-4.337,-5.11,-1.619,-1.488,-1.569,-1.488,1.82,-1.58,305.8,281.9,-4.542,-7.881,289.0,-2.096,7.744,4.897,-4.875,-7.782,14,5.041,4.921,4.404,4.681,1.488,2.013,1.74,1.304,14,4.483,4.418,0,339.888275563,norm,0,53,53,53,2204.238,2204.243,2204.25671468,2204.257,2204.26,2204.263,up,0,0.513253102372,-10,001,307,1366_768,Intel(R) Core(TM) i5-4200U CPU @ 1.60GHz,orientation_search,GRVLAPTOP8,Intel(R) HD Graphics 4400,2018_nov_08_1319,testMonitor,
278.0,264.4,268.0,263.6,36,10,272.3,265.3,271.4,270.5,7.91,8.378,7.632,8.275,8.468,8.115,8.198,4.681,-5.221,-7.518,1.274,-1.35,8.09,4.496,-5.241,-8.134,272.7,269.1,-8.391,268.5,267.4,278.9,271.1,270.3,36,280.8,2,5,probe,5,0,63,norm,36,-5.268,up,norm,271.923076751,270.0,,2.05,266.8,4,271.6,265.9,266.2,10,6,8.15,4.911,1.809,-1.57,-5.056,-8.084,268.3,1,208.9,-7.587,-7.747,-80,-7.989,-8.398,-4.551,-4.895,-5.23,-4.527,5.258,7.823,16,-1.679,1.56,4.392,8.335,-8.322,-7.632,-1.108,1.819,279.0,277.2,264.9,269.3,273.6,281.9,272.8,271.6,268.4,274.4,0,norm,1.143,1.238,-1.862,-1.176,-4.762,-4.558,-1.453,-1.385,-1.616,-1.506,1.733,-1.713,270.1,261.9,-5.185,-8.04,269.1,-1.136,7.768,4.697,-4.54,-8.179,15,5.106,4.43,4.479,4.797,1.771,1.814,1.378,1.399,15,4.308,4.914,-80,290.747675434,norm,0,54,54,54,2205.814,2205.819,2205.83685513,2205.837,2205.84,2205.843,up,1,1.07905497096,8.92094502904,001,307,1366_768,Intel(R) Core(TM) i5-4200U CPU @ 1.60GHz,orientation_search,GRVLAPTOP8,Intel(R) HD Graphics 4400,2018_nov_08_1319,testMonitor,
14.5,27.5,-5.9,1.3,36,-60,14.4,5.7,11.4,-7.0,7.728,8.083,8.441,7.656,8.157,7.798,8.149,4.707,-5.255,-7.535,1.924,-1.644,8.234,4.444,-5.274,-7.776,-0.9,-2.4,-7.769,17.2,-4.3,6.7,5.5,16.8,36,8.5,2,5,prime,10,0,95,norm,36,-4.635,up,norm,7.54720101447,9.7,,1.628,6.4,4,19.1,9.2,20.3,10,5,8.025,4.843,1.299,-1.373,-4.332,-8.438,6.6,5,102.5,-7.525,-7.988,-60,-8.385,-7.813,-4.447,-5.245,-5.083,-4.864,5.298,8.099,16,-1.17,1.731,5.274,7.623,-8.444,-8.379,-1.923,1.288,18.1,22.3,17.3,2.2,-3.2,-5.8,12.4,0.5,9.9,-0.0,0,norm,1.891,1.875,-1.916,-1.119,-4.893,-4.599,-1.543,-1.337,-1.588,-1.514,2.048,-1.89,7.5,4.1,-5.031,-8.092,25.6,-1.275,7.663,5.152,-4.577,-8.491,16,4.522,4.825,4.992,4.67,1.293,1.108,1.17,2.047,16,5.067,5.177,10,290.747675434,norm,0,55,55,55,2206.941,2206.949,2206.96849412,2206.969,2206.973,2206.978,up,1,4.23472576549,5.76527423451,001,307,1366_768,Intel(R) Core(TM) i5-4200U CPU @ 1.60GHz,orientation_search,GRVLAPTOP8,Intel(R) HD Graphics 4400,2018_nov_08_1319,testMonitor,
21.9,9.0,9.5,-12.5,36,-60,6.7,6.2,18.1,-3.0,8.275,8.026,8.289,8.314,8.012,7.67,7.694,5.134,-4.709,-8.102,2.062,-1.68,8.234,4.319,-5.254,-8.476,27.5,-1.0,-8.485,10.7,14.9,5.5,8.2,-3.3,36,,4,5,prime,10,0,102,norm,36,-4.871,up,norm,7.54720101447,15.5,14.6,2.088,4.2,3,5.8,3.5,8.3,10,5,8.353,4.528,1.947,-2.005,-4.8,-8.163,-1.9,5,109.5,-7.959,-7.633,-60,-7.882,-7.939,-4.302,-4.975,-4.519,-5.111,5.142,7.963,27,-1.975,2.034,4.521,8.278,-8.381,-8.258,-1.605,1.566,0.8,6.6,0.7,4.9,20.1,18.4,10.6,25.1,5.3,10.0,1,norm,1.199,1.747,-1.814,-1.138,-4.858,-4.364,-1.158,-1.642,-1.774,-1.379,1.268,-1.748,4.0,12.9,-4.728,-8.176,17.1,-1.464,7.502,4.339,-4.596,-7.621,16,4.916,5.274,4.422,4.752,2.028,1.384,1.307,1.724,16,4.406,4.783,10,290.747675434,norm,0,56,56,56,2211.233,2211.247,2211.25326927,2211.254,2211.26,2211.263,down,0,2.82729355045,-10,001,307,1366_768,Intel(R) Core(TM) i5-4200U CPU @ 1.60GHz,orientation_search,GRVLAPTOP8,Intel(R) HD Graphics 4400,2018_nov_08_1319,testMonitor,
-4.0,15.0,-2.7,-8.7,36,-60,2.3,8.9,22.8,7.1,8.489,7.768,8.213,7.92,7.953,7.764,7.761,4.97,-4.792,-8.382,1.376,-1.18,7.783,5.279,-4.554,-7.582,19.1,0.6,-8.011,14.3,0.1,8.8,21.4,,36,4.8,4,5,prime,10,0,113,norm,36,-4.891,down,norm,7.54720101447,7.0,8.7,1.58,4.4,2,17.9,15.4,27.5,10,5,7.582,4.919,1.216,-1.106,-4.337,-7.946,-4.7,5,120.5,-8.352,-7.957,-60,-8.054,-7.784,-4.813,-4.635,-5.188,-5.018,4.507,8.049,26,-1.311,1.294,5.171,7.678,-8.393,-8.09,-1.623,1.95,8.7,10.9,12.5,-2.1,6.9,-5.4,2.9,0.6,-12.5,-3.9,2,norm,1.304,1.768,-1.525,-1.174,-4.549,-4.45,-1.114,-1.89,-1.121,-1.904,1.631,-1.577,13.7,5.6,-5.224,-7.549,-0.1,-1.175,8.033,5.049,-4.828,-7.505,16,5.089,4.397,4.973,4.393,1.292,1.299,1.86,2.061,16,4.39,5.151,10,290.747675434,norm,0,57,57,57,2215.127,2215.131,2215.13546282,2215.136,2215.138,2215.14,up,0,3.00898994934,-10,001,307,1366_768,Intel(R) Core(TM) i5-4200U CPU @ 1.60GHz,orientation_search,GRVLAPTOP8,Intel(R) HD Graphics 4400,2018_nov_08_1319,testMonitor,
,18.3,2.9,-1.2,36,-60,-2.0,11.9,-1.5,1.3,7.928,8.336,8.15,7.587,8.431,8.321,8.036,5.265,-5.086,-8.421,1.661,-1.985,8.333,4.494,-4.441,-8.477,5.4,2.2,-8.362,9.6,1.0,1.6,-4.1,4.0,36,13.5,3,5,prime,10,0,79,norm,36,-4.996,up,norm,7.54720101447,-2.6,-12.5,1.712,17.5,4,2.0,-0.9,6.9,10,5,7.619,4.51,1.972,-1.168,-5.204,-7.764,10.3,5,86.5,-7.742,-8.481,-60,-8.293,-7.666,-4.815,-4.712,-4.971,-4.868,4.389,7.845,22,-1.915,2.061,4.913,8.447,-8.394,-7.894,-1.888,2.024,16.4,0.2,27.3,22.8,-8.5,18.2,20.3,2.5,19.6,23.1,3,norm,1.691,1.393,-1.406,-1.244,-5.197,-5.049,-2.002,-1.974,-1.161,-2.025,1.155,-1.238,5.0,11.8,-5.244,-7.906,12.9,-1.957,7.854,4.452,-4.967,-8.186,16,4.431,4.346,4.58,5.244,1.869,1.555,1.234,2.052,16,4.736,4.796,10,290.747675434,norm,0,58,58,58,2219.183,2219.187,2219.19402244,2219.194,2219.196,2219.199,up,1,1.59510287392,8.40489712608,001,307,1366_768,Intel(R) Core(TM) i5-4200U CPU @ 1.60GHz,orientation_search,GRVLAPTOP8,Intel(R) HD Graphics 4400,2018_nov_08_1319,testMonitor,
3.2,17.1,21.2,,36,-60,8.2,0.6,-5.3,5.1,8.197,8.376,7.734,8.336,8.173,7.716,7.589,5.286,-4.97,-8.26,1.918,-1.992,8.226,4.665,-4.689,-7.864,-12.5,2.0,-7.624,8.0,-5.0,-0.9,27.5,14.1,36,7.8,3,5,prime,10,0,84,norm,36,-4.882,up,norm,7.54720101447,-2.3,7.0,1.614,17.2,3,20.0,18.6,4.3,10,5,8.237,5.282,1.919,-1.521,-4.801,-7.938,-6.7,5,91.5,-8.103,-7.545,-60,-8.45,-8.176,-4.56,-4.914,-4.602,-5.263,4.366,8.051,21,-1.332,1.627,4.687,8.255,-8.095,-7.79,-1.38,1.326,24.3,12.1,8.1,6.2,-9.1,16.4,-2.2,1.4,1.9,4.0,4,norm,1.938,1.801,-1.716,-1.922,-4.748,-4.442,-1.608,-1.237,-1.251,-1.512,1.488,-1.66,-2.0,13.9,-4.949,-7.655,11.8,-1.439,8.065,5.295,-4.726,-7.506,16,5.029,4.951,4.475,5.093,1.865,1.942,1.932,2.068,16,5.113,4.875,10,290.747675434,norm,0,59,59,59,2220.814,2220.824,2220.8403898,2220.841,2220.844,2220.848,up,1,1.89260968689,8.10739031311,001,307,1366_768,Intel(R) Core(TM) i5-4200U CPU @ 1.60GHz,orientation_search,GRVLAPTOP8,Intel(R) HD Graphics 4400,2018_nov_08_1319,testMonitor,
39.4,37.8,34.0,34.9,36,-80,33.1,33.2,29.0,42.6,7.647,7.674,8.495,8.108,7.739,8.352,8.12,5.287,-5.178,-8.265,1.983,-1.501,7.573,4.894,-5.229,-7.815,33.1,34.0,-7.852,40.8,27.3,35.1,34.2,41.1,36,35.2,1,5,probe,5,0,91,norm,36,-4.69,up,norm,37.250784376,37.7,39.5,1.792,34.3,5,,46.2,33.7,10,5,8.38,4.398,2.065,-1.466,-5.203,-7.646,31.7,2,-53.7,-8.339,-7.918,-60,-8.454,-8.021,-4.386,-4.939,-4.957,-4.969,5.205,8.489,11,-1.378,1.656,4.33,8.44,-7.9,-7.576,-1.73,1.488,36.4,33.9,41.0,36.5,28.6,39.8,37.1,32.2,47.3,32.6,0,norm,1.941,1.136,-1.583,-1.488,-4.6,-4.61,-1.362,-1.342,-1.248,-1.2,1.134,-1.474,41.4,37.3,-5.282,-8.352,31.6,-1.904,7.596,4.865,-5.131,-7.598,17,4.576,5.019,5.105,5.032,1.889,1.358,1.272,1.42,17,4.48,4.85,-60,7.54720101447,norm,0,60,60,60,2222.759,2222.769,2222.7866884,2222.787,2222.789,2222.792,up,1,1.09602993734,8.90397006266,001,307,1366_768,Intel(R) Core(TM) i5-4200U CPU @ 1.60GHz,orientation_search,GRVLAPTOP8,Intel(R) HD Graphics 4400,2018_nov_08_1319,testMonitor,
59.4,52.5,44.7,54.5,36,-80,46.3,59.7,56.6,53.1,8.126,8.322,7.953,7.617,7.522,7.845,7.646,4.477,-4.474,-8.13,1.241,-1.998,8.163,4.919,-4.966,-7.741,50.7,61.3,-8.485,42.8,48.5,43.0,56.0,52.1,36,53.8,2,5,probe,5,0,105,norm,36,-5.051,down,norm,51.250784376,49.1,48.4,1.274,47.5,1,50.8,,50.1,10,5,7.507,4.386,1.736,-1.918,-4.434,-8.258,56.3,2,-53.7,-7.689,-8.462,-60,-8.025,-7.864,-4.73,-4.643,-5.029,-5.071,4.333,7.867,13,-1.177,1.544,5.141,8.354,-7.555,-7.64,-1.854,2.077,47.7,50.5,43.8,48.3,41.3,45.2,52.0,57.9,57.0,51.2,1,norm,1.135,1.282,-1.384,-1.325,-4.463,-4.737,-1.475,-1.687,-1.277,-1.467,1.772,-1.917,47.1,54.3,-4.355,-8.09,48.9,-1.287,8.036,4.688,-4.835,-8.117,17,5.183,4.338,5.051,4.814,1.971,1.994,1.56,1.524,17,4.775,5.297,-60,7.54720101447,norm,0,61,61,61,2223.907,2223.919,2223.9239036,2223.924,2223.928,2223.931,down,1,1.33734577391,8.66265422609,001,307,1366_768,Intel(R) Core(TM) i5-4200U CPU @ 1.60GHz,orientation_search,GRVLAPTOP8,Intel(R) HD Graphics 4400,2018_nov_08_1319,testMonitor,
74.2,72.3,75.6,83.0,36,-20,77.2,101.1,76.9,65.1,7.928,7.882,8.413,7.657,8.498,7.947,7.667,5.148,-5.238,-7.53,1.342,-2.077,7.798,4.3,-5.049,-7.707,82.9,86.2,-8.231,81.9,86.1,90.5,74.8,92.0,36,81.8,1,5,prime,10,0,114,norm,36,-4.634,up,norm,81.1082978978,91.0,65.6,1.368,97.6,5,,67.7,68.0,10,6,7.93,4.382,1.251,-1.857,-4.495,-8.433,78.6,6,195.1,-8.138,-8.011,-20,-7.778,-7.583,-4.839,-4.83,-5.117,-4.947,5.005,8.412,11,-1.135,1.684,4.922,8.205,-7.673,-7.535,-1.897,1.362,76.6,68.6,78.9,76.3,66.8,85.3,97.1,69.9,62.1,70.5,0,norm,1.223,1.394,-1.591,-1.839,-4.713,-5.093,-1.649,-1.767,-1.671,-1.834,1.939,-2.09,99.7,92.8,-5.143,-8.414,61.1,-1.524,7.798,4.661,-4.89,-8.393,18,4.587,4.464,4.853,4.329,1.204,1.757,1.452,2.074,18,4.821,4.471,-80,7.54720101447,norm,0,62,62,62,2225.289,2232.947,2232.96617546,2232.966,2232.969,2232.971,up,1,2.85938534021,7.14061465979,001,307,1366_768,Intel(R) Core(TM) i5-4200U CPU @ 1.60GHz,orientation_search,GRVLAPTOP8,Intel(R) HD Graphics 4400,2018_nov_08_1319,testMonitor,
91.2,87.9,84.0,96.0,36,-20,,77.1,69.0,93.0,7.743,7.773,8.168,8.099,7.523,7.824,7.872,5.239,-5.217,-8.398,1.69,-1.866,8.33,5.26,-4.94,-7.699,75.6,70.4,-7.804,87.7,70.5,90.1,74.2,101.1,36,92.3,4,5,prime,10,0,87,norm,36,-4.892,down,norm,81.1082978978,81.4,72.6,1.997,72.7,0,74.3,83.4,81.6,10,6,8.261,4.353,1.329,-1.314,-4.375,-7.764,87.8,6,168.1,-8.098,-7.766,-20,-8.147,-7.797,-4.481,-4.797,-4.647,-4.959,4.894,8.244,24,-1.986,1.783,4.76,8.138,-8.09,-8.083,-1.129,1.602,61.1,80.4,78.8,86.9,94.7,86.1,78.6,71.5,70.5,86.7,1,norm,1.347,1.529,-1.844,-1.986,-4.775,-4.992,-1.751,-1.179,-1.592,-2.024,1.275,-1.581,75.6,76.5,-4.682,-8.477,88.8,-1.165,7.948,4.508,-4.405,-7.751,18,4.817,4.541,4.681,4.863,1.793,1.913,1.546,1.505,18,5.265,4.741,-80,7.54720101447,norm,0,63,63,63,2235.857,2235.864,2235.87723449,2235.878,2235.88,2235.883,down,1,0.912059499846,9.08794050015,001,307,1366_768,Intel(R) Core(TM) i5-4200U CPU @ 1.60GHz,orientation_search,GRVLAPTOP8,Intel(R) HD Graphics 4400,2018_nov_08_1319,testMonitor,
82.3,76.9,88.9,,36,-20,78.0,74.4,71.7,84.8,7.695,7.765,7.86,7.695,8.358,7.835,7.621,4.547,-5.007,-8.349,1.398,-1.365,7.973,5.045,-4.631,-7.663,77.5,88.9,-8.108,89.3,67.0,101.1,74.5,94.1,36,87.5,3,5,prime,10,0,114,norm,36,-4.735,up,norm,81.1082978978,64.5,77.0,1.557,72.1,3,81.6,81.4,62.9,10,6,8.097,4.801,1.902,-1.684,-5.142,-7.611,70.8,6,195.1,-8.35,-7.705,-20,-7.68,-8.028,-4.855,-5.268,-4.918,-4.408,4.52,7.677,21,-1.826,1.143,5.07,7.781,-7.804,-8.124,-1.814,1.58,77.6,76.9,100.8,77.6,83.4,99.1,72.0,82.2,72.1,82.4,2,norm,1.146,1.312,-1.462,-1.395,-4.588,-4.973,-1.319,-1.317,-1.629,-1.308,1.141,-1.266,66.0,91.2,-5.228,-7.573,61.1,-1.746,7.932,5.223,-4.401,-7.896,18,4.745,4.512,4.322,4.926,1.91,1.868,2.047,1.922,18,5.038,4.463,-80,7.54720101447,norm,0,64,64,64,2236.814,2236.819,2236.8257268,2236.826,2236.829,2236.833,up,1,1.45919916892,8.54080083108,001,307,1366_768,Intel(R) Core(TM) i5-4200U CPU @ 1.60GHz,orientation_search,GRVLAPTOP8,Intel(R) HD Graphics 4400,2018_nov_08_1319,testMonitor,
61.1,81.0,81.6,82.8,36,-20,67.5,93.7,94.3,81.7,8.337,7.702,8.234,7.916,7.978,7.676,7.971,5.239,-5.16,-8.109,1.124,-1.752,7.909,4.426,-4.549,-8.341,93.6,82.0,-8.397,68.5,68.4,87.1,82.4,81.9,36,88.3,2,5,prime,10,0,116,norm,36,-4.507,up,norm,81.1082978978,69.8,,1.307,88.0,4,75.4,88.4,63.3,10,6,8.146,4.584,1.264,-1.824,-4.939,-7.793,86.1,6,197.1,-8.414,-8.424,-20,-8.44,-8.113,-5.022,-4.599,-4.89,-5.105,5.162,7.938,16,-1.346,2.023,4.758,7.908,-7.783,-7.674,-2.028,1.16,68.0,89.8,78.8,63.7,67.8,94.7,101.1,65.3,82.6,77.6,3,norm,1.113,1.89,-1.91,-2.039,-4.614,-4.488,-1.224,-1.975,-1.273,-1.928,1.742,-1.15,86.6,87.4,-4.661,-8.295,84.2,-1.124,8.05,4.752,-4.793,-8.138,18,4.359,4.702,4.873,4.832,1.893,1.187,1.757,1.789,18,4.445,4.641,-80,7.54720101447,norm,0,65,65,65,2238.309,2238.32,2238.3253022,2238.326,2238.328,2238.331,up,1,1.82466921351,8.17533078649,001,307,1366_768,Intel(R) Core(TM) i5-4200U CPU @ 1.60GHz,orientation_search,GRVLAPTOP8,Intel(R) HD Graphics 4400,2018_nov_08_1319,testMonitor,
98.9,61.3,90.3,71.1,36,-20,101.1,90.9,93.7,96.4,8.214,7.703,7.825,8.133,7.777,7.619,7.513,4.566,-4.494,-8.421,1.167,-1.133,7.971,4.827,-4.626,-8.26,70.9,79.4,-8.416,94.8,71.2,61.1,74.9,67.3,36,76.9,2,5,prime,10,0,104,norm,36,-4.553,down,norm,81.1082978978,81.7,85.3,1.731,,2,70.5,91.6,80.0,10,6,7.831,4.625,1.281,-1.832,-5.18,-8.462,80.4,6,185.1,-7.777,-8.129,-20,-8.12,-7.88,-4.556,-4.477,-5.079,-4.634,4.708,7.784,14,-1.468,1.411,4.431,8.02,-7.971,-8.263,-2.077,1.286,68.9,88.7,72.4,90.2,73.3,71.9,74.7,72.6,98.8,83.4,4,norm,1.293,1.646,-1.199,-1.758,-4.527,-5.009,-1.209,-2.033,-1.456,-1.5,1.727,-1.847,96.7,68.3,-4.604,-8.31,93.5,-1.701,8.438,5.066,-4.472,-8.478,18,5.171,4.34,5.123,4.504,1.902,1.441,1.576,1.535,18,4.687,5.28,-80,7.54720101447,norm,0,66,66,66,2240.177,2240.187,2240.20210563,2240.202,2240.206,2240.211,down,1,2.65550412393,7.34449587607,001,307,1366_768,Intel(R) Core(TM) i5-4200U CPU @ 1.60GHz,orientation_search,GRVLAPTOP8,Intel(R) HD Graphics 4400,2018_nov_08_1319,testMonitor,
101.1,86.0,78.7,75.3,36,-20,,77.6,68.9,73.4,8.494,7.638,8.417,7.805,7.87,7.842,7.532,5.027,-5.06,-7.787,1.857,-1.127,8.405,4.516,-4.586,-8.47,71.0,78.9,-8.042,74.0,78.7,72.2,74.5,77.4,36,64.8,4,5,prime,10,0,71,norm,36,-5.026,down,norm,81.1082978978,72.8,81.6,1.54,71.9,0,66.2,75.1,63.1,10,6,7.739,5.287,1.806,-1.112,-5.014,-8.136,85.3,6,152.1,-8.172,-8.254,-20,-8.313,-8.458,-4.812,-4.931,-4.521,-4.982,4.558,8.134,24,-1.399,1.377,5.06,8.41,-8.455,-8.186,-2.064,1.948,86.8,84.2,61.1,77.3,79.7,81.2,80.0,75.0,72.7,74.5,5,norm,1.702,1.149,-1.852,-1.172,-4.715,-4.824,-1.944,-1.997,-1.472,-1.512,1.393,-1.62,66.2,75.4,-4.355,-8.358,83.2,-1.272,8.309,5.053,-5.089,-7.941,18,4.46,5.062,5.093,4.424,1.522,1.136,1.435,1.462,18,5.09,4.968,-80,7.54720101447,norm,0,67,67,67,2242.887,2242.901,2242.90718611,2242.908,2242.913,2242.916,up,0,1.6967331222,-10,001,307,1366_768,Intel(R) Core(TM) i5-4200U CPU @ 1.60GHz,orientation_search,GRVLAPTOP8,Intel(R) HD Graphics 4400,2018_nov_08_1319,testMonitor,
135.6,147.5,127.5,138.6,36,-60,,137.5,145.2,141.3,8.079,7.854,8.183,8.2,7.599,8.195,7.554,5.002,-4.664,-7.834,2.018,-1.564,8.449,4.928,-5.07,-8.181,132.8,133.7,-7.814,142.4,134.1,132.6,136.3,139.4,36,145.5,4,5,probe,5,0,73,norm,36,-5.18,down,norm,137.495600858,136.4,135.1,1.181,145.9,0,146.8,135.0,141.5,10,6,7.883,4.883,1.68,-1.368,-4.879,-7.687,140.1,1,64.5,-7.898,-8.23,-20,-7.868,-7.838,-4.909,-4.457,-4.949,-5.01,4.772,7.637,24,-1.593,2.083,5.172,7.854,-7.575,-8.399,-1.18,1.88,138.7,135.3,133.1,131.1,137.1,141.2,140.7,129.1,142.0,143.8,0,norm,1.685,1.335,-1.449,-2.055,-4.736,-4.305,-1.943,-1.802,-1.944,-1.341,1.349,-1.748,131.7,141.3,-5.159,-7.556,142.4,-1.176,8.129,5.011,-4.474,-7.501,19,4.542,4.769,4.37,5.119,1.557,1.262,1.451,1.892,19,5.021,5.229,-20,81.1082978978,norm,0,68,68,68,2245.655,2245.66,2245.67404004,2245.674,2245.677,2245.679,down,1,1.09611338421,8.90388661579,001,307,1366_768,Intel(R) Core(TM) i5-4200U CPU @ 1.60GHz,orientation_search,GRVLAPTOP8,Intel(R) HD Graphics 4400,2018_nov_08_1319,testMonitor,
287.8,285.9,290.5,291.8,36,-20,273.3,277.8,281.3,276.2,7.797,7.629,8.422,7.938,8.124,8.026,7.795,4.939,-4.92,-8.251,1.722,-2.098,8.495,4.787,-5.257,-7.729,279.2,276.2,-8.301,300.9,286.7,278.6,281.6,280.2,36,272.9,0,5,prime,10,0,91,norm,36,-4.322,up,norm,280.900301675,275.4,273.6,1.761,283.1,3,293.0,267.5,281.5,10,5,7.828,4.539,1.234,-1.399,-5.002,-7.708,283.4,5,371.9,-7.679,-8.075,-20,-7.878,-8.084,-4.881,-5.12,-4.409,-4.579,4.485,7.717,3,-1.573,2.018,5.023,8.371,-8.282,-7.511,-1.477,1.155,296.2,286.7,,260.9,290.8,291.4,268.2,287.7,289.3,292.4,0,norm,1.638,1.796,-2.041,-1.235,-5.295,-4.798,-1.87,-1.396,-1.209,-1.424,2.067,-2.003,297.5,295.2,-4.813,-8.238,276.6,-1.463,7.579,4.902,-4.882,-7.756,20,4.82,4.889,4.671,4.556,1.25,1.562,1.938,1.39,20,4.381,5.071,-60,81.1082978978,norm,0,69,69,69,2246.796,2246.81,2246.81319772,2246.813,2246.816,2246.82,down,0,1.91857906501,-10,001,307,1366_768,Intel(R) Core(TM) i5-4200U CPU @ 1.60GHz,orientation_search,GRVLAPTOP8,Intel(R) HD Graphics 4400,2018_nov_08_1319,testMonitor,
283.3,267.7,295.5,289.2,36,-20,300.9,268.8,279.9,272.0,8.078,8.101,8.379,7.869,7.514,8.463,8.405,5.192,-4.343,-7.635,2.089,-1.792,7.727,4.622,-5.107,-7.873,282.9,284.6,-8.272,282.3,295.2,284.6,299.5,,36,289.2,4,5,prime,10,0,116,norm,36,-4.368,down,norm,280.900301675,287.2,275.5,1.158,275.8,2,271.0,290.2,264.7,10,5,7.608,5.223,1.25,-1.644,-5.092,-7.902,260.9,5,396.9,-8.3,-8.411,-20,-8.211,-8.382,-4.938,-4.48,-5.085,-4.665,5.218,8.236,26,-1.675,1.486,4.7,8.254,-7.816,-7.677,-1.736,1.821,289.1,298.6,286.3,284.2,290.2,276.9,296.7,264.4,286.7,292.1,1,norm,2.092,2.054,-1.763,-2.059,-4.978,-5.148,-1.435,-1.306,-1.982,-1.333,1.33,-1.771,296.2,281.2,-4.356,-7.804,288.7,-1.918,8.185,4.973,-4.487,-7.994,20,4.915,4.856,5.089,5.209,1.582,1.711,1.687,1.163,20,4.534,4.554,-60,81.1082978978,norm,0,70,70,70,2249.774,2249.778,2249.78292392,2249.783,2249.786,2249.789,down,1,1.54416458756,8.45583541244,001,307,1366_768,Intel(R) Core(TM) i5-4200U CPU @ 1.60GHz,orientation_search,GRVLAPTOP8,Intel(R) HD Graphics 4400,2018_nov_08_1319,testMonitor,
285.9,260.9,274.8,270.3,36,-20,289.3,282.2,289.7,286.8,7.602,8.48,8.165,8.062,7.746,7.705,8.014,4.974,-4.754,-8.027,1.791,-1.887,8.112,5.043,-4.958,-8.427,,282.4,-8.116,265.9,272.8,266.2,284.8,281.3,36,281.6,5,5,prime,10,0,80,norm,36,-4.788,up,norm,280.900301675,300.9,278.9,1.285,265.5,5,283.7,284.2,296.3,10,5,8.446,5.099,1.625,-1.731,-4.905,-7.826,281.4,5,360.9,-8.288,-7.891,-20,-7.825,-7.518,-5.234,-4.923,-5.022,-5.121,4.644,7.686,35,-1.688,1.696,4.961,7.966,-7.612,-7.702,-1.468,1.78,281.4,275.7,290.0,300.6,275.9,271.2,287.2,284.0,279.9,278.9,2,norm,1.618,1.347,-1.29,-1.961,-4.652,-4.31,-1.351,-2.004,-1.554,-2.066,1.584,-1.682,273.0,272.2,-4.748,-8.033,282.5,-1.792,8.482,4.801,-4.568,-8.158,20,4.669,4.398,4.424,4.924,1.946,1.725,1.664,1.412,20,4.838,4.376,-60,81.1082978978,norm,0,71,71,71,2251.353,2251.366,2251.36889717,2251.369,2251.372,2251.375,up,1,2.12045220168,7.87954779832,001,307,1366_768,Intel(R) Core(TM) i5-4200U CPU @ 1.60GHz,orientation_search,GRVLAPTOP8,Intel(R) HD Graphics 4400,2018_nov_08_1319,testMonitor,
276.5,260.9,282.5,290.8,36,-20,288.7,278.5,294.1,276.2,8.41,8.356,7.61,7.661,7.896,7.908,7.896,4.311,-4.955,-8.321,1.898,-1.526,8.309,4.674,-4.37,-8.49,300.9,296.6,-7.851,275.9,296.2,271.9,261.2,293.0,36,285.7,1,5,prime,10,0,114,norm,36,-4.621,down,norm,280.900301675,298.5,274.2,1.195,271.6,1,292.4,276.0,292.5,10,5,7.579,4.628,1.257,-1.31,-5.003,-7.686,273.8,5,394.9,-7.687,-7.754,-20,-7.747,-8.295,-4.911,-4.999,-4.513,-4.9,4.513,8.289,7,-1.783,1.129,4.665,8.124,-8.045,-8.01,-1.634,1.972,284.4,297.6,284.8,270.0,275.7,291.1,,277.8,278.1,296.0,3,norm,1.697,1.357,-2.067,-1.612,-4.641,-4.611,-1.58,-1.569,-1.997,-1.891,1.181,-1.657,267.7,261.3,-5.175,-8.145,292.1,-1.829,7.939,4.624,-4.945,-8.345,20,5.254,4.887,4.497,4.52,2.047,1.145,1.227,1.861,20,4.514,4.597,-60,81.1082978978,norm,0,72,72,72,2253.515,2253.53,2253.53536429,2253.536,2253.539,2253.542,down,1,1.5165682187,8.4834317813,001,307,1366_768,Intel(R) Core(TM) i5-4200U CPU @ 1.60GHz,orientation_search,GRVLAPTOP8,Intel(R) HD Graphics 4400,2018_nov_08_1319,testMonitor,
284.1,275.8,273.8,287.4,36,-20,260.9,297.2,295.6,276.1,7.765,7.786,7.839,7.75,8.246,7.565,7.825,5.197,-4.668,-8.466,1.844,-1.576,8.081,4.78,-4.355,-7.622,292.3,274.6,-8.453,275.6,300.6,292.9,274.8,273.8,36,270.3,2,5,prime,10,0,99,norm,36,-4.528,up,norm,280.900301675,262.6,274.8,1.284,263.9,3,281.6,272.3,275.9,10,5,7.979,5.064,1.515,-2.034,-4.806,-8.419,275.3,5,379.9,-7.976,-7.614,-20,-7.681,-8.187,-4.934,-4.494,-4.895,-4.477,4.923,7.728,15,-1.46,2.057,4.72,8.198,-8.194,-7.932,-1.442,1.267,292.6,270.1,283.9,275.0,277.5,280.6,277.6,287.6,285.3,281.8,4,norm,1.44,1.914,-2.095,-1.648,-5.059,-5.074,-1.358,-1.457,-1.586,-1.584,1.855,-1.165,273.1,300.9,-5.007,-7.557,,-1.902,7.729,5.056,-4.822,-7.522,20,4.529,5.212,4.732,4.454,1.593,1.612,1.719,1.261,20,4.357,4.996,-60,81.1082978978,norm,0,73,73,73,2255.079,2255.092,2255.09628251,2255.097,2255.099,2255.102,up,1,1.03782463396,8.96217536604,001,307,1366_768,Intel(R) Core(TM) i5-4200U CPU @ 1.60GHz,orientation_search,GRVLAPTOP8,Intel(R) HD Graphics 4400,2018_nov_08_1319,testMonitor,
363.6,367.8,377.6,370.2,36,-40,370.3,373.5,368.6,370.9,8.277,7.506,8.047,7.877,8.407,7.961,8.398,4.456,-4.983,-7.9,1.802,-1.991,8.005,5.11,-4.435,-7.693,375.8,363.5,-8.464,369.6,369.5,368.9,359.2,365.7,36,359.5,3,5,probe,5,0,107,norm,36,-5.115,down,norm,367.604683016,357.6,368.2,2.021,375.2,1,362.6,369.8,371.3,10,5,8.487,4.689,1.532,-1.972,-5.165,-7.577,371.8,2,260.6,-7.91,-7.646,-20,-7.531,-7.772,-5.29,-5.227,-5.27,-4.649,4.327,8.163,19,-1.424,1.546,4.535,8.085,-7.537,-8.473,-1.778,2.039,371.9,366.0,368.2,372.4,372.0,369.0,367.8,362.5,364.6,368.6,0,norm,1.711,1.434,-1.866,-1.947,-4.325,-5.109,-1.32,-1.613,-1.102,-1.299,1.676,-1.784,,375.5,-5.255,-8.083,363.7,-1.645,7.74,4.466,-4.417,-8.199,21,4.758,4.635,4.739,4.9,1.632,1.24,1.255,1.94,21,5.171,4.314,-20,280.900301675,norm,0,74,74,74,2256.161,2256.175,2256.18017695,2256.181,2256.187,2256.195,down,1,1.02561193995,8.97438806005,001,307,1366_768,Intel(R) Core(TM) i5-4200U CPU @ 1.60GHz,orientation_search,GRVLAPTOP8,Intel(R) HD Graphics 4400,2018_nov_08_1319,testMonitor,
368.9,382.0,380.7,367.5,36,-40,374.3,370.2,370.7,368.8,7.721,8.494,8.124,7.716,8.105,7.507,8.21,5.25,-5.081,-7.714,1.303,-1.872,8.303,4.854,-5.226,-7.738,370.6,378.8,-7.985,370.7,367.2,373.3,369.0,370.0,36,376.2,1,5,probe,5,0,112,norm,36,-4.892,down,norm,372.604683016,368.5,369.9,2.017,367.9,2,371.7,380.2,376.8,10,5,8.286,4.327,1.918,-1.955,-4.846,-8.392,382.6,2,260.6,-8.269,-7.566,-20,-7.915,-8.089,-5.181,-5.231,-5.13,-4.701,4.527,7.978,8,-1.937,1.703,5.007,7.74,-7.95,-7.731,-1.658,1.104,374.3,,376.1,380.2,382.1,368.0,379.1,369.8,370.6,376.2,1,norm,1.26,1.665,-1.475,-1.865,-4.44,-4.736,-2.013,-1.78,-1.978,-2.071,1.173,-1.619,368.5,370.6,-4.414,-7.896,362.6,-1.747,7.513,4.479,-4.79,-8.466,21,5.253,4.368,4.825,4.603,1.251,1.354,1.637,1.336,21,4.385,5.235,-20,280.900301675,norm,0,75,75,75,2257.241,2257.252,2257.26779973,2257.268,2257.271,2257.275,up,0,1.06114870187,-10,001,307,1366_768,Intel(R) Core(TM) i5-4200U CPU @ 1.60GHz,orientation_search,GRVLAPTOP8,Intel(R) HD Graphics 4400,2018_nov_08_1319,testMonitor,
324.4,322.1,297.5,329.7,36,-30,321.0,317.5,315.9,327.0,8.314,7.739,7.781,7.617,8.332,7.825,8.297,4.635,-4.991,-7.855,1.883,-1.773,7.55,4.821,-5.289,-7.635,325.8,313.7,-8.032,307.3,325.1,320.4,317.9,311.7,36,299.1,1,5,prime,10,0,84,norm,36,-5.232,up,norm,317.466252647,318.2,304.9,1.336,304.0,5,,306.4,322.2,10,5,8.179,4.763,1.967,-1.38,-4.965,-8.203,313.7,5,401.5,-7.68,-8.113,-30,-7.89,-7.561,-5.003,-4.758,-4.544,-4.307,4.573,8.109,11,-1.867,1.341,5.119,8.076,-7.796,-7.589,-1.144,1.307,311.0,315.0,316.3,337.5,324.0,309.6,312.5,331.5,315.1,335.8,0,norm,1.57,1.457,-1.523,-1.214,-5.125,-5.103,-1.963,-1.149,-1.272,-1.199,1.918,-1.89,304.9,305.9,-4.878,-7.889,318.5,-1.869,8.456,5.135,-5.153,-7.931,22,4.662,4.96,4.406,5.03,1.484,1.373,1.291,1.232,22,5.211,4.864,-40,280.900301675,norm,0,76,76,76,2259.368,2259.372,2259.38048289,2259.381,2259.383,2259.386,up,1,1.24547970122,8.75452029878,001,307,1366_768,Intel(R) Core(TM) i5-4200U CPU @ 1.60GHz,orientation_search,GRVLAPTOP8,Intel(R) HD Graphics 4400,2018_nov_08_1319,testMonitor,
316.5,316.4,323.0,311.8,36,-30,311.1,302.2,330.8,312.5,7.584,8.027,8.087,8.456,8.368,8.067,8.318,5.061,-4.765,-8.087,2.082,-2.058,7.728,5.247,-5.023,-7.855,307.5,302.4,-8.085,324.6,316.9,331.4,315.8,314.9,36,323.4,2,5,prime,10,0,117,norm,36,-5.262,down,norm,317.466252647,329.4,325.9,1.696,,2,337.5,320.3,315.4,10,5,7.889,4.71,1.571,-1.68,-4.916,-7.704,315.5,5,434.5,-8.497,-8.491,-30,-7.996,-8.441,-4.425,-4.33,-4.385,-5.053,4.829,8.44,14,-1.76,1.635,4.569,7.829,-8.023,-8.496,-1.613,1.892,318.8,305.3,297.9,318.5,320.3,297.5,333.0,331.5,318.0,323.4,1,norm,1.923,1.864,-1.827,-1.466,-5.241,-4.669,-1.775,-1.467,-2.068,-2.026,1.867,-1.947,316.7,331.0,-5.114,-7.942,319.3,-1.374,7.888,4.637,-4.902,-8.245,22,4.398,4.73,4.891,4.835,2.095,1.464,2.022,1.511,22,4.91,4.555,-40,280.900301675,norm,0,77,77,77,2260.651,2260.664,2260.66697472,2260.667,2260.67,2260.674,down,1,0.772306529338,9.22769347066,001,307,1366_768,Intel(R) Core(TM) i5-4200U CPU @ 1.60GHz,orientation_search,GRVLAPTOP8,Intel(R) HD Graphics 4400,2018_nov_08_1319,testMonitor,
314.2,317.3,316.7,332.5,36,-30,314.1,318.2,319.9,298.6,7.956,7.747,8.345,8.275,8.449,8.327,8.239,4.551,-4.873,-8.225,1.979,-2.046,7.865,5.082,-5.117,-8.35,314.5,323.2,-7.978,314.1,319.9,321.4,319.5,299.0,36,323.7,1,5,prime,10,0,71,norm,36,-4.492,up,norm,317.466252647,297.5,300.8,1.559,337.5,3,307.1,315.5,310.4,10,5,7.747,5.247,1.412,-2.026,-4.405,-8.066,325.0,5,388.5,-7.798,-8.119,-30,-8.456,-7.719,-5.249,-4.951,-4.447,-4.903,4.856,8.12,9,-1.41,1.813,4.484,8.378,-7.961,-8.124,-1.697,1.818,,316.9,315.1,330.5,304.5,320.1,324.7,323.0,328.8,312.3,2,norm,1.414,1.751,-1.538,-1.757,-4.758,-4.814,-1.426,-1.91,-1.968,-1.289,1.365,-1.5,309.1,298.2,-5.003,-7.887,311.6,-1.901,8.424,4.304,-4.492,-8.138,22,4.732,5.124,4.309,5.218,1.647,1.257,1.392,2.091,22,4.96,4.524,-40,280.900301675,norm,0,78,78,78,2261.466,2261.477,2261.49277158,2261.493,2261.496,2261.499,up,1,0.862243953115,9.13775604688,001,307,1366_768,Intel(R) Core(TM) i5-4200U CPU @ 1.60GHz,orientation_search,GRVLAPTOP8,Intel(R) HD Graphics 4400,2018_nov_08_1319,testMonitor,
328.8,317.1,304.2,306.2,36,-30,326.4,320.7,314.0,312.1,7.86,8.376,7.986,8.096,7.595,7.866,8.153,4.863,-5.292,-8.242,1.242,-1.802,8.133,5.134,-4.733,-7.752,309.6,327.3,-7.871,329.2,329.9,321.5,298.8,303.9,36,316.9,1,5,prime,10,0,119,norm,36,-4.975,up,norm,317.466252647,315.3,337.5,1.734,312.7,5,,309.4,313.3,10,5,7.887,5.289,1.105,-2.061,-4.387,-8.379,335.3,5,436.5,-8.27,-7.842,-30,-8.435,-7.706,-4.441,-5.22,-5.218,-5.076,4.361,7.913,11,-1.312,1.382,5.169,8.39,-7.74,-8.434,-1.325,1.26,297.5,320.0,317.2,310.7,323.4,331.5,318.3,324.5,311.4,307.2,3,norm,1.943,1.57,-1.471,-1.548,-5.021,-5.114,-1.164,-1.189,-1.261,-2.066,1.803,-1.326,322.0,333.6,-4.645,-8.02,314.9,-1.921,8.434,4.379,-5.207,-8.096,22,4.939,4.73,5.138,4.938,1.936,2.033,1.474,1.981,22,5.004,4.924,-40,280.900301675,norm,0,79,79,79,2262.38,2262.388,2262.40779545,2262.408,2262.413,2262.42,up,1,1.05485091794,8.94514908206,001,307,1366_768,Intel(R) Core(TM) i5-4200U CPU @ 1.60GHz,orientation_search,GRVLAPTOP8,Intel(R) HD Graphics 4400,2018_nov_08_1319,testMonitor,
313.1,308.9,311.8,317.1,36,-30,327.8,307.7,314.5,318.0,8.347,7.925,8.139,7.61,8.285,7.884,8.133,5.024,-4.875,-7.566,1.166,-1.183,8.145,4.609,-4.422,-8.126,312.7,317.4,-8.125,320.6,301.8,310.9,337.5,320.7,36,315.3,0,5,prime,10,0,60,norm,36,-4.993,up,norm,317.466252647,310.7,301.5,1.627,313.6,5,305.3,307.1,304.2,10,5,8.307,4.616,1.908,-1.488,-4.399,-8.32,318.4,5,377.5,-7.715,-8.35,-30,-7.687,-8.119,-4.69,-4.869,-4.34,-5.1,4.466,8.246,5,-1.685,1.16,4.748,8.23,-7.621,-7.773,-1.584,1.92,329.8,321.4,316.9,337.0,303.8,297.5,301.4,307.9,,303.8,4,norm,1.426,1.139,-2.069,-1.789,-4.303,-4.705,-1.491,-1.24,-1.425,-1.653,1.6,-1.975,336.6,311.2,-5.192,-7.843,329.0,-1.744,8.275,5.101,-5.242,-8.14,22,4.444,4.844,4.855,4.815,1.508,1.88,1.129,2.039,22,4.553,4.799,-40,280.900301675,norm,0,80,80,80,2263.495,2263.508,2263.51331647,2263.514,2263.519,2263.523,up,1,1.06730859766,8.93269140234,001,307,1366_768,Intel(R) Core(TM) i5-4200U CPU @ 1.60GHz,orientation_search,GRVLAPTOP8,Intel(R) HD Graphics 4400,2018_nov_08_1319,testMonitor,
344.9,342.6,342.1,340.8,36,60,349.2,,344.2,346.6,8.303,7.883,8.435,8.187,8.318,8.203,8.327,4.909,-4.478,-7.583,1.16,-1.583,8.17,4.716,-4.484,-7.569,349.1,345.2,-8.263,349.9,347.9,343.6,339.9,341.0,36,353.2,4,5,probe,5,0,60,norm,36,-4.76,down,norm,346.138446104,343.6,338.2,1.284,349.9,1,342.5,347.6,347.8,10,5,7.729,5.095,1.316,-1.795,-4.443,-7.55,352.6,2,286.1,-7.923,-8.387,-30,-8.034,-7.673,-4.837,-5.189,-5.077,-4.458,4.72,7.98,25,-1.692,1.751,4.67,7.775,-7.608,-7.76,-1.263,1.898,348.2,354.4,346.1,351.0,348.4,352.4,346.7,356.1,344.5,355.4,0,norm,1.554,2.049,-2.055,-1.248,-4.765,-5.1,-1.899,-1.997,-1.18,-1.74,2.087,-1.688,346.8,355.8,-4.968,-8.357,348.9,-1.482,8.44,5.085,-4.603,-8.032,23,5.26,5.154,4.808,4.545,2.086,1.612,1.196,1.959,23,5.158,4.925,-30,317.466252647,norm,0,81,81,81,2264.61,2264.623,2264.62701349,2264.627,2264.631,2264.634,down,1,0.954104224686,9.04589577531,001,307,1366_768,Intel(R) Core(TM) i5-4200U CPU @ 1.60GHz,orientation_search,GRVLAPTOP8,Intel(R) HD Graphics 4400,2018_nov_08_1319,testMonitor,
372.5,379.1,366.7,371.8,36,60,378.6,368.5,373.4,364.7,7.978,8.268,8.489,7.538,8.083,7.832,7.985,4.743,-4.967,-7.507,1.767,-1.633,7.914,4.428,-4.882,-8.468,368.8,372.6,-8.279,363.9,374.4,370.7,378.4,365.9,36,365.6,2,5,probe,5,0,83,norm,36,-4.982,down,norm,369.138446104,367.1,372.8,1.363,,2,365.4,374.0,371.2,10,5,8.435,5.079,1.767,-1.711,-4.472,-7.865,373.2,2,286.1,-7.568,-7.566,-30,-8.001,-7.665,-4.661,-5.033,-4.659,-4.369,4.375,7.67,14,-1.366,1.528,4.794,8.145,-7.556,-7.528,-1.369,1.612,364.6,359.1,374.9,362.0,368.9,359.7,375.6,371.4,375.2,360.9,1,norm,1.123,1.254,-1.229,-1.21,-4.675,-4.473,-1.225,-1.282,-1.46,-1.571,1.827,-1.635,370.5,368.3,-4.731,-8.467,375.4,-1.564,8.489,4.553,-5.264,-7.84,23,4.923,4.694,5.15,4.904,1.259,1.316,2.067,1.954,23,5.228,5.138,-30,317.466252647,norm,0,82,82,82,2265.608,2265.622,2265.62599294,2265.626,2265.629,2265.633,down,1,1.53548923736,8.46451076264,001,307,1366_768,Intel(R) Core(TM) i5-4200U CPU @ 1.60GHz,orientation_search,GRVLAPTOP8,Intel(R) HD Graphics 4400,2018_nov_08_1319,testMonitor,
121.9,129.0,110.8,123.3,36,30,125.9,132.5,113.6,132.1,7.956,7.726,8.021,7.939,8.455,8.185,7.92,5.172,-4.443,-8.39,1.736,-1.717,8.27,4.61,-4.632,-8.044,139.8,131.6,-8.241,129.5,130.7,132.5,120.7,145.0,36,130.5,3,5,prime,10,0,108,norm,36,-4.99,down,norm,130.827950539,124.0,121.4,1.408,128.1,1,137.7,140.9,128.2,10,6,7.863,5.236,1.261,-1.47,-4.316,-8.02,140.0,6,238.8,-7.652,-7.912,30,-7.544,-8.462,-4.383,-4.561,-4.361,-4.767,5.099,8.115,19,-1.577,1.676,4.495,7.917,-8.138,-8.332,-1.618,2.089,131.5,122.9,140.3,131.4,150.8,126.7,122.0,131.4,117.2,127.5,0,norm,1.798,1.851,-1.39,-1.989,-4.424,-5.175,-1.82,-1.175,-1.594,-1.949,1.979,-1.399,,138.5,-4.308,-8.446,112.9,-1.177,8.318,4.662,-4.43,-7.857,24,5.174,5.249,4.711,5.156,1.992,1.636,1.448,1.16,24,4.55,5.039,60,317.466252647,norm,0,83,83,83,2267.187,2267.196,2267.21498188,2267.215,2267.221,2267.227,down,1,1.0557862368,8.9442137632,001,307,1366_768,Intel(R) Core(TM) i5-4200U CPU @ 1.60GHz,orientation_search,GRVLAPTOP8,Intel(R) HD Graphics 4400,2018_nov_08_1319,testMonitor,
123.7,138.5,140.6,133.6,36,30,140.0,127.0,124.0,126.7,7.587,8.297,7.616,8.434,8.335,7.822,8.452,5.165,-4.905,-7.6,1.174,-1.657,7.84,4.917,-4.807,-8.265,123.8,140.4,-8.481,124.9,138.8,149.3,145.9,117.4,36,149.9,0,5,prime,10,0,110,norm,36,-4.63,up,norm,130.827950539,118.4,136.2,1.129,141.5,3,128.3,131.7,131.8,10,6,8.084,5.006,2.0,-1.435,-4.816,-7.607,137.3,6,240.8,-8.194,-8.161,30,-7.674,-8.35,-4.96,-5.16,-5.229,-4.811,4.322,7.592,3,-1.846,1.507,5.266,8.273,-8.324,-8.392,-1.792,2.045,130.7,110.8,,137.7,147.1,121.3,135.4,120.6,121.4,133.6,1,norm,1.419,1.478,-1.594,-1.695,-5.209,-4.434,-1.314,-1.871,-1.742,-1.199,1.459,-1.501,130.1,138.1,-4.677,-8.141,136.2,-1.759,8.131,4.497,-5.235,-8.213,24,4.387,4.832,4.478,5.106,1.681,1.346,1.677,1.601,24,5.054,4.621,60,317.466252647,norm,0,84,84,84,2268.302,2268.316,2268.32169525,2268.322,2268.325,2268.329,up,1,0.901479597687,9.09852040231,001,307,1366_768,Intel(R) Core(TM) i5-4200U CPU @ 1.60GHz,orientation_search,GRVLAPTOP8,Intel(R) HD Graphics 4400,2018_nov_08_1319,testMonitor,
140.9,123.8,135.4,117.8,36,30,127.1,137.0,124.9,125.9,8.272,8.439,7.876,8.226,8.482,8.215,8.28,4.651,-5.066,-7.53,1.418,-1.759,8.422,4.453,-5.154,-8.222,110.8,126.4,-8.449,119.0,135.0,143.7,137.3,150.8,36,126.2,2,5,prime,10,0,102,norm,36,-4.964,down,norm,130.827950539,113.8,126.2,1.112,,2,123.5,119.3,128.9,10,6,8.168,5.254,1.263,-1.336,-5.122,-8.296,124.2,6,232.8,-7.743,-8.238,30,-7.795,-8.417,-4.858,-4.409,-4.359,-5.081,4.586,8.485,14,-1.578,1.469,4.729,7.988,-8.095,-8.102,-1.999,1.593,137.7,127.7,125.3,120.3,119.9,133.8,126.6,127.4,131.6,143.0,2,norm,1.405,1.2,-1.258,-1.998,-5.256,-5.244,-1.967,-1.26,-1.904,-1.602,1.833,-1.624,138.3,118.3,-5.2,-7.55,137.3,-1.39,8.442,4.325,-4.717,-8.082,24,4.949,5.002,4.323,4.934,1.817,1.826,1.341,1.591,24,4.851,4.76,60,317.466252647,norm,0,85,85,85,2269.251,2269.265,2269.27079712,2269.271,2269.276,2269.28,down,1,0.73267150004,9.26732849996,001,307,1366_768,Intel(R) Core(TM) i5-4200U CPU @ 1.60GHz,orientation_search,GRVLAPTOP8,Intel(R) HD Graphics 4400,2018_nov_08_1319,testMonitor,
139.9,118.2,136.5,132.4,36,30,127.3,134.9,124.1,110.8,7.854,8.296,7.718,8.097,8.166,7.858,8.459,5.029,-5.076,-8.306,1.521,-1.581,7.973,5.004,-4.915,-8.107,131.1,122.3,-8.464,122.2,123.5,129.8,116.3,128.6,36,130.1,1,5,prime,10,0,110,norm,36,-4.829,down,norm,130.827950539,130.0,132.1,1.241,137.5,0,124.1,127.7,132.3,10,6,7.567,4.512,1.641,-1.936,-4.877,-8.214,134.5,6,240.8,-8.168,-8.497,30,-8.269,-7.853,-4.983,-4.909,-4.912,-4.532,4.396,7.58,6,-1.734,1.708,4.827,7.521,-7.922,-7.754,-1.926,1.298,114.0,125.4,131.6,119.7,127.0,125.7,147.7,,124.6,128.9,3,norm,1.282,1.648,-1.828,-1.749,-4.533,-4.594,-1.497,-2.046,-1.865,-1.993,1.456,-1.7,138.3,137.1,-4.887,-7.883,150.8,-1.528,7.891,4.952,-5.02,-8.197,24,4.414,4.6,5.14,5.052,2.024,1.534,1.77,1.578,24,4.832,4.91,60,317.466252647,norm,0,86,86,86,2270.033,2270.047,2270.053132,2270.054,2270.057,2270.061,down,1,1.6150448895,8.3849551105,001,307,1366_768,Intel(R) Core(TM) i5-4200U CPU @ 1.60GHz,orientation_search,GRVLAPTOP8,Intel(R) HD Graphics 4400,2018_nov_08_1319,testMonitor,
148.4,136.0,112.3,122.3,36,30,,118.8,133.5,132.5,7.639,8.179,8.021,7.937,7.953,8.045,7.9,5.155,-5.006,-7.573,1.242,-1.944,7.974,4.858,-4.528,-7.935,135.0,129.2,-8.037,130.8,130.5,118.5,143.6,123.4,36,133.9,4,5,prime,10,0,71,norm,36,-4.553,down,norm,130.827950539,117.2,149.0,1.747,150.8,0,140.9,123.5,117.0,10,6,7.811,4.547,1.757,-1.686,-4.87,-7.789,129.9,6,201.8,-8.263,-8.43,30,-7.836,-8.119,-4.999,-5.224,-4.578,-4.666,4.987,7.785,24,-1.237,1.646,4.893,7.825,-7.738,-8.263,-1.3,1.909,136.3,136.2,131.3,123.9,144.4,110.8,148.2,120.9,118.8,118.4,4,norm,1.263,1.95,-1.28,-1.263,-4.861,-4.836,-1.492,-1.428,-2.014,-1.958,1.945,-1.569,133.3,135.5,-5.253,-7.873,138.7,-1.243,7.7,4.945,-4.973,-8.128,24,4.305,4.512,5.23,5.037,1.418,1.428,1.791,1.124,24,4.618,4.356,60,317.466252647,norm,0,87,87,87,2271.696,2271.708,2271.71138229,2271.712,2271.714,2271.717,down,1,1.42210324474,8.57789675526,001,307,1366_768,Intel(R) Core(TM) i5-4200U CPU @ 1.60GHz,orientation_search,GRVLAPTOP8,Intel(R) HD Graphics 4400,2018_nov_08_1319,testMonitor,
134.2,123.5,129.6,123.9,36,30,139.6,143.2,112.9,134.7,7.799,7.884,7.682,8.422,8.288,8.446,8.386,4.785,-5.258,-8.476,1.828,-2.057,8.358,4.714,-4.332,-8.464,138.6,110.8,-7.757,145.6,140.8,125.0,134.6,139.6,36,133.6,0,5,prime,10,0,103,norm,36,-5.142,up,norm,130.827950539,125.4,149.9,1.541,133.3,4,146.6,116.5,124.8,10,6,7.796,4.408,1.863,-1.126,-4.924,-8.47,131.4,6,233.8,-8.396,-7.793,30,-7.629,-8.397,-4.973,-5.158,-4.571,-4.777,4.407,7.741,4,-1.468,2.086,4.782,7.932,-8.053,-8.037,-1.145,1.794,134.2,116.5,126.7,126.9,122.7,120.7,127.7,121.1,141.0,,5,norm,1.896,1.677,-1.802,-1.311,-4.955,-5.179,-1.106,-1.566,-1.825,-1.255,1.457,-2.089,144.1,150.8,-4.725,-7.748,125.1,-1.67,8.473,4.33,-5.151,-8.447,24,5.057,4.33,5.136,4.449,1.34,1.381,1.761,1.405,24,4.949,5.244,60,317.466252647,norm,0,88,88,88,2273.16,2273.175,2273.17738171,2273.178,2273.18,2273.184,up,1,1.08653841434,8.91346158566,001,307,1366_768,Intel(R) Core(TM) i5-4200U CPU @ 1.60GHz,orientation_search,GRVLAPTOP8,Intel(R) HD Graphics 4400,2018_nov_08_1319,testMonitor,
235.1,222.4,234.3,226.8,36,60,225.0,236.2,229.6,225.4,8.001,8.463,8.277,7.685,7.514,7.945,7.83,4.93,-4.907,-8.004,1.228,-1.193,7.897,4.654,-4.572,-7.627,225.8,232.2,-8.129,227.8,218.8,229.6,229.6,230.7,36,238.4,2,5,probe,5,0,66,norm,36,-4.949,down,norm,228.361788853,231.9,228.0,1.118,232.8,1,227.3,,221.6,10,6,8.046,4.787,1.324,-1.81,-4.541,-7.547,221.2,1,162.4,-7.894,-8.082,30,-8.137,-8.142,-4.537,-5.162,-4.605,-5.008,4.474,7.571,13,-1.603,1.738,5.265,8.029,-8.151,-8.466,-1.524,1.178,227.4,229.4,237.3,228.6,234.5,225.7,223.7,237.5,233.4,221.5,0,norm,1.753,1.905,-1.285,-1.521,-4.506,-4.312,-1.496,-1.621,-1.978,-1.627,1.181,-1.709,224.5,218.4,-4.754,-7.944,227.2,-1.643,7.604,5.287,-4.966,-7.811,25,5.229,4.952,4.939,4.565,1.461,1.347,1.822,1.551,25,4.404,4.359,30,130.827950539,norm,0,89,89,89,2274.291,2274.305,2274.310367,2274.311,2274.315,2274.319,down,1,0.900006559727,9.09999344027,001,307,1366_768,Intel(R) Core(TM) i5-4200U CPU @ 1.60GHz,orientation_search,GRVLAPTOP8,Intel(R) HD Graphics 4400,2018_nov_08_1319,testMonitor,
98.7,105.2,115.4,91.9,36,60,108.7,91.1,102.7,112.1,8.058,7.619,8.476,8.089,7.961,8.317,7.892,5.117,-4.774,-8.001,1.695,-1.576,8.191,4.518,-4.754,-8.287,120.7,92.6,-8.477,94.6,84.0,102.0,87.8,96.3,36,98.7,0,5,prime,10,0,109,norm,36,-4.966,down,norm,100.665894272,105.5,88.6,1.805,116.3,2,105.0,114.5,105.6,10,6,7.763,4.9,1.205,-1.455,-4.689,-7.855,116.7,6,209.7,-7.999,-7.989,60,-7.986,-7.883,-5.201,-5.148,-4.772,-4.36,4.645,7.834,2,-1.387,1.664,4.517,8.032,-8.019,-7.781,-1.184,1.433,108.1,87.3,103.0,,81.7,101.3,95.1,80.7,113.3,109.5,0,norm,1.103,1.856,-1.398,-1.442,-5.087,-5.068,-1.105,-2.011,-1.254,-1.176,1.456,-1.31,112.5,102.4,-4.442,-7.712,114.8,-1.218,7.627,4.564,-4.731,-8.313,26,4.78,5.103,4.387,4.56,1.207,1.69,1.473,1.141,26,5.032,5.235,60,130.827950539,norm,0,90,90,90,2275.239,2275.25,2275.25340224,2275.254,2275.256,2275.26,down,1,1.77189509614,8.22810490386,001,307,1366_768,Intel(R) Core(TM) i5-4200U CPU @ 1.60GHz,orientation_search,GRVLAPTOP8,Intel(R) HD Graphics 4400,2018_nov_08_1319,testMonitor,
119.8,109.7,88.0,95.1,36,60,105.7,115.4,107.4,97.4,7.861,7.627,7.853,8.165,8.356,7.581,7.918,4.958,-4.426,-8.456,1.279,-1.153,7.699,4.871,-5.187,-7.762,,106.7,-8.175,118.5,106.3,92.2,92.6,80.7,36,86.1,5,5,prime,10,0,71,norm,36,-4.316,up,norm,100.665894272,95.6,112.0,1.208,102.3,5,104.1,103.9,115.3,10,6,8.124,4.769,2.098,-1.429,-4.87,-7.872,106.7,6,171.7,-7.838,-8.17,60,-7.715,-8.011,-4.551,-4.671,-5.076,-4.37,4.431,8.319,35,-1.241,2.087,4.861,7.875,-8.443,-8.125,-1.236,2.0,101.1,105.1,108.0,103.8,120.7,100.2,114.0,114.5,99.2,109.8,1,norm,1.208,1.826,-2.064,-1.538,-4.936,-4.803,-1.126,-2.08,-1.408,-1.595,1.43,-1.564,93.2,101.2,-5.077,-7.589,98.2,-1.726,8.121,4.98,-4.497,-7.996,26,5.23,5.116,5.21,4.441,1.208,1.566,1.132,1.976,26,4.381,5.093,60,130.827950539,norm,0,91,91,91,2277.052,2277.067,2277.07277236,2277.073,2277.077,2277.081,up,1,3.42700876014,6.57299123986,001,307,1366_768,Intel(R) Core(TM) i5-4200U CPU @ 1.60GHz,orientation_search,GRVLAPTOP8,Intel(R) HD Graphics 4400,2018_nov_08_1319,testMonitor,
108.4,112.6,87.8,90.1,36,60,97.6,114.6,100.5,,7.855,7.669,7.718,7.531,7.696,8.142,8.162,5.275,-4.953,-7.686,1.267,-1.295,8.315,4.926,-5.171,-7.765,107.8,88.5,-7.691,111.2,101.2,92.6,92.5,113.6,36,113.8,4,5,prime,10,0,118,norm,36,-5.181,up,norm,100.665894272,97.2,92.1,1.168,91.7,5,97.3,112.2,82.8,10,6,8.01,5.057,1.859,-1.856,-4.822,-7.634,104.9,6,218.7,-7.612,-8.144,60,-7.719,-7.669,-4.914,-4.654,-4.718,-5.199,5.017,7.742,29,-1.497,1.463,5.11,8.003,-8.249,-7.563,-1.34,1.368,95.1,87.6,95.5,107.7,97.9,119.2,88.8,120.7,80.7,113.0,2,norm,1.808,1.506,-1.129,-1.326,-4.307,-5.17,-2.057,-1.254,-1.772,-1.813,1.687,-2.086,96.8,96.4,-4.714,-7.506,85.2,-2.088,7.596,5.186,-5.07,-8.197,26,4.884,5.054,4.521,4.376,1.172,1.191,1.621,1.211,26,4.485,4.503,60,130.827950539,norm,0,92,92,92,2280.528,2280.542,2280.54768676,2280.548,2280.554,2280.558,up,1,1.13134045562,8.86865954438,001,307,1366_768,Intel(R) Core(TM) i5-4200U CPU @ 1.60GHz,orientation_search,GRVLAPTOP8,Intel(R) HD Graphics 4400,2018_nov_08_1319,testMonitor,
120.7,89.4,113.3,94.4,36,60,98.6,109.4,,103.0,8.414,8.414,8.292,7.937,7.796,8.304,7.513,4.7,-4.606,-7.797,1.871,-1.737,8.176,4.648,-5.19,-7.627,94.7,80.7,-7.686,108.1,83.7,95.8,88.3,97.6,36,101.3,4,5,prime,10,0,97,norm,36,-4.743,up,norm,100.665894272,101.7,107.9,1.432,97.8,4,109.1,119.9,111.1,10,6,8.378,4.531,1.842,-1.665,-4.952,-7.914,92.6,6,197.7,-8.059,-8.412,60,-8.459,-7.908,-4.483,-4.554,-4.668,-4.435,4.96,7.904,28,-1.112,1.497,4.735,7.979,-8.275,-7.828,-1.554,1.149,111.9,108.6,96.2,102.6,97.0,112.6,100.2,96.1,93.5,108.9,3,norm,1.996,1.184,-2.094,-1.258,-4.549,-4.368,-1.586,-1.336,-1.427,-1.478,2.062,-1.826,101.1,106.3,-4.574,-7.58,114.7,-2.013,7.638,4.903,-4.859,-7.574,26,4.588,5.07,4.543,4.75,1.755,1.736,1.168,1.976,26,4.555,4.308,60,130.827950539,norm,0,93,93,93,2281.708,2281.72,2281.72435627,2281.725,2281.727,2281.73,up,1,1.37272322817,8.62727677183,001,307,1366_768,Intel(R) Core(TM) i5-4200U CPU @ 1.60GHz,orientation_search,GRVLAPTOP8,Intel(R) HD Graphics 4400,2018_nov_08_1319,testMonitor,
117.6,98.1,89.8,120.7,36,60,115.2,99.1,105.5,100.3,8.406,7.655,8.048,8.45,7.98,7.504,8.006,4.762,-5.192,-7.893,1.144,-1.294,8.277,5.262,-4.877,-7.6,105.8,118.7,-7.581,101.5,104.3,83.1,108.4,,36,97.6,4,5,prime,10,0,80,norm,36,-4.912,down,norm,100.665894272,89.0,100.7,1.999,107.5,2,104.1,104.5,86.9,10,6,7.805,4.917,1.396,-1.445,-4.357,-7.742,94.9,6,180.7,-7.875,-7.839,60,-7.965,-8.491,-5.295,-4.327,-5.258,-4.802,5.017,8.291,26,-1.625,1.566,4.974,7.57,-7.602,-8.125,-1.272,1.416,104.3,111.8,94.1,85.0,101.7,92.6,94.0,95.3,98.2,108.7,4,norm,1.981,1.472,-1.413,-2.034,-5.15,-4.718,-1.97,-1.27,-1.194,-1.46,1.921,-1.782,83.0,80.7,-4.929,-8.111,97.9,-1.542,8.134,4.523,-5.042,-8.387,26,4.489,5.232,5.164,5.238,1.855,1.763,1.356,1.134,26,5.141,5.072,60,130.827950539,norm,0,94,94,94,2283.123,2283.137,2283.14300784,2283.143,2283.146,2283.149,down,1,2.49847899125,7.50152100875,001,307,1366_768,Intel(R) Core(TM) i5-4200U CPU @ 1.60GHz,orientation_search,GRVLAPTOP8,Intel(R) HD Graphics 4400,2018_nov_08_1319,testMonitor,
107.1,108.5,104.4,103.8,36,60,99.7,99.4,102.6,110.6,7.954,7.845,7.976,7.836,7.839,8.143,7.799,4.952,-4.828,-7.891,1.421,-1.135,7.562,5.133,-4.743,-8.163,107.6,94.0,-7.806,98.9,93.0,120.7,99.5,89.6,36,98.0,0,5,prime,10,0,110,norm,36,-4.612,up,norm,100.665894272,87.7,100.4,1.25,80.7,5,109.7,93.1,87.8,10,6,8.336,4.779,1.92,-1.365,-4.698,-8.4,80.7,6,210.7,-8.057,-8.228,60,-7.656,-8.334,-5.108,-4.578,-5.187,-4.388,4.879,7.981,5,-1.291,1.988,4.874,8.281,-7.788,-7.512,-1.925,1.262,92.5,84.5,99.0,108.1,112.9,117.8,119.2,108.8,,95.0,5,norm,1.763,1.92,-1.887,-1.14,-4.561,-4.755,-1.572,-1.289,-1.711,-1.257,2.059,-1.93,100.2,106.0,-4.528,-8.071,113.4,-1.548,7.989,4.768,-4.421,-7.972,26,4.651,4.587,4.551,4.486,1.851,1.879,1.362,1.262,26,4.318,4.413,60,130.827950539,norm,0,95,95,95,2285.668,2285.682,2285.68718314,2285.688,2285.691,2285.696,up,1,3.21217458512,6.78782541488,001,307,1366_768,Intel(R) Core(TM) i5-4200U CPU @ 1.60GHz,orientation_search,GRVLAPTOP8,Intel(R) HD Graphics 4400,2018_nov_08_1319,testMonitor,
