d_ori_22,d_ori_23,d_ori_20,d_ori_21,set_size,ctpd,d_ori_24,d_ori_25,d_ori_28,d_ori_29,stim_pos_x_30,stim_pos_x_31,stim_pos_x_32,stim_pos_x_33,stim_pos_x_34,stim_pos_x_35,stim_pos_y_11,stim_pos_y_10,stim_pos_y_13,stim_pos_y_12,stim_pos_y_15,stim_pos_y_14,stim_pos_y_17,stim_pos_y_16,stim_pos_y_19,stim_pos_y_18,d_ori_35,d_ori_34,stim_pos_x_3,d_ori_31,d_ori_30,d_ori_33,d_ori_32,d_ori_26,test_set_size,d_ori_27,targetCol,dsd_test,seq_type,dsd,blockRepN,targetDist,dtype_test,prime_set_size,stim_pos_y_25,correctResponse,dtype,distrMean,d_ori_17,d_ori_16,stim_pos_y_3,d_ori_14,targetRow,d_ori_11,d_ori_13,d_ori_12,dsd_prime,streak_length_prime,stim_pos_y_35,stim_pos_y_34,stim_pos_y_33,stim_pos_y_32,stim_pos_y_31,stim_pos_y_30,d_ori_10,nextProbe,targetOri,stim_pos_x_1,stim_pos_x_2,ctpd_prime,stim_pos_x_4,stim_pos_x_5,stim_pos_x_6,stim_pos_x_7,stim_pos_x_8,stim_pos_x_9,stim_pos_y_28,stim_pos_y_29,targetPos,stim_pos_y_20,stim_pos_y_21,stim_pos_y_22,stim_pos_y_23,stim_pos_y_24,stim_pos_x_0,stim_pos_y_26,stim_pos_y_27,d_ori_9,d_ori_8,d_ori_3,d_ori_2,d_ori_1,d_ori_0,d_ori_7,d_ori_6,d_ori_5,d_ori_4,trialN,dtype_prime,stim_pos_x_18,stim_pos_x_19,stim_pos_x_12,stim_pos_x_13,stim_pos_x_10,stim_pos_x_11,stim_pos_x_16,stim_pos_x_17,stim_pos_x_14,stim_pos_x_15,stim_pos_y_9,stim_pos_y_8,d_ori_19,d_ori_18,stim_pos_y_1,stim_pos_y_0,d_ori_15,stim_pos_y_2,stim_pos_y_5,stim_pos_y_4,stim_pos_y_7,stim_pos_y_6,totBlockN,stim_pos_x_27,stim_pos_x_26,stim_pos_x_25,stim_pos_x_24,stim_pos_x_23,stim_pos_x_22,stim_pos_x_21,stim_pos_x_20,blockN,stim_pos_x_29,stim_pos_x_28,prevDistrCTPD,prevDistrMean,prevDistrType,trials.thisRepN,trials.thisTrialN,trials.thisN,trials.thisIndex,timeStart,timeBeforeDraw,timeDraw,timeAfterSaving,timeAfterWritingToTemp,timeAfterPreparingNext,answer,correct,rt,trialScore,session,participant,resolution,cpu_info,expName,pc_name,graphic_card,date,monitorName,
236.6,256.2,245.3,261.8,36,-40,241.3,270.5,241.8,250.5,8.339,8.253,8.059,8.23,7.795,7.601,8.394,5.052,-4.458,-7.613,1.311,-1.224,8.303,4.517,-5.0,-7.841,260.3,237.3,-7.573,263.3,242.9,244.9,243.4,,36,238.7,4,5,prime,10,0,82,norm,36,-4.415,down,norm,250.47434847,257.5,238.3,1.207,230.5,2,235.2,255.4,249.5,10,5,7.777,5.086,1.662,-1.423,-4.991,-7.909,261.1,5,332.5,-7.747,-7.844,-40,-7.564,-8.227,-4.934,-5.034,-5.162,-4.839,4.488,7.655,26,-2.044,1.634,4.524,7.541,-8.303,-8.212,-1.568,2.097,246.9,247.6,239.7,241.1,249.6,248.3,248.4,248.3,267.9,243.8,0,norm,1.65,1.912,-1.384,-1.602,-5.117,-4.84,-1.646,-1.623,-1.624,-2.024,1.291,-1.827,269.7,249.2,-4.601,-7.903,264.7,-1.414,8.496,4.424,-4.973,-8.156,0,4.987,5.066,4.483,4.431,1.283,1.348,1.2,2.045,0,4.834,5.066,,,,0,0,0,0,2006.516,2006.527,2006.53273156,2006.533,2006.534,2006.537,down,1,1.41190536671,8.58809463329,001,311,1600_900,Intel(R) Core(TM) i7-2670QM CPU @ 2.20GHz,orientation_search,GRVLAPTOP3,Intel(R) HD Graphics Family,2018_nov_08_1317,testMonitor,
260.5,261.1,250.8,253.1,36,-40,252.7,248.9,249.2,248.3,7.979,7.563,7.76,8.308,8.398,8.46,7.701,4.624,-4.482,-8.132,1.41,-1.474,8.494,5.264,-4.888,-7.905,258.4,254.0,-8.025,252.2,237.4,260.1,258.8,254.4,36,235.9,0,5,prime,10,0,93,norm,36,-4.557,up,norm,250.47434847,254.2,238.7,1.444,270.5,3,261.1,235.3,253.0,10,5,7.977,4.492,1.601,-1.96,-4.886,-7.898,255.1,5,343.5,-8.224,-8.328,-40,-7.507,-7.635,-4.814,-4.472,-5.078,-4.883,5.286,8.296,3,-1.809,1.691,5.13,7.826,-8.351,-7.867,-1.973,1.427,255.7,251.7,,248.5,258.3,249.5,237.3,245.3,243.0,263.8,1,norm,1.362,2.007,-1.949,-1.671,-4.924,-4.753,-1.556,-1.136,-1.729,-1.161,1.498,-2.046,261.8,241.6,-4.644,-7.664,230.5,-1.633,7.816,4.45,-4.59,-7.853,0,4.686,5.079,5.25,4.427,1.902,1.407,2.071,1.141,0,4.926,4.75,,,,0,1,1,1,2007.96,2007.966,2007.96806131,2007.968,2007.97,2007.974,up,1,1.52600893176,8.47399106824,001,311,1600_900,Intel(R) Core(TM) i7-2670QM CPU @ 2.20GHz,orientation_search,GRVLAPTOP3,Intel(R) HD Graphics Family,2018_nov_08_1317,testMonitor,
256.0,237.0,255.6,249.5,36,-40,257.0,234.0,243.3,253.0,8.421,8.27,7.583,8.01,7.796,8.493,7.757,4.953,-4.922,-7.657,1.577,-1.532,8.325,5.064,-4.543,-7.523,252.3,236.7,-8.32,,250.2,242.2,243.3,248.2,36,237.0,5,5,prime,10,0,117,norm,36,-4.861,down,norm,250.47434847,243.9,263.4,1.683,230.5,1,257.9,241.3,255.8,10,5,8.328,4.481,1.245,-2.069,-5.093,-7.692,245.0,5,367.5,-7.6,-7.58,-40,-7.989,-7.842,-4.909,-4.812,-4.36,-4.779,4.929,7.544,31,-1.211,2.053,4.857,8.07,-7.76,-7.76,-1.247,1.181,251.3,246.0,248.4,257.5,256.8,230.8,261.6,269.0,257.6,258.9,2,norm,1.915,1.632,-1.743,-1.267,-5.133,-4.881,-1.118,-1.386,-1.209,-1.879,1.418,-1.7,238.5,242.7,-4.377,-7.867,244.8,-2.08,8.137,5.033,-4.762,-7.842,0,4.718,4.958,4.312,5.032,1.831,1.907,1.966,1.679,0,4.991,4.889,,,,0,2,2,2,2009.509,2009.515,2009.51720185,2009.518,2009.52,2009.524,up,0,6.42627191615,-10,001,311,1600_900,Intel(R) Core(TM) i7-2670QM CPU @ 2.20GHz,orientation_search,GRVLAPTOP3,Intel(R) HD Graphics Family,2018_nov_08_1317,testMonitor,
251.5,,240.7,241.9,36,-40,252.3,254.1,249.2,250.0,8.36,8.218,8.386,8.331,8.233,8.229,8.415,5.001,-4.941,-8.087,1.136,-1.823,7.546,4.517,-5.083,-8.318,254.0,246.1,-7.64,264.6,230.5,239.5,256.0,237.9,36,261.7,3,5,prime,10,0,60,norm,36,-4.712,up,norm,250.47434847,257.3,242.8,1.562,242.2,5,258.4,249.6,235.7,10,5,7.739,4.539,1.981,-1.667,-4.403,-7.715,239.1,5,310.5,-7.711,-7.903,-40,-8.027,-7.895,-4.867,-5.111,-5.092,-5.144,4.427,7.757,23,-2.006,1.998,4.848,7.517,-7.561,-8.161,-1.297,1.921,244.7,234.6,247.7,242.0,241.2,253.7,270.5,256.3,255.6,256.4,3,norm,1.263,1.938,-2.002,-1.624,-4.479,-4.619,-1.874,-1.608,-1.317,-1.505,1.178,-1.487,256.9,252.9,-4.976,-8.125,259.9,-1.964,7.794,4.83,-5.002,-7.816,0,5.246,4.451,4.607,4.91,2.088,1.883,1.378,1.731,0,4.364,5.189,,,,0,3,3,3,2016.965,2016.972,2016.97413255,2016.974,2016.977,2016.981,up,1,0.980570814336,9.01942918566,001,311,1600_900,Intel(R) Core(TM) i7-2670QM CPU @ 2.20GHz,orientation_search,GRVLAPTOP3,Intel(R) HD Graphics Family,2018_nov_08_1317,testMonitor,
240.1,257.7,241.7,265.8,36,-40,248.1,230.5,240.2,233.0,8.344,7.543,7.502,7.805,8.493,8.008,8.164,4.652,-4.662,-8.209,2.016,-1.315,8.332,4.448,-4.336,-8.325,259.1,241.3,-8.5,234.6,243.0,253.4,258.5,251.2,36,249.9,2,5,prime,10,0,111,norm,36,-4.607,up,norm,250.47434847,270.5,234.2,1.119,245.0,3,243.6,256.2,246.0,10,5,7.879,5.028,1.668,-1.292,-4.622,-8.0,257.9,5,361.5,-7.584,-7.566,-40,-8.329,-8.074,-5.013,-4.356,-4.702,-4.344,5.231,7.826,15,-1.51,1.338,4.744,8.164,-8.197,-8.153,-1.158,1.68,246.6,248.4,250.1,253.7,255.9,249.1,256.2,246.9,259.0,257.0,4,norm,1.105,1.271,-1.238,-2.006,-5.028,-4.807,-2.028,-1.582,-1.105,-1.395,1.891,-1.203,243.1,256.6,-4.942,-7.518,,-2.058,8.324,4.308,-5.262,-7.779,0,5.297,4.772,5.144,4.616,1.651,2.018,1.193,1.106,0,4.737,4.666,,,,0,4,4,4,2017.971,2017.977,2017.9795454,2017.98,2017.983,2017.987,up,1,2.01220972258,7.98779027742,001,311,1600_900,Intel(R) Core(TM) i7-2670QM CPU @ 2.20GHz,orientation_search,GRVLAPTOP3,Intel(R) HD Graphics Family,2018_nov_08_1317,testMonitor,
282.2,282.1,283.9,282.1,36,40,283.0,281.2,285.0,280.2,8.274,8.351,7.706,7.985,8.452,8.102,8.339,4.9,-5.247,-7.655,1.827,-1.446,7.729,4.437,-4.879,-8.459,289.7,283.3,-7.939,278.3,286.1,283.3,276.6,275.1,36,271.0,1,5,probe,5,0,74,norm,36,-4.573,down,norm,280.951981064,276.5,282.7,1.954,282.6,2,277.6,276.4,281.2,10,5,7.521,4.939,1.302,-1.103,-5.129,-7.564,291.0,1,207.0,-7.634,-7.924,-40,-7.73,-7.85,-4.489,-4.748,-5.038,-4.501,4.734,7.583,8,-2.027,1.16,4.87,8.399,-7.678,-8.111,-1.369,1.228,285.8,,281.8,273.2,285.1,281.8,285.3,280.0,285.2,278.3,0,norm,2.044,1.375,-2.079,-1.348,-4.921,-4.409,-1.428,-1.425,-1.496,-1.321,1.94,-2.056,272.1,274.9,-5.037,-8.313,285.6,-1.722,7.755,5.285,-4.556,-8.205,1,4.451,5.167,4.646,5.214,1.929,1.817,1.751,1.389,1,5.207,4.807,-40,250.47434847,norm,0,5,5,5,2020.007,2020.013,2020.01510199,2020.015,2020.018,2020.022,down,1,1.60198583097,8.39801416903,001,311,1600_900,Intel(R) Core(TM) i7-2670QM CPU @ 2.20GHz,orientation_search,GRVLAPTOP3,Intel(R) HD Graphics Family,2018_nov_08_1317,testMonitor,
158.0,160.5,146.7,137.1,36,40,147.4,161.1,155.1,141.6,8.027,7.944,8.073,8.221,8.11,7.907,7.747,4.735,-4.928,-7.716,1.575,-1.552,8.07,4.567,-4.914,-7.575,167.1,146.2,-8.339,158.1,159.5,157.9,153.8,169.4,36,155.4,2,5,prime,10,0,110,norm,36,-4.896,down,norm,157.091169224,177.1,164.5,1.465,,2,144.6,149.5,167.6,10,5,7.704,4.351,2.077,-1.74,-5.125,-8.379,153.8,5,267.1,-7.682,-8.408,40,-8.087,-7.879,-4.314,-4.341,-4.935,-4.848,5.131,8.454,14,-1.81,2.031,4.939,8.393,-7.611,-7.915,-1.289,1.787,149.0,148.6,161.9,148.7,142.9,165.6,158.2,153.5,163.5,164.3,0,norm,2.016,1.783,-1.818,-1.67,-5.291,-4.43,-1.616,-1.122,-1.79,-1.409,1.983,-1.434,165.0,140.2,-4.575,-8.259,137.3,-2.003,7.646,4.839,-5.057,-7.789,2,5.233,4.375,4.921,5.074,1.596,1.997,1.233,1.645,2,5.283,4.537,40,250.47434847,norm,0,6,6,6,2021.633,2021.638,2021.64064715,2021.641,2021.644,2021.647,down,1,3.18550065092,6.81449934908,001,311,1600_900,Intel(R) Core(TM) i7-2670QM CPU @ 2.20GHz,orientation_search,GRVLAPTOP3,Intel(R) HD Graphics Family,2018_nov_08_1317,testMonitor,
163.3,147.8,170.0,162.4,36,40,173.5,159.7,150.8,156.6,8.005,7.661,8.062,7.925,8.15,8.265,7.609,4.983,-4.441,-8.398,2.054,-1.912,8.017,4.404,-4.592,-7.517,162.5,170.5,-7.856,146.2,146.5,157.9,143.7,177.1,36,164.5,2,5,prime,10,0,101,norm,36,-4.886,up,norm,157.091169224,158.1,,2.081,159.3,4,147.7,161.5,148.5,10,5,7.506,5.226,1.959,-1.94,-5.122,-7.546,165.7,5,258.1,-7.619,-8.109,40,-8.475,-7.777,-4.412,-5.299,-5.279,-4.443,4.807,8.308,16,-1.892,1.484,5.04,8.413,-8.33,-7.929,-1.738,1.653,163.9,146.2,150.1,140.4,164.9,145.5,162.8,157.7,137.1,168.9,1,norm,2.07,1.631,-1.277,-2.033,-5.124,-4.527,-1.156,-1.581,-2.008,-1.813,1.501,-1.583,148.0,162.4,-5.015,-7.964,155.5,-1.567,8.403,4.943,-4.736,-7.583,2,4.63,4.509,4.927,5.213,1.233,1.396,1.543,1.999,2,4.441,4.885,40,250.47434847,norm,0,7,7,7,2024.841,2024.847,2024.84849681,2024.849,2024.852,2024.855,up,1,1.28000973117,8.71999026883,001,311,1600_900,Intel(R) Core(TM) i7-2670QM CPU @ 2.20GHz,orientation_search,GRVLAPTOP3,Intel(R) HD Graphics Family,2018_nov_08_1317,testMonitor,
161.9,143.2,141.7,158.4,36,40,146.0,166.3,157.5,154.3,8.485,7.687,7.794,8.138,8.419,8.381,8.078,4.983,-5.248,-8.165,1.691,-1.372,7.6,4.385,-4.626,-7.907,153.4,159.7,-8.045,154.7,155.0,143.7,155.2,149.6,36,159.8,3,5,prime,10,0,68,norm,36,-4.702,down,norm,157.091169224,140.1,137.1,1.3,164.2,1,151.4,143.7,160.2,10,5,8.314,4.843,1.748,-2.016,-4.714,-7.58,139.0,5,225.1,-8.489,-7.518,40,-8.367,-8.338,-4.912,-5.082,-4.699,-4.655,4.308,8.24,19,-2.049,1.716,4.932,7.942,-7.501,-8.416,-1.825,1.396,161.9,151.6,143.9,156.5,157.4,177.1,159.8,146.8,163.4,169.0,2,norm,1.291,1.306,-1.868,-1.625,-5.108,-4.897,-2.084,-1.6,-1.717,-1.261,1.799,-1.704,,168.3,-5.181,-8.444,161.0,-1.276,7.693,4.786,-4.685,-7.719,2,4.335,4.816,5.095,5.186,1.508,1.444,1.314,1.919,2,4.599,4.805,40,250.47434847,norm,0,8,8,8,2026.143,2026.149,2026.15059825,2026.151,2026.154,2026.157,down,1,1.72893883558,8.27106116442,001,311,1600_900,Intel(R) Core(TM) i7-2670QM CPU @ 2.20GHz,orientation_search,GRVLAPTOP3,Intel(R) HD Graphics Family,2018_nov_08_1317,testMonitor,
163.9,143.9,157.6,156.2,36,40,160.4,149.1,168.7,153.5,8.351,7.987,8.47,7.73,8.335,8.211,8.355,4.704,-5.228,-8.329,1.326,-2.05,8.196,4.341,-4.781,-7.908,154.8,151.0,-8.206,157.2,157.1,177.1,171.6,148.5,36,158.0,0,5,prime,10,0,119,norm,36,-4.982,up,norm,157.091169224,161.1,159.2,1.268,146.2,5,149.2,169.6,158.0,10,5,7.825,5.137,1.726,-1.548,-4.765,-8.386,160.0,5,276.1,-8.144,-7.504,40,-8.32,-8.338,-5.247,-4.675,-4.549,-4.867,4.801,7.726,5,-1.648,1.296,4.398,7.65,-7.864,-8.123,-1.103,1.736,174.1,158.9,162.4,163.3,160.1,161.3,152.8,144.3,,151.6,3,norm,1.589,1.442,-1.525,-1.39,-5.27,-4.856,-1.157,-1.849,-1.229,-1.904,2.066,-1.999,137.1,144.5,-4.785,-8.179,165.6,-1.736,7.605,4.381,-4.429,-8.43,2,4.307,5.213,4.846,4.57,2.092,1.356,1.561,1.152,2,4.326,5.193,40,250.47434847,norm,0,9,9,9,2027.894,2027.9,2027.90214011,2027.902,2027.905,2027.909,up,1,2.47722093864,7.52277906136,001,311,1600_900,Intel(R) Core(TM) i7-2670QM CPU @ 2.20GHz,orientation_search,GRVLAPTOP3,Intel(R) HD Graphics Family,2018_nov_08_1317,testMonitor,
154.7,167.8,146.9,153.2,36,40,147.2,177.1,170.0,150.4,8.075,7.541,8.033,7.692,7.994,7.589,8.481,4.41,-4.499,-7.724,1.354,-1.812,8.062,4.743,-5.104,-8.453,138.4,170.4,-8.27,150.2,137.1,149.0,153.6,153.0,36,138.7,0,5,prime,10,0,94,norm,36,-4.9,down,norm,157.091169224,152.9,147.9,1.552,147.4,2,143.1,152.1,166.3,10,5,7.771,5.145,1.916,-1.149,-4.615,-7.965,138.3,5,251.1,-8.366,-8.143,40,-8.233,-8.439,-4.828,-4.815,-4.322,-4.694,4.613,7.841,2,-2.021,2.085,5.158,8.239,-8.04,-8.411,-1.561,1.883,162.7,160.8,161.0,,172.7,159.8,147.5,165.4,160.5,171.3,4,norm,1.921,1.436,-1.134,-1.699,-4.918,-4.502,-1.134,-1.653,-1.436,-1.946,1.975,-1.679,156.3,145.0,-5.012,-7.927,151.7,-1.259,7.963,5.229,-5.048,-8.203,2,5.225,5.246,4.902,5.085,1.407,2.045,1.323,1.615,2,4.586,4.963,40,250.47434847,norm,0,10,10,10,2030.395,2030.4,2030.40230961,2030.403,2030.405,2030.409,down,1,4.60385735338,5.39614264662,001,311,1600_900,Intel(R) Core(TM) i7-2670QM CPU @ 2.20GHz,orientation_search,GRVLAPTOP3,Intel(R) HD Graphics Family,2018_nov_08_1317,testMonitor,
329.0,323.9,326.6,324.4,36,20,321.9,331.0,326.3,327.7,7.51,8.185,8.429,7.75,7.602,7.861,8.444,5.239,-4.41,-8.293,1.793,-1.619,8.022,4.561,-4.841,-8.495,316.6,315.2,-7.813,322.5,322.9,322.1,331.5,324.2,36,316.6,0,5,probe,5,0,116,norm,36,-4.539,up,norm,321.986465586,320.1,318.6,1.612,322.0,4,312.0,329.0,328.2,10,5,8.344,4.513,1.585,-1.525,-5.157,-7.595,316.0,2,206.0,-8.383,-7.768,40,-8.499,-8.186,-4.865,-5.048,-5.242,-4.781,5.014,8.437,4,-1.527,1.115,5.105,7.538,-7.728,-8.466,-1.304,1.505,318.8,330.7,326.4,325.7,320.1,325.7,329.8,315.5,323.2,,0,norm,1.514,1.3,-1.675,-1.383,-4.539,-4.321,-1.641,-2.027,-2.043,-1.17,1.576,-1.683,328.6,332.0,-4.405,-7.551,321.6,-2.063,8.326,4.359,-5.18,-8.04,3,4.677,4.355,5.127,4.722,1.934,1.307,1.303,1.421,3,4.592,4.693,40,157.091169224,norm,0,11,11,11,2035.021,2035.027,2035.02886151,2035.029,2035.032,2035.036,up,1,1.5723309793,8.4276690207,001,311,1600_900,Intel(R) Core(TM) i7-2670QM CPU @ 2.20GHz,orientation_search,GRVLAPTOP3,Intel(R) HD Graphics Family,2018_nov_08_1317,testMonitor,
290.8,294.5,301.0,300.8,36,20,293.4,288.1,292.7,292.6,7.58,7.622,7.564,8.467,8.278,8.459,8.318,5.205,-5.237,-7.727,1.358,-1.895,8.323,5.27,-5.037,-8.056,285.8,284.8,-8.21,288.5,,300.1,287.9,299.5,36,281.0,5,5,probe,5,0,85,norm,36,-5.259,down,norm,290.986465586,287.6,292.3,1.566,285.1,0,289.0,283.5,283.4,10,5,7.551,4.603,1.791,-1.509,-4.611,-8.131,286.2,2,206.0,-7.846,-8.46,40,-8.059,-8.395,-4.745,-4.588,-4.364,-4.824,4.573,7.878,30,-1.171,1.711,4.43,7.723,-7.564,-7.659,-1.223,1.655,283.9,298.5,287.1,290.2,288.9,299.7,290.8,286.6,290.0,288.7,1,norm,1.128,1.611,-1.778,-1.359,-4.956,-4.808,-1.894,-1.465,-2.076,-1.833,1.994,-1.567,288.5,292.6,-4.737,-8.117,297.8,-1.83,8.266,4.711,-4.662,-7.955,3,5.158,4.303,4.827,4.539,1.533,1.61,1.252,1.785,3,4.481,4.708,40,157.091169224,norm,0,12,12,12,2036.616,2036.622,2036.62378057,2036.624,2036.627,2036.63,down,1,1.58596302156,8.41403697844,001,311,1600_900,Intel(R) Core(TM) i7-2670QM CPU @ 2.20GHz,orientation_search,GRVLAPTOP3,Intel(R) HD Graphics Family,2018_nov_08_1317,testMonitor,
334.5,319.7,,325.7,36,-60,303.7,319.4,339.9,323.0,8.464,7.755,7.565,7.963,8.299,7.562,8.364,4.98,-4.629,-8.389,1.243,-1.211,8.141,5.203,-4.926,-8.402,328.1,311.3,-8.17,311.0,322.9,308.1,321.0,307.0,36,317.0,3,5,prime,10,0,81,norm,36,-4.308,down,norm,321.413240012,337.1,301.4,1.314,331.3,2,319.3,333.1,330.8,10,6,7.781,5.07,1.325,-1.228,-4.896,-8.487,309.4,6,402.4,-7.924,-8.232,-60,-8.485,-8.32,-4.414,-4.908,-4.587,-5.052,4.916,7.555,20,-1.647,1.171,4.636,7.526,-7.797,-8.162,-1.33,1.273,327.8,321.7,311.6,317.2,315.8,308.2,306.3,312.2,341.4,324.1,0,norm,1.891,1.724,-1.16,-1.905,-4.805,-4.764,-1.724,-1.99,-1.824,-1.854,1.43,-2.04,319.5,323.3,-4.725,-8.407,304.1,-1.82,8.309,4.317,-5.198,-8.221,4,4.543,4.66,4.663,4.902,1.449,2.041,1.572,1.847,4,4.319,4.351,20,157.091169224,norm,0,13,13,13,2038.224,2038.23,2038.23187593,2038.232,2038.235,2038.239,down,1,1.57248273698,8.42751726302,001,311,1600_900,Intel(R) Core(TM) i7-2670QM CPU @ 2.20GHz,orientation_search,GRVLAPTOP3,Intel(R) HD Graphics Family,2018_nov_08_1317,testMonitor,
314.2,322.6,331.5,326.9,36,-60,324.6,319.2,313.6,330.4,8.21,8.273,7.928,7.563,8.309,8.052,7.565,4.89,-4.773,-7.799,1.925,-1.363,7.542,4.445,-4.642,-8.003,324.9,317.9,-7.653,322.8,320.3,319.0,327.9,331.0,36,313.9,2,5,prime,10,0,63,norm,36,-4.514,up,norm,321.413240012,318.5,,1.434,312.8,4,320.0,314.7,329.1,10,6,7.566,5.049,1.702,-1.772,-4.488,-8.4,319.8,6,384.4,-7.83,-8.445,-60,-7.662,-8.174,-4.515,-4.543,-4.894,-4.635,5.138,8.1,16,-1.368,1.149,4.615,7.984,-8.097,-7.579,-1.913,1.546,318.0,323.6,319.8,319.0,303.8,307.1,317.6,321.0,314.3,341.4,1,norm,1.616,1.745,-1.815,-2.094,-4.526,-5.178,-1.133,-1.302,-1.957,-1.323,1.532,-1.852,314.9,301.4,-5.242,-7.969,315.7,-1.399,7.512,4.532,-4.309,-7.759,4,5.13,4.377,4.758,5.207,1.553,1.322,2.037,1.418,4,4.805,4.907,20,157.091169224,norm,0,14,14,14,2039.819,2039.825,2039.82732404,2039.828,2039.831,2039.834,up,1,1.04080974163,8.95919025837,001,311,1600_900,Intel(R) Core(TM) i7-2670QM CPU @ 2.20GHz,orientation_search,GRVLAPTOP3,Intel(R) HD Graphics Family,2018_nov_08_1317,testMonitor,
334.7,,341.4,317.1,36,-60,311.0,332.7,314.0,329.3,8.32,8.301,8.418,7.601,8.17,7.599,8.053,5.172,-4.944,-8.384,1.89,-1.647,7.679,4.489,-4.92,-7.774,331.6,320.1,-8.201,324.2,329.3,338.4,312.5,301.4,36,328.6,3,5,prime,10,0,62,norm,36,-4.969,up,norm,321.413240012,330.1,321.7,1.124,320.2,5,314.1,319.7,316.6,10,6,8.309,4.528,1.606,-1.532,-4.901,-7.998,317.0,6,383.4,-8.139,-8.22,-60,-7.695,-7.901,-4.457,-4.592,-5.197,-4.323,4.633,8.282,23,-1.665,1.291,4.387,7.803,-8.009,-8.387,-1.558,1.552,328.2,319.7,326.8,325.5,318.4,328.1,332.6,328.5,318.4,310.4,2,norm,1.629,1.618,-1.349,-1.473,-5.06,-4.342,-1.643,-1.378,-1.725,-2.099,1.977,-1.142,336.1,324.6,-4.958,-7.785,336.2,-1.268,7.879,4.5,-4.394,-7.822,4,4.996,4.352,4.538,4.519,1.943,1.89,1.373,1.75,4,4.909,4.712,20,157.091169224,norm,0,15,15,15,2040.883,2040.889,2040.89124998,2040.892,2040.894,2040.898,up,1,1.28966198662,8.71033801338,001,311,1600_900,Intel(R) Core(TM) i7-2670QM CPU @ 2.20GHz,orientation_search,GRVLAPTOP3,Intel(R) HD Graphics Family,2018_nov_08_1317,testMonitor,
309.3,337.4,330.4,330.0,36,-60,307.9,326.3,330.4,321.0,7.539,8.439,7.547,7.713,8.369,8.203,8.469,4.58,-5.074,-7.875,1.484,-1.175,8.271,4.552,-4.801,-7.728,328.6,317.4,-7.804,332.9,301.9,313.2,334.5,323.6,36,311.2,1,5,prime,10,0,99,norm,36,-5.293,down,norm,321.413240012,341.4,339.7,1.545,301.4,2,319.7,322.6,327.8,10,6,8.178,5.065,1.529,-1.294,-5.001,-7.902,322.7,6,420.4,-8.425,-8.4,-60,-7.89,-7.676,-4.512,-4.432,-4.354,-4.435,5.1,8.12,8,-1.811,1.453,4.313,7.635,-8.478,-7.81,-1.925,1.477,328.6,,317.7,316.5,329.2,330.2,315.3,310.5,313.0,322.8,3,norm,1.364,1.113,-1.669,-1.944,-4.43,-5.14,-1.838,-1.87,-1.252,-1.379,1.974,-1.362,325.9,325.7,-4.856,-7.894,317.2,-1.804,7.714,4.303,-4.609,-7.758,4,4.368,5.041,5.207,5.293,1.925,1.889,2.019,1.979,4,4.987,4.704,20,157.091169224,norm,0,16,16,16,2042.196,2042.201,2042.20295372,2042.203,2042.206,2042.21,down,1,1.17211468958,8.82788531042,001,311,1600_900,Intel(R) Core(TM) i7-2670QM CPU @ 2.20GHz,orientation_search,GRVLAPTOP3,Intel(R) HD Graphics Family,2018_nov_08_1317,testMonitor,
316.7,325.8,323.9,308.6,36,-60,304.5,319.7,341.4,322.3,7.626,8.11,7.834,8.33,7.616,8.173,8.188,4.794,-4.869,-7.891,1.831,-1.564,8.108,5.204,-4.999,-7.849,333.6,323.9,-7.601,302.3,333.8,304.1,315.1,336.7,36,322.4,0,5,prime,10,0,90,norm,36,-5.211,down,norm,321.413240012,311.3,320.2,1.745,322.2,0,329.6,308.7,304.7,10,6,7.723,4.37,1.86,-1.731,-4.555,-7.991,301.4,6,411.4,-7.618,-7.65,-60,-8.354,-7.625,-4.676,-4.821,-5.073,-4.364,4.62,7.67,0,-1.469,1.488,4.893,8.419,-7.627,-7.687,-1.43,1.371,331.2,301.5,330.2,320.2,315.5,,313.2,324.3,315.3,323.9,4,norm,2.063,1.8,-1.861,-1.928,-4.317,-4.591,-1.426,-1.379,-1.708,-1.477,1.233,-1.789,318.4,336.0,-4.397,-8.204,330.9,-1.33,8.18,4.347,-5.272,-8.414,4,5.175,4.895,5.177,4.523,1.94,1.768,1.212,1.497,4,4.461,4.613,20,157.091169224,norm,0,17,17,17,2043.391,2043.396,2043.39838399,2043.399,2043.402,2043.405,down,1,1.61939313738,8.38060686262,001,311,1600_900,Intel(R) Core(TM) i7-2670QM CPU @ 2.20GHz,orientation_search,GRVLAPTOP3,Intel(R) HD Graphics Family,2018_nov_08_1317,testMonitor,
317.7,319.8,320.7,339.9,36,-60,331.6,313.8,313.7,308.0,7.887,8.132,7.832,7.879,8.159,7.941,7.595,5.087,-5.291,-7.706,1.151,-1.38,8.023,5.233,-4.411,-7.863,329.1,334.6,-8.271,337.7,341.4,331.4,322.9,312.6,36,325.2,2,5,prime,10,0,78,norm,36,-5.26,down,norm,321.413240012,328.7,321.4,2.057,317.8,1,318.9,,325.1,10,6,8.104,5.118,1.685,-1.888,-4.824,-8.468,341.3,6,399.4,-8.244,-7.835,-60,-7.763,-8.359,-4.305,-4.528,-4.438,-4.798,4.314,8.024,13,-1.649,1.678,4.403,7.831,-8.412,-7.501,-1.555,1.731,318.4,326.0,338.7,318.2,328.6,318.2,325.8,318.2,301.4,337.8,5,norm,1.226,1.401,-1.787,-1.224,-4.878,-4.669,-1.131,-1.981,-1.764,-1.978,1.579,-1.639,313.7,324.3,-4.784,-8.256,330.4,-1.753,8.25,5.058,-4.391,-8.441,4,5.23,4.829,4.709,4.799,1.295,1.567,1.663,1.896,4,5.052,4.969,20,157.091169224,norm,0,18,18,18,2045.033,2045.039,2045.04117116,2045.042,2045.045,2045.048,down,1,1.38209502179,8.61790497821,001,311,1600_900,Intel(R) Core(TM) i7-2670QM CPU @ 2.20GHz,orientation_search,GRVLAPTOP3,Intel(R) HD Graphics Family,2018_nov_08_1317,testMonitor,
337.3,329.6,342.2,339.4,36,10,334.2,335.7,331.3,349.3,8.38,8.161,7.856,8.343,7.553,8.35,8.429,5.01,-4.639,-7.683,1.759,-1.79,7.767,5.264,-4.557,-7.679,332.8,337.4,-7.712,346.4,340.8,344.0,335.0,337.5,36,,4,5,probe,5,0,87,norm,36,-4.947,up,norm,339.329354595,329.3,341.9,1.875,340.0,3,344.7,340.3,333.0,10,6,8.444,4.74,1.175,-1.514,-4.769,-7.938,333.6,2,252.3,-8.07,-8.257,-60,-8.064,-8.382,-4.652,-4.506,-4.443,-5.132,5.108,7.665,27,-1.284,1.557,5.204,8.402,-8.286,-8.478,-1.782,1.982,338.5,341.2,345.0,339.6,340.9,340.9,339.5,344.7,337.1,342.3,0,norm,1.232,1.281,-1.652,-1.316,-4.784,-5.138,-1.355,-1.568,-1.326,-1.204,1.709,-1.229,339.4,347.7,-5.226,-8.051,347.4,-2.018,8.052,4.419,-4.305,-7.877,5,4.365,4.498,5.009,4.764,1.199,1.394,1.332,1.976,5,4.976,5.242,-60,321.413240012,norm,0,19,19,19,2046.438,2046.444,2046.44560024,2046.446,2046.449,2046.452,up,1,1.57294548117,8.42705451883,001,311,1600_900,Intel(R) Core(TM) i7-2670QM CPU @ 2.20GHz,orientation_search,GRVLAPTOP3,Intel(R) HD Graphics Family,2018_nov_08_1317,testMonitor,
348.7,347.7,353.5,349.3,36,10,364.3,352.2,358.6,354.1,8.301,7.986,7.669,7.882,7.972,8.012,7.616,5.268,-4.707,-8.199,2.023,-1.68,8.25,4.338,-5.287,-7.841,361.5,359.9,-7.692,,352.6,356.8,361.0,352.0,36,363.2,5,5,probe,5,0,102,norm,36,-4.925,down,norm,354.329354595,352.2,361.7,1.809,348.4,1,344.6,348.9,346.6,10,6,7.779,4.325,1.925,-1.78,-4.441,-7.546,348.5,2,252.3,-7.741,-7.51,-60,-8.028,-8.038,-4.446,-4.816,-5.18,-4.843,5.286,7.679,31,-1.539,1.895,5.295,8.223,-8.434,-7.719,-1.723,1.665,356.7,350.6,347.3,359.9,353.3,357.0,352.2,344.3,346.1,351.5,1,norm,1.158,1.237,-1.607,-1.12,-4.615,-4.86,-1.622,-1.611,-1.823,-1.514,1.699,-2.022,363.9,348.1,-4.679,-8.382,350.0,-1.546,7.848,4.499,-4.353,-7.615,5,4.838,5.151,4.473,4.726,1.304,1.288,1.394,1.143,5,4.314,4.381,-60,321.413240012,norm,0,20,20,20,2048.033,2048.039,2048.04077519,2048.041,2048.045,2048.048,down,1,3.02939289456,6.97060710544,001,311,1600_900,Intel(R) Core(TM) i7-2670QM CPU @ 2.20GHz,orientation_search,GRVLAPTOP3,Intel(R) HD Graphics Family,2018_nov_08_1317,testMonitor,
194.1,218.7,185.6,193.7,36,-60,209.1,194.2,190.7,200.3,8.407,8.434,7.687,7.549,8.391,8.464,8.381,4.92,-5.237,-7.66,1.893,-1.485,7.948,5.069,-4.84,-7.65,195.0,,-7.563,205.2,198.1,207.4,204.7,220.6,36,211.1,5,5,prime,10,0,116,norm,36,-4.621,up,norm,200.613219656,204.2,205.2,1.279,180.6,4,195.9,191.1,197.9,10,5,8.106,4.677,1.597,-1.329,-4.457,-8.14,200.6,5,316.6,-8.484,-7.744,-60,-8.115,-7.806,-5.297,-5.1,-5.233,-4.348,4.311,7.955,34,-1.661,1.247,4.759,8.081,-7.512,-7.745,-1.821,1.167,199.6,190.6,198.6,202.7,219.0,197.5,206.1,204.0,198.9,215.1,0,norm,2.087,1.728,-1.72,-1.333,-4.688,-5.079,-1.168,-1.963,-1.159,-1.272,1.801,-1.115,193.1,202.1,-4.826,-7.874,194.2,-2.064,7.649,4.637,-4.353,-8.452,6,5.2,4.436,4.36,4.87,1.76,1.223,1.547,1.211,6,5.132,4.619,10,321.413240012,norm,0,21,21,21,2051.088,2051.094,2051.09657579,2051.097,2051.1,2051.103,up,1,1.35150254112,8.64849745888,001,311,1600_900,Intel(R) Core(TM) i7-2670QM CPU @ 2.20GHz,orientation_search,GRVLAPTOP3,Intel(R) HD Graphics Family,2018_nov_08_1317,testMonitor,
202.0,196.1,220.6,189.9,36,-60,199.8,206.6,209.8,,7.805,8.009,8.481,8.409,8.091,7.642,7.877,4.849,-5.058,-8.294,1.805,-1.554,8.183,4.529,-4.569,-7.685,184.9,208.2,-7.881,207.1,198.2,213.7,208.0,212.7,36,181.8,4,5,prime,10,0,116,norm,36,-4.662,up,norm,200.613219656,211.7,180.6,2.087,200.6,5,197.1,206.7,219.1,10,5,7.614,5.039,1.187,-2.048,-5.017,-7.697,203.4,5,316.6,-7.606,-7.754,-60,-7.917,-7.512,-4.601,-5.149,-5.111,-4.545,5.191,8.27,29,-1.575,1.642,4.473,8.344,-8.022,-7.658,-1.476,1.632,201.6,198.7,200.7,204.1,193.2,188.4,188.8,195.8,212.6,197.8,1,norm,2.055,1.945,-2.078,-1.792,-5.014,-4.619,-1.647,-1.541,-1.815,-1.643,2.003,-1.944,193.8,195.2,-4.365,-7.796,210.3,-1.966,7.722,4.627,-4.734,-7.573,6,4.806,4.703,5.198,4.36,2.082,1.641,2.089,1.198,6,5.158,5.056,10,321.413240012,norm,0,22,22,22,2052.462,2052.468,2052.47045301,2052.471,2052.473,2052.477,up,1,1.5818127992,8.4181872008,001,311,1600_900,Intel(R) Core(TM) i7-2670QM CPU @ 2.20GHz,orientation_search,GRVLAPTOP3,Intel(R) HD Graphics Family,2018_nov_08_1317,testMonitor,
218.4,190.3,208.1,191.4,36,-60,198.5,201.7,202.1,201.5,7.81,7.507,8.294,8.059,7.835,8.36,7.658,4.871,-4.747,-8.472,1.529,-1.613,8.107,4.919,-5.022,-7.53,190.3,214.2,-7.794,194.9,210.7,201.7,189.4,203.7,36,200.0,1,5,prime,10,0,69,norm,36,-4.854,down,norm,200.613219656,189.2,184.3,1.167,210.4,1,197.4,218.1,219.2,10,5,7.934,5.252,1.917,-1.205,-4.881,-7.987,220.6,5,269.6,-8.326,-7.748,-60,-7.647,-7.948,-4.932,-4.505,-5.019,-4.51,4.408,8.356,7,-1.436,1.768,4.427,7.831,-8.326,-7.747,-1.489,1.167,200.4,187.0,215.1,185.9,198.4,212.3,,209.4,187.4,202.3,2,norm,1.632,1.666,-1.519,-1.112,-4.627,-4.85,-2.065,-1.251,-1.343,-1.86,1.906,-1.686,200.2,203.7,-4.679,-8.204,180.6,-1.123,8.073,4.348,-4.952,-8.193,6,5.212,4.793,4.363,5.02,1.937,1.694,1.534,1.188,6,5.138,4.651,10,321.413240012,norm,0,23,23,23,2054.067,2054.073,2054.07564397,2054.076,2054.079,2054.082,down,1,1.26376698986,8.73623301014,001,311,1600_900,Intel(R) Core(TM) i7-2670QM CPU @ 2.20GHz,orientation_search,GRVLAPTOP3,Intel(R) HD Graphics Family,2018_nov_08_1317,testMonitor,
220.6,206.0,205.2,206.9,36,-60,207.2,205.2,195.9,,8.413,8.298,8.388,8.372,8.42,8.412,8.189,4.753,-4.532,-8.182,1.538,-2.028,8.426,4.497,-5.021,-7.778,189.2,199.7,-7.796,199.3,217.6,193.4,208.9,193.9,36,203.8,4,5,prime,10,0,66,norm,36,-4.52,up,norm,200.613219656,190.6,215.2,1.42,209.0,5,195.5,192.3,199.9,10,5,7.789,4.385,1.586,-1.65,-5.157,-7.828,203.6,5,266.6,-7.823,-8.349,-60,-8.025,-7.762,-4.405,-4.396,-4.969,-5.261,4.893,8.24,29,-1.142,1.674,4.6,8.286,-8.488,-8.421,-1.517,2.092,208.3,195.7,215.7,208.2,206.9,203.9,180.6,203.9,205.7,197.0,3,norm,1.517,1.417,-1.213,-1.824,-4.915,-4.395,-1.587,-1.26,-1.808,-1.106,1.572,-1.591,205.2,200.0,-4.483,-7.885,204.9,-1.232,7.553,4.359,-5.126,-8.058,6,5.159,4.328,5.033,4.501,1.655,1.231,1.497,1.827,6,5.26,4.531,10,321.413240012,norm,0,24,24,24,2055.354,2055.36,2055.36203079,2055.362,2055.365,2055.369,up,1,1.52092014651,8.47907985349,001,311,1600_900,Intel(R) Core(TM) i7-2670QM CPU @ 2.20GHz,orientation_search,GRVLAPTOP3,Intel(R) HD Graphics Family,2018_nov_08_1317,testMonitor,
193.2,220.6,202.6,200.6,36,-60,189.2,199.0,200.0,201.9,7.791,8.477,7.888,7.95,8.154,8.174,7.541,5.008,-5.247,-8.456,1.879,-1.172,8.01,4.893,-5.1,-8.054,192.3,201.2,-7.61,183.1,207.0,211.3,188.2,183.2,36,198.8,3,5,prime,10,0,116,norm,36,-4.739,down,norm,200.613219656,212.3,209.0,2.055,203.2,1,193.2,194.4,183.3,10,5,8.334,4.601,1.388,-2.006,-4.486,-8.395,216.5,5,316.6,-7.978,-7.734,-60,-7.747,-8.018,-4.546,-5.188,-4.308,-4.44,4.964,7.634,19,-1.637,1.31,4.658,7.766,-8.163,-8.392,-1.777,1.924,199.4,207.9,180.6,212.3,209.1,186.9,212.1,192.9,212.8,201.9,4,norm,2.069,1.612,-1.965,-1.296,-4.863,-4.849,-1.135,-1.596,-1.341,-1.743,1.67,-1.278,,185.6,-5.019,-7.602,182.6,-1.869,7.569,4.372,-5.012,-7.853,6,5.279,4.713,5.042,4.886,1.161,1.348,1.144,1.847,6,4.493,4.911,10,321.413240012,norm,0,25,25,25,2056.898,2056.904,2056.9062301,2056.907,2056.909,2056.913,down,1,1.56084035466,8.43915964534,001,311,1600_900,Intel(R) Core(TM) i7-2670QM CPU @ 2.20GHz,orientation_search,GRVLAPTOP3,Intel(R) HD Graphics Family,2018_nov_08_1317,testMonitor,
257.5,257.0,253.7,255.9,36,-20,253.4,250.4,263.6,243.6,7.592,7.978,8.487,7.667,7.803,8.053,7.716,4.411,-4.4,-8.117,1.72,-1.172,7.62,4.71,-5.29,-8.363,246.9,252.2,-7.854,,252.2,259.0,248.2,256.4,36,246.5,5,5,probe,5,0,105,norm,36,-4.341,down,norm,253.630656439,252.7,256.6,2.008,253.8,1,253.6,256.5,252.3,10,5,8.372,4.459,1.955,-1.118,-4.661,-7.532,250.4,2,148.6,-7.999,-8.007,-60,-8.021,-7.649,-5.266,-4.937,-5.176,-5.218,4.406,8.268,31,-1.273,1.534,4.592,7.69,-8.136,-8.227,-1.253,1.562,254.6,245.6,256.2,260.5,254.5,258.3,254.4,253.5,249.3,250.0,0,norm,1.635,1.1,-1.167,-1.916,-4.402,-4.821,-1.521,-1.967,-1.502,-1.77,1.228,-2.017,257.3,257.4,-4.793,-8.076,246.1,-1.282,7.98,4.981,-5.141,-8.489,7,4.381,5.209,4.835,4.549,1.136,2.029,2.022,1.804,7,5.054,4.504,-60,200.613219656,norm,0,26,26,26,2058.482,2058.488,2058.48994757,2058.49,2058.493,2058.497,down,1,1.51782335593,8.48217664407,001,311,1600_900,Intel(R) Core(TM) i7-2670QM CPU @ 2.20GHz,orientation_search,GRVLAPTOP3,Intel(R) HD Graphics Family,2018_nov_08_1317,testMonitor,
244.0,256.7,250.3,253.9,36,-20,247.8,251.6,253.5,253.3,7.786,7.648,7.995,7.566,8.005,7.74,8.181,4.55,-4.367,-7.54,1.621,-1.176,8.353,5.061,-5.24,-7.886,250.8,257.7,-8.031,242.6,250.9,253.1,253.9,256.9,36,244.7,0,5,probe,5,0,104,norm,36,-4.476,down,norm,252.630656439,254.2,256.0,1.791,252.5,0,262.6,249.4,253.4,10,5,7.821,5.178,1.697,-1.642,-5.033,-8.082,254.3,2,148.6,-8.425,-8.488,-60,-8.285,-8.13,-4.979,-4.829,-4.581,-5.172,4.437,8.212,0,-1.398,1.338,5.242,7.923,-7.791,-7.706,-1.333,2.097,251.5,253.4,249.6,251.9,245.5,,252.7,260.4,254.0,255.3,1,norm,1.124,1.357,-1.907,-1.74,-5.267,-5.109,-1.184,-1.285,-1.171,-1.184,1.543,-1.528,252.9,253.0,-4.747,-8.456,248.1,-1.981,7.785,4.892,-4.772,-8.206,7,5.086,4.308,4.994,4.659,1.518,1.744,1.293,1.5,7,4.356,5.224,-60,200.613219656,norm,0,27,27,27,2060.023,2060.029,2060.03122519,2060.032,2060.034,2060.038,down,1,1.47277887458,8.52722112542,001,311,1600_900,Intel(R) Core(TM) i7-2670QM CPU @ 2.20GHz,orientation_search,GRVLAPTOP3,Intel(R) HD Graphics Family,2018_nov_08_1317,testMonitor,
11.2,26.1,26.7,13.9,36,20,18.4,17.8,30.7,16.3,8.254,8.197,8.458,8.208,7.654,8.087,7.561,4.943,-4.6,-8.442,1.794,-1.538,8.209,4.811,-4.911,-8.175,28.2,13.1,-8.148,36.3,14.7,17.2,5.3,-3.7,36,3.3,1,5,prime,10,0,99,norm,36,-4.879,up,norm,16.3340478138,16.6,24.8,1.309,22.3,4,13.8,11.6,12.7,10,6,7.569,4.674,1.423,-1.858,-5.07,-7.792,,6,115.3,-8.256,-7.979,20,-8.284,-8.46,-4.437,-5.152,-4.744,-5.29,5.074,7.652,10,-1.51,1.279,4.836,7.669,-8.235,-8.268,-1.786,2.084,5.6,21.4,11.9,16.5,1.7,26.4,13.9,29.1,21.1,5.9,0,norm,2.093,1.698,-1.558,-1.514,-4.323,-4.845,-1.361,-2.062,-1.263,-1.878,1.83,-1.831,19.3,32.4,-5.014,-8.273,14.8,-1.418,7.803,4.744,-4.383,-8.133,8,4.954,4.602,5.297,4.581,1.357,1.723,1.924,1.21,8,4.927,4.838,-20,200.613219656,norm,0,28,28,28,2061.519,2061.524,2061.52645253,2061.527,2061.53,2061.533,up,1,1.29382434959,8.70617565041,001,311,1600_900,Intel(R) Core(TM) i7-2670QM CPU @ 2.20GHz,orientation_search,GRVLAPTOP3,Intel(R) HD Graphics Family,2018_nov_08_1317,testMonitor,
17.3,7.5,26.5,20.9,36,20,5.4,25.0,25.8,12.4,8.434,7.902,8.487,7.573,7.653,7.795,8.06,5.08,-4.717,-8.464,1.736,-1.125,8.325,4.301,-4.39,-7.702,14.9,15.0,-7.721,7.7,26.4,7.8,9.9,16.7,36,5.7,2,5,prime,10,0,100,norm,36,-4.878,up,norm,16.3340478138,27.5,,1.528,18.4,4,21.3,8.9,6.8,10,6,8.352,5.188,1.174,-1.987,-4.57,-8.411,21.7,6,116.3,-7.7,-8.168,20,-7.871,-7.681,-4.44,-4.761,-5.108,-4.829,4.49,7.849,16,-1.464,2.089,4.396,7.876,-8.482,-8.361,-1.532,1.255,15.5,4.2,-3.7,6.4,20.8,3.3,23.4,23.4,36.3,7.1,1,norm,1.128,1.275,-1.394,-1.52,-4.562,-5.079,-1.734,-1.463,-1.954,-1.881,2.008,-1.383,14.2,8.2,-4.703,-8.396,18.5,-1.807,7.842,5.209,-4.753,-8.027,8,4.551,5.103,4.398,4.888,1.628,1.985,1.793,1.351,8,5.248,4.534,-20,200.613219656,norm,0,29,29,29,2062.835,2062.841,2062.84289298,2062.843,2062.846,2062.85,up,1,2.05921491316,7.94078508684,001,311,1600_900,Intel(R) Core(TM) i7-2670QM CPU @ 2.20GHz,orientation_search,GRVLAPTOP3,Intel(R) HD Graphics Family,2018_nov_08_1317,testMonitor,
26.8,9.6,17.6,17.4,36,20,7.7,14.4,31.0,13.1,8.164,7.73,7.806,7.748,8.167,7.562,7.689,4.624,-4.839,-8.453,1.407,-1.312,8.103,4.675,-4.309,-8.166,24.5,22.0,-8.186,21.2,31.2,36.3,23.4,13.6,36,20.8,2,5,prime,10,0,119,norm,36,-4.995,up,norm,16.3340478138,25.9,6.3,1.539,20.9,3,12.2,20.1,15.7,10,6,7.71,4.906,1.908,-1.423,-4.705,-7.895,32.0,6,135.3,-8.167,-7.921,20,-7.768,-7.619,-4.398,-4.78,-4.39,-4.549,4.32,7.725,15,-1.304,1.801,4.709,8.25,-7.811,-7.559,-1.755,1.641,25.4,12.8,11.4,4.4,17.7,16.9,23.6,16.2,12.8,19.6,2,norm,1.614,2.096,-1.8,-1.149,-4.608,-5.15,-1.372,-1.658,-2.081,-1.536,1.746,-1.829,19.0,34.3,-4.763,-8.427,,-1.649,7.833,5.095,-4.573,-7.705,8,5.125,4.323,4.7,4.95,1.603,1.468,2.022,2.057,8,5.13,4.44,-20,200.613219656,norm,0,30,30,30,2064.917,2064.925,2064.92655022,2064.927,2064.93,2064.933,up,1,2.57999871123,7.42000128877,001,311,1600_900,Intel(R) Core(TM) i7-2670QM CPU @ 2.20GHz,orientation_search,GRVLAPTOP3,Intel(R) HD Graphics Family,2018_nov_08_1317,testMonitor,
,-3.7,10.1,12.5,36,20,17.0,18.6,10.9,27.5,7.502,7.721,7.681,8.489,8.383,7.687,8.381,5.034,-4.338,-7.969,1.342,-1.617,7.609,4.567,-5.216,-8.276,22.9,13.6,-8.281,20.2,27.0,18.3,23.3,9.9,36,-2.9,3,5,prime,10,0,73,norm,36,-4.537,up,norm,16.3340478138,24.4,17.6,1.505,7.7,4,26.2,21.4,26.6,10,6,8.018,5.131,1.701,-2.046,-5.275,-8.333,21.6,6,89.3,-7.779,-8.419,20,-8.451,-7.794,-5.024,-4.612,-5.163,-5.149,4.518,7.599,22,-2.017,1.594,4.59,8.243,-7.924,-7.665,-1.452,2.09,2.3,18.1,16.6,25.9,9.8,12.9,22.9,9.2,16.0,23.7,3,norm,1.418,1.309,-1.773,-1.939,-4.447,-5.272,-1.269,-1.662,-1.963,-1.547,1.212,-1.154,5.7,18.1,-4.856,-8.308,25.9,-1.46,7.867,5.19,-4.591,-7.678,8,4.815,4.306,4.35,4.546,1.43,1.355,2.009,1.386,8,5.003,4.746,-20,200.613219656,norm,0,31,31,31,2067.522,2067.527,2067.52878493,2067.529,2067.532,2067.535,up,1,2.08051562124,7.91948437876,001,311,1600_900,Intel(R) Core(TM) i7-2670QM CPU @ 2.20GHz,orientation_search,GRVLAPTOP3,Intel(R) HD Graphics Family,2018_nov_08_1317,testMonitor,
17.0,10.6,20.6,10.2,36,20,14.4,27.0,-2.0,24.2,8.469,7.777,7.988,8.312,8.26,8.459,8.187,5.0,-5.273,-8.331,1.219,-1.927,8.13,4.976,-5.248,-7.702,-3.7,16.0,-8.106,26.5,11.6,36.3,17.3,18.1,36,0.7,2,5,prime,10,0,98,norm,36,-4.617,down,norm,16.3340478138,10.3,8.0,1.352,-0.8,0,14.0,10.9,,10,6,7.786,4.915,2.076,-1.965,-4.515,-7.624,28.4,6,114.3,-8.018,-7.802,20,-7.569,-8.113,-4.437,-4.91,-4.908,-4.398,5.1,8.385,12,-1.18,1.533,5.073,8.056,-7.78,-8.083,-1.401,1.618,15.3,8.6,9.6,7.3,18.1,13.4,24.9,18.8,34.4,8.0,4,norm,1.534,1.281,-1.518,-1.649,-5.016,-5.117,-1.778,-1.334,-1.135,-1.274,1.337,-1.802,3.7,13.5,-4.734,-7.899,26.9,-1.63,7.81,4.745,-5.094,-7.842,8,4.494,4.417,4.534,4.904,1.172,1.761,1.147,2.003,8,4.966,5.114,-20,200.613219656,norm,0,32,32,32,2069.624,2069.629,2069.63103132,2069.632,2069.635,2069.639,down,1,1.19665927646,8.80334072354,001,311,1600_900,Intel(R) Core(TM) i7-2670QM CPU @ 2.20GHz,orientation_search,GRVLAPTOP3,Intel(R) HD Graphics Family,2018_nov_08_1317,testMonitor,
2.2,-1.7,23.5,17.8,36,20,-0.6,16.7,7.7,5.7,8.445,7.856,7.958,8.193,8.28,7.934,8.051,4.392,-5.08,-8.078,1.677,-1.629,8.057,5.053,-4.33,-8.036,20.4,4.0,-7.578,17.6,-3.7,,14.4,6.1,36,26.4,5,5,prime,10,0,83,norm,36,-4.533,up,norm,16.3340478138,22.3,22.6,1.89,17.5,3,17.6,15.1,4.2,10,6,8.387,4.865,2.066,-1.543,-4.537,-7.833,4.4,6,99.3,-8.095,-7.722,20,-8.35,-8.19,-4.669,-5.261,-4.515,-4.904,4.515,7.854,33,-1.934,1.265,5.085,7.852,-7.898,-8.369,-1.265,1.919,26.5,21.3,24.3,17.0,4.9,18.7,17.2,34.4,8.0,22.0,5,norm,1.33,1.596,-1.748,-1.524,-4.316,-4.837,-1.395,-1.52,-1.413,-2.073,1.67,-2.002,5.4,36.3,-4.565,-8.472,20.2,-1.502,8.062,4.885,-5.298,-8.053,8,4.718,4.67,5.226,4.645,1.458,1.508,1.773,1.194,8,4.352,4.812,-20,200.613219656,norm,0,33,33,33,2070.844,2070.85,2070.85156791,2070.852,2070.855,2070.858,up,1,1.79555999051,8.20444000949,001,311,1600_900,Intel(R) Core(TM) i7-2670QM CPU @ 2.20GHz,orientation_search,GRVLAPTOP3,Intel(R) HD Graphics Family,2018_nov_08_1317,testMonitor,
105.9,93.3,96.7,97.4,36,0,96.0,93.7,96.4,101.2,8.495,7.825,7.991,7.753,7.756,7.619,7.89,4.925,-4.943,-7.749,1.924,-1.32,8.259,5.293,-4.373,-7.573,106.8,104.9,-8.277,102.6,95.6,104.1,102.7,90.4,36,109.4,1,5,probe,5,0,63,norm,36,-5.048,up,norm,99.3788478624,94.8,106.8,1.112,100.3,5,,97.5,96.0,10,6,7.676,4.996,1.119,-1.729,-5.067,-8.278,94.0,1,36.4,-8.275,-7.528,20,-8.277,-8.197,-4.459,-5.069,-5.161,-5.071,5.125,7.514,11,-1.888,1.403,4.318,7.776,-7.589,-7.68,-1.361,1.166,101.1,97.8,107.8,108.8,89.4,107.4,104.1,99.3,96.1,106.2,0,norm,1.456,1.991,-1.125,-2.061,-5.109,-4.738,-1.849,-1.752,-1.484,-1.109,2.081,-1.764,96.1,95.4,-4.812,-8.297,100.9,-1.39,8.337,4.91,-4.531,-7.916,9,4.358,4.912,5.017,5.149,1.701,1.415,1.853,2.063,9,5.199,4.965,20,16.3340478138,norm,0,34,34,34,2072.663,2072.668,2072.66994666,2072.67,2072.673,2072.677,up,1,1.59309703339,8.40690296661,001,311,1600_900,Intel(R) Core(TM) i7-2670QM CPU @ 2.20GHz,orientation_search,GRVLAPTOP3,Intel(R) HD Graphics Family,2018_nov_08_1317,testMonitor,
164.4,165.7,155.5,170.0,36,30,177.9,153.8,177.6,147.5,7.611,8.314,7.782,8.065,7.844,7.938,7.939,4.851,-5.011,-7.531,1.76,-1.397,7.93,4.791,-4.863,-7.76,167.9,144.8,-8.492,158.4,158.8,154.8,,162.7,36,157.9,5,5,prime,10,0,63,norm,36,-4.34,down,norm,159.880054961,166.3,179.8,1.922,151.6,2,157.1,164.0,179.9,10,5,8.072,4.818,2.066,-2.063,-4.579,-8.334,169.4,5,222.9,-7.793,-7.806,30,-7.584,-8.495,-5.06,-4.585,-4.903,-5.043,5.008,8.36,32,-1.957,1.896,4.445,7.865,-7.695,-7.943,-1.617,1.554,165.8,155.2,155.7,139.9,153.3,156.7,164.3,165.2,164.8,152.9,0,norm,2.002,1.866,-1.231,-1.582,-4.451,-4.549,-1.956,-1.441,-1.479,-1.156,1.905,-2.052,165.1,155.1,-4.345,-7.671,170.5,-1.968,7.721,4.762,-4.748,-7.859,10,5.249,4.691,5.162,4.931,1.684,1.954,1.432,1.637,10,4.898,5.031,0,16.3340478138,norm,0,35,35,35,2074.278,2074.284,2074.28625281,2074.287,2074.289,2074.293,down,1,1.40955195529,8.59044804471,001,311,1600_900,Intel(R) Core(TM) i7-2670QM CPU @ 2.20GHz,orientation_search,GRVLAPTOP3,Intel(R) HD Graphics Family,2018_nov_08_1317,testMonitor,
151.0,165.0,166.2,158.2,36,30,151.7,158.3,161.2,168.2,7.738,7.89,7.94,8.224,8.344,7.976,8.187,4.519,-4.427,-7.765,1.67,-1.517,8.248,4.893,-4.418,-7.932,157.5,161.1,-7.552,172.4,169.1,156.5,159.8,153.4,36,151.9,1,5,prime,10,0,75,norm,36,-4.84,up,norm,159.880054961,144.9,170.8,1.125,157.0,3,156.1,153.8,155.6,10,5,7.886,4.76,1.115,-1.317,-4.998,-7.679,172.7,5,234.9,-8.475,-8.081,30,-7.823,-7.58,-5.138,-5.273,-4.488,-5.227,4.857,8.383,9,-1.221,1.584,4.539,8.405,-8.469,-8.222,-1.106,1.474,,173.5,154.3,157.6,148.2,158.0,139.9,150.7,157.0,179.9,1,norm,1.277,2.044,-1.708,-1.767,-5.012,-4.469,-1.319,-2.033,-1.454,-1.662,1.219,-1.224,173.2,163.5,-5.172,-8.435,163.5,-1.971,7.562,4.709,-4.447,-7.514,10,4.596,4.934,5.287,4.611,1.633,1.688,1.297,1.241,10,4.341,4.621,0,16.3340478138,norm,0,36,36,36,2075.71,2075.716,2075.71842413,2075.719,2075.722,2075.725,up,1,1.43122622074,8.56877377926,001,311,1600_900,Intel(R) Core(TM) i7-2670QM CPU @ 2.20GHz,orientation_search,GRVLAPTOP3,Intel(R) HD Graphics Family,2018_nov_08_1317,testMonitor,
147.6,151.1,154.5,150.2,36,30,160.2,152.2,,159.3,7.593,7.952,8.198,7.61,7.869,8.071,7.855,4.845,-5.031,-7.622,1.329,-1.655,7.964,4.367,-5.018,-7.559,161.3,164.3,-7.525,154.6,139.9,179.9,164.7,157.8,36,172.3,4,5,prime,10,0,70,norm,36,-5.076,up,norm,159.880054961,165.6,158.4,2.03,169.1,4,155.6,152.7,156.8,10,5,8.4,4.759,1.636,-1.598,-4.382,-8.045,165.2,5,229.9,-7.769,-7.625,30,-8.103,-7.751,-4.443,-4.879,-4.566,-4.513,5.248,8.065,28,-1.373,1.602,4.965,8.114,-8.161,-8.126,-1.534,1.457,153.7,153.7,152.2,154.8,158.8,164.5,158.6,154.2,165.0,158.4,2,norm,1.109,1.737,-1.57,-1.709,-4.959,-4.625,-2.052,-1.496,-1.728,-1.632,1.37,-2.07,163.6,159.1,-5.285,-8.245,166.8,-1.149,8.034,5.178,-4.342,-7.798,10,4.863,4.608,4.497,4.971,1.56,1.852,1.618,2.052,10,4.562,4.332,0,16.3340478138,norm,0,37,37,37,2077.164,2077.17,2077.17238085,2077.173,2077.176,2077.179,up,1,1.56826714208,8.43173285792,001,311,1600_900,Intel(R) Core(TM) i7-2670QM CPU @ 2.20GHz,orientation_search,GRVLAPTOP3,Intel(R) HD Graphics Family,2018_nov_08_1317,testMonitor,
155.6,146.5,155.5,167.6,36,30,162.1,148.9,150.3,150.8,7.741,7.996,8.079,8.238,8.441,7.891,7.549,4.907,-4.574,-7.933,1.904,-1.963,8.016,5.089,-4.42,-8.166,155.6,145.3,-7.619,179.9,155.7,174.6,164.2,145.4,36,155.0,0,5,prime,10,0,80,norm,36,-5.008,up,norm,159.880054961,178.3,162.5,1.605,158.6,3,156.5,139.9,156.9,10,5,8.187,4.322,1.184,-1.536,-5.265,-7.662,151.7,5,239.9,-7.579,-7.622,30,-7.937,-8.393,-5.215,-4.759,-4.383,-4.408,4.726,7.584,3,-1.96,1.855,5.149,7.526,-8.436,-8.353,-1.562,2.031,163.3,163.3,,156.4,150.8,159.2,173.6,156.0,147.5,151.6,3,norm,2.047,1.154,-1.224,-1.397,-4.878,-4.955,-1.61,-1.429,-1.348,-1.958,1.824,-1.297,157.5,164.9,-5.005,-8.353,161.3,-1.641,8.023,4.805,-4.905,-7.794,10,5.036,4.911,4.939,4.991,1.195,1.447,1.47,1.474,10,4.77,4.945,0,16.3340478138,norm,0,38,38,38,2078.756,2078.761,2078.76274251,2078.763,2078.766,2078.769,up,1,1.75878373457,8.24121626543,001,311,1600_900,Intel(R) Core(TM) i7-2670QM CPU @ 2.20GHz,orientation_search,GRVLAPTOP3,Intel(R) HD Graphics Family,2018_nov_08_1317,testMonitor,
162.7,156.0,160.5,161.5,36,30,160.9,155.0,177.6,154.7,7.657,7.6,8.332,8.128,7.927,7.644,8.339,4.428,-5.24,-8.076,1.702,-1.673,7.888,4.764,-5.068,-8.072,166.2,165.0,-8.061,156.9,166.5,175.0,163.7,154.1,36,169.0,1,5,prime,10,0,61,norm,36,-4.891,up,norm,159.880054961,178.3,179.9,1.251,168.1,3,151.8,158.8,172.9,10,5,8.182,4.644,1.466,-1.86,-5.023,-7.953,158.4,5,220.9,-7.822,-7.579,30,-8.136,-7.838,-4.373,-4.612,-4.374,-4.686,5.182,7.637,9,-1.835,1.897,5.26,7.703,-7.889,-8.037,-1.115,1.913,,151.2,168.2,152.7,148.5,144.7,176.8,139.9,160.5,151.2,4,norm,1.214,1.641,-1.898,-1.874,-4.626,-4.7,-1.826,-1.259,-2.022,-1.366,2.092,-1.567,156.7,155.2,-4.78,-8.456,159.1,-1.335,8.261,4.389,-4.863,-8.082,10,4.711,4.622,4.854,4.493,1.171,1.53,1.388,1.71,10,4.309,4.83,0,16.3340478138,norm,0,39,39,39,2080.536,2080.542,2080.54379773,2080.544,2080.547,2080.551,up,1,0.890446830646,9.10955316935,001,311,1600_900,Intel(R) Core(TM) i7-2670QM CPU @ 2.20GHz,orientation_search,GRVLAPTOP3,Intel(R) HD Graphics Family,2018_nov_08_1317,testMonitor,
265.8,259.5,261.3,260.3,36,-30,255.5,259.1,262.0,264.1,7.844,8.026,8.303,7.546,8.113,8.24,8.293,4.901,-4.336,-7.831,2.002,-1.527,8.117,4.592,-5.188,-7.801,264.1,258.6,-7.607,249.6,252.0,265.4,266.2,251.4,36,257.4,0,5,probe,5,0,71,norm,36,-4.754,down,norm,259.569949123,266.9,258.0,1.624,256.3,1,252.5,261.6,269.6,10,5,8.075,5.194,1.19,-2.006,-4.592,-8.468,260.4,1,188.6,-8.176,-7.551,30,-7.573,-7.683,-4.656,-4.333,-4.669,-4.38,5.199,8.068,1,-1.254,1.876,4.606,8.087,-7.853,-8.487,-1.343,1.189,262.7,260.0,255.8,264.5,,266.6,251.4,256.5,262.1,250.1,0,norm,1.251,1.592,-1.971,-1.771,-5.274,-4.492,-1.57,-1.225,-1.799,-1.772,1.31,-1.245,251.6,264.5,-4.457,-8.359,261.7,-1.439,8.04,5.02,-5.124,-7.848,11,4.76,4.748,4.845,5.187,1.605,1.858,1.853,2.051,11,4.582,5.107,30,159.880054961,norm,0,40,40,40,2081.449,2081.454,2081.45621861,2081.457,2081.459,2081.463,down,1,1.2210096135,8.7789903865,001,311,1600_900,Intel(R) Core(TM) i7-2670QM CPU @ 2.20GHz,orientation_search,GRVLAPTOP3,Intel(R) HD Graphics Family,2018_nov_08_1317,testMonitor,
291.7,291.0,284.1,291.8,36,60,290.9,297.7,288.5,289.3,8.48,7.814,7.943,8.364,8.354,7.971,7.996,4.95,-5.286,-7.822,1.241,-1.501,8.124,4.712,-4.703,-7.503,296.5,288.4,-7.536,275.9,293.6,277.3,267.7,290.6,36,287.0,1,5,prime,10,0,110,norm,36,-5.214,down,norm,287.737836547,304.9,281.7,1.289,273.8,1,273.8,291.7,295.0,10,6,8.1,4.889,1.153,-1.176,-4.505,-8.22,289.0,6,397.7,-7.96,-7.511,60,-7.641,-8.032,-4.92,-5.031,-4.672,-4.474,4.821,7.659,7,-1.275,1.76,4.836,7.658,-8.493,-7.761,-1.981,1.219,275.3,291.8,287.6,286.1,291.7,279.3,,281.7,281.4,301.5,0,norm,1.618,1.934,-1.976,-1.962,-4.713,-4.429,-1.216,-1.679,-1.139,-1.121,1.76,-1.537,274.0,281.0,-4.951,-8.401,268.6,-1.799,7.75,4.441,-4.942,-7.698,12,5.083,4.315,4.485,4.728,1.23,1.278,1.875,1.835,12,4.718,5.146,-30,159.880054961,norm,0,41,41,41,2082.692,2082.697,2082.69928212,2082.7,2082.702,2082.706,down,1,2.51351297085,7.48648702915,001,311,1600_900,Intel(R) Core(TM) i7-2670QM CPU @ 2.20GHz,orientation_search,GRVLAPTOP3,Intel(R) HD Graphics Family,2018_nov_08_1317,testMonitor,
288.3,289.4,285.9,295.5,36,60,307.6,278.2,286.3,280.1,7.876,7.891,8.386,8.271,8.243,8.038,7.588,4.305,-5.078,-8.099,1.27,-2.025,8.049,4.31,-4.758,-7.95,296.7,294.0,-8.068,283.9,,284.8,276.4,297.0,36,307.7,5,5,prime,10,0,76,norm,36,-4.426,down,norm,287.737836547,286.4,276.2,2.019,267.7,0,292.8,288.1,300.4,10,6,7.644,4.659,1.439,-1.604,-5.253,-7.607,286.5,6,363.7,-8.197,-8.138,60,-7.663,-7.66,-4.919,-4.636,-5.083,-4.768,4.708,7.66,30,-1.843,1.531,4.604,7.949,-8.042,-8.025,-2.001,1.46,272.9,288.0,270.6,287.3,301.6,291.0,289.2,292.4,281.9,283.5,1,norm,2.02,1.936,-1.702,-1.487,-4.992,-5.036,-1.668,-1.274,-1.733,-1.247,1.393,-1.316,287.0,293.7,-4.472,-8.126,275.2,-2.074,8.24,4.409,-5.208,-8.359,12,5.164,4.815,4.629,4.396,1.756,1.636,1.655,1.126,12,4.651,4.524,-30,159.880054961,norm,0,42,42,42,2085.228,2085.234,2085.23590568,2085.236,2085.239,2085.243,down,1,3.69307265878,6.30692734122,001,311,1600_900,Intel(R) Core(TM) i7-2670QM CPU @ 2.20GHz,orientation_search,GRVLAPTOP3,Intel(R) HD Graphics Family,2018_nov_08_1317,testMonitor,
286.7,282.0,,290.6,36,60,285.4,292.3,267.7,273.9,7.69,7.608,7.668,7.887,7.871,7.79,7.946,5.28,-4.661,-8.144,1.69,-1.473,8.34,5.09,-4.538,-8.065,307.7,285.9,-7.51,295.5,281.0,296.7,276.0,280.8,36,304.5,3,5,prime,10,0,70,norm,36,-5.026,down,norm,287.737836547,274.7,304.2,1.752,283.8,2,295.6,280.0,269.9,10,6,7.793,4.971,1.761,-1.74,-4.388,-8.274,279.4,6,357.7,-7.531,-7.557,60,-8.221,-8.204,-5.247,-4.438,-4.925,-5.13,4.678,7.965,20,-1.892,1.684,5.266,7.633,-8.304,-7.767,-1.817,1.568,286.2,289.0,295.2,286.0,274.1,289.5,291.7,292.2,278.5,270.4,2,norm,2.096,1.575,-1.446,-1.432,-4.454,-4.363,-1.879,-1.168,-1.516,-2.02,2.092,-1.253,275.7,280.0,-5.09,-8.381,277.8,-1.676,8.442,4.765,-5.098,-8.049,12,5.028,4.335,4.304,4.417,1.924,1.667,1.992,1.2,12,5.291,4.943,-30,159.880054961,norm,0,43,43,43,2088.943,2088.95,2088.95155334,2088.952,2088.955,2088.958,down,1,4.14757944164,5.85242055836,001,311,1600_900,Intel(R) Core(TM) i7-2670QM CPU @ 2.20GHz,orientation_search,GRVLAPTOP3,Intel(R) HD Graphics Family,2018_nov_08_1317,testMonitor,
297.4,298.8,290.3,299.9,36,60,288.4,289.0,274.4,300.7,7.554,8.492,8.141,7.903,8.085,8.486,8.271,4.69,-4.604,-8.474,1.114,-2.038,7.544,4.714,-4.867,-7.642,303.9,293.1,-7.972,307.7,267.7,298.1,275.0,297.7,36,292.3,0,5,prime,10,0,104,norm,36,-5.116,down,norm,287.737836547,285.2,289.5,2.091,270.8,2,277.1,275.2,298.6,10,6,7.535,4.635,1.197,-1.417,-4.975,-7.973,290.5,6,391.7,-7.56,-8.091,60,-8.172,-8.489,-4.505,-5.094,-4.436,-4.315,4.737,8.352,2,-1.258,2.003,5.222,7.607,-7.73,-7.712,-1.257,1.292,284.5,283.1,289.2,,299.7,284.0,283.6,291.3,288.9,287.1,3,norm,1.173,1.646,-1.767,-1.523,-5.058,-4.477,-1.976,-1.935,-1.373,-2.075,1.535,-1.112,283.0,285.7,-4.345,-7.509,291.4,-1.395,8.076,4.444,-5.224,-7.715,12,4.501,4.994,4.85,4.732,1.427,1.525,1.561,1.475,12,4.364,5.163,-30,159.880054961,norm,0,44,44,44,2093.114,2093.12,2093.12156444,2093.122,2093.125,2093.128,down,1,1.26758568005,8.73241431995,001,311,1600_900,Intel(R) Core(TM) i7-2670QM CPU @ 2.20GHz,orientation_search,GRVLAPTOP3,Intel(R) HD Graphics Family,2018_nov_08_1317,testMonitor,
278.2,307.7,,303.9,36,60,298.9,288.3,300.5,295.6,7.563,8.171,8.134,7.988,8.249,8.285,8.426,5.286,-5.176,-7.754,1.202,-1.651,7.717,5.14,-4.865,-8.401,286.9,296.6,-8.317,285.1,293.1,284.3,294.7,292.8,36,287.5,3,5,prime,10,0,89,norm,36,-4.989,down,norm,287.737836547,290.6,294.2,1.909,288.2,2,291.7,274.6,283.3,10,6,7.555,4.656,1.551,-1.146,-4.793,-8.355,298.3,6,376.7,-7.743,-7.977,60,-7.68,-8.216,-4.364,-4.676,-4.677,-4.926,5.278,8.142,20,-1.757,1.355,5.243,7.935,-8.426,-7.76,-1.943,1.72,276.4,279.4,282.9,287.7,285.2,267.7,272.2,286.7,299.2,294.7,4,norm,1.142,1.282,-2.062,-1.983,-4.82,-4.976,-1.21,-1.87,-1.936,-1.829,1.501,-1.537,285.3,277.8,-4.574,-7.989,293.2,-1.234,8.141,4.441,-4.541,-7.679,12,4.473,5.035,4.766,4.839,1.302,1.657,1.974,1.781,12,4.585,5.248,-30,159.880054961,norm,0,45,45,45,2094.404,2094.409,2094.41137538,2094.412,2094.415,2094.418,down,1,1.81060828214,8.18939171786,001,311,1600_900,Intel(R) Core(TM) i7-2670QM CPU @ 2.20GHz,orientation_search,GRVLAPTOP3,Intel(R) HD Graphics Family,2018_nov_08_1317,testMonitor,
280.6,280.2,307.7,285.0,36,60,283.2,303.0,285.4,279.0,7.624,8.215,7.605,8.211,8.071,7.906,8.443,5.233,-5.294,-7.61,1.618,-1.91,8.464,4.424,-5.036,-8.15,295.6,298.7,-7.593,294.8,280.7,287.8,275.9,278.9,36,296.1,1,5,prime,10,0,88,norm,36,-4.976,up,norm,287.737836547,292.1,296.9,1.898,290.4,5,,274.3,267.7,10,6,7.67,4.369,2.07,-1.934,-5.007,-7.636,289.4,6,375.7,-8.469,-7.655,60,-7.766,-8.419,-4.651,-4.999,-4.694,-4.448,5.13,7.851,11,-1.452,1.563,4.844,8.181,-7.871,-7.629,-1.189,1.577,284.4,293.5,294.9,301.5,287.0,276.5,285.9,299.8,289.0,280.7,5,norm,1.662,1.471,-1.351,-1.412,-5.089,-4.943,-1.514,-1.784,-1.789,-1.506,1.807,-1.706,284.4,300.8,-4.904,-7.835,285.1,-1.998,8.129,4.514,-5.249,-7.882,12,5.148,4.352,4.594,4.342,1.237,1.879,1.904,1.926,12,4.739,4.848,-30,159.880054961,norm,0,46,46,46,2096.237,2096.242,2096.24454653,2096.245,2096.248,2096.251,up,1,1.92652266653,8.07347733347,001,311,1600_900,Intel(R) Core(TM) i7-2670QM CPU @ 2.20GHz,orientation_search,GRVLAPTOP3,Intel(R) HD Graphics Family,2018_nov_08_1317,testMonitor,
441.8,442.5,446.6,449.3,36,10,445.6,443.7,438.5,445.3,7.56,8.424,7.981,7.733,8.074,8.276,7.608,4.439,-4.318,-7.805,1.453,-1.896,8.237,4.97,-5.058,-8.226,446.5,447.4,-8.336,446.4,433.8,447.6,,444.4,36,440.5,5,5,probe,5,0,96,norm,36,-5.038,down,norm,443.808531263,446.3,444.6,1.584,443.6,2,445.3,440.6,442.9,10,6,7.629,4.865,1.949,-1.485,-5.028,-8.427,439.5,2,347.8,-8.021,-8.215,60,-8.136,-7.928,-4.694,-4.571,-5.014,-4.447,5.27,8.469,32,-1.671,2.043,5.019,8.4,-7.793,-7.75,-1.65,1.746,445.3,436.1,442.5,444.4,448.8,453.8,442.1,439.9,443.4,445.3,0,norm,1.388,1.795,-1.473,-1.993,-4.811,-4.615,-1.188,-1.962,-1.38,-1.881,1.121,-1.431,452.8,450.6,-4.439,-8.475,444.8,-1.43,7.751,4.89,-4.54,-7.621,13,4.489,5.155,4.839,4.678,1.977,1.138,1.802,1.112,13,5.217,4.722,60,287.737836547,norm,0,47,47,47,2098.185,2098.19,2098.19282938,2098.193,2098.196,2098.199,down,1,2.95143007099,7.04856992901,001,311,1600_900,Intel(R) Core(TM) i7-2670QM CPU @ 2.20GHz,orientation_search,GRVLAPTOP3,Intel(R) HD Graphics Family,2018_nov_08_1317,testMonitor,
469.3,460.0,456.5,451.0,36,10,460.4,461.4,469.8,461.6,8.382,7.781,7.526,7.91,8.435,8.067,7.977,5.11,-4.614,-8.318,1.214,-1.526,7.965,4.717,-4.537,-7.909,459.5,455.1,-7.825,467.1,462.9,468.7,461.7,458.5,36,457.8,2,5,probe,5,0,112,norm,36,-4.547,up,norm,459.808531263,459.2,457.5,1.604,454.9,3,457.5,450.1,462.3,10,6,7.59,4.494,1.946,-1.202,-4.385,-7.51,458.3,2,347.8,-8.485,-7.585,60,-8.369,-8.327,-5.235,-5.173,-4.991,-4.451,4.663,8.386,15,-1.787,2.019,4.797,7.952,-8.238,-8.357,-1.909,1.769,463.0,462.0,460.0,459.4,460.8,465.4,460.0,459.2,462.4,452.5,1,norm,2.036,2.055,-1.601,-1.951,-5.236,-5.063,-1.867,-1.564,-1.261,-1.551,1.51,-1.834,449.8,455.9,-5.031,-8.421,,-1.974,8.001,4.501,-4.768,-7.668,13,4.442,5.171,4.628,4.799,1.213,1.679,1.748,1.618,13,4.35,4.714,60,287.737836547,norm,0,48,48,48,2101.158,2101.165,2101.1669143,2101.167,2101.17,2101.173,up,1,1.87959172048,8.12040827952,001,311,1600_900,Intel(R) Core(TM) i7-2670QM CPU @ 2.20GHz,orientation_search,GRVLAPTOP3,Intel(R) HD Graphics Family,2018_nov_08_1317,testMonitor,
295.9,307.5,299.9,296.0,36,-10,300.5,312.2,280.4,291.2,8.365,7.605,7.931,7.878,8.053,7.762,7.796,4.892,-4.801,-8.395,1.77,-1.519,7.577,5.046,-5.116,-8.124,302.4,273.7,-8.246,302.4,282.1,289.7,279.2,286.4,36,289.6,2,5,prime,10,0,61,norm,36,-5.244,up,norm,293.652510828,,287.6,1.231,289.6,5,274.9,298.3,300.4,10,5,7.839,5.226,1.401,-1.759,-5.142,-7.802,285.5,5,354.7,-7.862,-7.705,-10,-8.128,-7.646,-4.418,-4.544,-4.867,-4.994,4.389,7.624,17,-1.298,2.097,5.227,8.287,-8.179,-8.379,-1.286,1.325,308.3,291.3,291.5,309.4,286.8,289.7,313.7,302.7,300.3,285.2,0,norm,1.809,1.992,-1.249,-1.617,-4.358,-5.265,-1.968,-1.342,-1.861,-1.894,1.771,-2.098,285.7,296.5,-4.931,-8.47,308.9,-2.1,8.399,5.167,-4.618,-8.43,14,4.936,4.315,4.392,5.252,1.434,1.483,1.241,1.469,14,4.662,5.289,10,287.737836547,norm,0,49,49,49,2103.061,2103.066,2103.06834886,2103.069,2103.071,2103.075,up,1,2.12770338798,7.87229661202,001,311,1600_900,Intel(R) Core(TM) i7-2670QM CPU @ 2.20GHz,orientation_search,GRVLAPTOP3,Intel(R) HD Graphics Family,2018_nov_08_1317,testMonitor,
284.4,280.1,294.7,283.2,36,-10,300.2,278.8,313.3,300.7,8.122,8.41,8.089,8.349,7.55,7.826,8.001,5.187,-5.22,-7.603,1.961,-1.317,7.814,4.543,-5.157,-8.474,294.5,277.9,-8.173,298.1,299.1,289.5,293.9,304.4,36,295.1,2,5,prime,10,0,117,norm,36,-4.501,down,norm,293.652510828,301.2,299.0,1.601,296.9,0,311.6,290.8,,10,5,8.013,4.68,1.509,-1.11,-5.082,-8.085,301.8,5,410.7,-7.628,-7.719,-10,-8.326,-7.978,-4.843,-4.933,-5.253,-5.217,4.715,7.802,12,-1.59,1.144,4.649,7.818,-7.998,-8.146,-1.299,1.73,309.3,304.6,291.4,313.7,290.6,297.6,288.9,292.5,306.6,304.0,1,norm,2.002,1.329,-1.794,-2.089,-4.675,-4.957,-1.375,-1.54,-1.711,-1.346,1.33,-1.615,273.7,298.1,-4.499,-7.84,300.2,-1.324,7.934,5.052,-4.648,-7.662,14,4.594,4.546,5.054,4.374,1.797,1.479,1.148,1.399,14,4.507,4.824,10,287.737836547,norm,0,50,50,50,2105.211,2105.216,2105.21821167,2105.219,2105.221,2105.225,down,1,1.81215527659,8.18784472341,001,311,1600_900,Intel(R) Core(TM) i7-2670QM CPU @ 2.20GHz,orientation_search,GRVLAPTOP3,Intel(R) HD Graphics Family,2018_nov_08_1317,testMonitor,
285.2,302.5,302.9,312.4,36,-10,305.7,281.7,298.1,289.5,8.388,8.353,8.281,7.802,7.976,8.094,8.304,4.758,-4.324,-8.215,1.343,-1.113,8.273,4.517,-4.516,-8.159,290.8,292.9,-7.553,289.9,287.1,295.1,278.4,297.7,36,290.6,1,5,prime,10,0,99,norm,36,-5.114,up,norm,293.652510828,301.8,301.1,1.109,294.4,5,,305.3,295.2,10,5,8.339,5.066,1.23,-1.855,-4.75,-7.847,290.1,5,392.7,-7.583,-8.026,-10,-8.16,-7.786,-5.194,-5.023,-4.945,-4.613,5.078,8.29,11,-1.827,1.873,4.588,8.366,-7.719,-7.528,-1.479,2.01,313.7,296.9,313.4,292.9,299.5,291.3,297.3,301.2,286.1,304.1,2,norm,1.539,2.044,-1.701,-1.125,-5.083,-4.716,-1.779,-1.702,-1.368,-1.736,1.27,-1.694,284.2,311.7,-4.991,-8.026,273.7,-1.14,8.317,4.374,-5.16,-7.939,14,4.366,5.056,5.299,4.759,1.286,1.321,1.777,2.042,14,4.601,4.582,10,287.737836547,norm,0,51,51,51,2107.045,2107.051,2107.05305589,2107.053,2107.056,2107.06,up,1,4.82538247605,5.17461752395,001,311,1600_900,Intel(R) Core(TM) i7-2670QM CPU @ 2.20GHz,orientation_search,GRVLAPTOP3,Intel(R) HD Graphics Family,2018_nov_08_1317,testMonitor,
293.3,296.4,301.8,278.5,36,-10,302.3,301.8,295.5,310.0,8.47,7.944,8.386,8.04,8.214,8.465,8.247,4.863,-5.109,-8.112,2.093,-1.245,8.426,5.026,-5.093,-8.051,286.4,279.2,-8.117,281.7,281.1,304.3,291.6,297.5,36,303.1,1,5,prime,10,0,77,norm,36,-5.186,down,norm,293.652510828,313.7,299.3,1.579,296.4,1,280.7,297.3,284.7,10,5,7.802,5.035,1.744,-1.572,-4.858,-8.477,295.5,5,370.7,-7.568,-8.308,-10,-7.692,-8.314,-5.117,-4.727,-5.152,-4.905,4.669,7.806,7,-1.313,2.071,4.362,7.775,-7.684,-7.989,-1.745,1.925,290.4,273.7,305.2,312.4,297.6,313.3,,305.5,295.8,311.6,3,norm,1.754,1.836,-1.114,-1.461,-4.501,-4.625,-1.555,-1.671,-2.073,-1.595,1.738,-1.763,297.4,311.6,-5.14,-7.829,288.5,-1.817,7.832,4.938,-5.194,-7.985,14,4.748,4.922,5.291,4.383,1.491,1.115,1.623,1.561,14,5.267,4.87,10,287.737836547,norm,0,52,52,52,2111.893,2111.899,2111.90098442,2111.901,2111.904,2111.908,down,1,1.14178603381,8.85821396619,001,311,1600_900,Intel(R) Core(TM) i7-2670QM CPU @ 2.20GHz,orientation_search,GRVLAPTOP3,Intel(R) HD Graphics Family,2018_nov_08_1317,testMonitor,
312.4,313.6,284.4,292.2,36,-10,291.2,298.4,283.4,293.9,7.597,8.104,7.96,7.776,8.351,7.848,7.831,4.988,-4.559,-8.298,1.375,-1.662,8.423,4.75,-4.855,-7.614,273.7,287.5,-7.602,300.7,,278.7,294.7,283.6,36,290.0,5,5,prime,10,0,115,norm,36,-5.295,down,norm,293.652510828,313.7,299.1,1.818,307.7,0,292.3,301.2,309.0,10,5,8.341,4.544,1.526,-1.883,-4.702,-7.963,290.2,5,408.7,-7.691,-8.239,-10,-7.521,-8.187,-4.8,-5.067,-4.648,-5.231,4.393,8.007,30,-1.619,1.951,5.222,7.532,-7.993,-8.26,-2.02,1.406,300.8,280.6,295.3,298.2,309.2,306.1,285.1,301.3,295.6,287.5,4,norm,1.906,1.507,-1.267,-1.667,-4.817,-5.192,-1.145,-1.139,-1.285,-1.894,1.164,-1.286,288.5,288.2,-5.026,-8.403,292.4,-1.706,8.083,5.173,-4.484,-8.401,14,5.163,4.748,5.202,4.779,1.332,1.246,1.708,1.41,14,4.434,4.982,10,287.737836547,norm,0,53,53,53,2113.057,2113.063,2113.06555231,2113.066,2113.069,2113.072,down,1,1.13777589546,8.86222410454,001,311,1600_900,Intel(R) Core(TM) i7-2670QM CPU @ 2.20GHz,orientation_search,GRVLAPTOP3,Intel(R) HD Graphics Family,2018_nov_08_1317,testMonitor,
405.4,395.0,398.5,394.8,36,80,393.0,,397.3,394.0,8.104,8.435,7.971,8.128,8.009,8.45,8.169,4.776,-4.647,-7.977,1.52,-1.821,8.499,4.639,-4.677,-8.478,395.4,405.7,-7.931,387.4,399.9,397.4,394.9,405.8,36,407.4,4,5,probe,5,0,117,norm,36,-5.267,down,norm,397.365996466,398.3,396.0,2.031,401.6,1,398.1,396.2,393.7,10,5,7.517,4.506,1.285,-1.311,-4.756,-8.014,401.6,2,280.4,-8.076,-7.541,-10,-7.798,-7.68,-4.398,-4.695,-4.384,-4.795,4.482,7.505,25,-1.969,1.125,4.525,8.476,-7.697,-8.221,-1.656,1.563,402.4,393.3,391.2,405.7,396.7,400.4,394.2,402.6,402.6,404.8,0,norm,1.615,2.044,-1.996,-1.402,-4.57,-4.656,-1.144,-2.006,-1.806,-1.344,1.467,-1.313,390.3,396.9,-4.872,-8.203,397.9,-1.677,8.004,5.104,-4.942,-8.304,15,5.297,4.363,4.7,5.085,2.035,1.746,1.222,2.032,15,4.867,5.12,-10,293.652510828,norm,0,54,54,54,2114.218,2114.225,2114.22668582,2114.227,2114.23,2114.234,down,1,1.25701307264,8.74298692736,001,311,1600_900,Intel(R) Core(TM) i7-2670QM CPU @ 2.20GHz,orientation_search,GRVLAPTOP3,Intel(R) HD Graphics Family,2018_nov_08_1317,testMonitor,
404.0,405.0,389.0,399.0,36,80,389.1,392.4,403.9,387.9,8.381,8.183,7.532,8.24,7.823,8.117,8.329,4.668,-4.494,-8.334,1.101,-1.151,8.288,5.205,-5.223,-8.492,394.6,393.0,-8.224,395.9,385.4,399.0,391.3,394.8,36,398.9,0,5,probe,5,0,115,norm,36,-5.099,down,norm,395.365996466,405.4,392.9,1.981,405.2,0,398.4,399.0,390.2,10,5,7.623,5.295,1.465,-1.824,-4.431,-7.787,392.1,2,280.4,-7.544,-8.29,-10,-7.928,-8.398,-4.847,-4.769,-4.549,-4.472,5.061,7.546,0,-2.012,1.326,4.559,8.064,-7.673,-7.577,-1.518,1.145,388.0,392.7,390.4,392.1,396.9,,403.7,398.3,389.9,388.1,1,norm,2.089,1.924,-1.338,-1.243,-5.047,-5.189,-1.906,-1.56,-1.33,-1.396,2.054,-1.616,398.5,388.1,-4.88,-8.014,390.6,-2.01,8.155,4.355,-4.46,-7.798,15,5.161,4.641,4.61,4.999,1.773,1.662,1.116,1.878,15,4.661,4.801,-10,293.652510828,norm,0,55,55,55,2115.499,2115.505,2115.50715923,2115.508,2115.511,2115.514,down,1,1.17740099329,8.82259900671,001,311,1600_900,Intel(R) Core(TM) i7-2670QM CPU @ 2.20GHz,orientation_search,GRVLAPTOP3,Intel(R) HD Graphics Family,2018_nov_08_1317,testMonitor,
298.2,303.6,295.1,294.9,36,-10,294.1,308.7,301.5,300.6,8.056,8.213,8.261,7.84,7.618,8.032,8.162,5.052,-4.765,-7.916,1.802,-1.846,7.576,4.559,-4.487,-7.616,297.9,298.0,-7.537,313.8,287.3,296.3,304.2,280.0,36,290.9,2,5,prime,10,0,63,norm,36,-4.731,up,norm,299.998620634,300.2,,1.269,307.4,4,297.6,293.2,313.8,10,6,8.028,4.455,1.801,-1.75,-5.237,-8.114,303.6,6,363.0,-7.858,-7.616,-10,-7.742,-7.54,-4.741,-4.463,-5.099,-5.004,4.409,8.354,16,-1.133,1.193,5.27,8.018,-8.452,-7.798,-1.271,1.966,293.8,288.7,297.9,301.4,304.1,294.6,301.2,305.4,304.5,304.7,0,norm,1.634,1.537,-1.819,-1.964,-4.67,-4.347,-1.442,-1.522,-1.978,-1.692,1.161,-1.309,284.2,312.0,-5.062,-7.833,320.0,-1.824,7.711,4.644,-4.979,-7.912,16,4.7,4.921,4.965,4.857,1.628,1.913,1.457,1.28,16,5.055,4.696,80,293.652510828,norm,0,56,56,56,2116.7,2116.706,2116.70816204,2116.709,2116.712,2116.715,up,1,1.28437474902,8.71562525098,001,311,1600_900,Intel(R) Core(TM) i7-2670QM CPU @ 2.20GHz,orientation_search,GRVLAPTOP3,Intel(R) HD Graphics Family,2018_nov_08_1317,testMonitor,
306.6,312.8,295.0,299.2,36,-10,312.6,304.0,280.0,311.0,8.042,8.47,8.054,8.19,8.398,7.673,8.214,4.433,-4.65,-8.34,1.509,-1.174,8.088,5.007,-4.695,-8.155,302.6,292.4,-7.784,290.2,309.3,300.7,288.7,306.5,36,305.9,1,5,prime,10,0,72,norm,36,-4.635,down,norm,299.998620634,305.8,289.4,1.865,311.7,0,303.7,283.2,298.0,10,6,8.391,5.019,2.07,-1.317,-4.724,-7.871,283.7,6,372.0,-7.865,-8.073,-10,-7.882,-7.564,-4.337,-4.879,-4.81,-4.304,5.006,7.84,6,-1.194,1.392,5.114,8.082,-8.195,-8.16,-1.161,2.087,297.1,310.5,318.0,312.4,307.3,297.3,299.5,,304.9,294.6,1,norm,1.888,1.683,-1.914,-1.536,-5.2,-4.456,-1.368,-1.651,-1.478,-1.833,1.932,-2.071,313.7,298.1,-5.223,-8.079,320.0,-1.151,8.441,5.045,-4.785,-7.849,16,4.54,4.481,4.927,4.497,1.501,1.375,1.263,1.915,16,5.171,4.425,80,293.652510828,norm,0,57,57,57,2118.008,2118.014,2118.01636742,2118.017,2118.02,2118.023,down,1,1.33045678595,8.66954321405,001,311,1600_900,Intel(R) Core(TM) i7-2670QM CPU @ 2.20GHz,orientation_search,GRVLAPTOP3,Intel(R) HD Graphics Family,2018_nov_08_1317,testMonitor,
293.2,301.9,286.4,297.8,36,-10,301.5,296.6,305.3,305.1,7.646,7.652,8.339,8.015,7.637,8.181,7.634,4.967,-4.819,-7.783,1.795,-1.71,8.187,4.974,-4.867,-7.957,,298.6,-8.352,293.5,302.7,299.6,306.2,291.4,36,307.2,5,5,prime,10,0,113,norm,36,-4.999,up,norm,299.998620634,299.4,308.0,1.394,291.1,5,310.3,320.0,310.0,10,6,8.079,4.972,1.403,-1.576,-5.194,-7.675,316.6,6,413.0,-7.844,-8.253,-10,-7.681,-7.518,-4.595,-4.935,-5.191,-4.61,4.763,8.051,35,-1.164,2.082,4.332,8.138,-7.705,-7.878,-1.968,1.307,288.4,286.3,293.5,280.0,300.5,305.4,286.0,290.3,292.8,307.2,2,norm,1.35,1.347,-1.288,-1.764,-5.028,-5.12,-1.92,-1.311,-1.641,-1.107,1.758,-1.255,307.7,291.1,-4.607,-8.161,301.0,-2.04,8.004,4.419,-5.122,-8.015,16,4.312,5.267,4.311,4.553,1.617,1.494,1.169,1.984,16,4.325,4.902,80,293.652510828,norm,0,58,58,58,2119.362,2119.368,2119.36996001,2119.37,2119.373,2119.377,up,1,1.5158537747,8.4841462253,001,311,1600_900,Intel(R) Core(TM) i7-2670QM CPU @ 2.20GHz,orientation_search,GRVLAPTOP3,Intel(R) HD Graphics Family,2018_nov_08_1317,testMonitor,
300.7,302.8,284.8,305.3,36,-10,308.7,305.7,294.1,310.6,7.756,7.987,8.074,7.901,8.166,8.322,7.782,4.807,-4.976,-8.397,1.563,-1.951,8.102,5.264,-5.096,-8.175,295.8,292.6,-8.057,296.8,299.3,288.6,297.5,280.0,36,298.9,2,5,prime,10,0,66,norm,36,-4.864,up,norm,299.998620634,294.8,,1.769,305.0,4,311.5,297.0,309.6,10,6,7.937,4.969,1.739,-1.341,-5.001,-7.644,306.1,6,366.0,-8.159,-8.378,-10,-7.58,-7.852,-4.7,-4.681,-4.966,-4.504,4.427,8.211,16,-2.006,1.517,5.108,7.865,-8.307,-7.959,-1.705,1.605,316.5,309.0,307.1,302.9,299.1,301.7,297.3,302.4,289.0,301.6,3,norm,1.415,1.726,-1.836,-2.007,-5.131,-4.702,-1.478,-1.944,-1.576,-1.818,1.55,-1.246,289.7,317.3,-4.757,-7.972,292.8,-1.282,8.278,4.434,-4.649,-8.453,16,4.614,5.115,4.714,5.258,1.857,1.151,1.65,1.53,16,4.491,4.789,80,293.652510828,norm,0,59,59,59,2120.901,2120.907,2120.90869604,2120.909,2120.912,2120.915,up,1,1.2916941387,8.7083058613,001,311,1600_900,Intel(R) Core(TM) i7-2670QM CPU @ 2.20GHz,orientation_search,GRVLAPTOP3,Intel(R) HD Graphics Family,2018_nov_08_1317,testMonitor,
305.2,291.1,294.8,307.5,36,-10,296.4,296.9,301.0,297.2,7.639,8.311,8.17,7.804,7.788,7.573,7.627,4.397,-5.04,-7.607,1.103,-1.821,7.507,4.496,-4.346,-7.625,308.2,305.4,-8.415,307.8,301.7,280.9,,297.3,36,301.8,5,5,prime,10,0,78,norm,36,-4.412,down,norm,299.998620634,303.3,297.2,1.881,305.2,2,311.5,308.8,300.0,10,6,7.821,4.997,1.387,-1.147,-5.249,-8.042,298.9,6,378.0,-8.277,-7.657,-10,-8.011,-7.609,-5.057,-5.291,-4.347,-4.312,5.109,8.324,32,-1.941,1.902,4.931,8.195,-7.955,-7.696,-1.716,1.389,290.4,320.0,291.4,291.8,311.0,280.0,307.5,303.5,303.9,307.8,4,norm,1.272,1.759,-1.866,-1.742,-4.792,-5.033,-1.229,-1.872,-1.279,-1.285,1.167,-1.75,286.9,299.2,-4.389,-8.055,308.8,-1.229,7.77,4.767,-4.72,-7.505,16,4.455,4.366,4.653,4.46,2.006,1.648,1.727,2.084,16,4.437,4.833,80,293.652510828,norm,0,60,60,60,2122.216,2122.222,2122.2244314,2122.225,2122.228,2122.231,down,1,2.06063162948,7.93936837052,001,311,1600_900,Intel(R) Core(TM) i7-2670QM CPU @ 2.20GHz,orientation_search,GRVLAPTOP3,Intel(R) HD Graphics Family,2018_nov_08_1317,testMonitor,
320.0,318.6,292.2,283.1,36,-10,286.2,305.9,305.6,309.6,8.183,7.543,8.398,7.892,7.965,7.517,8.357,4.959,-4.506,-8.478,1.498,-1.922,8.292,4.789,-5.153,-8.452,300.8,297.7,-8.1,302.9,311.0,300.2,280.0,289.0,36,302.1,3,5,prime,10,0,83,norm,36,-4.825,down,norm,299.998620634,306.7,304.1,1.171,303.6,1,306.9,289.3,306.1,10,6,7.555,4.625,1.368,-1.72,-5.173,-8.265,293.1,6,383.0,-8.39,-8.446,-10,-8.42,-7.667,-5.247,-4.776,-4.69,-5.163,5.259,7.804,19,-1.491,1.706,4.878,7.695,-8.496,-7.74,-1.873,1.422,296.9,303.3,293.6,289.2,281.8,284.1,293.4,310.8,307.4,298.4,5,norm,1.778,1.202,-1.767,-1.96,-5.073,-4.991,-1.684,-2.062,-1.549,-1.977,1.175,-1.822,,293.3,-4.625,-8.301,287.3,-1.379,7.539,4.607,-4.394,-8.234,16,5.005,4.418,4.488,4.477,1.443,1.135,1.826,1.407,16,4.712,4.756,80,293.652510828,norm,0,61,61,61,2124.3,2124.305,2124.30699878,2124.307,2124.31,2124.314,down,1,1.47629171468,8.52370828532,001,311,1600_900,Intel(R) Core(TM) i7-2670QM CPU @ 2.20GHz,orientation_search,GRVLAPTOP3,Intel(R) HD Graphics Family,2018_nov_08_1317,testMonitor,
392.1,399.6,395.6,405.8,36,-20,408.0,397.9,402.7,399.2,7.643,7.676,8.252,8.044,8.373,7.635,8.187,4.848,-4.696,-8.29,1.634,-1.348,7.719,5.109,-5.008,-8.218,391.9,398.8,-7.645,407.3,399.0,402.2,398.0,394.3,36,402.6,2,5,probe,5,0,107,norm,36,-5.193,up,norm,397.953964284,,400.2,1.944,396.2,5,396.1,398.4,398.7,10,6,8.34,4.569,1.417,-1.414,-5.242,-8.165,388.0,2,291.0,-8.081,-7.725,-10,-7.922,-8.222,-4.541,-5.276,-4.366,-4.736,4.352,8.198,17,-1.484,1.266,4.492,8.442,-7.853,-8.148,-1.113,1.68,393.2,407.8,403.1,402.7,399.0,407.0,402.9,398.6,399.6,395.1,0,norm,1.282,1.393,-2.051,-1.734,-4.447,-4.374,-1.348,-1.592,-1.267,-1.287,1.85,-1.79,402.1,397.7,-4.324,-7.705,405.7,-1.125,7.805,5.125,-4.785,-8.31,17,4.414,4.824,4.377,5.163,1.211,1.98,1.601,1.29,17,4.427,4.829,-10,299.998620634,norm,0,62,62,62,2125.798,2125.804,2125.80653791,2125.807,2125.81,2125.814,up,1,1.2423075199,8.7576924801,001,311,1600_900,Intel(R) Core(TM) i7-2670QM CPU @ 2.20GHz,orientation_search,GRVLAPTOP3,Intel(R) HD Graphics Family,2018_nov_08_1317,testMonitor,
379.9,373.5,381.3,374.9,36,-20,373.2,379.5,380.1,382.5,7.818,7.667,7.756,7.581,7.835,7.791,7.891,4.757,-4.884,-7.662,1.218,-1.189,7.688,4.836,-4.904,-8.228,374.7,372.1,-7.529,381.7,381.2,,371.8,374.0,36,372.8,5,5,probe,5,0,85,norm,36,-4.511,up,norm,375.953964284,378.6,380.4,1.45,376.0,3,369.4,375.2,374.5,10,6,7.983,4.375,1.597,-1.241,-4.998,-8.43,372.9,2,291.0,-8.149,-7.567,-10,-8.384,-8.44,-4.392,-4.36,-5.284,-4.978,4.579,8.419,33,-1.169,1.575,5.143,7.819,-8.25,-8.083,-1.181,1.547,373.0,372.9,370.4,370.3,386.0,372.6,374.3,367.9,374.1,378.6,1,norm,1.35,1.549,-1.657,-1.983,-4.846,-5.289,-1.354,-1.434,-1.918,-2.019,1.168,-1.175,370.9,380.7,-5.221,-8.195,378.6,-1.737,8.08,4.862,-4.539,-8.456,17,4.337,4.941,4.968,4.971,1.35,1.101,1.176,1.154,17,5.146,4.42,-10,299.998620634,norm,0,63,63,63,2127.064,2127.071,2127.07300245,2127.073,2127.076,2127.08,up,1,2.54156386057,7.45843613943,001,311,1600_900,Intel(R) Core(TM) i7-2670QM CPU @ 2.20GHz,orientation_search,GRVLAPTOP3,Intel(R) HD Graphics Family,2018_nov_08_1317,testMonitor,
261.5,234.3,256.3,254.7,36,-40,233.4,249.8,261.7,260.9,7.636,7.844,7.941,8.331,7.83,8.083,7.821,5.276,-5.125,-7.803,1.363,-1.225,7.623,5.195,-5.032,-8.306,239.1,263.9,-8.496,,228.1,239.3,252.7,253.4,36,253.0,5,5,prime,10,0,80,norm,36,-4.433,down,norm,248.065598687,248.4,253.2,1.798,250.5,1,255.3,254.5,256.3,10,6,8.251,4.36,1.872,-1.228,-4.616,-7.72,268.1,6,328.1,-7.595,-7.583,-40,-8.462,-7.675,-4.963,-4.893,-4.972,-4.74,4.743,7.777,31,-1.941,1.987,4.54,8.491,-7.52,-8.187,-1.435,1.813,242.2,242.4,237.1,236.8,257.1,250.5,240.3,259.1,250.8,255.4,0,norm,1.933,1.343,-1.978,-1.951,-5.246,-4.66,-1.894,-2.022,-1.779,-1.912,1.124,-1.856,246.4,237.3,-4.918,-7.591,230.2,-1.631,7.97,4.899,-5.01,-8.372,18,4.352,4.977,4.559,4.915,1.169,1.603,1.968,1.724,18,4.451,5.13,-20,299.998620634,norm,0,64,64,64,2129.63,2144.665,2144.66747184,2144.668,2144.671,2144.675,down,1,2.51849249056,7.48150750944,001,311,1600_900,Intel(R) Core(TM) i7-2670QM CPU @ 2.20GHz,orientation_search,GRVLAPTOP3,Intel(R) HD Graphics Family,2018_nov_08_1317,testMonitor,
229.4,240.3,260.6,246.4,36,-40,241.1,244.7,253.9,248.3,8.111,8.136,7.974,7.551,8.433,8.429,7.844,4.874,-4.588,-8.2,1.113,-2.043,8.277,5.198,-4.788,-8.264,257.6,228.1,-7.92,265.5,233.6,249.4,262.0,255.8,36,246.2,0,5,prime,10,0,104,norm,36,-4.637,down,norm,248.065598687,262.9,259.6,1.375,238.4,2,249.6,268.1,246.8,10,6,8.02,4.967,1.701,-1.278,-4.777,-8.31,244.1,6,352.1,-8.169,-7.863,-40,-8.177,-7.532,-4.673,-4.399,-4.895,-4.51,5.263,7.529,2,-1.704,1.476,4.994,8.206,-8.283,-8.48,-1.557,1.358,240.5,243.7,234.7,,250.4,259.7,239.5,262.2,247.9,248.2,1,norm,1.599,2.043,-1.45,-1.925,-5.073,-4.918,-1.268,-1.837,-1.733,-1.679,1.676,-1.7,242.7,246.9,-4.455,-8.472,249.5,-1.204,7.938,4.367,-4.923,-7.844,18,4.443,4.684,5.044,5.224,1.431,1.227,1.231,1.352,18,4.551,4.383,-20,299.998620634,norm,0,65,65,65,2147.202,2147.21,2147.21216004,2147.213,2147.215,2147.219,down,1,1.78888171866,8.21111828134,001,311,1600_900,Intel(R) Core(TM) i7-2670QM CPU @ 2.20GHz,orientation_search,GRVLAPTOP3,Intel(R) HD Graphics Family,2018_nov_08_1317,testMonitor,
244.7,259.0,250.0,252.0,36,-40,243.4,248.2,245.8,246.7,7.608,7.76,8.155,7.653,8.248,7.798,7.555,4.428,-4.653,-8.377,1.93,-1.929,7.899,5.009,-5.061,-8.332,248.3,253.2,-7.677,243.1,248.2,260.8,260.9,245.7,36,250.3,3,5,prime,10,0,99,norm,36,-4.976,down,norm,248.065598687,262.5,231.2,1.161,243.5,0,268.1,248.3,235.4,10,6,8.088,4.796,2.096,-1.695,-4.991,-7.505,228.1,6,347.1,-7.513,-8.226,-40,-8.018,-7.985,-4.474,-4.517,-4.61,-4.417,4.411,8.178,18,-1.882,1.266,4.561,8.394,-8.375,-7.93,-1.504,1.571,242.6,261.2,239.8,267.2,246.9,230.4,248.9,261.2,238.9,263.1,2,norm,1.653,1.72,-1.46,-1.767,-4.63,-4.712,-2.032,-1.857,-1.832,-1.254,1.471,-1.979,246.0,,-4.751,-8.292,249.7,-1.132,8.043,5.111,-4.473,-8.479,18,4.783,5.212,4.834,4.67,1.932,1.965,1.253,1.446,18,4.644,4.619,-20,299.998620634,norm,0,66,66,66,2149.016,2149.022,2149.023571,2149.024,2149.027,2149.03,down,1,1.26723873865,8.73276126135,001,311,1600_900,Intel(R) Core(TM) i7-2670QM CPU @ 2.20GHz,orientation_search,GRVLAPTOP3,Intel(R) HD Graphics Family,2018_nov_08_1317,testMonitor,
233.0,229.6,248.4,244.7,36,-40,241.9,243.4,253.2,254.8,7.97,8.105,7.677,8.175,8.293,8.273,8.234,5.091,-4.816,-8.041,1.921,-1.619,8.138,4.77,-4.673,-8.065,250.1,258.9,-8.41,240.1,262.9,250.9,246.8,251.3,36,258.7,2,5,prime,10,0,95,norm,36,-4.659,down,norm,248.065598687,233.8,263.9,1.584,239.7,1,244.1,,229.4,10,6,8.487,5.237,1.983,-1.573,-4.834,-7.629,233.1,6,343.1,-7.712,-7.884,-40,-8.409,-8.456,-5.251,-5.187,-5.245,-4.75,4.637,7.654,13,-1.291,1.387,4.476,7.705,-8.46,-7.617,-1.808,1.487,247.7,255.3,267.9,241.0,249.4,260.2,254.7,228.1,235.5,249.2,3,norm,1.94,1.563,-1.368,-1.845,-4.984,-4.92,-1.174,-2.058,-1.625,-1.27,1.846,-1.548,246.3,257.5,-5.26,-7.895,268.1,-1.98,8.475,5.013,-4.579,-7.928,18,4.926,5.104,4.931,5.175,1.216,1.599,1.717,1.39,18,4.909,4.558,-20,299.998620634,norm,0,67,67,67,2150.305,2150.311,2150.3130845,2150.313,2150.316,2150.32,down,1,0.99344686987,9.00655313013,001,311,1600_900,Intel(R) Core(TM) i7-2670QM CPU @ 2.20GHz,orientation_search,GRVLAPTOP3,Intel(R) HD Graphics Family,2018_nov_08_1317,testMonitor,
257.3,260.1,229.6,268.1,36,-40,255.7,250.9,250.4,262.9,7.677,8.183,7.712,8.426,7.742,7.649,8.482,4.897,-5.064,-8.079,1.293,-1.541,8.39,4.332,-4.847,-8.142,249.0,245.5,-8.22,,257.2,266.0,239.6,239.1,36,245.5,5,5,prime,10,0,117,norm,36,-4.444,down,norm,248.065598687,242.2,249.3,1.452,263.3,1,232.4,247.0,237.0,10,6,7.968,5.193,1.754,-1.631,-5.281,-7.549,259.9,6,365.1,-7.64,-7.68,-40,-7.691,-8.075,-4.761,-5.134,-4.653,-4.934,5.006,7.556,31,-2.042,1.997,4.534,7.659,-7.559,-7.919,-1.274,1.928,238.7,238.4,244.8,264.1,248.4,245.6,262.9,256.8,262.7,242.1,4,norm,1.157,1.699,-1.16,-1.974,-4.59,-4.499,-1.627,-1.439,-1.439,-1.106,1.465,-1.58,248.0,247.5,-4.335,-8.483,228.1,-1.353,7.756,4.611,-4.857,-8.247,18,4.565,4.49,4.542,4.957,1.801,1.948,1.662,1.701,18,4.53,4.537,-20,299.998620634,norm,0,68,68,68,2151.321,2151.327,2151.32881734,2151.329,2151.332,2151.336,up,0,1.43024002929,-10,001,311,1600_900,Intel(R) Core(TM) i7-2670QM CPU @ 2.20GHz,orientation_search,GRVLAPTOP3,Intel(R) HD Graphics Family,2018_nov_08_1317,testMonitor,
259.1,235.1,247.9,243.5,36,-40,240.1,268.1,251.2,250.6,7.59,7.727,7.506,7.973,7.918,7.532,8.4,5.255,-5.08,-7.757,1.585,-2.074,7.695,5.042,-5.028,-8.31,241.1,258.4,-8.494,229.0,242.5,245.0,249.1,245.2,36,246.9,1,5,prime,10,0,117,norm,36,-4.972,down,norm,248.065598687,246.4,243.5,1.24,251.6,0,228.1,258.0,253.6,10,6,8.242,4.917,1.196,-1.816,-5.24,-8.311,238.8,6,365.1,-8.208,-7.6,-40,-8.373,-7.818,-4.869,-5.078,-4.505,-4.752,4.52,8.195,6,-1.735,1.541,4.535,7.918,-8.137,-8.359,-1.5,1.676,267.8,241.6,258.6,235.3,249.6,257.4,238.7,,244.8,235.1,5,norm,1.194,1.702,-1.693,-1.288,-4.416,-5.196,-1.498,-1.251,-1.587,-1.883,1.465,-1.418,245.9,253.9,-5.159,-7.728,254.2,-1.934,7.75,4.843,-5.174,-8.046,18,4.795,5.286,4.917,4.706,1.154,1.566,1.708,1.262,18,4.75,4.79,-20,299.998620634,norm,0,69,69,69,2153.787,2153.792,2153.7946261,2153.795,2153.798,2153.801,down,1,1.57802165886,8.42197834114,001,311,1600_900,Intel(R) Core(TM) i7-2670QM CPU @ 2.20GHz,orientation_search,GRVLAPTOP3,Intel(R) HD Graphics Family,2018_nov_08_1317,testMonitor,
323.6,326.2,333.0,329.4,36,80,333.4,332.0,331.1,329.4,7.976,7.706,8.117,7.907,8.308,7.793,7.793,4.667,-4.903,-8.153,1.864,-1.925,8.491,4.708,-4.862,-7.615,326.0,328.7,-7.712,332.7,330.1,320.2,330.8,333.7,36,332.3,1,5,probe,5,0,115,norm,36,-4.808,up,norm,327.938379977,326.0,331.4,1.322,325.7,5,,325.0,321.7,10,6,7.75,5.081,1.476,-1.547,-4.849,-7.988,327.1,1,212.9,-7.93,-7.577,-40,-8.365,-7.649,-5.19,-5.005,-4.84,-4.925,4.321,8.327,11,-1.823,1.169,5.088,8.074,-8.075,-7.682,-1.341,1.727,328.6,323.4,337.9,326.0,329.0,328.2,333.5,323.6,331.4,322.1,0,norm,2.008,1.817,-1.888,-1.392,-5.044,-4.58,-2.006,-1.641,-1.529,-1.885,1.413,-1.794,317.9,328.6,-5.146,-8.346,327.6,-1.331,7.894,5.081,-4.494,-8.084,19,5.183,4.935,4.803,5.172,1.12,1.176,1.372,1.308,19,4.422,4.318,-40,248.065598687,norm,0,70,70,70,2155.388,2155.394,2155.39598062,2155.396,2155.399,2155.403,up,1,1.04462843182,8.95537156818,001,311,1600_900,Intel(R) Core(TM) i7-2670QM CPU @ 2.20GHz,orientation_search,GRVLAPTOP3,Intel(R) HD Graphics Family,2018_nov_08_1317,testMonitor,
100.0,106.5,104.6,97.9,36,-80,76.6,84.2,87.6,102.2,8.256,7.943,7.788,8.153,7.604,8.417,8.178,5.238,-4.35,-8.366,1.57,-1.306,8.215,4.494,-4.979,-7.81,99.8,79.7,-8.345,94.0,116.6,92.6,102.2,93.8,36,92.1,0,5,prime,10,0,67,norm,36,-4.77,up,norm,96.5797618487,86.1,88.5,1.806,101.5,5,109.1,102.1,89.8,10,6,7.756,4.592,2.061,-1.437,-4.438,-8.247,93.8,6,163.6,-7.619,-8.373,-80,-8.154,-7.818,-4.91,-5.248,-4.707,-4.523,4.903,8.454,5,-1.693,1.149,5.177,7.653,-7.932,-7.633,-1.812,1.33,88.7,88.1,91.5,95.5,103.0,93.5,112.2,101.3,,112.6,0,norm,1.836,1.81,-2.029,-1.779,-4.407,-4.958,-1.493,-1.631,-1.673,-1.687,1.527,-2.084,100.8,88.3,-4.907,-8.303,108.0,-2.087,8.07,5.102,-4.808,-8.147,20,4.873,4.771,4.484,4.891,2.09,1.831,1.837,1.908,20,4.813,4.399,80,248.065598687,norm,0,71,71,71,2156.456,2156.461,2156.46323075,2156.464,2156.466,2156.47,down,0,2.44982424126,-10,001,311,1600_900,Intel(R) Core(TM) i7-2670QM CPU @ 2.20GHz,orientation_search,GRVLAPTOP3,Intel(R) HD Graphics Family,2018_nov_08_1317,testMonitor,
89.0,80.4,95.0,92.0,36,-80,96.4,101.6,101.3,108.2,7.561,8.232,7.619,8.409,7.591,7.879,7.835,5.194,-5.215,-7.928,1.215,-1.705,7.786,5.119,-4.828,-8.244,,105.0,-8.058,116.6,90.4,107.9,107.1,115.4,36,95.2,5,5,prime,10,0,72,norm,36,-4.605,up,norm,96.5797618487,91.0,104.4,1.743,104.0,5,110.2,96.4,89.3,10,6,8.185,5.042,1.13,-1.219,-5.05,-7.747,100.0,6,168.6,-7.949,-7.973,-80,-7.517,-7.582,-5.216,-4.594,-4.557,-4.667,5.217,7.598,35,-1.442,1.988,4.512,7.512,-8.497,-7.67,-1.623,1.679,101.3,76.6,84.5,91.3,106.9,96.9,87.9,106.4,94.5,101.5,1,norm,1.729,1.276,-1.546,-1.165,-4.732,-4.898,-1.487,-1.286,-1.915,-2.068,1.251,-1.611,100.4,115.6,-4.686,-7.928,97.9,-1.791,8.051,4.398,-4.334,-7.592,20,4.912,4.408,5.1,4.7,1.734,1.397,1.507,1.246,20,4.894,4.819,80,248.065598687,norm,0,72,72,72,2159.933,2159.939,2159.94075707,2159.941,2159.944,2159.947,down,0,6.29115107967,-10,001,311,1600_900,Intel(R) Core(TM) i7-2670QM CPU @ 2.20GHz,orientation_search,GRVLAPTOP3,Intel(R) HD Graphics Family,2018_nov_08_1317,testMonitor,
111.7,100.7,100.7,94.1,36,-80,86.3,97.0,77.5,98.6,8.221,7.512,8.481,8.32,8.09,8.19,8.074,5.22,-4.914,-7.652,1.795,-1.552,8.094,5.217,-4.921,-8.26,106.2,84.3,-8.318,100.0,81.7,,76.6,111.6,36,102.6,5,5,prime,10,0,112,norm,36,-4.754,up,norm,96.5797618487,95.7,95.9,1.264,96.3,3,113.3,92.6,110.2,10,6,7.883,4.483,1.759,-1.237,-4.794,-7.662,85.9,6,208.6,-8.057,-7.761,-80,-8.078,-8.039,-5.004,-4.847,-4.565,-4.834,4.824,8.416,33,-1.82,1.811,4.513,7.59,-8.465,-8.189,-1.326,1.984,93.8,79.7,100.7,116.6,81.9,84.1,84.0,105.7,96.6,90.8,2,norm,1.674,1.629,-1.296,-1.38,-5.018,-4.617,-1.649,-1.938,-1.613,-2.022,1.257,-1.941,76.6,90.6,-5.126,-8.397,97.6,-1.985,7.787,5.198,-5.195,-8.108,20,5.16,4.389,4.741,4.458,1.605,1.383,1.643,1.176,20,4.867,5.253,80,248.065598687,norm,0,73,73,73,2167.25,2167.255,2167.25718538,2167.258,2167.26,2167.264,up,1,0.692233088592,9.30776691141,001,311,1600_900,Intel(R) Core(TM) i7-2670QM CPU @ 2.20GHz,orientation_search,GRVLAPTOP3,Intel(R) HD Graphics Family,2018_nov_08_1317,testMonitor,
84.9,92.2,79.4,82.7,36,-80,98.0,96.3,87.2,87.3,8.291,7.605,8.425,7.555,7.774,7.958,7.866,4.803,-5.171,-8.167,1.476,-1.245,7.911,5.26,-5.003,-8.41,92.9,116.6,-7.658,85.9,96.5,89.6,92.9,89.3,36,111.7,1,5,prime,10,0,77,norm,36,-5.248,down,norm,96.5797618487,99.9,103.2,2.021,100.3,0,104.9,87.7,84.2,10,6,8.149,5.006,1.788,-1.545,-4.761,-7.893,78.6,6,173.6,-7.552,-7.781,-80,-7.655,-8.258,-5.046,-4.615,-4.595,-5.018,4.693,8.208,6,-1.466,1.417,5.027,7.908,-7.9,-8.276,-1.543,1.773,85.3,99.4,99.7,102.6,102.3,101.4,98.9,,111.7,99.6,3,norm,1.251,1.723,-1.771,-1.42,-4.549,-4.741,-1.939,-2.039,-1.236,-2.028,1.545,-1.135,87.1,90.3,-4.32,-7.711,76.6,-1.709,7.926,4.543,-5.089,-8.053,20,4.79,4.75,4.462,5.127,1.855,2.051,1.26,2.089,20,4.748,4.465,80,248.065598687,norm,0,74,74,74,2167.964,2167.97,2167.97159236,2167.972,2167.975,2167.978,up,0,1.08697769676,-10,001,311,1600_900,Intel(R) Core(TM) i7-2670QM CPU @ 2.20GHz,orientation_search,GRVLAPTOP3,Intel(R) HD Graphics Family,2018_nov_08_1317,testMonitor,
86.6,96.1,88.0,92.1,36,-80,96.8,101.6,101.2,99.0,8.028,8.087,7.699,8.204,8.379,8.211,7.683,4.313,-5.159,-8.398,1.738,-1.212,7.77,4.354,-4.887,-8.136,115.6,86.9,-8.0,94.4,98.7,97.7,99.0,101.7,36,100.8,0,5,prime,10,0,73,norm,36,-4.362,down,norm,96.5797618487,96.6,105.6,1.657,103.2,1,97.4,91.0,76.6,10,6,8.279,5.268,1.226,-2.089,-5.07,-7.634,82.4,6,169.6,-8.457,-7.526,-80,-7.748,-8.344,-4.645,-4.429,-4.814,-5.179,5.279,7.955,1,-1.577,1.692,4.93,8.164,-7.598,-8.415,-1.347,1.721,99.2,78.3,104.3,102.2,,102.8,100.3,98.6,104.9,90.5,4,norm,1.262,1.226,-1.894,-1.656,-4.857,-5.058,-1.532,-1.695,-1.104,-1.228,1.412,-1.148,107.4,105.0,-5.285,-8.369,91.4,-2.098,8.399,4.505,-4.955,-7.661,20,4.464,4.342,4.711,4.426,1.798,2.086,1.275,1.718,20,4.722,5.268,80,248.065598687,norm,0,75,75,75,2170.073,2170.078,2170.0805866,2170.081,2170.084,2170.087,down,1,1.02835814066,8.97164185934,001,311,1600_900,Intel(R) Core(TM) i7-2670QM CPU @ 2.20GHz,orientation_search,GRVLAPTOP3,Intel(R) HD Graphics Family,2018_nov_08_1317,testMonitor,
85.2,,90.3,100.9,36,-80,83.1,76.6,102.6,104.4,7.834,8.294,8.153,8.039,7.829,7.616,7.706,4.906,-4.785,-8.236,1.613,-1.994,7.596,4.611,-5.115,-8.274,85.7,84.7,-7.959,98.3,87.3,101.6,116.6,110.1,36,89.9,3,5,prime,10,0,69,norm,36,-4.711,up,norm,96.5797618487,98.5,96.3,1.547,81.6,5,90.5,104.4,93.2,10,6,7.967,4.582,1.594,-1.775,-4.532,-8.337,103.6,6,165.6,-8.402,-7.743,-80,-7.535,-8.395,-4.509,-4.554,-4.998,-4.786,4.353,7.92,23,-1.956,1.522,4.967,8.403,-7.721,-8.155,-1.591,1.274,104.9,92.9,98.7,93.4,99.7,110.5,96.0,88.2,108.0,82.2,5,norm,1.576,1.131,-1.352,-1.805,-5.191,-5.177,-1.534,-1.222,-1.836,-1.211,1.57,-1.305,95.8,103.2,-4.53,-8.231,91.6,-1.372,8.193,4.617,-4.593,-8.381,20,4.926,4.724,4.763,5.065,1.128,1.372,1.906,1.899,20,5.106,4.568,80,248.065598687,norm,0,76,76,76,2171.124,2171.13,2171.13190544,2171.132,2171.135,2171.139,down,0,0.385219362226,-10,001,311,1600_900,Intel(R) Core(TM) i7-2670QM CPU @ 2.20GHz,orientation_search,GRVLAPTOP3,Intel(R) HD Graphics Family,2018_nov_08_1317,testMonitor,
123.0,128.4,109.9,116.8,36,60,120.8,117.8,112.1,123.5,7.644,7.962,7.767,7.525,7.52,8.357,8.116,4.794,-4.577,-7.51,1.166,-1.399,8.487,4.683,-4.662,-8.267,122.2,129.9,-8.133,121.6,119.9,123.4,120.7,118.3,36,112.5,0,5,probe,5,0,96,norm,36,-4.477,down,norm,119.895259924,124.1,115.0,1.971,115.0,2,117.4,123.7,119.4,10,6,8.278,5.074,2.054,-2.068,-4.789,-7.807,114.6,2,23.9,-8.473,-7.531,-80,-8.262,-8.49,-5.134,-4.667,-5.233,-5.134,4.487,7.948,2,-1.336,1.94,4.577,8.477,-7.678,-8.348,-1.318,1.715,125.6,118.5,126.3,,118.0,117.3,116.3,122.9,118.5,115.8,0,norm,1.426,1.752,-1.665,-2.059,-5.044,-4.336,-1.299,-1.94,-1.26,-1.697,1.917,-1.381,114.9,119.8,-5.082,-7.833,128.4,-1.781,8.027,5.218,-4.355,-8.216,21,5.299,4.541,5.009,4.607,1.682,1.726,1.752,1.198,21,4.577,4.49,-80,96.5797618487,norm,0,77,77,77,2172.538,2172.543,2172.54518737,2172.546,2172.548,2172.552,down,1,1.11072100308,8.88927899692,001,311,1600_900,Intel(R) Core(TM) i7-2670QM CPU @ 2.20GHz,orientation_search,GRVLAPTOP3,Intel(R) HD Graphics Family,2018_nov_08_1317,testMonitor,
86.1,83.5,81.8,77.8,36,60,81.3,76.8,93.9,87.2,8.193,7.909,8.356,8.191,7.604,7.801,7.76,4.623,-4.756,-7.581,2.01,-1.324,8.169,4.535,-5.101,-7.616,78.7,91.9,-7.972,79.3,73.9,86.9,83.1,78.7,36,80.1,0,5,probe,5,0,60,norm,36,-4.326,down,norm,83.895259924,82.1,77.0,1.998,86.3,2,85.7,76.2,79.6,10,6,8.407,4.993,2.049,-1.563,-4.398,-8.463,78.3,2,23.9,-7.91,-8.445,-80,-8.35,-7.554,-4.803,-5.241,-5.063,-4.842,5.256,7.596,2,-1.793,1.684,4.826,8.282,-8.154,-8.073,-1.31,1.554,77.5,83.5,82.3,,82.3,83.3,85.1,92.6,81.4,83.3,1,norm,1.8,1.801,-1.104,-1.256,-4.511,-4.841,-1.736,-1.706,-1.907,-1.166,1.493,-1.718,78.3,85.8,-4.641,-7.774,76.2,-2.017,8.21,5.122,-4.488,-8.213,21,5.216,5.286,4.57,4.474,1.689,1.743,1.208,1.516,21,4.52,4.468,-80,96.5797618487,norm,0,78,78,78,2173.671,2173.676,2173.67794545,2173.678,2173.681,2173.684,up,0,2.10638120035,-10,001,311,1600_900,Intel(R) Core(TM) i7-2670QM CPU @ 2.20GHz,orientation_search,GRVLAPTOP3,Intel(R) HD Graphics Family,2018_nov_08_1317,testMonitor,
114.4,109.6,121.4,133.3,36,30,105.8,116.8,116.6,98.8,8.185,7.871,7.813,8.13,7.987,7.786,8.339,4.543,-4.415,-7.906,1.628,-1.932,7.854,5.096,-4.611,-8.096,106.6,108.4,-8.324,123.4,114.1,108.4,111.1,127.3,36,122.8,0,5,prime,10,0,111,norm,36,-5.286,up,norm,115.527147561,131.0,111.7,1.975,112.7,5,129.0,123.9,117.4,10,6,8.041,5.024,2.093,-1.274,-4.631,-8.273,112.5,6,226.5,-7.989,-8.014,30,-8.465,-8.271,-5.041,-5.262,-4.434,-4.651,5.197,8.023,5,-1.604,1.451,5.033,7.773,-8.07,-7.892,-1.656,1.695,121.6,119.1,95.5,123.1,106.1,106.4,109.6,135.5,,99.7,0,norm,1.95,1.362,-1.35,-2.037,-4.311,-4.343,-1.483,-1.599,-1.922,-1.632,1.765,-1.152,110.6,110.8,-4.744,-8.175,122.5,-1.981,8.08,4.347,-4.814,-7.681,22,4.983,5.105,4.87,4.886,1.546,1.801,1.857,2.005,22,4.47,4.468,60,96.5797618487,norm,0,79,79,79,2176.812,2176.818,2176.81982067,2176.82,2176.823,2176.826,down,0,0.50097358389,-10,001,311,1600_900,Intel(R) Core(TM) i7-2670QM CPU @ 2.20GHz,orientation_search,GRVLAPTOP3,Intel(R) HD Graphics Family,2018_nov_08_1317,testMonitor,
117.2,124.5,95.5,117.9,36,30,132.3,116.6,116.6,125.5,8.013,7.672,7.746,8.11,8.276,7.804,8.076,5.024,-4.661,-7.521,1.523,-1.805,8.082,4.721,-4.709,-8.425,115.2,104.0,-8.263,108.4,106.2,108.8,104.6,120.4,36,114.0,0,5,prime,10,0,73,norm,36,-4.393,down,norm,115.527147561,121.4,131.8,1.942,116.1,2,109.4,106.3,118.3,10,6,8.141,4.4,1.696,-1.261,-5.248,-7.77,135.5,6,188.5,-8.464,-7.602,30,-7.89,-8.024,-5.093,-4.901,-5.13,-4.467,4.567,7.838,2,-2.001,1.856,4.973,8.331,-8.476,-8.289,-1.452,2.056,122.5,111.4,126.4,,114.2,110.2,102.8,101.5,106.0,121.1,1,norm,1.53,1.179,-1.738,-1.171,-4.873,-5.245,-1.146,-1.234,-1.446,-2.054,1.563,-1.936,107.9,105.4,-4.973,-7.67,130.7,-1.392,8.087,4.551,-4.453,-7.637,22,4.966,5.143,4.59,4.586,2.089,1.213,1.54,1.329,22,4.634,5.138,60,96.5797618487,norm,0,80,80,80,2178.341,2178.347,2178.34897589,2178.349,2178.352,2178.356,up,0,0.684606914921,-10,001,311,1600_900,Intel(R) Core(TM) i7-2670QM CPU @ 2.20GHz,orientation_search,GRVLAPTOP3,Intel(R) HD Graphics Family,2018_nov_08_1317,testMonitor,
110.5,111.6,110.7,120.9,36,30,110.1,121.6,133.0,101.7,7.755,8.357,8.486,7.934,8.014,7.779,8.119,4.621,-4.681,-7.652,1.686,-1.916,7.527,4.744,-5.265,-8.107,133.7,112.1,-8.341,105.9,114.8,104.5,122.8,121.1,36,106.0,1,5,prime,10,0,63,norm,36,-4.556,up,norm,115.527147561,125.7,135.5,1.87,100.5,5,,95.5,123.9,10,6,8.334,5.263,1.899,-1.47,-4.336,-8.397,100.2,6,178.5,-8.491,-7.576,30,-8.16,-7.768,-4.854,-4.895,-4.887,-4.339,4.46,8.282,11,-1.604,1.529,5.136,8.334,-7.899,-7.999,-1.894,1.878,110.8,125.6,110.7,129.4,125.1,100.7,106.8,112.3,116.6,116.1,2,norm,1.786,2.045,-1.46,-2.0,-5.203,-5.105,-1.207,-1.341,-1.683,-2.057,1.95,-1.451,135.0,115.1,-4.536,-8.204,104.7,-1.519,8.055,5.055,-4.919,-8.164,22,4.698,4.769,5.064,4.636,1.948,1.426,2.008,1.137,22,4.455,4.589,60,96.5797618487,norm,0,81,81,81,2180.057,2180.062,2180.06441063,2180.065,2180.068,2180.071,up,1,3.07748933961,6.92251066039,001,311,1600_900,Intel(R) Core(TM) i7-2670QM CPU @ 2.20GHz,orientation_search,GRVLAPTOP3,Intel(R) HD Graphics Family,2018_nov_08_1317,testMonitor,
115.8,114.3,116.1,107.4,36,30,121.8,127.3,123.7,135.5,7.688,7.563,8.351,8.279,8.213,7.856,8.31,4.979,-5.0,-8.469,1.337,-1.605,8.2,5.171,-5.106,-8.263,106.5,95.5,-7.945,109.2,131.2,110.6,115.1,106.6,36,,4,5,prime,10,0,94,norm,36,-4.376,up,norm,115.527147561,123.6,112.9,1.558,117.8,3,120.3,104.5,117.4,10,6,7.588,5.066,1.282,-1.901,-4.559,-8.327,134.5,6,209.5,-7.822,-7.55,30,-8.474,-8.1,-4.463,-4.601,-4.64,-4.728,4.427,7.87,27,-1.8,1.86,4.575,8.146,-8.115,-7.825,-1.18,1.989,119.1,113.8,109.2,117.9,100.1,132.6,112.1,118.7,130.9,126.5,3,norm,1.462,1.606,-1.856,-1.908,-4.978,-4.515,-1.9,-1.334,-1.453,-1.557,2.018,-1.801,118.7,102.8,-5.117,-8.309,107.8,-1.613,8.129,4.665,-5.211,-8.295,22,5.194,5.229,5.163,4.423,1.175,1.832,1.899,1.282,22,4.98,4.379,60,96.5797618487,norm,0,82,82,82,2183.157,2183.162,2183.16405752,2183.164,2183.167,2183.171,up,1,1.79880433625,8.20119566375,001,311,1600_900,Intel(R) Core(TM) i7-2670QM CPU @ 2.20GHz,orientation_search,GRVLAPTOP3,Intel(R) HD Graphics Family,2018_nov_08_1317,testMonitor,
99.5,129.4,111.4,98.9,36,30,117.3,105.7,126.7,118.4,7.82,7.825,8.082,8.488,7.704,7.904,8.431,4.356,-4.905,-8.146,1.824,-1.175,7.666,4.628,-5.143,-7.946,117.7,113.3,-7.758,,110.2,113.7,123.4,131.8,36,105.6,5,5,prime,10,0,99,norm,36,-4.543,down,norm,115.527147561,123.5,114.8,1.666,128.2,1,122.0,110.4,109.3,10,6,8.374,4.521,1.969,-1.603,-4.538,-7.845,108.1,6,214.5,-8.333,-8.272,30,-8.459,-7.677,-4.356,-4.633,-4.981,-4.927,4.928,7.864,31,-1.592,1.918,5.241,8.326,-8.296,-7.767,-1.864,1.858,109.3,114.4,119.1,98.6,95.5,135.5,120.8,115.8,97.5,100.5,4,norm,1.685,1.415,-1.377,-1.549,-4.636,-5.026,-1.759,-1.643,-1.459,-1.488,1.267,-1.169,106.7,110.3,-4.972,-8.487,115.2,-1.729,8.311,4.382,-4.742,-7.57,22,4.574,4.855,5.076,4.444,1.786,2.087,1.322,1.977,22,4.955,4.875,60,96.5797618487,norm,0,83,83,83,2184.978,2184.983,2184.98505817,2184.985,2184.988,2184.992,down,1,1.08922464433,8.91077535567,001,311,1600_900,Intel(R) Core(TM) i7-2670QM CPU @ 2.20GHz,orientation_search,GRVLAPTOP3,Intel(R) HD Graphics Family,2018_nov_08_1317,testMonitor,
135.5,,103.2,109.4,36,30,104.3,127.5,112.6,95.5,8.376,8.365,8.458,7.934,7.884,8.099,8.495,4.94,-4.43,-8.483,1.664,-2.007,7.969,4.475,-5.168,-8.194,98.0,116.4,-7.639,118.1,111.5,106.5,120.3,119.9,36,125.7,3,5,prime,10,0,104,norm,36,-4.894,up,norm,115.527147561,116.2,110.0,1.802,117.9,5,104.3,129.4,125.6,10,6,8.449,4.775,1.574,-1.493,-5.031,-7.947,123.2,6,219.5,-8.076,-7.887,30,-7.694,-7.63,-5.092,-5.085,-5.065,-4.455,4.746,7.72,23,-1.16,1.766,4.97,8.349,-7.91,-7.886,-1.117,2.0,109.7,126.6,121.1,128.3,123.1,128.5,116.6,118.7,110.4,104.0,5,norm,1.55,1.598,-1.886,-1.456,-5.184,-5.094,-1.945,-1.669,-1.569,-1.628,1.262,-1.377,114.0,119.7,-5.264,-7.561,123.5,-2.052,8.331,4.879,-4.457,-8.22,22,5.135,4.711,5.251,4.62,1.707,1.115,1.791,1.315,22,4.708,5.111,60,96.5797618487,norm,0,84,84,84,2186.089,2186.096,2186.09771981,2186.098,2186.101,2186.104,up,1,1.0025191775,8.9974808225,001,311,1600_900,Intel(R) Core(TM) i7-2670QM CPU @ 2.20GHz,orientation_search,GRVLAPTOP3,Intel(R) HD Graphics Family,2018_nov_08_1317,testMonitor,
260.3,256.0,259.0,258.7,36,-80,264.0,258.0,,259.8,7.694,7.626,7.513,8.418,7.656,7.876,8.172,4.684,-5.049,-8.248,1.376,-1.725,8.207,5.039,-5.091,-7.602,255.4,255.0,-7.532,257.9,251.1,258.9,267.1,256.3,36,262.4,4,5,probe,5,0,110,norm,36,-5.271,up,norm,257.475915447,257.7,265.7,2.067,254.8,4,247.5,259.0,255.3,10,6,8.215,5.251,1.531,-1.181,-5.086,-7.925,267.5,2,147.5,-8.034,-8.315,30,-8.062,-8.321,-4.47,-4.854,-4.333,-4.672,5.107,7.531,28,-1.872,1.315,5.151,7.795,-7.639,-7.924,-1.503,1.522,253.9,258.4,254.2,256.2,254.8,267.1,253.2,254.9,260.3,263.3,0,norm,1.308,1.357,-2.025,-1.603,-4.404,-4.75,-1.812,-1.674,-1.437,-1.383,1.68,-2.002,255.2,256.4,-5.017,-7.622,257.3,-1.928,8.267,4.545,-4.461,-7.905,23,5.222,4.876,4.761,4.694,1.274,1.928,1.577,1.621,23,4.862,4.81,30,115.527147561,norm,0,85,85,85,2187.115,2187.12,2187.12244137,2187.123,2187.126,2187.13,up,1,1.17376861483,8.82623138517,001,311,1600_900,Intel(R) Core(TM) i7-2670QM CPU @ 2.20GHz,orientation_search,GRVLAPTOP3,Intel(R) HD Graphics Family,2018_nov_08_1317,testMonitor,
255.0,258.9,253.2,249.0,36,-80,258.6,266.5,261.0,256.7,7.641,7.913,8.01,7.986,7.661,7.867,8.051,4.565,-4.791,-7.776,1.178,-1.913,8.385,4.536,-4.302,-7.753,253.0,261.7,-7.835,255.5,251.1,262.3,259.3,251.5,36,259.0,3,5,probe,5,0,109,norm,36,-5.195,down,norm,256.475915447,264.9,257.0,1.398,253.5,0,252.6,261.4,252.5,10,6,7.976,4.425,1.9,-1.695,-4.522,-8.206,262.6,2,147.5,-7.564,-7.879,30,-8.328,-8.363,-4.978,-4.883,-4.465,-5.197,5.192,8.118,18,-1.31,1.797,5.269,8.329,-8.386,-8.426,-1.483,1.77,261.2,249.3,250.0,246.5,257.7,254.6,255.2,256.2,257.6,259.5,1,norm,1.783,1.887,-2.05,-1.604,-4.921,-5.014,-1.305,-1.5,-1.314,-1.805,2.04,-1.442,252.6,,-5.085,-7.841,254.4,-1.675,8.274,5.161,-4.601,-8.328,23,5.104,4.363,5.047,5.198,2.044,1.479,1.984,1.849,23,5.194,5.286,30,115.527147561,norm,0,86,86,86,2188.312,2188.317,2188.31934906,2188.32,2188.323,2188.326,up,0,1.28785863842,-10,001,311,1600_900,Intel(R) Core(TM) i7-2670QM CPU @ 2.20GHz,orientation_search,GRVLAPTOP3,Intel(R) HD Graphics Family,2018_nov_08_1317,testMonitor,
66.1,42.6,62.6,61.6,36,-30,69.3,62.2,61.5,68.2,7.714,8.123,7.657,7.749,8.286,7.571,8.44,5.231,-5.273,-7.684,1.56,-1.847,7.616,5.141,-4.452,-8.229,73.2,62.7,-8.068,47.3,59.7,59.7,63.4,71.0,36,55.7,0,5,prime,10,0,96,norm,36,-4.444,down,norm,62.5942064552,82.6,69.5,1.535,76.2,0,55.0,50.7,66.2,10,6,7.922,4.635,1.164,-1.231,-4.797,-8.393,64.0,6,158.6,-8.167,-8.198,-30,-8.155,-8.38,-4.58,-5.065,-4.889,-4.326,4.457,8.404,0,-1.866,2.052,5.192,8.447,-7.662,-7.974,-1.251,1.178,58.0,62.2,72.6,49.1,48.6,,58.5,57.3,72.5,50.5,0,norm,1.651,1.882,-1.735,-1.464,-5.276,-4.408,-1.483,-2.079,-1.674,-1.211,1.945,-1.313,80.8,57.8,-4.906,-8.243,67.4,-1.925,8.42,4.747,-4.972,-8.265,24,4.454,4.508,4.482,4.354,1.448,1.818,1.304,1.47,24,4.397,4.536,-80,115.527147561,norm,0,87,87,87,2190.633,2190.639,2190.64127379,2190.642,2190.644,2190.648,down,1,1.3611221103,8.6388778897,001,311,1600_900,Intel(R) Core(TM) i7-2670QM CPU @ 2.20GHz,orientation_search,GRVLAPTOP3,Intel(R) HD Graphics Family,2018_nov_08_1317,testMonitor,
74.3,74.1,70.9,61.5,36,-30,76.4,51.7,53.6,51.0,8.105,7.654,8.0,8.406,7.559,7.824,8.454,5.144,-4.452,-8.25,1.564,-2.009,7.779,5.19,-5.225,-8.306,82.6,67.5,-8.204,72.9,57.0,61.8,70.5,,36,63.0,4,5,prime,10,0,61,norm,36,-5.04,down,norm,62.5942064552,59.1,73.9,1.479,76.7,2,55.3,48.1,75.0,10,6,8.01,5.056,1.701,-2.043,-5.015,-7.696,42.6,6,123.6,-8.223,-7.592,-30,-8.136,-8.217,-5.248,-4.812,-4.756,-4.692,4.481,8.488,26,-1.853,2.096,4.606,8.177,-8.471,-7.506,-1.899,1.237,70.5,58.2,77.5,74.2,71.8,56.9,64.6,67.7,58.5,72.8,1,norm,1.822,1.343,-1.988,-1.201,-4.77,-4.682,-1.353,-1.37,-1.875,-1.129,1.709,-1.812,60.1,63.6,-5.05,-8.374,66.5,-1.339,8.309,5.008,-5.008,-7.604,24,5.026,4.669,4.734,5.293,2.016,1.12,1.206,1.691,24,5.111,4.705,-80,115.527147561,norm,0,88,88,88,2192.017,2192.023,2192.02488873,2192.025,2192.028,2192.032,down,1,1.24097111841,8.75902888159,001,311,1600_900,Intel(R) Core(TM) i7-2670QM CPU @ 2.20GHz,orientation_search,GRVLAPTOP3,Intel(R) HD Graphics Family,2018_nov_08_1317,testMonitor,
52.5,69.3,57.1,67.4,36,-30,58.5,59.7,63.8,80.1,8.427,8.308,7.777,7.558,7.63,7.62,7.846,5.195,-5.129,-7.763,1.295,-1.612,7.861,4.818,-4.849,-8.055,66.0,69.8,-7.816,80.4,73.9,66.6,70.6,71.3,36,66.4,1,5,prime,10,0,98,norm,36,-4.723,down,norm,62.5942064552,64.8,61.1,1.858,66.4,1,42.6,49.2,82.6,10,6,7.536,4.351,1.426,-1.682,-4.436,-7.553,67.0,6,160.6,-8.136,-8.268,-30,-7.774,-8.225,-5.244,-5.247,-4.463,-4.332,4.606,7.948,7,-1.249,1.61,4.636,8.118,-8.155,-7.845,-1.723,1.607,70.9,78.9,68.5,70.8,65.6,68.9,,53.5,77.8,59.3,2,norm,1.487,1.913,-1.639,-1.557,-4.909,-5.117,-1.723,-1.114,-2.084,-1.962,1.413,-1.697,59.8,72.0,-4.326,-7.67,45.4,-1.44,7.538,5.202,-5.058,-8.331,24,5.071,4.431,4.573,5.204,1.24,1.565,1.923,2.007,24,4.98,4.658,-80,115.527147561,norm,0,89,89,89,2193.28,2193.286,2193.28792775,2193.288,2193.291,2193.295,down,1,1.17258210324,8.82741789676,001,311,1600_900,Intel(R) Core(TM) i7-2670QM CPU @ 2.20GHz,orientation_search,GRVLAPTOP3,Intel(R) HD Graphics Family,2018_nov_08_1317,testMonitor,
54.4,51.4,51.9,60.6,36,-30,,67.6,79.6,67.4,8.143,8.488,8.094,7.538,8.306,7.591,8.102,4.966,-4.788,-7.557,1.647,-1.718,7.959,5.063,-4.536,-7.588,70.9,67.3,-8.438,52.7,64.9,60.2,70.6,65.2,36,53.2,4,5,prime,10,0,73,norm,36,-4.622,down,norm,62.5942064552,69.5,70.6,1.209,42.6,0,53.6,50.1,63.2,10,6,7.51,4.396,1.999,-1.762,-4.624,-8.355,60.3,6,135.6,-7.727,-8.095,-30,-7.502,-7.971,-4.379,-5.178,-4.541,-4.977,4.589,7.978,24,-1.692,1.992,4.51,8.156,-8.139,-7.532,-1.799,1.425,56.7,65.3,47.0,71.2,57.4,73.1,62.6,69.6,60.4,66.1,3,norm,2.031,1.265,-1.705,-1.664,-4.569,-4.78,-1.62,-1.188,-1.452,-2.063,1.666,-1.671,56.9,56.5,-4.763,-7.799,42.6,-1.388,7.994,5.037,-4.683,-7.779,24,5.17,4.512,4.329,5.257,1.524,1.33,1.812,1.109,24,4.748,5.18,-80,115.527147561,norm,0,90,90,90,2194.476,2194.481,2194.48294851,2194.483,2194.486,2194.49,down,1,1.14845963619,8.85154036381,001,311,1600_900,Intel(R) Core(TM) i7-2670QM CPU @ 2.20GHz,orientation_search,GRVLAPTOP3,Intel(R) HD Graphics Family,2018_nov_08_1317,testMonitor,
70.3,42.6,65.1,69.3,36,-30,69.7,53.6,67.4,,7.857,8.434,8.479,8.399,7.56,7.692,8.176,4.398,-5.113,-8.124,1.165,-1.353,8.132,4.907,-4.662,-7.616,46.0,70.2,-8.176,63.9,82.6,74.4,63.5,50.1,36,49.9,4,5,prime,10,0,97,norm,36,-4.922,up,norm,62.5942064552,65.4,70.6,1.131,75.9,5,56.9,68.7,55.2,10,6,7.621,4.82,1.442,-1.465,-4.786,-8.268,70.8,6,159.6,-7.65,-8.305,-30,-8.166,-7.94,-4.636,-4.939,-4.574,-4.89,4.926,8.236,29,-1.816,1.496,5.174,7.928,-8.223,-7.839,-1.662,1.559,64.7,81.1,65.0,49.7,51.8,65.0,59.5,43.1,73.2,64.0,4,norm,1.129,1.563,-1.647,-1.18,-4.503,-5.276,-1.787,-2.065,-1.709,-1.736,1.171,-1.269,63.1,66.3,-4.707,-7.506,60.7,-2.026,8.309,5.124,-4.495,-7.879,24,5.08,4.927,5.201,4.793,1.343,1.357,1.172,1.445,24,4.428,5.127,-80,115.527147561,norm,0,91,91,91,2195.648,2195.653,2195.65481898,2195.655,2195.658,2195.662,up,1,1.29323879841,8.70676120159,001,311,1600_900,Intel(R) Core(TM) i7-2670QM CPU @ 2.20GHz,orientation_search,GRVLAPTOP3,Intel(R) HD Graphics Family,2018_nov_08_1317,testMonitor,
50.4,73.2,58.4,58.6,36,-30,54.6,64.8,78.1,51.3,8.015,7.524,7.578,8.457,7.722,8.288,8.21,4.929,-4.511,-7.95,1.872,-2.095,8.29,5.112,-4.431,-8.056,68.7,77.9,-7.901,62.6,81.6,72.8,65.6,70.3,36,55.5,0,5,prime,10,0,104,norm,36,-5.271,down,norm,62.5942064552,69.3,82.6,1.873,72.9,2,61.8,51.5,77.8,10,6,7.58,4.756,1.604,-1.194,-4.726,-8.412,67.3,6,166.6,-7.789,-8.342,-30,-7.52,-8.193,-4.494,-4.967,-4.405,-4.728,4.804,7.657,2,-1.516,1.635,4.666,8.407,-8.389,-8.341,-1.642,1.748,66.8,60.6,45.5,,77.1,61.0,74.3,62.0,66.3,62.4,5,norm,1.76,1.196,-1.935,-1.503,-4.621,-4.354,-1.281,-1.169,-1.507,-1.23,1.358,-1.886,63.7,67.4,-4.405,-7.751,72.8,-1.383,7.844,4.514,-4.68,-8.255,24,4.688,4.688,4.927,5.028,1.752,1.896,1.653,1.734,24,4.388,4.452,-80,115.527147561,norm,0,92,92,92,2196.963,2196.968,2196.97040772,2196.971,2196.974,2196.977,down,1,1.51575011253,8.48424988747,001,311,1600_900,Intel(R) Core(TM) i7-2670QM CPU @ 2.20GHz,orientation_search,GRVLAPTOP3,Intel(R) HD Graphics Family,2018_nov_08_1317,testMonitor,
128.6,129.8,129.3,126.7,36,0,118.9,117.7,123.0,119.1,8.451,7.945,8.157,8.045,8.261,8.252,7.883,4.663,-4.807,-8.328,2.097,-1.799,8.307,4.629,-4.924,-7.948,128.8,122.9,-7.688,130.1,126.7,124.6,116.1,123.2,36,121.7,0,5,probe,5,0,89,norm,36,-5.024,up,norm,123.99958471,126.5,120.9,1.525,122.3,4,125.7,121.5,132.0,10,6,7.786,5.138,1.887,-1.381,-4.667,-7.729,124.0,1,35.0,-7.748,-7.876,-30,-8.197,-7.917,-4.584,-5.108,-4.943,-4.669,4.855,7.791,4,-1.907,1.268,5.002,8.183,-8.001,-7.971,-1.259,1.135,125.4,125.8,123.6,114.0,129.2,129.3,134.0,127.1,121.1,,0,norm,1.395,1.775,-1.719,-1.248,-4.606,-4.385,-1.435,-1.574,-1.184,-1.126,2.045,-1.182,131.1,123.2,-4.803,-8.042,114.7,-2.013,7.627,4.716,-4.864,-7.879,25,4.408,4.461,4.757,4.364,1.952,1.858,1.144,1.753,25,5.252,4.313,-30,62.5942064552,norm,0,93,93,93,2198.501,2198.507,2198.50869782,2198.509,2198.512,2198.515,up,1,1.29761268825,8.70238731175,001,311,1600_900,Intel(R) Core(TM) i7-2670QM CPU @ 2.20GHz,orientation_search,GRVLAPTOP3,Intel(R) HD Graphics Family,2018_nov_08_1317,testMonitor,
122.2,112.3,122.8,104.5,36,0,96.8,104.7,113.5,108.4,7.564,8.481,7.838,8.089,8.459,7.725,7.565,4.713,-4.338,-8.119,1.816,-1.341,8.227,4.574,-4.904,-7.964,111.6,128.2,-7.513,114.5,103.1,104.4,121.0,132.2,36,112.0,2,5,prime,10,0,60,norm,36,-4.434,down,norm,112.904389401,118.9,97.9,1.534,111.9,0,92.9,130.7,,10,5,8.196,5.21,1.82,-1.96,-4.642,-8.323,119.7,5,172.9,-8.339,-7.831,0,-8.079,-8.317,-4.917,-4.566,-4.872,-4.727,4.317,8.466,12,-1.904,1.28,5.095,8.062,-8.251,-7.654,-1.347,1.101,112.2,101.3,117.3,107.1,113.4,108.2,101.1,115.5,132.9,119.5,0,norm,1.603,1.653,-1.847,-2.021,-4.89,-5.048,-1.565,-2.032,-1.596,-1.371,2.079,-1.552,98.4,113.1,-4.965,-8.221,102.5,-1.84,7.847,5.146,-4.882,-7.94,26,4.644,4.404,4.946,5.215,1.995,1.315,1.386,1.874,26,4.69,5.155,0,62.5942064552,norm,0,94,94,94,2199.822,2199.828,2199.83003513,2199.83,2199.833,2199.836,down,1,1.45387593786,8.54612406214,001,311,1600_900,Intel(R) Core(TM) i7-2670QM CPU @ 2.20GHz,orientation_search,GRVLAPTOP3,Intel(R) HD Graphics Family,2018_nov_08_1317,testMonitor,
