d_ori_22,d_ori_23,d_ori_20,d_ori_21,set_size,ctpd,d_ori_24,d_ori_25,d_ori_28,d_ori_29,stim_pos_x_30,stim_pos_x_31,stim_pos_x_32,stim_pos_x_33,stim_pos_x_34,stim_pos_x_35,stim_pos_y_11,stim_pos_y_10,stim_pos_y_13,stim_pos_y_12,stim_pos_y_15,stim_pos_y_14,stim_pos_y_17,stim_pos_y_16,stim_pos_y_19,stim_pos_y_18,d_ori_35,d_ori_34,stim_pos_x_3,d_ori_31,d_ori_30,d_ori_33,d_ori_32,d_ori_26,test_set_size,d_ori_27,targetCol,dsd_test,seq_type,dsd,blockRepN,targetDist,dtype_test,prime_set_size,stim_pos_y_25,correctResponse,dtype,distrMean,d_ori_17,d_ori_16,d_ori_15,d_ori_14,targetRow,d_ori_11,d_ori_13,d_ori_12,dsd_prime,streak_length_prime,stim_pos_y_35,stim_pos_y_34,stim_pos_y_33,stim_pos_y_32,stim_pos_y_31,stim_pos_y_30,d_ori_10,nextProbe,targetOri,stim_pos_x_1,stim_pos_x_2,ctpd_prime,stim_pos_x_4,stim_pos_x_5,stim_pos_x_6,stim_pos_x_7,stim_pos_x_8,stim_pos_x_9,stim_pos_y_28,stim_pos_y_29,targetPos,stim_pos_y_20,stim_pos_y_21,stim_pos_y_22,stim_pos_y_23,stim_pos_y_24,stim_pos_x_0,stim_pos_y_26,stim_pos_y_27,d_ori_9,d_ori_8,d_ori_3,d_ori_2,d_ori_1,d_ori_0,d_ori_7,d_ori_6,d_ori_5,d_ori_4,trialN,dtype_prime,stim_pos_x_18,stim_pos_x_19,stim_pos_x_12,stim_pos_x_13,stim_pos_x_10,stim_pos_x_11,stim_pos_x_16,stim_pos_x_17,stim_pos_x_14,stim_pos_x_15,stim_pos_y_9,stim_pos_y_8,d_ori_19,d_ori_18,stim_pos_y_1,stim_pos_y_0,stim_pos_y_3,stim_pos_y_2,stim_pos_y_5,stim_pos_y_4,stim_pos_y_7,stim_pos_y_6,totBlockN,stim_pos_x_27,stim_pos_x_26,stim_pos_x_25,stim_pos_x_24,stim_pos_x_23,stim_pos_x_22,stim_pos_x_21,stim_pos_x_20,blockN,stim_pos_x_29,stim_pos_x_28,prevDistrCTPD,prevDistrMean,prevDistrType,trials.thisRepN,trials.thisTrialN,trials.thisN,trials.thisIndex,timeStart,timeBeforeDraw,timeDraw,timeAfterSaving,timeAfterWritingToTemp,timeAfterPreparingNext,answer,correct,rt,trialScore,session,participant,resolution,cpu_info,expName,pc_name,graphic_card,date,monitorName,
95.1,117.3,92.8,96.6,36,-10,85.3,119.9,89.9,94.6,7.892,7.857,7.819,7.776,8.431,8.499,7.543,4.918,-5.031,-7.77,2.0,-2.099,7.582,4.728,-4.536,-8.259,95.5,107.2,-8.164,79.9,101.8,99.1,110.8,95.6,36,91.6,2,5,prime,10,0,86,norm,36,-4.582,up,norm,99.8573058599,92.5,109.9,,88.8,3,104.5,94.9,116.0,10,5,7.753,5.175,1.981,-1.801,-5.152,-7.803,80.6,5,185.9,-8.207,-7.875,-10,-7.527,-8.095,-4.305,-4.814,-4.477,-4.946,5.242,7.819,15,-1.74,1.244,4.462,8.465,-8.174,-7.834,-1.926,1.117,100.2,98.5,89.2,97.1,105.5,92.7,81.4,91.1,100.6,106.8,0,norm,1.719,1.621,-2.036,-1.79,-4.47,-4.375,-1.138,-1.658,-1.693,-1.451,1.511,-1.199,109.7,101.5,-4.939,-7.628,1.228,-1.53,7.895,4.823,-4.429,-8.052,0,5.065,4.959,4.448,4.742,1.594,1.825,1.14,1.37,0,4.468,4.39,,,,0,0,0,0,82.65,82.671,82.6762761,82.677,82.677,82.682,up,1,2.89706459991,7.10293540009,001,306,1366_768,Intel(R) Core(TM) i7-8750H CPU @ 2.20GHz,orientation_search,GHUM-L-P55205,Intel(R) UHD Graphics 630,2018_Nov_08_1324,testMonitor,
95.6,84.4,102.2,106.2,36,-10,115.0,100.6,92.1,106.5,8.184,7.657,8.45,8.427,7.815,7.827,7.53,4.92,-4.78,-8.23,1.116,-1.131,8.304,4.44,-4.586,-7.827,104.6,100.7,-7.719,93.4,79.9,111.8,,86.3,36,90.1,5,5,prime,10,0,116,norm,36,-4.611,down,norm,99.8573058599,119.9,112.9,95.0,99.6,2,96.7,99.9,90.0,10,5,7.938,4.785,1.261,-1.513,-4.564,-7.787,92.1,5,215.9,-8.264,-7.575,-10,-7.934,-8.018,-4.352,-4.593,-4.852,-5.091,4.582,7.55,32,-1.463,1.31,4.589,7.884,-8.453,-7.667,-1.713,1.633,100.9,100.0,94.4,102.8,102.0,96.6,94.2,81.1,103.3,102.3,1,norm,1.864,1.913,-1.927,-1.347,-4.402,-5.003,-1.333,-1.752,-1.736,-1.56,1.407,-1.417,108.6,100.3,-5.239,-8.123,1.605,-1.129,8.05,5.05,-4.598,-7.666,0,4.97,4.498,4.778,4.564,1.474,1.53,1.886,1.788,0,5.282,4.555,,,,0,1,1,1,85.6,85.606,85.6209045,85.621,85.623,85.625,up,0,2.14825520001,-10,001,306,1366_768,Intel(R) Core(TM) i7-8750H CPU @ 2.20GHz,orientation_search,GHUM-L-P55205,Intel(R) UHD Graphics 630,2018_Nov_08_1324,testMonitor,
90.3,99.2,108.5,108.1,36,-10,,97.0,94.0,84.8,8.272,8.07,7.818,7.67,7.67,7.613,8.044,4.773,-4.715,-8.25,1.852,-1.943,8.057,4.813,-4.919,-8.31,96.5,105.7,-8.426,95.6,95.4,97.0,82.5,96.1,36,96.3,4,5,prime,10,0,71,norm,36,-5.251,down,norm,99.8573058599,94.6,98.8,89.2,107.4,0,115.2,79.9,103.2,10,5,7.605,4.399,1.811,-1.965,-4.428,-7.912,117.0,5,170.9,-8.461,-8.239,-10,-8.205,-8.298,-4.949,-5.037,-5.092,-5.165,4.373,7.623,24,-1.368,1.238,4.562,8.482,-7.763,-8.432,-1.885,1.133,96.9,84.8,97.1,95.4,91.4,85.3,119.9,110.3,84.4,111.7,2,norm,1.922,2.026,-1.579,-1.232,-5.26,-5.233,-1.475,-1.55,-1.317,-1.899,1.661,-1.518,89.3,114.5,-4.66,-7.59,1.576,-1.348,7.576,4.854,-4.35,-8.288,0,4.774,4.591,4.522,5.103,1.719,1.221,1.377,2.097,0,4.564,4.865,,,,0,2,2,2,88.809,88.816,88.8204553999,88.821,88.822,88.823,down,1,1.14796919993,8.85203080007,001,306,1366_768,Intel(R) Core(TM) i7-8750H CPU @ 2.20GHz,orientation_search,GHUM-L-P55205,Intel(R) UHD Graphics 630,2018_Nov_08_1324,testMonitor,
100.3,94.5,107.1,113.3,36,-10,83.3,99.1,100.1,98.4,7.649,8.163,8.15,7.787,8.339,8.472,8.307,4.936,-5.287,-8.129,1.996,-1.68,8.006,4.529,-5.242,-7.807,93.9,92.9,-8.052,105.8,110.7,108.0,105.5,91.4,36,107.2,0,5,prime,10,0,81,norm,36,-4.406,down,norm,99.8573058599,80.8,95.5,100.3,85.6,1,87.8,110.9,110.5,10,5,7.983,4.33,1.171,-1.507,-5.054,-8.296,100.2,5,180.9,-7.987,-8.241,-10,-7.689,-7.676,-4.777,-5.281,-4.511,-4.762,4.78,8.39,1,-1.861,1.778,5.049,8.25,-7.903,-7.875,-2.092,1.408,86.0,79.9,95.0,90.9,,92.4,99.2,119.9,99.1,106.0,3,norm,2.007,1.783,-1.232,-1.119,-4.625,-5.008,-2.068,-1.148,-1.366,-1.431,1.407,-1.485,108.4,111.5,-4.92,-7.664,1.112,-1.469,7.911,5.171,-4.675,-8.493,0,4.592,5.237,4.832,5.141,1.79,1.382,1.224,1.888,0,4.343,5.167,,,,0,3,3,3,89.988,89.994,90.0037784,90.004,90.005,90.007,up,0,3.68722590001,-10,001,306,1366_768,Intel(R) Core(TM) i7-8750H CPU @ 2.20GHz,orientation_search,GHUM-L-P55205,Intel(R) UHD Graphics 630,2018_Nov_08_1324,testMonitor,
101.9,110.9,91.8,102.6,36,-10,100.8,117.3,112.9,97.3,7.511,7.548,8.329,8.364,8.454,7.602,8.241,4.681,-4.75,-8.452,1.217,-1.596,8.456,5.167,-5.006,-8.427,,101.5,-7.571,100.2,88.8,107.1,86.5,110.4,36,91.2,5,5,prime,10,0,110,norm,36,-4.906,up,norm,99.8573058599,96.6,98.8,114.7,106.0,5,94.1,113.9,98.7,10,5,7.695,4.908,1.938,-1.575,-4.614,-8.37,112.9,5,209.9,-7.961,-7.909,-10,-8.095,-8.174,-4.728,-4.593,-5.152,-4.798,4.444,7.845,35,-1.673,1.292,5.14,8.179,-8.032,-8.006,-1.504,1.936,82.4,109.0,98.7,85.6,97.2,105.2,99.0,98.2,92.9,119.9,4,norm,1.586,1.32,-1.388,-1.96,-4.533,-4.894,-1.442,-1.629,-1.19,-1.725,1.295,-1.964,79.9,104.1,-5.054,-8.42,1.844,-1.442,7.627,5.058,-5.055,-7.924,0,4.977,5.186,4.716,5.235,1.214,1.758,1.61,1.756,0,4.403,4.591,,,,0,4,4,4,94.734,94.74,94.7513467,94.752,94.753,94.754,down,0,0.320521000074,-10,001,306,1366_768,Intel(R) Core(TM) i7-8750H CPU @ 2.20GHz,orientation_search,GHUM-L-P55205,Intel(R) UHD Graphics 630,2018_Nov_08_1324,testMonitor,
176.3,,168.0,173.0,36,-60,176.5,175.6,179.9,166.8,8.274,7.523,8.495,7.937,7.721,7.964,8.133,4.534,-4.982,-7.655,1.987,-1.94,7.54,4.751,-5.046,-8.402,171.4,171.1,-8.176,172.4,174.3,178.5,169.9,176.9,36,170.9,3,5,probe,5,0,81,norm,36,-4.445,up,norm,174.39110402,176.7,173.9,178.3,173.4,5,168.6,177.9,178.9,10,5,8.394,4.427,1.815,-1.85,-4.912,-7.851,177.4,1,93.4,-8.444,-7.604,-10,-7.791,-7.934,-4.947,-4.879,-5.063,-4.972,5.22,8.244,23,-1.784,1.723,5.02,7.708,-7.999,-7.549,-1.259,1.452,175.6,176.0,175.6,167.5,168.4,176.4,164.4,170.8,175.4,184.4,0,norm,1.573,1.978,-1.304,-1.762,-4.434,-4.709,-1.606,-1.783,-1.881,-1.827,1.106,-1.967,175.3,176.3,-4.861,-7.942,1.867,-1.873,8.449,4.713,-5.213,-7.648,1,4.321,4.587,5.286,5.064,1.157,1.698,1.768,1.891,1,4.427,5.144,-10,99.8573058599,norm,0,5,5,5,96.108,96.115,96.1344055,96.135,96.136,96.137,down,0,0.3507981,-10,001,306,1366_768,Intel(R) Core(TM) i7-8750H CPU @ 2.20GHz,orientation_search,GHUM-L-P55205,Intel(R) UHD Graphics 630,2018_Nov_08_1324,testMonitor,
250.9,269.9,275.9,267.1,36,60,267.2,274.5,281.0,285.4,7.59,7.613,8.368,8.241,8.194,8.185,8.183,4.536,-5.021,-7.748,1.967,-2.04,7.97,5.124,-5.217,-7.909,276.8,290.9,-8.253,255.4,255.7,271.1,281.5,257.9,36,,4,5,prime,10,0,67,norm,36,-4.932,up,norm,270.852591256,278.4,265.0,280.0,261.6,3,271.7,264.1,280.5,10,6,8.5,4.776,1.884,-1.797,-5.272,-8.498,270.1,6,337.9,-8.191,-7.545,60,-8.232,-8.203,-4.66,-4.444,-4.877,-5.115,4.532,8.434,27,-1.626,1.847,4.376,7.511,-8.289,-8.277,-1.895,1.997,254.0,275.0,289.4,255.5,256.3,262.3,279.5,268.0,260.6,279.0,0,norm,2.081,1.875,-1.876,-1.182,-5.286,-4.704,-1.455,-1.362,-1.504,-1.75,1.454,-1.956,273.9,271.5,-4.421,-7.581,1.191,-1.875,7.949,5.014,-5.244,-7.972,2,4.443,5.286,4.397,4.754,1.957,1.8,1.722,1.308,2,4.795,5.206,-60,99.8573058599,norm,0,6,6,6,97.53,97.537,97.5506576999,97.551,97.552,97.554,up,1,0.319188100053,9.68081189995,001,306,1366_768,Intel(R) Core(TM) i7-8750H CPU @ 2.20GHz,orientation_search,GHUM-L-P55205,Intel(R) UHD Graphics 630,2018_Nov_08_1324,testMonitor,
265.2,278.0,271.2,271.4,36,60,255.0,,270.4,271.6,8.051,8.42,8.06,7.573,7.719,8.482,8.133,4.309,-5.172,-8.025,1.662,-1.189,8.451,4.836,-4.811,-7.51,269.0,290.9,-8.473,266.8,283.7,263.8,271.8,264.3,36,279.8,4,5,prime,10,0,102,norm,36,-4.655,down,norm,270.852591256,255.1,267.8,270.4,250.9,1,289.8,277.8,278.5,10,6,8.365,5.284,1.849,-1.997,-5.011,-7.909,276.2,6,372.9,-7.512,-8.404,60,-7.532,-8.372,-4.564,-4.411,-4.411,-4.937,4.727,8.296,25,-1.608,1.126,5.258,7.741,-7.726,-8.058,-1.446,1.196,265.9,260.9,282.0,259.7,256.4,259.1,269.5,278.3,262.5,284.3,1,norm,1.519,1.318,-1.351,-1.236,-5.114,-4.848,-1.442,-1.615,-1.459,-1.848,1.465,-1.651,279.5,266.8,-5.105,-7.783,1.808,-1.852,7.916,4.544,-4.898,-7.501,2,5.04,4.596,4.542,4.317,1.338,1.491,2.059,1.654,2,4.599,4.641,-60,99.8573058599,norm,0,7,7,7,97.894,97.904,97.9174479999,97.918,97.919,97.921,up,0,5.11594819999,-10,001,306,1366_768,Intel(R) Core(TM) i7-8750H CPU @ 2.20GHz,orientation_search,GHUM-L-P55205,Intel(R) UHD Graphics 630,2018_Nov_08_1324,testMonitor,
273.0,258.1,268.6,258.1,36,60,290.9,269.9,286.7,265.8,8.462,7.886,7.695,7.785,8.336,8.034,7.845,5.272,-4.802,-7.879,1.509,-1.557,7.95,5.265,-5.17,-8.304,259.5,265.0,-8.199,272.6,275.2,257.9,261.3,283.4,36,,4,5,prime,10,0,66,norm,36,-4.844,up,norm,270.852591256,276.7,285.2,272.7,265.3,3,264.3,276.9,262.0,10,6,8.283,4.618,1.445,-1.594,-4.869,-7.694,282.8,6,336.9,-8.105,-7.775,60,-8.193,-8.5,-4.482,-5.08,-4.416,-4.917,4.82,7.606,27,-1.305,1.534,4.521,7.903,-8.351,-7.775,-1.859,2.027,289.8,273.4,263.4,276.8,256.2,282.2,256.9,257.8,265.7,258.3,2,norm,1.723,1.406,-1.556,-1.701,-4.415,-4.964,-1.879,-1.766,-1.713,-1.216,1.915,-1.774,270.7,250.9,-4.925,-8.031,1.153,-1.67,8.048,4.77,-5.04,-7.612,2,4.761,4.423,4.371,4.787,2.094,1.113,1.856,1.613,2,4.624,4.324,-60,99.8573058599,norm,0,8,8,8,104.093,104.099,104.1156216,104.116,104.117,104.119,down,0,2.23457080009,-10,001,306,1366_768,Intel(R) Core(TM) i7-8750H CPU @ 2.20GHz,orientation_search,GHUM-L-P55205,Intel(R) UHD Graphics 630,2018_Nov_08_1324,testMonitor,
272.7,269.1,273.9,282.6,36,60,262.1,268.5,266.2,280.7,7.989,8.186,7.993,8.088,7.729,7.885,8.197,5.247,-4.553,-7.911,1.255,-1.102,7.588,4.882,-4.55,-7.62,265.8,282.5,-7.754,271.0,270.5,250.9,275.3,259.4,36,255.9,2,5,prime,10,0,70,norm,36,-4.335,up,norm,270.852591256,262.6,277.3,,282.8,3,286.1,266.8,280.7,10,6,7.958,4.703,1.154,-2.067,-4.692,-8.44,272.8,6,340.9,-7.897,-8.146,60,-8.276,-8.292,-4.588,-4.471,-4.48,-5.25,4.561,8.028,15,-1.722,1.444,5.25,8.269,-7.906,-8.305,-1.89,1.743,265.4,256.8,275.0,276.6,280.3,290.9,264.9,284.4,273.5,263.3,3,norm,1.621,1.515,-1.722,-1.178,-5.177,-4.487,-1.453,-1.872,-1.574,-1.777,1.657,-1.122,276.2,275.5,-5.0,-7.678,1.137,-1.901,8.261,4.876,-5.007,-8.479,2,5.128,4.401,4.319,4.631,1.407,1.813,1.979,1.988,2,4.729,4.452,-60,99.8573058599,norm,0,9,9,9,107.396,107.403,107.414793,107.415,107.416,107.418,up,1,0.5524707,9.4475293,001,306,1366_768,Intel(R) Core(TM) i7-8750H CPU @ 2.20GHz,orientation_search,GHUM-L-P55205,Intel(R) UHD Graphics 630,2018_Nov_08_1324,testMonitor,
258.3,290.5,268.7,290.9,36,60,250.9,257.9,261.5,272.3,7.64,7.828,7.772,7.794,8.162,8.399,8.44,4.461,-5.16,-7.911,1.969,-1.29,8.029,4.56,-4.674,-7.833,281.5,,-8.025,271.6,274.9,273.2,258.8,260.7,36,268.2,5,5,prime,10,0,75,norm,36,-5.011,up,norm,270.852591256,280.1,278.1,268.0,283.0,4,271.5,282.8,266.8,10,6,8.226,4.519,1.435,-1.969,-4.707,-8.046,266.5,6,345.9,-8.065,-8.093,60,-7.762,-7.939,-4.406,-4.307,-4.629,-5.209,4.628,7.957,34,-1.366,1.544,5.184,8.17,-7.969,-8.323,-1.332,1.14,276.1,262.3,254.1,265.4,265.6,258.4,268.3,285.3,271.4,264.4,4,norm,1.736,1.893,-1.358,-1.771,-4.497,-4.678,-1.848,-1.516,-1.669,-1.262,1.409,-1.223,269.2,268.8,-4.817,-7.793,1.795,-1.723,8.486,4.588,-5.173,-8.045,2,4.338,5.0,5.048,4.403,1.528,1.534,1.194,1.602,2,4.623,4.752,-60,99.8573058599,norm,0,10,10,10,107.983,107.989,107.9990309,107.999,108.001,108.002,up,1,4.93247470004,5.06752529996,001,306,1366_768,Intel(R) Core(TM) i7-8750H CPU @ 2.20GHz,orientation_search,GHUM-L-P55205,Intel(R) UHD Graphics 630,2018_Nov_08_1324,testMonitor,
253.2,272.9,267.5,261.4,36,60,283.8,278.1,262.2,269.5,7.826,7.836,7.527,8.439,8.366,8.367,7.618,4.635,-5.206,-7.874,1.346,-1.722,7.903,4.407,-4.626,-7.614,268.2,250.9,-7.503,264.4,273.5,272.1,274.6,277.8,36,271.8,2,5,prime,10,0,87,norm,36,-5.167,up,norm,270.852591256,,264.9,267.1,284.4,5,285.7,277.6,276.5,10,6,7.96,4.978,1.615,-1.694,-4.994,-8.458,264.1,6,357.9,-8.373,-8.144,60,-8.088,-7.705,-4.37,-4.692,-4.709,-4.601,4.804,8.087,17,-1.969,1.572,4.574,8.181,-7.622,-8.271,-1.491,1.129,290.9,265.3,278.1,284.9,268.8,269.8,276.8,279.7,283.5,253.5,5,norm,2.075,1.14,-1.934,-1.213,-4.545,-4.452,-1.841,-1.959,-1.726,-1.945,1.811,-1.165,272.5,275.6,-4.449,-8.317,1.928,-1.896,7.744,4.404,-4.886,-7.638,2,5.221,4.478,4.723,5.065,1.877,1.421,1.722,1.671,2,4.772,5.067,-60,99.8573058599,norm,0,11,11,11,112.949,112.956,112.9644715,112.965,112.966,112.968,up,1,6.55055819999,3.44944180001,001,306,1366_768,Intel(R) Core(TM) i7-8750H CPU @ 2.20GHz,orientation_search,GHUM-L-P55205,Intel(R) UHD Graphics 630,2018_Nov_08_1324,testMonitor,
427.2,429.6,432.2,434.9,36,20,428.3,432.0,428.7,428.6,7.961,7.714,7.625,7.6,8.418,8.392,7.648,4.937,-5.203,-7.882,1.255,-1.266,8.371,4.421,-4.561,-8.133,421.5,427.1,-7.606,426.8,420.1,423.8,432.7,422.5,36,434.9,0,5,probe,5,0,102,norm,36,-5.102,down,norm,430.066689211,428.8,426.9,435.5,427.4,0,428.5,438.3,437.8,10,6,8.163,4.512,1.779,-1.865,-4.509,-7.69,428.8,2,328.1,-8.137,-8.257,60,-7.859,-8.089,-4.752,-4.481,-4.878,-4.702,5.185,8.41,0,-1.766,1.372,4.395,8.088,-8.0,-7.69,-1.749,1.378,426.8,432.0,433.1,423.5,431.5,,428.8,428.2,430.5,440.1,0,norm,1.161,1.776,-1.175,-1.97,-5.111,-4.761,-1.762,-1.487,-1.679,-1.425,1.785,-1.763,435.0,430.1,-4.445,-8.326,1.661,-1.855,7.714,4.875,-5.223,-7.598,3,5.187,4.752,5.275,5.191,1.204,1.794,1.372,1.423,3,4.686,4.829,60,270.852591256,norm,0,12,12,12,119.54,119.549,119.5614635,119.562,119.563,119.564,down,1,2.71803290001,7.28196709999,001,306,1366_768,Intel(R) Core(TM) i7-8750H CPU @ 2.20GHz,orientation_search,GHUM-L-P55205,Intel(R) UHD Graphics 630,2018_Nov_08_1324,testMonitor,
437.3,436.3,437.2,440.6,36,20,441.5,434.9,432.9,437.1,7.601,8.273,8.251,7.726,8.01,7.927,7.926,5.043,-5.145,-8.256,1.832,-1.855,8.491,5.291,-5.196,-7.948,447.9,437.3,-7.699,429.1,431.4,443.4,436.0,437.8,36,445.4,0,5,probe,5,0,111,norm,36,-4.624,down,norm,439.066689211,440.8,436.4,442.2,445.4,1,438.8,432.6,439.6,10,6,7.519,4.752,1.553,-2.07,-4.66,-7.716,436.3,2,328.1,-7.868,-7.713,60,-7.864,-8.366,-4.924,-4.37,-4.939,-5.25,4.838,7.663,1,-1.696,1.807,4.904,8.108,-8.014,-7.995,-1.164,1.857,447.8,435.1,441.3,449.1,,441.9,444.7,434.6,436.5,441.8,1,norm,1.254,1.242,-1.659,-1.398,-4.306,-5.276,-1.752,-1.309,-1.696,-1.807,1.211,-1.845,429.4,435.1,-4.845,-8.233,1.509,-1.97,7.813,4.65,-4.789,-8.158,3,4.752,4.482,4.829,4.927,1.117,1.527,1.869,1.624,3,4.634,5.12,60,270.852591256,norm,0,13,13,13,122.304,122.312,122.3277181,122.328,122.329,122.331,down,1,2.68204670004,7.31795329996,001,306,1366_768,Intel(R) Core(TM) i7-8750H CPU @ 2.20GHz,orientation_search,GHUM-L-P55205,Intel(R) UHD Graphics 630,2018_Nov_08_1324,testMonitor,
0.3,13.7,17.0,2.5,36,-30,9.6,-5.2,-18.4,-6.6,7.904,8.112,7.774,8.476,8.267,8.487,8.209,4.788,-5.027,-7.559,1.494,-1.22,8.126,4.652,-4.583,-7.548,4.1,1.1,-7.929,-3.6,5.8,18.5,1.9,11.4,36,0.9,2,5,prime,10,0,95,norm,36,-5.266,up,norm,1.15697540981,-18.8,21.2,,-10.9,3,-1.0,-17.0,13.9,10,6,7.53,4.412,1.378,-1.49,-4.649,-8.245,20.3,6,96.2,-7.981,-7.914,-30,-7.826,-7.826,-5.182,-4.731,-5.058,-4.899,4.336,8.303,15,-1.169,1.158,4.328,8.449,-7.923,-8.449,-2.025,1.388,-3.4,10.9,-0.8,-7.3,-11.1,0.1,-11.7,-0.7,-11.5,-9.4,0,norm,1.311,1.384,-1.798,-1.119,-4.803,-4.909,-1.685,-1.368,-1.772,-1.538,1.333,-2.085,-3.1,17.7,-4.81,-7.802,1.933,-1.973,7.733,4.968,-5.206,-8.4,4,4.66,4.317,4.949,4.728,1.401,1.375,1.899,2.057,4,4.942,4.415,20,270.852591256,norm,0,14,14,14,125.028,125.038,125.0445245,125.045,125.046,125.048,up,1,2.21712509997,7.78287490003,001,306,1366_768,Intel(R) Core(TM) i7-8750H CPU @ 2.20GHz,orientation_search,GHUM-L-P55205,Intel(R) UHD Graphics 630,2018_Nov_08_1324,testMonitor,
-6.9,-0.1,-7.9,-0.7,36,-30,-7.8,17.8,-3.6,-18.8,8.026,7.564,7.887,8.144,8.182,8.218,8.253,4.61,-4.532,-7.686,1.689,-1.792,7.933,4.305,-4.656,-8.442,-13.5,6.0,-8.428,-5.1,-12.7,-8.7,11.0,-2.2,36,1.3,3,5,prime,10,0,97,norm,36,-4.616,down,norm,1.15697540981,5.6,6.6,-4.0,-0.8,0,21.2,4.4,-1.6,10,6,8.32,4.736,1.748,-2.015,-5.058,-8.253,3.3,6,98.2,-7.636,-7.618,-30,-7.575,-8.484,-4.673,-5.202,-4.929,-4.625,4.373,7.532,18,-1.282,1.188,4.542,7.935,-7.991,-8.047,-2.058,1.375,-10.4,3.8,5.7,-3.9,-0.3,-12.0,-3.2,19.9,19.2,6.0,1,norm,2.008,1.519,-1.821,-1.353,-5.283,-4.72,-1.694,-1.635,-1.664,-1.254,1.341,-2.087,11.2,,-4.66,-8.346,1.875,-1.627,8.408,4.511,-4.491,-7.521,4,4.761,4.62,4.745,4.826,1.375,1.248,1.226,1.336,4,4.574,4.455,20,270.852591256,norm,0,15,15,15,127.285,127.295,127.3097712,127.31,127.311,127.313,down,1,5.30093969998,4.69906030002,001,306,1366_768,Intel(R) Core(TM) i7-8750H CPU @ 2.20GHz,orientation_search,GHUM-L-P55205,Intel(R) UHD Graphics 630,2018_Nov_08_1324,testMonitor,
8.8,4.6,6.1,-18.8,36,-30,-4.9,-8.0,-3.7,-3.5,7.943,8.35,8.083,8.447,7.654,7.847,8.076,5.196,-4.644,-8.202,1.186,-1.916,8.368,5.109,-4.909,-7.567,-6.5,-4.3,-7.678,-11.7,13.2,-9.0,15.6,16.8,36,-11.3,1,5,prime,10,0,117,norm,36,-4.804,up,norm,1.15697540981,2.7,11.1,0.5,-9.7,3,-0.3,-13.4,11.5,10,6,7.772,4.846,2.09,-1.78,-5.101,-8.427,18.3,6,118.2,-7.654,-7.889,-30,-8.242,-7.973,-4.96,-4.767,-4.537,-4.73,4.657,7.766,9,-1.816,1.824,4.608,7.956,-7.887,-7.644,-1.641,1.905,,19.4,-16.0,21.2,8.8,4.1,11.4,-18.6,-7.1,7.9,2,norm,1.752,1.225,-1.962,-1.915,-5.007,-4.941,-1.731,-1.692,-1.914,-1.261,1.459,-1.8,-14.6,4.9,-4.704,-7.596,1.689,-1.698,8.218,4.448,-4.938,-7.997,4,4.66,4.597,4.75,4.829,1.923,1.304,1.913,1.725,4,4.562,5.238,20,270.852591256,norm,0,16,16,16,132.629,132.635,132.6426014,132.643,132.644,132.646,up,1,1.11769580003,8.88230419997,001,306,1366_768,Intel(R) Core(TM) i7-8750H CPU @ 2.20GHz,orientation_search,GHUM-L-P55205,Intel(R) UHD Graphics 630,2018_Nov_08_1324,testMonitor,
-2.1,7.0,1.9,18.0,36,-30,-11.7,16.7,-7.2,-7.0,7.587,8.319,7.97,7.723,7.638,8.23,8.48,4.496,-4.674,-7.999,2.005,-2.088,8.123,4.363,-4.503,-7.534,8.1,4.4,-8.467,7.9,9.5,-17.0,-18.8,-5.4,36,11.7,2,5,prime,10,0,101,norm,36,-4.344,down,norm,1.15697540981,6.2,4.4,19.4,,2,-0.3,-2.9,-3.1,10,6,8.179,5.124,1.516,-1.237,-5.119,-7.591,6.2,6,102.2,-7.584,-7.869,-30,-8.221,-7.722,-5.172,-4.925,-4.99,-4.701,4.881,8.229,14,-1.189,1.218,4.393,7.975,-7.548,-8.438,-1.669,1.851,-2.5,18.0,2.9,-8.2,-15.3,13.4,10.1,-1.7,6.2,0.9,3,norm,1.819,1.429,-1.962,-1.255,-4.521,-4.447,-1.392,-1.944,-1.314,-1.832,1.287,-1.477,5.4,16.1,-5.205,-7.935,1.382,-1.5,8.03,4.669,-4.916,-8.346,4,4.941,4.625,4.956,4.63,1.172,1.775,1.986,1.958,4,4.951,5.146,20,270.852591256,norm,0,17,17,17,133.785,133.795,133.8080017,133.808,133.81,133.811,down,1,2.36783830007,7.63216169993,001,306,1366_768,Intel(R) Core(TM) i7-8750H CPU @ 2.20GHz,orientation_search,GHUM-L-P55205,Intel(R) UHD Graphics 630,2018_Nov_08_1324,testMonitor,
-4.1,17.9,-3.8,-12.5,36,-30,5.6,-3.2,4.4,4.6,7.557,7.827,8.011,8.266,7.527,7.549,8.077,4.426,-4.58,-7.514,1.519,-1.434,8.0,4.452,-4.313,-7.546,,7.2,-7.777,6.8,5.1,10.3,15.6,-13.7,36,5.5,5,5,prime,10,0,85,norm,36,-4.914,up,norm,1.15697540981,7.9,-2.9,14.0,16.7,5,-5.2,2.0,19.0,10,6,7.82,5.21,1.495,-1.655,-4.96,-8.131,-4.3,6,86.2,-8.084,-8.141,-30,-7.606,-8.314,-5.182,-5.142,-4.759,-4.672,5.152,7.517,35,-1.527,1.317,4.58,7.743,-8.1,-7.891,-1.872,1.123,-3.0,-10.2,-18.8,21.2,3.9,-12.7,0.4,-15.0,0.2,3.5,4,norm,1.511,1.742,-1.831,-1.737,-4.313,-5.295,-1.837,-1.355,-1.679,-1.207,1.154,-1.462,-0.1,0.1,-4.688,-8.283,2.089,-1.983,8.28,4.615,-4.377,-8.293,4,5.242,4.452,4.346,4.837,1.949,1.151,1.146,1.231,4,4.462,5.164,20,270.852591256,norm,0,18,18,18,136.199,136.209,136.2240962,136.224,136.226,136.227,up,1,1.93629089999,8.06370910001,001,306,1366_768,Intel(R) Core(TM) i7-8750H CPU @ 2.20GHz,orientation_search,GHUM-L-P55205,Intel(R) UHD Graphics 630,2018_Nov_08_1324,testMonitor,
5.0,-2.2,-17.2,5.9,36,-30,-10.6,0.1,14.6,-17.6,7.871,7.611,8.078,7.898,8.288,7.654,7.769,4.562,-4.527,-7.905,1.185,-1.552,7.571,4.594,-4.433,-8.463,2.0,20.8,-7.884,1.7,8.4,-1.4,7.8,6.1,36,3.6,0,5,prime,10,0,90,norm,36,-4.46,down,norm,1.15697540981,1.4,6.8,-4.1,21.2,2,-18.8,14.4,-4.1,10,6,8.366,4.887,1.368,-1.16,-4.624,-8.13,20.5,6,91.2,-8.125,-8.172,-30,-8.366,-7.745,-4.595,-5.239,-5.261,-4.977,5.096,8.218,2,-2.059,1.883,4.768,8.32,-8.391,-7.867,-1.66,1.758,9.8,-9.9,-3.8,,0.8,-10.8,-11.0,9.4,-13.4,4.7,5,norm,1.499,1.652,-1.293,-1.433,-5.148,-4.559,-1.703,-1.209,-1.217,-1.284,1.356,-1.606,2.6,7.1,-4.335,-7.66,2.093,-2.091,8.367,4.972,-5.194,-7.723,4,4.394,4.419,4.95,4.501,1.592,2.017,1.827,1.173,4,4.873,5.118,20,270.852591256,norm,0,19,19,19,138.183,138.192,138.2066849,138.207,138.208,138.21,up,0,2.23486199998,-10,001,306,1366_768,Intel(R) Core(TM) i7-8750H CPU @ 2.20GHz,orientation_search,GHUM-L-P55205,Intel(R) UHD Graphics 630,2018_Nov_08_1324,testMonitor,
67.0,65.9,68.8,54.8,36,-20,61.0,59.3,64.0,64.8,7.792,7.762,8.007,7.97,7.699,8.219,8.114,4.311,-4.403,-7.611,1.743,-1.46,7.922,5.272,-4.735,-7.986,65.2,63.4,-8.243,65.7,,70.2,71.8,69.2,36,55.6,5,5,probe,5,0,89,norm,36,-4.712,down,norm,64.8195616919,64.8,71.8,68.0,69.1,0,62.0,57.8,63.5,10,6,8.389,4.837,1.692,-1.524,-4.609,-8.206,64.8,2,-24.2,-8.427,-7.891,-30,-8.482,-7.528,-4.84,-4.609,-4.338,-5.033,4.711,7.837,30,-1.232,1.14,5.032,7.863,-7.518,-8.022,-1.532,1.218,72.3,65.9,62.5,73.0,73.3,74.8,71.6,70.0,64.0,59.4,0,norm,1.787,1.39,-1.281,-1.642,-5.036,-5.12,-1.168,-1.871,-1.655,-1.967,1.693,-1.291,58.6,64.1,-4.497,-8.01,1.322,-1.417,7.731,5.083,-4.608,-8.268,5,4.81,4.921,5.12,4.515,1.43,1.26,1.456,1.77,5,4.856,4.888,-30,1.15697540981,norm,0,20,20,20,141.481,141.488,141.5057886,141.506,141.507,141.509,down,1,1.7366988,8.2633012,001,306,1366_768,Intel(R) Core(TM) i7-8750H CPU @ 2.20GHz,orientation_search,GHUM-L-P55205,Intel(R) UHD Graphics 630,2018_Nov_08_1324,testMonitor,
29.7,44.1,35.3,30.5,36,-20,,35.6,38.1,35.7,7.748,8.295,8.169,8.401,8.428,7.763,7.847,4.345,-5.192,-8.006,1.881,-1.342,7.642,4.733,-4.377,-8.294,33.1,36.5,-7.678,39.0,37.2,38.6,34.0,29.8,36,44.3,4,5,probe,5,0,61,norm,36,-4.803,down,norm,36.8195616919,30.6,43.0,42.8,39.7,0,34.2,37.2,38.6,10,6,7.832,5.152,1.206,-1.178,-4.872,-8.015,33.2,2,-24.2,-8.442,-7.547,-30,-8.307,-7.765,-4.364,-4.303,-4.5,-4.445,4.311,7.897,24,-1.831,2.029,4.793,7.835,-7.891,-7.729,-1.799,1.913,35.4,44.5,26.8,37.0,41.8,35.1,39.6,46.8,35.5,39.0,1,norm,1.825,1.89,-1.995,-1.821,-4.972,-5.209,-1.753,-1.308,-1.753,-1.189,1.734,-1.97,34.4,32.3,-5.224,-8.457,2.051,-2.052,7.79,5.047,-5.17,-8.454,5,5.134,4.575,4.956,5.073,1.124,2.073,1.369,1.92,5,4.633,5.067,-30,1.15697540981,norm,0,21,21,21,143.269,143.277,143.2889337,143.289,143.29,143.292,down,1,1.77132130007,8.22867869993,001,306,1366_768,Intel(R) Core(TM) i7-8750H CPU @ 2.20GHz,orientation_search,GHUM-L-P55205,Intel(R) UHD Graphics 630,2018_Nov_08_1324,testMonitor,
95.6,108.7,96.4,93.0,36,-40,92.2,71.7,99.5,102.9,8.043,7.538,8.133,8.246,7.611,8.438,8.496,4.636,-4.512,-8.47,1.488,-1.353,7.592,4.387,-4.839,-8.402,90.2,84.8,-8.188,90.2,84.3,86.8,98.4,90.6,36,95.8,2,5,prime,10,0,67,norm,36,-5.096,up,norm,88.698426286,72.4,,88.2,86.4,4,88.5,85.5,88.9,10,6,7.805,4.902,1.911,-1.629,-4.516,-8.308,79.4,6,155.7,-8.211,-7.649,-40,-7.749,-8.105,-4.526,-5.025,-4.948,-5.037,5.223,8.201,16,-1.593,1.399,4.845,8.161,-8.475,-7.654,-1.315,1.291,94.8,84.6,79.7,84.9,95.5,82.5,79.7,73.0,86.2,82.3,0,norm,1.175,1.267,-1.379,-1.498,-5.263,-4.835,-1.189,-1.261,-1.687,-1.507,1.958,-1.611,88.6,68.7,-4.603,-7.657,1.309,-1.252,8.418,5.171,-4.563,-7.794,6,4.813,5.042,5.281,5.149,1.141,1.836,1.924,1.534,6,5.274,5.101,-20,1.15697540981,norm,0,22,22,22,145.086,145.095,145.1050481,145.105,145.107,145.109,up,1,4.65233149996,5.34766850004,001,306,1366_768,Intel(R) Core(TM) i7-8750H CPU @ 2.20GHz,orientation_search,GHUM-L-P55205,Intel(R) UHD Graphics 630,2018_Nov_08_1324,testMonitor,
86.0,77.5,74.9,70.6,36,-40,85.8,95.9,81.0,78.7,8.432,8.021,7.712,8.182,7.568,8.431,8.183,4.697,-4.721,-8.239,1.63,-1.262,7.963,4.863,-5.22,-7.963,100.5,,-7.525,71.9,85.6,84.3,91.2,80.1,36,81.5,5,5,prime,10,0,67,norm,36,-4.64,up,norm,88.698426286,80.0,73.1,81.1,92.7,4,89.3,83.1,108.7,10,6,8.095,4.785,2.029,-1.395,-5.282,-7.863,75.7,6,155.7,-7.784,-7.679,-40,-8.233,-8.204,-4.579,-4.958,-4.952,-4.319,5.014,8.283,34,-1.687,1.848,5.134,7.523,-7.812,-7.507,-1.379,2.07,79.3,85.1,77.5,84.5,71.8,68.7,85.7,76.5,87.5,88.3,1,norm,1.623,1.348,-1.928,-1.503,-5.234,-4.909,-1.9,-1.564,-1.753,-1.61,1.988,-1.698,76.0,90.9,-5.133,-8.043,1.183,-1.392,8.051,4.625,-4.583,-8.084,6,5.069,4.905,4.607,4.447,1.677,2.02,1.364,1.363,6,5.092,4.569,-20,1.15697540981,norm,0,23,23,23,149.782,149.791,149.803612,149.804,149.805,149.807,down,0,2.28665440006,-10,001,306,1366_768,Intel(R) Core(TM) i7-8750H CPU @ 2.20GHz,orientation_search,GHUM-L-P55205,Intel(R) UHD Graphics 630,2018_Nov_08_1324,testMonitor,
81.3,80.9,81.6,84.1,36,-40,94.3,99.3,82.9,88.3,7.818,8.205,8.396,8.012,8.499,8.497,7.732,4.609,-4.909,-8.379,1.705,-1.574,8.431,4.446,-4.605,-7.866,92.2,105.4,-7.668,93.6,93.1,85.0,99.4,91.1,36,81.0,1,5,prime,10,0,77,norm,36,-4.35,down,norm,88.698426286,68.7,83.1,108.7,100.1,1,98.5,84.6,81.4,10,6,8.493,5.198,1.797,-1.675,-4.7,-7.682,90.1,6,165.7,-8.296,-8.334,-40,-7.94,-8.259,-4.827,-5.145,-5.299,-5.042,4.666,7.839,7,-1.182,1.729,4.905,8.481,-7.713,-8.496,-1.763,1.259,88.0,78.0,80.5,101.6,90.6,95.2,,99.4,92.9,90.9,2,norm,1.252,1.262,-1.316,-1.595,-4.432,-4.301,-1.595,-1.478,-2.058,-1.815,1.717,-1.293,92.4,75.5,-4.382,-7.554,1.468,-1.442,8.394,4.59,-5.089,-8.303,6,4.823,5.076,4.563,4.609,2.052,1.852,1.274,1.28,6,4.646,5.019,-20,1.15697540981,norm,0,24,24,24,153.132,153.139,153.1527107,153.153,153.154,153.156,up,0,3.62053179997,-10,001,306,1366_768,Intel(R) Core(TM) i7-8750H CPU @ 2.20GHz,orientation_search,GHUM-L-P55205,Intel(R) UHD Graphics 630,2018_Nov_08_1324,testMonitor,
90.9,82.9,86.7,94.7,36,-40,73.1,96.4,87.9,87.5,7.504,8.333,7.549,8.334,7.587,7.738,8.002,4.814,-5.06,-7.7,1.312,-1.836,8.152,5.033,-5.133,-8.13,88.6,90.7,-7.707,72.9,77.2,85.4,68.7,93.4,36,91.0,0,5,prime,10,0,69,norm,36,-4.308,down,norm,88.698426286,94.9,76.5,99.5,91.5,0,95.9,100.4,86.5,10,6,7.897,4.655,1.451,-1.592,-4.679,-8.291,93.1,6,157.7,-8.111,-7.986,-40,-7.656,-7.927,-5.093,-4.499,-4.771,-5.043,4.418,7.778,0,-1.548,1.904,4.669,8.411,-8.026,-8.069,-1.207,2.057,108.7,98.8,87.9,86.9,69.8,,79.9,97.2,99.8,95.4,3,norm,1.218,1.683,-1.306,-1.731,-4.867,-4.37,-1.833,-2.033,-1.881,-1.922,1.991,-1.519,87.6,74.0,-5.007,-8.446,1.796,-1.785,8.262,5.119,-4.625,-7.575,6,4.833,4.38,4.686,4.996,1.46,1.289,1.716,1.812,6,4.417,5.277,-20,1.15697540981,norm,0,25,25,25,157.803,157.81,157.8191603,157.819,157.821,157.822,down,1,1.05168769998,8.94831230002,001,306,1366_768,Intel(R) Core(TM) i7-8750H CPU @ 2.20GHz,orientation_search,GHUM-L-P55205,Intel(R) UHD Graphics 630,2018_Nov_08_1324,testMonitor,
93.7,92.1,100.2,82.1,36,-40,96.7,88.8,89.6,108.7,7.593,7.551,8.177,7.733,7.897,7.721,7.863,5.11,-5.064,-7.797,1.531,-1.17,8.299,4.985,-4.657,-8.433,75.5,100.7,-7.972,86.5,89.6,82.5,92.6,82.9,36,90.3,0,5,prime,10,0,82,norm,36,-4.71,down,norm,88.698426286,77.0,92.8,68.7,97.3,0,80.1,83.9,91.6,10,6,8.468,4.475,1.991,-1.338,-4.619,-7.953,85.2,6,170.7,-7.995,-7.958,-40,-7.78,-7.889,-5.177,-4.869,-4.531,-4.912,4.422,7.508,0,-1.923,1.143,4.691,7.577,-7.733,-7.964,-2.013,1.471,89.5,89.3,91.3,79.6,74.6,,90.8,88.1,91.9,87.6,4,norm,1.534,1.286,-1.203,-2.01,-4.439,-5.044,-1.502,-1.528,-1.425,-2.022,1.875,-1.866,84.6,93.3,-5.223,-8.466,2.086,-1.725,7.791,5.019,-4.681,-7.821,6,4.827,4.935,4.636,4.53,1.147,1.446,1.325,1.553,6,5.204,4.464,-20,1.15697540981,norm,0,26,26,26,158.896,158.906,158.9177748,158.918,158.919,158.921,up,0,3.35076359997,-10,001,306,1366_768,Intel(R) Core(TM) i7-8750H CPU @ 2.20GHz,orientation_search,GHUM-L-P55205,Intel(R) UHD Graphics 630,2018_Nov_08_1324,testMonitor,
100.1,92.6,74.5,96.8,36,-40,94.1,86.7,85.4,74.4,8.196,8.383,8.221,7.925,7.83,8.38,7.536,4.788,-4.943,-8.116,1.389,-1.765,7.651,4.873,-4.851,-7.571,108.7,85.9,-7.553,68.7,81.7,100.8,92.1,82.9,36,,4,5,prime,10,0,109,norm,36,-4.594,up,norm,88.698426286,86.2,85.5,98.4,75.9,3,95.8,85.4,87.4,10,6,7.551,4.385,1.195,-1.805,-4.437,-7.729,85.9,6,197.7,-8.329,-7.64,-40,-8.266,-8.432,-5.136,-5.118,-4.322,-4.66,4.417,7.577,27,-1.618,1.951,4.761,8.116,-7.921,-7.585,-2.004,1.872,89.6,91.7,101.5,94.8,84.1,80.5,72.2,81.2,87.0,102.7,5,norm,1.742,1.517,-2.095,-1.221,-5.182,-4.637,-1.678,-1.48,-1.452,-2.071,1.264,-1.971,77.8,87.1,-4.57,-7.978,1.243,-1.457,8.337,4.444,-4.583,-8.236,6,4.733,4.381,4.486,5.187,1.863,1.563,1.163,1.575,6,5.168,5.253,-20,1.15697540981,norm,0,27,27,27,163.309,163.315,163.3333717,163.334,163.335,163.336,down,0,3.00151520001,-10,001,306,1366_768,Intel(R) Core(TM) i7-8750H CPU @ 2.20GHz,orientation_search,GHUM-L-P55205,Intel(R) UHD Graphics 630,2018_Nov_08_1324,testMonitor,
147.5,148.9,147.6,139.6,36,-40,141.9,139.0,149.6,143.5,7.91,8.343,8.042,7.714,7.881,7.91,8.447,4.763,-5.204,-8.213,2.056,-1.772,7.979,4.759,-5.197,-8.327,143.9,152.6,-8.188,152.7,139.9,137.2,150.3,150.6,36,138.2,2,5,probe,5,0,104,norm,36,-4.746,down,norm,146.043170185,142.7,146.3,150.8,147.3,1,147.3,,146.5,10,6,8.459,5.299,1.505,-1.85,-4.407,-7.857,142.2,2,42.0,-7.97,-8.208,-40,-8.339,-7.582,-5.229,-4.705,-5.095,-4.529,4.315,7.745,13,-1.978,1.707,5.279,7.937,-7.759,-7.762,-1.359,1.115,142.7,152.0,147.1,147.9,142.2,149.3,148.8,136.0,156.0,150.4,0,norm,1.614,1.584,-1.116,-1.652,-5.284,-4.998,-1.757,-1.213,-1.503,-1.23,1.391,-1.135,141.3,143.8,-4.612,-7.916,1.667,-2.038,7.677,5.228,-4.891,-8.301,7,4.915,4.386,4.302,4.52,1.492,1.834,1.898,1.361,7,4.906,5.163,-40,88.698426286,norm,0,28,28,28,167.371,167.377,167.383248,167.384,167.385,167.386,up,0,1.28399910009,-10,001,306,1366_768,Intel(R) Core(TM) i7-8750H CPU @ 2.20GHz,orientation_search,GHUM-L-P55205,Intel(R) UHD Graphics 630,2018_Nov_08_1324,testMonitor,
107.6,105.9,111.8,103.0,36,-40,109.4,116.0,113.9,99.8,8.325,8.214,8.047,8.025,7.799,8.477,8.263,4.827,-4.817,-7.783,1.992,-1.269,7.553,4.935,-4.801,-7.925,109.0,99.9,-8.131,106.3,108.1,102.4,100.3,106.4,36,102.0,2,5,probe,5,0,64,norm,36,-5.237,down,norm,106.043170185,109.6,115.1,108.9,,2,104.3,104.3,105.1,10,6,8.383,5.05,1.23,-1.998,-5.214,-7.921,102.9,2,42.0,-8.37,-7.502,-40,-7.919,-7.993,-4.326,-4.377,-5.123,-5.161,4.956,7.653,14,-1.606,1.836,4.372,8.455,-8.476,-7.677,-1.237,1.348,104.8,101.6,108.1,110.0,111.1,107.6,96.0,103.1,97.2,98.9,1,norm,1.589,1.827,-2.008,-1.766,-4.554,-4.491,-1.757,-2.012,-2.039,-1.916,2.035,-1.634,112.8,99.6,-4.759,-8.041,1.912,-1.45,8.362,5.151,-4.93,-8.386,7,4.54,4.629,5.02,4.338,1.285,1.618,1.473,1.713,7,4.57,5.15,-40,88.698426286,norm,0,29,29,29,169.715,169.721,169.732753,169.733,169.734,169.736,up,0,1.11811440007,-10,001,306,1366_768,Intel(R) Core(TM) i7-8750H CPU @ 2.20GHz,orientation_search,GHUM-L-P55205,Intel(R) UHD Graphics 630,2018_Nov_08_1324,testMonitor,
338.2,344.9,322.8,334.5,36,-80,348.7,308.7,335.0,333.3,7.956,7.729,8.419,7.539,7.598,7.934,7.636,4.409,-5.003,-7.759,1.331,-1.411,8.397,5.13,-4.448,-7.553,314.9,341.1,-7.822,336.5,320.7,,315.5,331.2,36,337.5,5,5,prime,10,0,87,norm,36,-4.575,up,norm,328.710931367,321.2,325.7,316.4,317.4,3,316.6,332.6,313.2,10,5,8.008,5.04,1.828,-1.175,-4.576,-7.672,341.9,5,415.7,-7.644,-8.482,-80,-8.225,-7.974,-5.249,-5.188,-4.488,-4.967,5.147,7.63,33,-1.59,1.79,4.81,8.151,-8.106,-7.619,-2.011,1.521,330.9,329.8,335.1,340.3,333.9,327.5,333.0,321.5,342.2,335.9,0,norm,1.45,1.374,-1.432,-1.362,-4.462,-4.84,-1.917,-1.733,-1.621,-2.072,1.866,-1.614,341.4,321.0,-4.947,-8.317,2.01,-1.845,7.543,4.681,-4.538,-8.253,8,4.927,4.74,4.925,4.884,1.728,1.799,1.329,1.769,8,5.095,4.927,-40,88.698426286,norm,0,30,30,30,171.887,171.893,171.8987176,171.899,171.9,171.902,down,0,0.334536900045,-10,001,306,1366_768,Intel(R) Core(TM) i7-8750H CPU @ 2.20GHz,orientation_search,GHUM-L-P55205,Intel(R) UHD Graphics 630,2018_Nov_08_1324,testMonitor,
329.0,345.0,308.7,328.6,36,-80,346.9,325.3,325.5,333.4,7.615,7.599,8.408,7.571,7.766,8.284,8.328,5.288,-4.903,-7.75,1.383,-2.1,8.292,5.1,-4.878,-7.567,335.1,334.1,-8.416,338.4,329.8,,343.3,315.7,36,335.7,5,5,prime,10,0,70,norm,36,-4.893,up,norm,328.710931367,342.1,333.9,338.1,311.6,3,336.3,333.8,315.4,10,5,8.323,5.145,1.907,-1.295,-4.348,-8.365,332.6,5,398.7,-7.646,-8.061,-80,-8.162,-7.662,-4.363,-4.846,-5.102,-5.112,4.829,8.313,33,-1.217,1.913,4.812,7.653,-7.801,-8.083,-2.099,1.6,332.2,330.9,311.7,326.5,348.7,328.9,317.4,322.9,325.1,332.0,1,norm,1.555,1.399,-1.128,-1.386,-5.178,-4.741,-2.054,-1.89,-1.698,-1.358,1.52,-1.266,315.4,318.8,-4.553,-7.734,1.262,-1.499,7.535,4.659,-4.674,-8.043,8,4.487,4.653,4.9,5.014,1.837,2.039,1.242,1.319,8,4.812,4.762,-40,88.698426286,norm,0,31,31,31,173.28,173.286,173.2985913,173.299,173.3,173.302,up,1,11.0675245001,-1.06752450007,001,306,1366_768,Intel(R) Core(TM) i7-8750H CPU @ 2.20GHz,orientation_search,GHUM-L-P55205,Intel(R) UHD Graphics 630,2018_Nov_08_1324,testMonitor,
308.7,343.1,327.5,328.0,36,-80,310.2,319.9,321.0,333.7,7.883,8.3,8.069,7.766,7.747,7.68,7.585,4.41,-4.972,-7.921,1.626,-1.514,7.869,4.457,-4.791,-8.418,329.3,348.7,-7.875,346.4,334.5,322.5,332.2,327.9,36,326.2,2,5,prime,10,0,81,norm,36,-5.102,down,norm,328.710931367,346.9,330.0,320.0,344.3,1,315.0,,330.4,10,5,8.474,4.762,1.833,-1.428,-4.639,-8.311,334.7,5,409.7,-7.771,-7.504,-80,-7.88,-8.289,-5.085,-4.72,-5.26,-4.449,5.009,8.221,13,-1.668,1.229,4.645,7.947,-7.969,-8.31,-1.273,2.019,325.9,327.8,328.0,335.9,331.3,324.2,322.1,331.2,318.3,337.3,2,norm,1.838,2.097,-1.657,-1.824,-4.331,-4.842,-1.437,-2.078,-1.128,-1.915,1.247,-1.961,325.1,324.8,-4.718,-7.532,1.629,-1.88,7.694,4.45,-4.908,-7.976,8,4.621,4.722,4.499,4.623,1.737,1.421,1.136,1.225,8,4.539,4.392,-40,88.698426286,norm,0,32,32,32,184.39,184.399,184.4111382,184.411,184.413,184.414,down,1,1.88524240011,8.11475759989,001,306,1366_768,Intel(R) Core(TM) i7-8750H CPU @ 2.20GHz,orientation_search,GHUM-L-P55205,Intel(R) UHD Graphics 630,2018_Nov_08_1324,testMonitor,
330.5,314.2,320.7,,36,-80,325.3,324.0,331.5,348.7,7.67,7.965,8.065,8.056,8.186,8.37,8.1,4.694,-4.353,-8.011,1.114,-1.972,7.624,4.668,-4.773,-7.881,315.1,338.3,-7.746,326.6,321.8,330.7,322.6,332.4,36,316.1,3,5,prime,10,0,65,norm,36,-5.067,up,norm,328.710931367,340.5,345.3,332.0,334.8,3,327.6,333.7,316.5,10,5,8.144,5.151,1.564,-1.21,-4.403,-8.122,319.5,5,393.7,-8.242,-8.346,-80,-8.397,-7.514,-4.446,-4.426,-5.22,-4.733,4.438,8.483,21,-1.516,1.47,4.674,8.362,-8.446,-7.899,-1.969,1.603,333.0,325.2,320.9,331.2,308.7,325.4,321.9,324.9,342.6,331.5,3,norm,2.091,1.103,-1.293,-1.871,-4.558,-5.088,-1.637,-1.326,-2.029,-1.612,2.061,-2.008,331.4,317.9,-4.365,-8.38,1.297,-1.583,7.796,5.189,-4.673,-8.272,8,4.741,5.124,4.799,5.11,1.458,1.29,1.768,1.739,8,5.241,4.58,-40,88.698426286,norm,0,33,33,33,186.312,186.319,186.3284673,186.329,186.33,186.332,up,1,1.64884299994,8.35115700006,001,306,1366_768,Intel(R) Core(TM) i7-8750H CPU @ 2.20GHz,orientation_search,GHUM-L-P55205,Intel(R) UHD Graphics 630,2018_Nov_08_1324,testMonitor,
316.2,,331.0,322.5,36,-80,331.2,348.7,321.5,326.9,8.269,7.539,8.062,8.204,7.54,7.726,7.68,5.177,-4.565,-8.145,1.274,-2.043,7.87,4.805,-4.852,-7.821,318.3,326.1,-8.226,343.0,341.8,315.2,334.3,315.7,36,335.5,3,5,prime,10,0,86,norm,36,-4.486,up,norm,328.710931367,326.4,328.9,334.7,326.0,5,330.5,324.7,322.0,10,5,8.489,5.241,1.562,-1.227,-4.674,-7.699,330.0,5,414.7,-8.018,-7.684,-80,-8.037,-7.534,-4.642,-5.276,-5.204,-4.447,4.887,7.529,23,-1.427,1.219,4.317,8.356,-8.245,-8.238,-1.772,1.591,344.4,329.4,325.8,332.0,336.2,345.9,324.1,308.7,338.2,346.5,4,norm,1.973,1.771,-1.898,-1.234,-5.101,-4.369,-1.395,-1.145,-1.749,-1.631,1.631,-1.479,345.3,322.8,-4.388,-7.83,1.16,-2.053,7.623,5.237,-5.222,-8.35,8,4.309,4.982,4.372,4.62,1.354,1.858,2.025,1.381,8,4.374,4.766,-40,88.698426286,norm,0,34,34,34,187.997,188.006,188.0110114,188.011,188.013,188.014,up,1,1.50291699998,8.49708300002,001,306,1366_768,Intel(R) Core(TM) i7-8750H CPU @ 2.20GHz,orientation_search,GHUM-L-P55205,Intel(R) UHD Graphics 630,2018_Nov_08_1324,testMonitor,
344.5,347.7,347.3,344.0,36,-10,346.2,347.7,341.3,356.3,8.272,7.74,8.441,8.226,7.649,8.06,8.048,5.291,-4.569,-7.807,1.898,-1.895,7.877,4.63,-4.348,-8.474,348.7,349.4,-8.179,341.2,342.9,350.9,345.7,348.6,36,343.5,0,5,probe,5,0,93,norm,36,-5.245,down,norm,348.138580205,351.3,341.2,351.7,348.6,0,345.1,350.4,358.1,10,5,8.063,4.697,1.318,-1.912,-4.48,-8.028,345.9,1,255.1,-7.994,-7.77,-80,-7.7,-8.492,-4.465,-4.609,-5.128,-5.16,5.179,8.141,0,-1.241,1.158,5.244,7.743,-7.533,-7.654,-1.877,1.365,354.3,354.5,340.6,352.9,347.4,,354.7,348.7,347.2,352.3,0,norm,2.074,1.989,-1.362,-1.51,-5.102,-4.791,-1.977,-1.754,-1.68,-1.667,1.408,-1.599,340.3,338.1,-5.218,-7.709,1.69,-1.189,8.113,5.24,-4.486,-8.459,9,4.553,5.098,4.826,4.515,1.843,1.981,1.292,1.751,9,5.282,4.405,-80,328.710931367,norm,0,35,35,35,189.537,189.546,189.5597607,189.56,189.561,189.563,down,1,2.39973039995,7.60026960005,001,306,1366_768,Intel(R) Core(TM) i7-8750H CPU @ 2.20GHz,orientation_search,GHUM-L-P55205,Intel(R) UHD Graphics 630,2018_Nov_08_1324,testMonitor,
271.8,253.2,261.7,247.2,36,60,257.2,257.6,261.1,247.0,8.002,8.329,7.834,8.472,8.238,7.903,7.884,4.641,-4.81,-8.439,1.468,-2.052,7.963,5.094,-4.762,-8.267,254.2,237.8,-7.526,240.2,,254.0,247.0,254.5,36,245.6,5,5,prime,10,0,72,norm,36,-5.263,down,norm,251.773240287,263.7,259.8,265.3,246.2,0,254.5,253.1,269.9,10,5,8.461,4.992,1.986,-1.343,-4.999,-7.909,265.6,5,323.8,-7.906,-7.839,60,-8.01,-7.923,-4.331,-5.139,-4.969,-5.049,4.534,8.411,30,-1.329,1.189,4.738,7.534,-7.98,-8.085,-1.922,2.067,231.8,250.6,253.0,244.9,252.1,249.2,264.0,255.7,250.4,264.4,0,norm,2.029,1.788,-1.796,-1.118,-4.433,-5.258,-1.503,-1.835,-1.603,-1.495,1.772,-1.239,245.8,249.0,-5.008,-7.89,1.487,-2.012,8.139,5.137,-5.221,-7.72,10,4.575,5.173,5.299,4.46,1.203,1.115,1.714,1.593,10,5.259,4.759,-10,328.710931367,norm,0,36,36,36,191.984,191.993,192.0093552,192.01,192.011,192.013,up,0,2.31724320003,-10,001,306,1366_768,Intel(R) Core(TM) i7-8750H CPU @ 2.20GHz,orientation_search,GHUM-L-P55205,Intel(R) UHD Graphics 630,2018_Nov_08_1324,testMonitor,
255.1,231.8,241.6,267.7,36,60,271.8,260.1,252.5,258.0,8.279,7.593,7.716,8.379,8.063,8.205,8.335,4.813,-4.639,-8.472,1.196,-1.457,8.489,4.58,-4.928,-7.748,252.8,,-7.508,243.7,263.8,259.0,255.3,241.7,36,235.5,5,5,prime,10,0,69,norm,36,-4.999,up,norm,251.773240287,263.3,250.4,248.6,233.9,4,251.9,249.5,256.1,10,5,7.652,4.425,2.027,-1.73,-4.575,-7.914,257.5,5,320.8,-7.655,-8.043,60,-7.617,-8.322,-4.792,-4.727,-4.728,-4.524,4.35,8.345,34,-1.674,1.856,4.635,8.478,-7.624,-8.257,-1.805,1.57,258.3,244.2,234.2,249.2,257.8,250.0,248.0,252.6,260.4,265.3,1,norm,2.01,1.679,-1.89,-1.685,-4.562,-4.912,-1.661,-1.417,-1.633,-1.76,1.827,-1.976,251.6,256.8,-4.994,-8.282,1.128,-1.806,8.295,4.552,-5.051,-7.658,10,4.505,4.761,5.161,4.61,1.506,1.91,1.448,1.945,10,5.199,5.25,-10,328.710931367,norm,0,37,37,37,195.374,195.38,195.3926334,195.393,195.394,195.396,down,0,3.73341109999,-10,001,306,1366_768,Intel(R) Core(TM) i7-8750H CPU @ 2.20GHz,orientation_search,GHUM-L-P55205,Intel(R) UHD Graphics 630,2018_Nov_08_1324,testMonitor,
243.1,247.0,236.7,252.9,36,60,,253.1,243.4,241.5,7.784,7.715,7.97,7.721,7.64,7.903,8.162,5.185,-4.349,-7.516,1.987,-1.972,8.359,4.801,-5.004,-8.419,252.0,271.8,-7.814,254.3,231.8,239.1,271.4,265.5,36,269.3,4,5,prime,10,0,60,norm,36,-5.017,down,norm,251.773240287,247.3,252.0,254.1,243.0,0,263.0,239.3,266.4,10,5,8.059,5.074,1.651,-1.306,-4.63,-7.535,252.4,5,311.8,-7.687,-7.855,60,-8.253,-8.376,-4.342,-4.357,-4.923,-5.133,4.836,7.745,24,-1.942,1.318,4.494,7.859,-7.627,-7.695,-1.494,1.431,257.0,241.0,257.9,242.8,241.6,260.2,242.7,261.1,258.3,256.7,2,norm,1.522,1.298,-1.914,-1.534,-4.969,-4.411,-1.32,-1.628,-1.367,-1.794,1.584,-1.372,243.7,238.2,-4.941,-7.622,1.268,-1.655,7.521,5.229,-4.316,-7.926,10,4.95,4.439,5.121,4.936,1.555,1.163,1.963,1.171,10,4.881,4.417,-10,328.710931367,norm,0,38,38,38,200.16,200.167,200.1746312,200.175,200.176,200.178,up,0,3.36853410001,-10,001,306,1366_768,Intel(R) Core(TM) i7-8750H CPU @ 2.20GHz,orientation_search,GHUM-L-P55205,Intel(R) UHD Graphics 630,2018_Nov_08_1324,testMonitor,
254.6,256.4,243.1,249.6,36,60,254.7,242.0,271.8,250.2,8.113,7.888,8.178,8.054,8.112,7.621,7.828,5.188,-4.51,-7.633,1.414,-1.625,8.132,4.89,-5.217,-8.333,253.4,251.7,-7.89,254.3,262.8,247.0,251.6,240.5,36,262.4,1,5,prime,10,0,87,norm,36,-4.358,down,norm,251.773240287,249.9,254.3,236.1,239.9,0,251.5,259.5,255.5,10,5,7.957,5.211,2.041,-1.912,-4.584,-7.558,244.7,5,338.8,-7.603,-8.041,60,-8.04,-7.956,-4.782,-4.313,-4.562,-4.406,5.084,7.725,6,-1.244,1.662,4.861,8.151,-7.863,-7.852,-2.089,1.441,231.8,255.0,244.2,259.2,254.8,237.7,250.5,,253.4,257.9,3,norm,1.551,1.431,-1.415,-1.57,-4.599,-5.01,-1.224,-1.453,-1.938,-1.276,1.786,-1.194,261.2,250.8,-4.683,-7.647,1.269,-1.562,8.408,4.422,-5.179,-8.159,10,4.379,4.597,4.962,4.96,2.028,1.39,1.136,1.299,10,4.773,5.101,-10,328.710931367,norm,0,39,39,39,204.578,204.584,204.5901436,204.59,204.592,204.593,down,1,3.73468659993,6.26531340007,001,306,1366_768,Intel(R) Core(TM) i7-8750H CPU @ 2.20GHz,orientation_search,GHUM-L-P55205,Intel(R) UHD Graphics 630,2018_Nov_08_1324,testMonitor,
247.6,246.7,240.8,247.8,36,60,231.8,266.1,248.4,261.3,7.809,7.659,7.76,8.311,8.225,8.199,8.325,4.71,-4.509,-7.911,1.357,-1.523,8.475,5.143,-4.55,-7.777,246.6,253.8,-8.171,239.7,257.2,246.8,271.8,248.8,36,255.1,1,5,prime,10,0,84,norm,36,-4.715,down,norm,251.773240287,263.4,248.1,253.3,250.8,0,260.2,249.4,243.2,10,5,8.477,4.764,1.928,-1.72,-4.711,-7.785,235.4,5,335.8,-8.497,-7.675,60,-7.635,-8.398,-4.616,-4.799,-4.886,-5.214,4.658,8.402,6,-1.311,1.357,5.036,8.24,-8.357,-7.888,-1.537,1.4,252.9,257.1,257.8,258.1,245.9,256.7,264.3,,252.3,258.5,4,norm,1.841,1.347,-1.755,-2.009,-4.797,-5.281,-1.247,-1.73,-1.713,-1.796,1.714,-2.084,255.1,252.7,-4.963,-8.299,1.978,-1.173,8.459,4.558,-5.14,-8.449,10,4.876,5.178,4.611,4.589,1.799,1.483,1.651,1.777,10,4.344,4.559,-10,328.710931367,norm,0,40,40,40,208.35,208.36,208.3717035,208.372,208.373,208.375,down,1,1.62074649998,8.37925350002,001,306,1366_768,Intel(R) Core(TM) i7-8750H CPU @ 2.20GHz,orientation_search,GHUM-L-P55205,Intel(R) UHD Graphics 630,2018_Nov_08_1324,testMonitor,
377.4,,366.8,379.9,36,30,369.2,370.9,370.3,384.3,8.013,7.596,7.964,7.917,7.731,7.864,7.782,4.641,-5.275,-8.453,1.962,-1.441,8.438,4.512,-4.563,-7.995,370.9,371.4,-7.845,383.5,376.1,377.7,372.7,371.4,36,380.3,3,5,probe,5,0,71,norm,36,-4.916,up,norm,375.841970107,382.4,373.8,385.8,376.4,5,372.6,384.9,373.2,10,5,8.165,5.162,1.171,-1.765,-4.848,-8.365,377.5,1,304.8,-7.841,-8.215,60,-8.427,-8.134,-4.816,-4.618,-5.153,-4.807,4.834,8.498,23,-2.059,1.731,4.39,8.333,-8.292,-7.571,-1.537,1.499,380.5,383.5,365.8,376.7,376.4,372.2,378.3,377.0,367.9,376.6,0,norm,1.594,1.464,-1.152,-1.71,-4.386,-4.578,-1.567,-1.669,-1.303,-1.125,1.933,-1.539,371.9,371.2,-5.299,-8.368,1.749,-1.205,7.539,4.948,-4.67,-8.238,11,4.876,4.441,5.22,5.018,1.697,2.017,1.648,1.201,11,5.086,5.132,60,251.773240287,norm,0,41,41,41,210.012,210.018,210.0380342,210.038,210.04,210.041,up,1,0.999795699958,9.00020430004,001,306,1366_768,Intel(R) Core(TM) i7-8750H CPU @ 2.20GHz,orientation_search,GHUM-L-P55205,Intel(R) UHD Graphics 630,2018_Nov_08_1324,testMonitor,
177.3,158.5,173.9,172.9,36,-80,146.6,167.2,161.9,150.1,7.772,8.341,8.007,8.268,8.091,7.511,7.543,4.672,-4.45,-7.555,1.867,-1.108,8.44,4.763,-4.52,-8.201,168.1,161.3,-7.54,169.5,173.1,146.3,141.5,,36,160.5,4,5,prime,10,0,114,norm,36,-4.939,down,norm,160.148031779,176.4,156.5,142.6,179.0,2,178.8,163.6,180.1,10,6,7.985,4.718,1.748,-1.303,-4.424,-8.095,161.4,6,274.1,-8.47,-8.472,-80,-7.771,-7.972,-4.35,-4.833,-5.157,-5.055,4.397,7.751,26,-1.506,2.052,5.252,7.771,-8.378,-8.024,-1.361,1.395,161.4,159.5,160.9,140.1,150.1,155.0,174.5,161.9,169.4,155.4,0,norm,2.052,1.245,-1.464,-1.712,-4.853,-4.701,-1.301,-2.022,-1.357,-1.217,1.681,-2.005,168.6,164.8,-5.258,-8.436,1.945,-2.038,8.078,4.642,-4.642,-7.579,12,4.865,4.82,4.789,5.226,1.136,1.389,1.556,1.221,12,4.331,4.955,30,251.773240287,norm,0,42,42,42,211.06,211.069,211.0876573,211.088,211.089,211.091,down,1,6.46862009994,3.53137990006,001,306,1366_768,Intel(R) Core(TM) i7-8750H CPU @ 2.20GHz,orientation_search,GHUM-L-P55205,Intel(R) UHD Graphics 630,2018_Nov_08_1324,testMonitor,
160.5,144.8,160.0,146.9,36,-80,156.3,169.7,161.2,165.6,8.137,8.132,7.74,8.182,8.405,7.714,8.053,4.782,-4.37,-8.214,1.641,-1.579,8.436,4.518,-4.997,-8.368,173.3,165.5,-7.671,159.2,143.6,146.0,169.4,166.9,36,152.2,2,5,prime,10,0,71,norm,36,-5.002,up,norm,160.148031779,,175.9,151.9,161.6,5,165.1,180.1,158.2,10,6,8.463,4.796,1.39,-2.055,-5.161,-8.229,150.4,6,231.1,-7.683,-8.394,-80,-7.711,-8.253,-4.462,-4.884,-5.207,-4.427,4.555,8.108,17,-1.102,1.79,5.054,8.434,-7.579,-8.146,-1.675,1.126,140.1,159.3,144.0,159.9,148.1,160.0,149.9,164.9,163.3,173.7,1,norm,1.114,1.565,-1.916,-1.41,-4.333,-4.323,-1.602,-1.519,-1.971,-1.238,1.794,-1.902,172.9,165.0,-5.013,-7.678,1.233,-1.893,8.407,4.602,-5.018,-8.269,12,4.528,5.001,4.707,5.239,1.935,1.273,2.067,1.443,12,4.7,5.26,30,251.773240287,norm,0,43,43,43,217.586,217.593,217.6036935,217.604,217.605,217.607,up,1,2.08432460006,7.91567539994,001,306,1366_768,Intel(R) Core(TM) i7-8750H CPU @ 2.20GHz,orientation_search,GHUM-L-P55205,Intel(R) UHD Graphics 630,2018_Nov_08_1324,testMonitor,
,166.5,157.6,148.6,36,-80,151.5,158.3,143.5,163.9,8.058,8.366,8.072,8.496,8.111,7.774,8.031,4.97,-5.111,-8.13,1.797,-1.717,7.53,4.555,-4.551,-7.577,180.1,157.6,-7.844,145.2,156.2,164.2,148.2,155.1,36,156.6,3,5,prime,10,0,99,norm,36,-4.567,up,norm,160.148031779,173.2,151.6,171.4,146.6,4,147.7,165.5,159.6,10,6,7.683,5.006,1.66,-1.54,-5.063,-7.977,176.1,6,259.1,-7.72,-7.765,-80,-8.244,-7.752,-5.281,-4.979,-5.118,-4.778,4.738,7.723,22,-1.776,1.719,4.405,8.408,-7.776,-7.557,-1.397,1.384,140.1,150.6,167.5,144.9,169.7,166.8,149.1,167.2,174.2,148.8,2,norm,1.178,1.319,-2.03,-1.412,-4.931,-5.044,-2.098,-1.15,-1.326,-1.281,1.687,-1.12,167.2,178.9,-5.204,-7.856,1.809,-1.954,7.743,4.949,-4.91,-7.858,12,4.977,4.784,4.344,4.635,1.385,1.766,1.34,1.852,12,5.17,4.554,30,251.773240287,norm,0,44,44,44,219.713,219.723,219.7351611,219.735,219.737,219.738,up,1,2.86892819998,7.13107180002,001,306,1366_768,Intel(R) Core(TM) i7-8750H CPU @ 2.20GHz,orientation_search,GHUM-L-P55205,Intel(R) UHD Graphics 630,2018_Nov_08_1324,testMonitor,
140.1,170.9,165.5,159.8,36,-80,145.6,165.7,150.4,154.8,8.296,7.689,7.946,8.356,8.487,8.417,8.228,4.618,-4.364,-8.236,1.954,-1.819,8.244,5.025,-5.183,-7.914,160.3,152.0,-7.7,146.7,173.7,155.2,150.4,149.9,36,175.3,1,5,prime,10,0,104,norm,36,-4.384,down,norm,160.148031779,180.1,172.1,158.0,156.0,0,153.8,153.0,162.3,10,6,7.906,4.392,1.915,-1.908,-5.22,-7.879,155.5,6,264.1,-8.016,-8.491,-80,-7.86,-7.746,-4.508,-5.217,-5.059,-4.404,4.525,7.895,6,-1.752,1.882,5.074,7.824,-8.317,-8.183,-1.325,1.437,161.6,167.8,154.0,150.2,169.6,145.9,167.1,,157.5,151.9,3,norm,1.778,1.173,-1.847,-1.884,-5.115,-4.891,-1.992,-1.856,-1.977,-1.749,1.32,-1.232,178.4,164.4,-5.007,-7.545,1.907,-1.481,8.15,5.288,-5.024,-7.665,12,5.185,4.449,5.268,4.916,1.281,1.235,1.757,1.852,12,4.81,4.711,30,251.773240287,norm,0,45,45,45,222.63,222.64,222.65098,222.651,222.653,222.654,down,1,1.24846029992,8.75153970008,001,306,1366_768,Intel(R) Core(TM) i7-8750H CPU @ 2.20GHz,orientation_search,GHUM-L-P55205,Intel(R) UHD Graphics 630,2018_Nov_08_1324,testMonitor,
149.9,,164.5,154.8,36,-80,172.5,165.0,176.6,175.1,8.069,8.222,8.411,7.796,7.711,7.582,7.84,5.167,-4.987,-7.644,1.596,-1.54,7.669,4.735,-5.16,-7.798,160.8,152.6,-7.745,166.5,169.0,154.6,150.5,153.0,36,146.3,3,5,prime,10,0,97,norm,36,-5.139,up,norm,160.148031779,163.6,155.8,168.3,152.1,5,168.7,162.5,175.0,10,6,8.144,4.315,1.832,-1.466,-5.061,-7.987,150.8,6,257.1,-8.036,-7.706,-80,-8.012,-7.553,-4.718,-5.158,-4.392,-5.058,4.786,8.412,23,-1.574,2.011,5.016,7.824,-8.294,-7.67,-1.852,1.994,176.0,175.9,163.3,180.1,140.1,166.4,161.9,171.1,147.1,170.9,4,norm,2.006,1.813,-1.165,-1.47,-4.482,-5.114,-1.972,-1.111,-1.25,-1.113,1.91,-1.414,160.1,152.0,-4.77,-7.599,1.623,-2.01,7.643,4.427,-4.627,-7.804,12,4.555,4.815,4.367,4.787,1.728,1.239,1.978,2.077,12,4.37,4.631,30,251.773240287,norm,0,46,46,46,223.919,223.926,223.9346241,223.935,223.936,223.938,up,1,1.16951799998,8.83048200002,001,306,1366_768,Intel(R) Core(TM) i7-8750H CPU @ 2.20GHz,orientation_search,GHUM-L-P55205,Intel(R) UHD Graphics 630,2018_Nov_08_1324,testMonitor,
145.1,180.1,173.5,172.4,36,-80,172.7,158.2,155.7,161.0,7.692,7.811,8.389,8.235,8.428,8.018,8.115,4.373,-4.994,-7.695,1.76,-1.3,7.603,5.023,-4.443,-7.538,159.2,152.5,-8.229,159.3,157.9,144.0,165.8,169.4,36,158.7,1,5,prime,10,0,101,norm,36,-4.959,down,norm,160.148031779,146.0,140.1,171.4,158.9,0,168.8,152.2,164.4,10,6,8.397,4.341,1.553,-1.706,-5.024,-7.81,151.2,6,261.1,-7.882,-8.239,-80,-7.742,-8.251,-4.675,-4.557,-4.336,-4.878,4.565,8.241,6,-2.059,1.912,5.042,8.143,-8.115,-7.517,-1.422,1.573,161.4,157.6,180.1,163.6,175.8,172.6,176.3,,159.0,153.0,5,norm,1.494,1.399,-1.428,-1.343,-5.184,-4.668,-1.516,-1.989,-1.2,-1.574,1.429,-1.221,170.7,151.6,-4.982,-8.394,1.333,-1.73,7.956,5.152,-4.472,-7.655,12,5.227,4.467,5.155,4.695,1.939,1.305,1.171,1.398,12,4.463,4.864,30,251.773240287,norm,0,47,47,47,225.13,225.141,225.1505359,225.151,225.152,225.154,down,1,4.03293089999,5.96706910001,001,306,1366_768,Intel(R) Core(TM) i7-8750H CPU @ 2.20GHz,orientation_search,GHUM-L-P55205,Intel(R) UHD Graphics 630,2018_Nov_08_1324,testMonitor,
159.5,153.4,150.0,154.1,36,80,160.8,153.2,160.4,148.9,8.376,7.793,8.428,8.118,8.295,7.631,8.454,4.375,-4.345,-8.404,1.441,-1.679,7.805,4.51,-4.834,-7.673,154.0,146.8,-7.541,151.5,165.8,155.5,151.1,156.4,36,154.7,2,5,probe,5,0,77,norm,36,-4.941,up,norm,155.801394494,,151.9,155.4,159.3,5,159.2,159.6,150.7,10,6,7.745,5.054,1.67,-1.844,-4.904,-7.832,155.9,2,78.8,-7.597,-7.821,-80,-7.53,-8.155,-4.77,-4.941,-4.331,-4.646,4.469,8.348,17,-1.388,1.251,4.941,8.267,-7.863,-7.591,-1.914,2.049,156.3,161.7,154.4,151.7,165.7,158.8,155.0,145.8,155.9,157.9,0,norm,1.464,1.279,-1.569,-1.126,-5.055,-5.089,-1.637,-1.523,-1.424,-1.408,1.854,-2.032,152.6,156.3,-4.615,-7.89,1.732,-1.892,7.504,4.47,-4.783,-7.522,13,5.246,4.583,5.001,5.094,1.86,1.301,1.691,1.929,13,4.875,5.149,-80,160.148031779,norm,0,48,48,48,229.205,229.214,229.232846,229.233,229.234,229.236,up,1,1.13802239997,8.86197760003,001,306,1366_768,Intel(R) Core(TM) i7-8750H CPU @ 2.20GHz,orientation_search,GHUM-L-P55205,Intel(R) UHD Graphics 630,2018_Nov_08_1324,testMonitor,
149.4,153.4,148.0,142.1,36,80,151.3,142.9,147.3,152.8,7.924,7.972,8.42,7.619,8.124,7.984,7.823,5.076,-4.854,-8.497,1.541,-2.1,8.163,4.675,-5.278,-8.42,148.0,146.1,-7.503,144.2,144.1,155.0,149.8,144.8,36,147.1,1,5,probe,5,0,71,norm,36,-5.166,down,norm,149.801394494,151.3,155.6,141.7,152.9,2,151.1,155.8,143.7,10,6,7.662,5.187,1.655,-1.791,-5.26,-7.749,156.7,2,78.8,-7.767,-8.071,-80,-7.52,-8.422,-4.747,-4.398,-4.801,-4.999,5.284,7.588,8,-1.895,1.979,4.949,7.931,-7.787,-8.415,-1.163,1.556,155.6,,139.8,149.6,156.0,148.1,142.9,159.8,146.3,155.7,1,norm,1.824,2.003,-1.165,-1.203,-4.892,-4.66,-1.301,-1.637,-1.39,-1.834,1.42,-1.201,149.0,151.1,-4.609,-7.654,1.598,-1.51,8.183,4.404,-4.663,-7.579,13,4.971,4.324,5.07,5.021,1.211,1.273,1.835,1.347,13,4.578,4.826,-80,160.148031779,norm,0,49,49,49,230.395,230.404,230.4159415,230.416,230.418,230.419,down,1,1.75093600003,8.24906399997,001,306,1366_768,Intel(R) Core(TM) i7-8750H CPU @ 2.20GHz,orientation_search,GHUM-L-P55205,Intel(R) UHD Graphics 630,2018_Nov_08_1324,testMonitor,
123.0,114.1,123.3,,36,30,125.3,132.9,116.2,110.0,8.391,8.02,8.481,7.546,8.126,7.684,7.982,4.629,-4.806,-7.663,1.499,-1.67,7.557,4.427,-5.199,-8.027,132.6,123.9,-8.375,95.5,103.6,117.2,107.3,124.3,36,119.3,3,5,prime,10,0,77,norm,36,-5.196,up,norm,115.543039553,102.4,113.3,113.5,120.2,3,99.9,121.8,111.1,10,6,7.833,5.101,1.708,-1.122,-5.231,-8.328,106.6,6,192.5,-8.063,-7.915,30,-7.674,-7.703,-5.1,-4.46,-4.955,-5.076,4.992,7.531,21,-1.83,1.465,4.98,8.45,-7.615,-7.921,-1.847,1.599,101.2,135.5,113.0,115.2,120.2,114.2,101.7,109.7,119.0,107.9,0,norm,1.852,1.36,-1.18,-2.043,-5.259,-4.469,-1.846,-1.211,-1.434,-1.462,1.393,-1.472,119.3,114.4,-5.232,-8.178,1.906,-1.99,7.616,4.541,-4.836,-8.101,14,5.067,4.426,4.844,4.57,1.94,1.185,1.168,1.884,14,4.874,4.851,80,160.148031779,norm,0,50,50,50,232.191,232.201,232.2154389,232.216,232.217,232.219,up,1,1.13710269995,8.86289730005,001,306,1366_768,Intel(R) Core(TM) i7-8750H CPU @ 2.20GHz,orientation_search,GHUM-L-P55205,Intel(R) UHD Graphics 630,2018_Nov_08_1324,testMonitor,
115.9,95.5,111.3,118.4,36,30,135.5,104.0,118.5,117.4,8.465,8.398,8.21,7.562,8.38,8.29,7.753,4.671,-4.769,-7.922,1.496,-2.083,8.017,4.57,-4.696,-8.198,100.6,112.3,-7.53,111.7,124.1,130.5,104.4,97.8,36,,4,5,prime,10,0,74,norm,36,-4.486,up,norm,115.543039553,104.6,120.8,113.7,123.9,3,110.5,120.2,107.0,10,6,7.86,4.63,1.956,-1.52,-4.922,-7.79,117.0,6,189.5,-8.125,-8.303,30,-7.792,-8.323,-5.262,-5.266,-5.053,-4.352,4.957,7.989,27,-1.9,1.334,4.68,7.595,-7.545,-8.129,-1.556,1.838,108.5,119.0,123.4,115.5,123.6,104.2,107.2,106.2,116.4,120.0,1,norm,1.446,1.851,-1.717,-1.555,-5.137,-4.382,-1.532,-2.01,-1.956,-1.943,1.641,-1.317,107.4,106.2,-4.493,-7.851,1.362,-1.894,8.275,4.417,-4.97,-8.318,14,4.694,4.51,4.939,4.797,1.438,1.351,1.964,1.356,14,4.868,4.404,80,160.148031779,norm,0,51,51,51,233.378,233.387,233.3984431,233.399,233.4,233.402,up,1,4.06759530003,5.93240469997,001,306,1366_768,Intel(R) Core(TM) i7-8750H CPU @ 2.20GHz,orientation_search,GHUM-L-P55205,Intel(R) UHD Graphics 630,2018_Nov_08_1324,testMonitor,
111.7,108.6,117.5,112.4,36,30,106.4,109.3,109.5,130.0,8.378,7.782,7.538,8.129,8.405,8.175,8.305,4.99,-4.672,-7.883,1.759,-1.362,7.803,4.774,-4.56,-7.605,135.5,113.2,-7.816,110.1,108.9,126.5,107.3,130.5,36,112.5,3,5,prime,10,0,71,norm,36,-4.747,down,norm,115.543039553,117.5,104.7,115.0,115.0,1,119.1,101.0,132.9,10,6,8.443,5.119,1.256,-1.861,-4.483,-7.879,108.9,6,186.5,-7.771,-8.049,30,-7.586,-7.739,-5.27,-4.926,-4.597,-4.321,4.923,7.717,19,-1.957,1.38,5.005,7.608,-7.968,-8.455,-1.79,1.995,124.0,118.5,112.5,120.8,119.6,129.8,109.1,122.0,111.5,95.5,2,norm,1.822,1.264,-1.186,-1.436,-4.571,-5.003,-1.318,-1.47,-1.513,-1.291,1.949,-1.366,,103.6,-4.989,-8.192,1.324,-1.247,7.703,4.809,-4.586,-7.976,14,4.628,4.503,4.377,4.854,1.709,1.692,1.334,1.417,14,4.56,4.56,80,160.148031779,norm,0,52,52,52,237.49,237.499,237.5140233,237.514,237.516,237.517,down,1,1.63821629994,8.36178370006,001,306,1366_768,Intel(R) Core(TM) i7-8750H CPU @ 2.20GHz,orientation_search,GHUM-L-P55205,Intel(R) UHD Graphics 630,2018_Nov_08_1324,testMonitor,
108.9,127.1,135.5,125.6,36,30,95.5,112.1,116.1,120.5,7.739,7.748,7.591,7.653,7.833,7.52,8.426,4.888,-4.64,-8.044,1.607,-1.665,7.729,4.395,-5.134,-8.149,110.5,119.4,-7.512,133.3,122.2,134.0,127.4,117.5,36,128.9,2,5,prime,10,0,61,norm,36,-4.689,down,norm,115.543039553,132.0,123.3,131.8,,2,105.3,121.2,121.6,10,6,7.863,5.211,1.947,-1.608,-5.07,-7.994,108.0,6,176.5,-7.761,-7.864,30,-7.849,-8.164,-5.077,-5.252,-4.589,-4.561,4.469,8.444,14,-1.437,1.848,4.484,7.659,-8.477,-8.49,-1.945,1.882,128.2,122.9,114.4,103.6,110.1,99.4,114.2,115.4,115.3,116.2,3,norm,1.929,2.032,-1.504,-1.798,-4.653,-4.693,-1.26,-1.514,-1.344,-1.597,1.731,-1.384,125.6,127.4,-4.624,-8.136,1.358,-1.891,7.713,5.187,-4.571,-8.383,14,4.716,4.646,5.051,5.237,1.615,1.2,1.15,1.97,14,4.387,4.476,80,160.148031779,norm,0,53,53,53,239.177,239.187,239.1968097,239.197,239.198,239.2,down,1,4.13493689999,5.86506310001,001,306,1366_768,Intel(R) Core(TM) i7-8750H CPU @ 2.20GHz,orientation_search,GHUM-L-P55205,Intel(R) UHD Graphics 630,2018_Nov_08_1324,testMonitor,
113.8,120.0,135.5,116.2,36,30,115.7,95.5,113.1,,8.252,7.502,8.331,7.761,8.246,7.59,7.619,5.024,-4.986,-7.618,1.241,-1.14,7.501,4.591,-4.74,-8.219,113.8,124.0,-8.416,111.8,130.5,104.5,114.7,131.6,36,112.5,4,5,prime,10,0,102,norm,36,-4.634,up,norm,115.543039553,122.6,107.1,123.3,107.2,5,118.6,112.3,105.5,10,6,7.888,5.229,2.033,-2.023,-4.983,-7.675,116.7,6,217.5,-8.058,-8.267,30,-8.314,-7.666,-4.912,-4.623,-4.971,-4.43,5.038,8.2,29,-2.047,1.712,4.87,7.775,-7.625,-7.546,-1.254,1.333,115.2,120.6,113.3,115.4,124.2,99.8,115.1,104.8,112.5,109.1,4,norm,1.101,1.814,-1.945,-1.884,-5.296,-4.671,-2.085,-1.485,-1.546,-2.09,1.668,-2.021,114.0,114.7,-4.79,-8.204,1.553,-1.76,7.856,4.391,-4.497,-8.151,14,5.204,4.873,4.87,4.321,1.852,1.566,1.517,2.02,14,4.949,4.368,80,160.148031779,norm,0,54,54,54,243.359,243.368,243.3792316,243.379,243.381,243.383,down,0,1.30232080002,-10,001,306,1366_768,Intel(R) Core(TM) i7-8750H CPU @ 2.20GHz,orientation_search,GHUM-L-P55205,Intel(R) UHD Graphics 630,2018_Nov_08_1324,testMonitor,
117.6,132.4,95.5,116.5,36,30,119.4,126.7,115.7,127.9,8.061,8.01,7.965,7.748,7.761,8.304,8.039,4.632,-4.477,-8.335,1.223,-1.17,8.212,5.133,-4.678,-8.334,106.7,110.1,-8.18,107.7,124.8,114.3,109.0,130.0,36,133.3,2,5,prime,10,0,71,norm,36,-4.363,up,norm,115.543039553,,113.7,97.6,113.1,5,121.1,127.4,113.7,10,6,7.674,5.078,1.927,-1.587,-5.26,-7.73,107.9,6,186.5,-8.428,-8.484,30,-7.511,-8.159,-5.131,-4.775,-4.564,-4.535,4.52,8.493,17,-1.376,1.53,4.719,7.586,-7.799,-8.343,-1.893,1.523,119.6,123.5,105.1,108.7,119.0,101.6,107.3,119.8,135.5,115.1,5,norm,1.885,1.256,-1.863,-1.349,-5.045,-4.652,-1.774,-1.385,-1.627,-1.689,1.189,-2.022,109.2,121.4,-5.207,-8.126,1.949,-1.72,7.764,5.284,-4.914,-7.655,14,5.052,5.165,4.345,5.208,1.598,1.937,1.466,1.164,14,4.533,4.659,80,160.148031779,norm,0,55,55,55,245.726,245.733,245.7448084,245.745,245.746,245.748,up,1,3.58478699997,6.41521300003,001,306,1366_768,Intel(R) Core(TM) i7-8750H CPU @ 2.20GHz,orientation_search,GHUM-L-P55205,Intel(R) UHD Graphics 630,2018_Nov_08_1324,testMonitor,
215.0,221.9,,222.4,36,-60,220.5,215.8,227.0,222.2,7.698,8.22,8.332,7.905,7.685,7.679,8.443,4.917,-5.029,-8.423,1.162,-1.801,8.262,4.302,-4.942,-7.504,226.9,212.5,-8.346,232.5,231.7,223.2,227.7,220.0,36,224.1,3,5,probe,5,0,81,norm,36,-4.783,down,norm,222.541720606,221.8,230.7,227.0,223.3,2,221.2,223.6,226.4,10,6,7.668,4.337,1.953,-1.279,-4.532,-7.716,219.8,1,141.5,-8.203,-7.598,30,-7.607,-8.45,-4.695,-4.522,-4.587,-4.464,4.456,8.189,20,-1.721,1.158,5.228,8.257,-8.259,-8.001,-1.377,1.606,221.8,229.8,221.9,214.4,220.5,223.1,222.4,226.6,220.4,224.0,0,norm,1.292,1.339,-1.616,-1.506,-4.399,-4.809,-1.313,-1.3,-1.505,-1.499,1.296,-1.66,220.7,221.7,-4.828,-8.459,2.068,-1.229,8.297,4.656,-4.405,-7.57,15,4.866,4.619,4.94,5.241,1.535,1.4,1.965,1.317,15,4.635,4.947,30,115.543039553,norm,0,56,56,56,249.355,249.365,249.3775396,249.378,249.379,249.381,down,1,2.75104390003,7.24895609997,001,306,1366_768,Intel(R) Core(TM) i7-8750H CPU @ 2.20GHz,orientation_search,GHUM-L-P55205,Intel(R) UHD Graphics 630,2018_Nov_08_1324,testMonitor,
316.3,296.8,325.7,333.3,36,20,303.8,324.3,318.4,328.0,8.14,7.822,7.855,8.243,8.242,7.685,7.691,4.849,-4.337,-8.018,1.917,-1.517,7.66,5.034,-4.69,-7.981,317.5,320.4,-7.853,318.6,296.8,325.4,314.5,321.7,36,318.3,0,5,prime,10,0,86,norm,36,-4.529,down,norm,316.841197325,322.4,328.5,321.9,320.3,2,315.4,313.1,329.2,10,6,8.121,4.44,1.67,-1.66,-4.448,-7.919,335.1,6,402.8,-8.332,-8.485,20,-7.69,-7.756,-4.703,-4.813,-5.256,-4.31,4.793,7.895,2,-2.059,1.273,4.905,7.666,-7.592,-7.814,-1.935,1.343,319.3,317.3,324.1,,308.0,336.8,301.2,322.4,312.6,330.3,0,norm,1.44,1.755,-1.47,-1.544,-4.624,-4.863,-2.086,-1.205,-1.193,-2.063,1.379,-1.942,305.7,329.7,-5.13,-7.697,1.637,-1.211,8.053,4.866,-4.498,-8.192,16,5.077,5.245,4.673,5.106,1.845,1.27,1.96,1.651,16,4.851,4.714,-60,115.543039553,norm,0,57,57,57,252.154,252.162,252.1767657,252.177,252.178,252.18,down,1,2.71582850011,7.28417149989,001,306,1366_768,Intel(R) Core(TM) i7-8750H CPU @ 2.20GHz,orientation_search,GHUM-L-P55205,Intel(R) UHD Graphics 630,2018_Nov_08_1324,testMonitor,
329.6,320.1,319.8,315.7,36,20,325.1,324.3,303.8,300.6,8.137,7.926,7.814,8.427,8.064,8.095,7.804,4.401,-5.216,-7.984,2.04,-1.258,7.719,4.313,-4.97,-8.149,317.7,317.8,-7.576,303.3,318.6,315.4,313.3,315.9,36,306.6,1,5,prime,10,0,71,norm,36,-4.471,up,norm,316.841197325,308.8,326.9,306.3,311.8,5,,317.8,319.8,10,6,8.299,5.142,1.387,-1.82,-4.417,-8.496,308.9,6,387.8,-7.824,-8.449,20,-8.395,-7.522,-4.328,-4.989,-4.411,-4.342,4.914,8.435,11,-1.447,1.749,5.176,8.46,-7.516,-8.248,-1.262,1.625,325.0,318.0,319.5,311.0,296.8,319.6,336.8,299.7,316.8,318.8,1,norm,2.094,1.926,-1.315,-1.612,-4.64,-4.884,-1.173,-1.275,-1.456,-1.863,1.934,-2.079,319.4,317.1,-4.411,-7.995,1.44,-1.958,7.946,5.254,-4.638,-8.132,16,4.656,4.98,4.375,4.866,1.559,1.57,1.112,1.942,16,4.722,5.065,-60,115.543039553,norm,0,58,58,58,254.911,254.917,254.9269768,254.927,254.928,254.93,up,1,1.68354440003,8.31645559997,001,306,1366_768,Intel(R) Core(TM) i7-8750H CPU @ 2.20GHz,orientation_search,GHUM-L-P55205,Intel(R) UHD Graphics 630,2018_Nov_08_1324,testMonitor,
318.4,310.6,327.2,308.8,36,20,336.8,311.1,317.3,333.8,8.184,7.969,7.648,8.438,7.875,7.935,7.634,4.641,-4.941,-8.096,1.601,-1.896,7.792,4.546,-5.262,-7.965,313.8,330.5,-8.461,324.3,318.9,317.1,317.1,322.3,36,329.4,1,5,prime,10,0,74,norm,36,-5.27,down,norm,316.841197325,330.5,308.6,322.1,317.8,0,332.5,321.5,308.3,10,6,7.902,5.008,1.271,-1.208,-5.131,-8.417,313.3,6,390.8,-8.052,-8.253,20,-8.294,-8.147,-5.08,-4.933,-4.663,-5.129,4.935,8.294,6,-1.933,1.245,5.184,7.675,-8.176,-7.561,-1.11,1.276,314.9,305.9,328.5,324.6,326.0,314.6,312.8,,324.9,308.3,2,norm,1.46,1.887,-1.7,-1.947,-5.074,-4.647,-1.839,-1.902,-1.765,-2.02,1.824,-1.969,311.1,324.4,-4.962,-8.203,1.145,-1.657,8.32,4.55,-5.206,-7.987,16,4.581,4.685,4.611,4.358,1.503,1.535,1.176,1.854,16,4.595,5.201,-60,115.543039553,norm,0,59,59,59,256.635,256.645,256.658962,256.659,256.66,256.662,down,1,1.1326775999,8.8673224001,001,306,1366_768,Intel(R) Core(TM) i7-8750H CPU @ 2.20GHz,orientation_search,GHUM-L-P55205,Intel(R) UHD Graphics 630,2018_Nov_08_1324,testMonitor,
319.2,307.2,325.7,321.8,36,20,311.6,326.7,309.1,312.4,7.517,7.666,7.672,8.116,7.68,8.029,8.209,4.518,-4.755,-8.499,1.212,-1.701,7.606,4.38,-4.926,-7.658,296.8,309.3,-7.531,319.2,315.0,320.3,336.8,323.1,36,312.3,2,5,prime,10,0,78,norm,36,-4.548,up,norm,316.841197325,311.5,319.5,,325.4,3,327.3,306.6,321.7,10,6,7.779,5.177,1.603,-1.636,-4.33,-7.65,313.7,6,394.8,-7.791,-7.659,20,-7.53,-7.784,-4.711,-4.491,-4.322,-4.992,5.025,7.986,15,-1.386,1.266,4.556,7.714,-8.328,-7.553,-1.17,1.97,329.1,317.0,332.5,323.9,315.7,301.8,308.5,304.0,321.3,324.1,3,norm,1.79,1.189,-1.763,-1.686,-4.706,-5.196,-1.741,-1.297,-2.047,-1.772,1.855,-1.938,333.0,313.9,-4.33,-7.814,2.015,-1.465,7.744,4.713,-4.591,-8.38,16,4.947,4.865,4.433,4.378,1.983,1.958,1.616,1.847,16,5.055,5.266,-60,115.543039553,norm,0,60,60,60,257.814,257.823,257.8418778,257.842,257.844,257.845,up,1,1.4525748,8.5474252,001,306,1366_768,Intel(R) Core(TM) i7-8750H CPU @ 2.20GHz,orientation_search,GHUM-L-P55205,Intel(R) UHD Graphics 630,2018_Nov_08_1324,testMonitor,
336.8,310.8,303.9,319.1,36,20,302.1,327.4,322.1,311.4,8.089,7.944,7.83,8.358,8.063,8.291,8.016,4.801,-4.712,-7.551,1.721,-1.618,8.376,5.259,-4.856,-8.352,314.9,303.6,-8.183,308.9,328.0,311.5,301.6,322.4,36,318.0,2,5,prime,10,0,73,norm,36,-4.953,down,norm,316.841197325,329.1,307.8,308.0,316.9,0,318.9,324.3,,10,6,8.454,4.538,1.86,-1.28,-5.298,-7.924,332.7,6,389.8,-8.148,-8.064,20,-7.692,-7.629,-4.853,-5.227,-5.165,-4.369,5.268,7.698,12,-1.301,1.644,5.008,8.129,-8.363,-7.607,-1.61,1.397,325.5,325.6,319.9,305.0,296.8,314.5,313.3,297.3,301.7,328.5,4,norm,1.801,1.233,-1.591,-1.587,-4.551,-5.004,-1.785,-1.174,-1.181,-1.165,1.836,-1.308,330.0,327.1,-4.95,-8.355,1.954,-1.989,8.354,4.801,-4.444,-7.86,16,4.742,4.722,4.78,4.631,2.012,1.868,2.045,2.02,16,5.061,4.814,-60,115.543039553,norm,0,61,61,61,259.319,259.329,259.3412956,259.342,259.343,259.344,down,1,1.05176610011,8.94823389989,001,306,1366_768,Intel(R) Core(TM) i7-8750H CPU @ 2.20GHz,orientation_search,GHUM-L-P55205,Intel(R) UHD Graphics 630,2018_Nov_08_1324,testMonitor,
305.2,332.4,326.2,332.8,36,20,328.5,310.8,320.1,313.1,7.799,7.786,7.677,7.522,8.112,7.953,8.285,4.975,-4.788,-7.538,1.869,-1.284,8.454,5.129,-4.504,-7.677,309.4,316.1,-7.971,326.4,315.7,318.8,315.1,301.5,36,296.9,2,5,prime,10,0,102,norm,36,-5.094,up,norm,316.841197325,,300.2,316.7,308.4,5,311.1,312.2,299.6,10,6,8.475,4.473,1.479,-1.799,-4.441,-8.379,329.6,6,418.8,-8.499,-8.49,20,-8.215,-7.579,-5.042,-4.408,-5.262,-4.619,4.649,8.378,17,-1.412,1.461,5.158,8.365,-8.177,-8.369,-1.794,1.966,323.5,324.7,296.8,327.9,318.6,322.7,323.0,324.6,336.8,320.0,5,norm,1.499,1.622,-1.474,-1.492,-4.912,-4.356,-1.286,-1.753,-1.464,-1.405,2.073,-2.095,298.5,311.0,-5.27,-8.459,1.222,-1.491,7.764,4.873,-4.434,-8.25,16,4.741,4.332,5.144,4.568,1.481,2.075,1.429,1.496,16,5.144,4.838,-60,115.543039553,norm,0,62,62,62,260.418,260.426,260.4414808,260.442,260.443,260.445,up,1,1.78777420009,8.21222579991,001,306,1366_768,Intel(R) Core(TM) i7-8750H CPU @ 2.20GHz,orientation_search,GHUM-L-P55205,Intel(R) UHD Graphics 630,2018_Nov_08_1324,testMonitor,
419.4,430.6,427.4,425.0,36,-20,422.4,428.3,434.0,428.4,7.609,7.891,8.216,7.989,7.898,7.91,7.82,4.837,-4.611,-8.495,1.849,-1.509,8.387,4.707,-5.132,-8.073,425.6,428.7,-8.293,417.3,418.3,415.9,415.6,423.1,36,425.4,0,5,probe,5,0,92,norm,36,-4.572,down,norm,424.02882697,433.6,429.6,427.9,424.7,0,419.5,429.5,426.0,10,6,7.523,4.509,1.693,-1.746,-5.217,-7.827,420.6,1,332.0,-7.894,-7.833,20,-8.016,-7.729,-4.603,-5.076,-5.232,-4.409,4.627,7.585,0,-2.092,1.365,4.682,7.699,-8.111,-8.301,-1.952,1.718,420.0,424.8,420.2,417.8,419.5,,418.4,427.7,429.9,420.9,0,norm,1.392,1.609,-1.815,-1.206,-4.828,-4.8,-1.5,-2.047,-1.611,-1.558,1.335,-1.598,414.0,427.0,-5.084,-8.488,1.435,-1.159,7.933,5.065,-4.557,-7.788,17,4.428,4.874,4.805,5.102,1.314,1.671,1.887,1.277,17,5.193,4.855,20,316.841197325,norm,0,63,63,63,262.253,262.262,262.2741606,262.274,262.276,262.277,down,1,1.78581739997,8.21418260003,001,306,1366_768,Intel(R) Core(TM) i7-8750H CPU @ 2.20GHz,orientation_search,GHUM-L-P55205,Intel(R) UHD Graphics 630,2018_Nov_08_1324,testMonitor,
129.1,147.9,143.6,151.7,36,-30,154.5,150.8,157.8,157.2,8.39,7.742,8.053,8.243,7.835,8.336,8.279,4.783,-4.337,-8.14,1.262,-1.103,8.094,4.494,-4.441,-7.737,149.3,139.8,-8.055,167.5,143.1,163.3,153.1,167.7,36,166.3,1,5,prime,10,0,118,norm,36,-5.236,down,norm,149.094448792,154.8,141.5,163.7,148.6,1,159.6,161.4,169.1,10,5,8.354,4.644,1.619,-1.976,-4.778,-8.239,156.8,5,267.1,-8.289,-7.877,-30,-7.715,-7.987,-4.668,-4.429,-4.424,-4.563,4.331,8.404,7,-2.005,1.663,4.687,7.806,-7.796,-8.014,-1.847,2.062,144.0,153.4,160.6,150.5,151.2,151.0,,162.6,143.6,153.0,0,norm,1.209,1.324,-1.309,-1.171,-4.838,-4.772,-2.051,-1.537,-2.051,-2.052,2.089,-1.701,146.1,139.3,-5.019,-7.603,1.379,-1.776,7.725,4.598,-4.552,-8.412,18,4.825,5.061,4.922,4.771,1.669,1.846,1.656,1.735,18,5.019,5.295,-20,316.841197325,norm,0,64,64,64,264.087,270.756,270.7716624,270.772,270.774,270.777,down,1,1.78553160001,8.21446839999,001,306,1366_768,Intel(R) Core(TM) i7-8750H CPU @ 2.20GHz,orientation_search,GHUM-L-P55205,Intel(R) UHD Graphics 630,2018_Nov_08_1324,testMonitor,
160.3,148.7,142.7,150.8,36,-30,133.6,152.5,142.2,153.8,7.922,7.889,7.625,7.52,8.397,7.65,7.802,4.426,-4.374,-7.842,1.48,-1.638,7.656,5.288,-4.685,-7.887,148.4,149.1,-8.017,158.9,129.1,141.5,143.1,145.2,36,168.6,1,5,prime,10,0,113,norm,36,-5.086,down,norm,149.094448792,150.1,154.5,150.7,147.4,1,169.1,145.5,156.1,10,5,8.204,4.788,1.443,-1.432,-4.705,-7.572,146.5,5,262.1,-8.14,-7.532,-30,-8.38,-7.98,-5.231,-5.181,-5.171,-4.689,4.63,8.205,7,-1.879,1.556,5.185,7.803,-7.734,-7.798,-1.68,1.791,169.1,150.2,147.8,145.0,138.9,142.3,,162.3,140.9,144.9,1,norm,1.867,1.912,-2.057,-1.163,-4.559,-4.669,-1.438,-1.302,-2.078,-1.677,1.931,-1.261,137.1,154.8,-4.3,-8.433,1.981,-1.71,8.206,4.638,-4.717,-8.309,18,4.715,4.798,4.439,5.083,1.331,1.654,1.117,1.503,18,5.011,5.259,-20,316.841197325,norm,0,65,65,65,272.583,272.592,272.6044623,272.605,272.606,272.608,down,1,2.9512902,7.0487098,001,306,1366_768,Intel(R) Core(TM) i7-8750H CPU @ 2.20GHz,orientation_search,GHUM-L-P55205,Intel(R) UHD Graphics 630,2018_Nov_08_1324,testMonitor,
147.7,166.9,163.8,139.5,36,-30,157.5,147.1,140.1,139.0,8.497,7.976,8.243,7.729,7.786,8.202,7.699,4.559,-4.956,-7.918,2.036,-1.283,7.761,4.654,-5.203,-7.715,156.1,155.2,-7.736,129.1,151.5,142.8,141.6,159.3,36,145.8,1,5,prime,10,0,65,norm,36,-4.928,up,norm,149.094448792,134.2,153.0,142.2,155.3,3,136.5,166.1,139.5,10,5,8.414,5.034,1.19,-1.144,-4.335,-8.461,140.3,5,214.1,-7.668,-8.403,-30,-8.389,-7.58,-4.312,-5.032,-5.136,-4.606,4.411,8.349,9,-1.885,2.078,5.019,7.896,-8.142,-7.922,-1.5,1.102,,146.0,157.3,138.2,140.9,150.4,169.1,148.6,152.1,161.3,2,norm,1.314,1.363,-2.017,-1.807,-5.107,-4.952,-1.775,-1.82,-1.207,-1.859,1.495,-2.053,160.8,143.7,-4.456,-8.466,1.816,-1.194,8.081,4.418,-4.815,-8.162,18,4.318,4.66,5.016,4.986,2.059,1.401,1.584,1.81,18,4.853,4.607,-20,316.841197325,norm,0,66,66,66,275.582,275.591,275.6036794,275.604,275.605,275.607,up,1,1.33260710002,8.66739289998,001,306,1366_768,Intel(R) Core(TM) i7-8750H CPU @ 2.20GHz,orientation_search,GHUM-L-P55205,Intel(R) UHD Graphics 630,2018_Nov_08_1324,testMonitor,
144.2,151.3,145.8,155.6,36,-30,,152.7,138.0,157.4,7.598,7.524,7.592,8.386,7.834,8.097,8.153,5.025,-5.141,-8.151,2.075,-1.101,8.153,4.402,-4.736,-8.282,151.7,142.3,-8.186,154.4,136.2,142.9,152.1,153.3,36,147.3,4,5,prime,10,0,92,norm,36,-4.504,down,norm,149.094448792,151.4,151.3,169.1,131.7,0,129.1,142.9,164.6,10,5,8.489,5.038,1.325,-1.454,-5.278,-8.427,158.8,5,241.1,-8.438,-7.755,-30,-8.24,-7.96,-4.354,-4.954,-4.691,-4.525,4.713,7.949,24,-1.62,1.398,5.09,7.837,-7.677,-7.936,-1.357,1.665,153.2,160.1,144.0,142.7,135.7,133.7,140.2,140.5,137.9,154.0,3,norm,1.669,1.174,-1.47,-1.178,-4.804,-4.341,-1.335,-1.118,-1.587,-1.692,1.688,-1.748,155.6,140.8,-4.74,-8.09,1.332,-1.69,7.548,4.663,-5.02,-7.599,18,5.144,4.769,5.243,4.833,1.517,1.873,1.296,1.953,18,5.258,4.32,-20,316.841197325,norm,0,67,67,67,276.955,276.964,276.9710672,276.971,276.973,276.974,down,1,1.10362090007,8.89637909993,001,306,1366_768,Intel(R) Core(TM) i7-8750H CPU @ 2.20GHz,orientation_search,GHUM-L-P55205,Intel(R) UHD Graphics 630,2018_Nov_08_1324,testMonitor,
155.7,142.7,132.1,147.6,36,-30,159.7,133.0,151.5,142.6,8.118,7.971,8.107,8.198,7.565,7.61,7.903,5.261,-4.716,-8.355,1.429,-1.153,7.902,4.696,-4.495,-8.136,145.9,144.1,-8.209,157.7,150.4,140.1,158.1,134.4,36,131.1,0,5,prime,10,0,105,norm,36,-4.891,down,norm,149.094448792,129.1,141.4,162.6,146.2,1,148.8,147.9,148.2,10,5,7.69,4.914,2.011,-1.373,-4.729,-8.349,145.7,5,254.1,-8.343,-7.862,-30,-7.627,-8.045,-4.791,-4.82,-4.883,-4.607,4.608,8.32,1,-1.682,1.15,4.349,7.88,-8.394,-8.078,-1.75,1.319,137.6,139.3,165.9,163.2,,151.7,169.1,158.2,161.9,129.6,4,norm,1.951,1.751,-1.801,-2.033,-4.643,-4.818,-1.605,-1.491,-1.714,-1.927,1.516,-1.346,137.3,153.2,-4.475,-8.115,1.55,-1.97,7.7,4.987,-4.52,-7.942,18,5.219,5.0,4.302,4.965,1.476,2.097,2.012,1.206,18,4.305,5.261,-20,316.841197325,norm,0,68,68,68,278.099,278.109,278.1199655,278.12,278.122,278.123,down,1,1.76491719997,8.23508280003,001,306,1366_768,Intel(R) Core(TM) i7-8750H CPU @ 2.20GHz,orientation_search,GHUM-L-P55205,Intel(R) UHD Graphics 630,2018_Nov_08_1324,testMonitor,
203.9,214.0,214.0,210.7,36,10,211.6,216.0,,201.5,7.639,7.907,7.7,7.645,7.639,8.32,8.393,4.502,-4.665,-7.686,1.603,-1.67,7.946,4.454,-5.076,-8.394,218.6,210.4,-7.891,216.1,207.9,214.1,210.6,207.1,36,212.9,4,5,probe,5,0,91,norm,36,-4.783,up,norm,211.451909079,214.9,216.3,215.9,216.3,4,219.3,213.8,214.4,10,5,7.928,4.91,1.623,-1.972,-4.656,-8.158,210.7,1,120.5,-8.265,-8.457,-30,-7.872,-7.61,-4.719,-4.88,-4.907,-4.861,4.809,7.576,28,-1.25,2.069,4.4,8.074,-8.474,-7.673,-1.167,1.794,212.2,205.9,207.1,207.8,213.0,211.8,221.5,213.5,207.7,216.0,0,norm,2.008,1.932,-1.637,-1.197,-5.071,-5.035,-2.053,-1.229,-1.438,-2.021,1.491,-1.596,212.4,207.5,-4.52,-8.345,2.052,-1.947,8.236,4.393,-4.805,-7.659,19,4.327,4.552,5.206,4.376,1.88,1.528,1.665,1.695,19,4.787,4.783,-30,149.094448792,norm,0,69,69,69,279.904,279.911,279.9204031,279.921,279.922,279.924,up,1,1.9180961001,8.0819038999,001,306,1366_768,Intel(R) Core(TM) i7-8750H CPU @ 2.20GHz,orientation_search,GHUM-L-P55205,Intel(R) UHD Graphics 630,2018_Nov_08_1324,testMonitor,
233.1,232.0,236.1,209.5,36,40,229.9,233.5,228.3,,7.951,8.32,7.716,7.521,7.77,8.027,7.707,4.352,-4.428,-7.643,1.486,-1.585,7.542,4.801,-4.672,-8.15,221.6,231.7,-8.346,231.3,233.5,216.6,226.1,206.8,36,232.6,4,5,prime,10,0,74,norm,36,-5.07,up,norm,218.549897886,228.2,218.9,208.8,223.0,5,222.6,198.5,232.4,10,5,8.315,4.943,1.315,-1.382,-4.795,-7.516,223.9,5,292.5,-8.201,-8.177,40,-8.406,-7.546,-4.655,-4.789,-4.817,-5.017,4.607,8.223,29,-1.976,1.301,5.016,7.514,-8.247,-8.227,-1.373,1.362,238.5,200.4,206.4,218.8,203.9,213.1,224.6,213.9,235.9,205.4,0,norm,1.816,1.591,-1.242,-1.632,-4.781,-4.795,-1.679,-1.551,-1.915,-1.264,1.487,-1.353,211.1,220.1,-4.974,-8.308,1.684,-2.057,7.51,5.037,-5.103,-8.07,20,4.803,4.587,4.393,4.336,1.494,1.56,2.086,1.297,20,4.789,4.811,10,149.094448792,norm,0,70,70,70,281.858,281.864,281.8695117,281.87,281.871,281.873,up,1,0.852618800011,9.14738119999,001,306,1366_768,Intel(R) Core(TM) i7-8750H CPU @ 2.20GHz,orientation_search,GHUM-L-P55205,Intel(R) UHD Graphics 630,2018_Nov_08_1324,testMonitor,
210.8,211.3,212.4,215.2,36,40,206.6,217.6,214.7,223.5,8.476,8.461,7.767,8.401,7.992,8.36,8.034,4.627,-4.306,-8.356,1.432,-1.724,7.76,4.366,-4.978,-8.436,198.5,217.6,-8.49,227.9,214.5,218.4,215.9,238.5,36,202.6,2,5,prime,10,0,102,norm,36,-4.924,down,norm,218.549897886,218.1,215.3,215.5,225.2,1,212.7,,212.0,10,5,7.92,4.414,1.587,-1.108,-4.959,-7.556,212.6,5,320.5,-7.856,-8.329,40,-8.377,-7.586,-4.695,-4.445,-4.913,-4.384,4.814,7.976,13,-1.239,1.714,4.632,8.318,-7.506,-7.733,-1.167,1.661,212.6,218.1,217.1,205.2,205.7,227.2,220.5,224.8,218.8,207.7,1,norm,1.193,1.546,-1.594,-1.767,-4.757,-5.128,-1.938,-2.005,-2.082,-1.87,1.219,-1.975,219.9,235.8,-4.596,-8.117,1.441,-1.629,7.911,5.014,-5.182,-7.792,20,5.004,4.699,4.496,4.976,1.394,2.007,1.852,1.947,20,4.906,5.086,10,149.094448792,norm,0,71,71,71,282.747,282.757,282.7687714,282.769,282.77,282.772,down,1,1.25283459993,8.74716540007,001,306,1366_768,Intel(R) Core(TM) i7-8750H CPU @ 2.20GHz,orientation_search,GHUM-L-P55205,Intel(R) UHD Graphics 630,2018_Nov_08_1324,testMonitor,
,215.3,224.2,222.1,36,40,227.4,238.2,215.3,225.5,7.697,8.455,8.233,7.712,7.895,8.471,7.887,4.485,-4.465,-7.762,1.251,-1.567,8.264,4.571,-4.442,-8.276,211.1,223.6,-8.111,225.8,218.0,235.6,218.7,234.7,36,214.1,3,5,prime,10,0,63,norm,36,-4.6,up,norm,218.549897886,224.9,216.2,223.2,227.7,4,223.0,207.7,238.5,10,5,8.275,4.733,1.745,-1.379,-4.973,-7.97,235.2,5,281.5,-7.737,-7.817,40,-8.052,-8.367,-4.377,-4.631,-4.499,-4.851,4.85,7.729,22,-1.791,1.394,5.267,8.31,-7.808,-7.577,-1.686,1.501,222.0,219.7,208.7,227.6,218.6,218.3,221.9,221.8,208.7,220.0,2,norm,1.573,1.485,-1.87,-1.66,-4.944,-5.148,-1.866,-1.262,-1.183,-1.285,1.631,-1.52,198.5,229.6,-5.257,-8.061,1.14,-1.467,8.483,5.003,-4.696,-8.082,20,4.583,4.712,4.654,4.41,1.306,1.433,1.347,1.638,20,4.902,4.537,10,149.094448792,norm,0,72,72,72,284.047,284.055,284.0687239,284.069,284.07,284.072,up,1,1.21802070003,8.78197929997,001,306,1366_768,Intel(R) Core(TM) i7-8750H CPU @ 2.20GHz,orientation_search,GHUM-L-P55205,Intel(R) UHD Graphics 630,2018_Nov_08_1324,testMonitor,
204.8,214.5,224.3,202.9,36,40,233.8,230.7,209.8,223.6,8.093,8.304,7.791,8.09,7.511,7.876,7.776,4.865,-4.893,-8.257,1.974,-1.416,7.843,5.188,-4.586,-8.491,219.3,232.7,-7.993,204.7,206.6,210.9,227.1,198.5,36,216.9,1,5,prime,10,0,78,norm,36,-4.858,down,norm,218.549897886,224.0,210.0,223.6,215.2,2,238.5,218.1,217.9,10,5,7.932,4.483,1.907,-1.372,-4.405,-8.034,203.4,5,296.5,-7.873,-8.304,40,-8.426,-7.883,-4.507,-4.349,-4.604,-5.149,5.238,8.355,8,-2.026,1.671,5.031,7.724,-8.292,-7.692,-1.73,1.72,226.7,,215.0,224.9,224.4,224.2,226.1,205.9,215.9,211.6,3,norm,1.217,1.82,-1.92,-1.21,-4.565,-5.132,-1.798,-1.843,-2.063,-1.837,1.866,-1.367,210.5,222.3,-4.902,-7.957,1.485,-1.424,8.151,5.015,-4.327,-8.301,20,5.052,4.699,4.395,4.878,2.079,1.974,1.267,1.737,20,4.941,4.395,10,149.094448792,norm,0,73,73,73,285.312,285.321,285.3345049,285.335,285.336,285.338,down,1,1.79905909998,8.20094090002,001,306,1366_768,Intel(R) Core(TM) i7-8750H CPU @ 2.20GHz,orientation_search,GHUM-L-P55205,Intel(R) UHD Graphics 630,2018_Nov_08_1324,testMonitor,
224.1,210.2,215.9,,36,40,227.5,214.7,217.4,231.0,7.709,8.422,8.342,8.275,7.808,8.166,8.446,4.303,-5.0,-8.425,2.071,-1.659,7.792,4.987,-4.81,-7.739,218.8,215.6,-7.686,220.2,236.3,219.1,230.8,215.5,36,209.0,3,5,prime,10,0,78,norm,36,-5.081,up,norm,218.549897886,238.3,235.8,224.7,229.7,3,210.3,215.3,229.4,10,5,7.946,4.661,1.969,-1.307,-5.138,-8.25,204.5,5,296.5,-8.188,-8.019,40,-8.24,-7.899,-5.256,-5.233,-5.115,-4.351,5.074,7.888,21,-1.991,1.254,4.643,7.787,-8.022,-8.142,-1.652,1.352,198.5,211.9,224.1,221.9,208.1,210.7,227.3,214.1,222.2,219.4,4,norm,1.442,1.711,-1.973,-1.895,-4.618,-5.014,-1.647,-1.155,-1.866,-2.084,1.364,-1.901,218.9,204.2,-4.896,-8.111,1.968,-1.203,7.624,5.008,-4.702,-7.618,20,4.66,4.896,5.225,4.351,2.055,1.413,1.349,1.795,20,5.104,4.778,10,149.094448792,norm,0,74,74,74,287.152,287.162,287.1683717,287.169,287.17,287.172,up,1,0.947502500028,9.05249749997,001,306,1366_768,Intel(R) Core(TM) i7-8750H CPU @ 2.20GHz,orientation_search,GHUM-L-P55205,Intel(R) UHD Graphics 630,2018_Nov_08_1324,testMonitor,
374.2,365.1,372.9,374.1,36,80,372.8,372.7,378.7,375.6,8.309,7.514,8.492,7.698,7.531,7.755,7.58,4.46,-4.76,-8.007,1.722,-1.448,7.887,4.392,-4.543,-7.759,372.1,370.8,-7.951,381.4,375.4,384.5,379.2,371.7,36,376.3,2,5,probe,5,0,115,norm,36,-5.168,up,norm,374.502617992,377.0,,380.8,372.7,4,374.9,366.1,370.7,10,5,8.137,4.329,1.418,-1.675,-4.663,-8.323,377.8,1,259.5,-8.203,-7.948,40,-7.928,-7.852,-4.815,-5.122,-5.234,-4.381,4.575,8.041,16,-1.484,1.4,4.506,8.392,-8.167,-8.175,-1.287,1.416,373.4,372.5,377.0,372.3,378.4,381.9,377.0,374.7,365.5,364.5,0,norm,1.376,1.898,-1.677,-1.143,-5.248,-5.181,-1.763,-1.382,-1.407,-1.839,1.462,-2.071,384.0,376.5,-4.499,-8.194,1.258,-1.576,8.034,5.294,-4.988,-8.144,21,4.419,4.483,4.86,4.344,1.657,1.183,1.239,1.33,21,4.958,5.045,40,218.549897886,norm,0,75,75,75,288.135,288.142,288.1515548,288.152,288.153,288.155,up,1,1.18416080007,8.81583919993,001,306,1366_768,Intel(R) Core(TM) i7-8750H CPU @ 2.20GHz,orientation_search,GHUM-L-P55205,Intel(R) UHD Graphics 630,2018_Nov_08_1324,testMonitor,
25.4,-5.5,-0.2,7.3,36,0,17.1,11.0,8.1,16.2,8.256,7.602,7.759,8.193,8.31,7.842,8.325,5.111,-4.93,-8.213,1.219,-1.2,7.948,4.583,-4.45,-7.505,12.7,-14.6,-8.042,0.9,9.9,4.5,2.6,15.2,36,4.9,1,5,prime,10,0,89,norm,36,-4.6,up,norm,5.41490680666,-3.3,0.6,6.1,10.2,5,,8.8,-7.7,10,5,7.756,4.671,2.084,-1.94,-4.781,-8.09,-3.9,5,94.4,-8.111,-8.339,0,-7.767,-8.071,-4.582,-4.547,-4.337,-4.478,4.386,8.445,11,-1.827,1.938,4.461,8.028,-8.035,-8.488,-1.566,1.862,12.0,2.6,6.4,0.5,-1.0,8.6,-14.4,10.7,15.1,10.3,0,norm,1.335,1.101,-1.788,-1.201,-5.141,-4.681,-1.596,-1.42,-1.901,-1.728,1.889,-1.541,5.6,-8.3,-5.164,-7.942,1.519,-1.126,7.914,4.345,-5.171,-8.428,22,4.637,5.165,4.778,4.896,1.185,1.566,1.212,1.543,22,4.926,4.771,80,218.549897886,norm,0,76,76,76,289.361,289.37,289.3845205,289.385,289.386,289.388,up,1,2.08029940003,7.91970059997,001,306,1366_768,Intel(R) Core(TM) i7-8750H CPU @ 2.20GHz,orientation_search,GHUM-L-P55205,Intel(R) UHD Graphics 630,2018_Nov_08_1324,testMonitor,
1.4,11.4,-4.9,11.8,36,0,-0.9,23.5,14.2,0.5,7.944,7.612,8.179,7.764,8.381,7.931,8.228,4.96,-4.875,-8.404,1.498,-1.399,8.371,4.53,-4.787,-8.395,,5.3,-8.355,7.9,-11.0,16.3,7.3,5.8,36,0.1,5,5,prime,10,0,74,norm,36,-4.86,up,norm,5.41490680666,3.9,25.4,9.7,19.5,5,12.6,-2.2,17.0,10,5,8.35,4.997,1.427,-1.569,-5.226,-8.312,-7.6,5,79.4,-7.596,-8.426,0,-8.312,-8.427,-4.991,-5.01,-4.845,-4.573,4.752,8.188,35,-1.195,1.187,4.489,7.749,-7.555,-8.432,-1.957,1.74,23.2,7.4,3.6,-1.1,-2.7,-2.4,4.2,6.1,14.0,23.0,1,norm,1.411,1.51,-1.483,-1.686,-4.759,-5.239,-2.086,-1.586,-1.561,-1.926,1.742,-1.647,5.5,-14.6,-4.592,-8.38,1.595,-1.443,8.172,4.608,-4.529,-8.231,22,4.325,4.981,4.52,5.264,1.205,1.572,1.77,2.005,22,4.313,4.63,80,218.549897886,norm,0,77,77,77,291.484,291.49,291.5003698,291.501,291.502,291.503,down,0,3.20004839997,-10,001,306,1366_768,Intel(R) Core(TM) i7-8750H CPU @ 2.20GHz,orientation_search,GHUM-L-P55205,Intel(R) UHD Graphics 630,2018_Nov_08_1324,testMonitor,
4.9,1.0,-14.6,1.9,36,0,20.6,1.4,8.5,-4.6,7.672,7.716,8.344,7.809,7.704,8.008,7.547,5.123,-4.551,-7.562,1.476,-1.139,8.113,5.271,-5.19,-8.237,1.4,17.4,-8.079,-2.3,4.1,6.9,-2.9,6.3,36,25.4,3,5,prime,10,0,100,norm,36,-4.815,down,norm,5.41490680666,-9.6,-6.2,-7.0,6.3,0,15.6,-12.7,0.7,10,5,7.613,5.132,1.132,-1.43,-5.286,-8.478,22.0,5,105.4,-7.922,-8.135,0,-8.411,-7.662,-4.402,-5.001,-4.73,-5.159,4.384,8.003,18,-1.792,1.303,5.14,8.233,-8.129,-8.242,-2.012,1.183,23.2,2.3,-12.4,14.4,2.4,-4.0,15.3,8.9,8.4,1.4,2,norm,1.693,1.798,-1.957,-1.427,-4.766,-4.652,-2.05,-1.209,-1.572,-1.968,2.065,-1.346,-0.4,,-5.197,-7.583,1.558,-1.68,7.842,5.056,-5.267,-7.662,22,4.506,5.255,4.783,4.724,1.785,1.145,1.732,1.782,22,5.102,4.552,80,218.549897886,norm,0,78,78,78,295.737,295.743,295.7494801,295.75,295.751,295.753,up,0,0.997650499921,-10,001,306,1366_768,Intel(R) Core(TM) i7-8750H CPU @ 2.20GHz,orientation_search,GHUM-L-P55205,Intel(R) UHD Graphics 630,2018_Nov_08_1324,testMonitor,
-14.6,11.9,-0.4,0.7,36,0,13.2,14.4,1.6,12.2,7.834,8.407,8.021,7.602,8.449,7.961,8.316,4.907,-4.452,-8.434,1.268,-1.546,7.832,4.766,-4.928,-7.519,8.3,18.5,-8.185,6.8,15.5,12.3,1.3,2.4,36,13.8,3,5,prime,10,0,95,norm,36,-5.298,down,norm,5.41490680666,13.6,-6.5,-5.0,-2.9,0,14.0,-7.5,-4.8,10,5,8.454,4.876,1.514,-2.052,-5.026,-7.623,6.7,5,100.4,-8.132,-7.808,0,-8.125,-8.367,-5.299,-4.556,-5.032,-5.104,5.029,7.53,18,-1.652,1.373,5.222,8.091,-7.809,-8.166,-1.905,1.195,9.9,-3.7,-10.4,-3.5,5.3,-2.4,25.4,-10.7,7.2,1.5,3,norm,1.882,1.53,-1.442,-1.309,-4.44,-5.175,-1.488,-1.746,-1.797,-1.115,1.704,-1.801,-7.8,,-4.902,-8.352,1.951,-1.422,8.076,4.884,-4.841,-8.31,22,5.252,4.85,4.354,5.103,1.121,1.266,1.292,1.794,22,4.787,5.137,80,218.549897886,norm,0,79,79,79,297.781,297.786,297.7990909,297.799,297.801,297.802,down,1,2.77177680004,7.22822319996,001,306,1366_768,Intel(R) Core(TM) i7-8750H CPU @ 2.20GHz,orientation_search,GHUM-L-P55205,Intel(R) UHD Graphics 630,2018_Nov_08_1324,testMonitor,
25.4,1.0,-2.0,-14.6,36,0,9.9,15.1,14.8,18.1,7.528,8.394,8.443,8.149,8.286,7.532,8.04,5.179,-4.408,-8.412,1.65,-1.949,8.226,4.922,-4.663,-8.276,-1.4,12.1,-7.656,12.0,15.5,23.7,2.6,8.8,36,,4,5,prime,10,0,118,norm,36,-4.656,up,norm,5.41490680666,14.2,4.0,8.9,5.5,3,-1.0,-10.3,10.6,10,5,7.995,5.144,1.284,-1.213,-4.554,-8.233,0.5,5,123.4,-8.346,-7.507,0,-7.696,-8.152,-4.525,-4.581,-4.659,-4.645,5.174,8.288,27,-1.419,1.923,4.866,8.023,-7.881,-7.703,-1.939,1.48,9.6,4.6,8.8,6.6,1.0,24.1,-3.1,7.5,18.3,3.1,4,norm,1.837,2.07,-2.066,-1.331,-5.259,-4.337,-1.828,-1.821,-1.257,-1.951,1.673,-1.236,4.0,7.4,-4.347,-7.715,1.26,-2.019,8.191,4.59,-5.13,-8.287,22,4.615,4.879,4.555,4.961,1.607,2.004,1.195,1.524,22,4.543,4.949,80,218.549897886,norm,0,80,80,80,300.595,300.601,300.6135716,300.614,300.615,300.617,down,0,1.54965109995,-10,001,306,1366_768,Intel(R) Core(TM) i7-8750H CPU @ 2.20GHz,orientation_search,GHUM-L-P55205,Intel(R) UHD Graphics 630,2018_Nov_08_1324,testMonitor,
127.4,,115.8,121.5,36,0,116.8,120.4,119.0,124.2,8.48,7.601,7.813,8.398,8.411,8.275,7.815,5.282,-5.284,-7.697,1.488,-1.983,8.311,4.573,-4.791,-8.126,129.9,122.1,-8.05,131.0,125.8,122.6,114.1,117.4,36,125.9,3,5,probe,5,0,119,norm,36,-5.092,up,norm,124.124456238,121.6,125.4,130.6,126.4,5,131.1,124.7,126.1,10,5,7.947,4.785,2.076,-1.63,-4.746,-8.152,130.2,1,5.1,-8.404,-8.346,0,-8.094,-7.844,-4.953,-4.453,-4.895,-5.203,4.434,7.797,23,-1.584,1.117,4.908,8.119,-8.045,-7.679,-1.336,1.492,127.6,124.3,122.1,134.1,125.3,126.4,130.7,124.8,132.3,123.0,0,norm,1.774,1.295,-2.024,-1.932,-5.253,-4.654,-1.526,-1.727,-1.41,-1.217,1.168,-1.211,128.6,127.8,-5.192,-8.202,1.897,-2.094,8.33,4.327,-4.878,-8.292,23,4.315,4.368,4.774,4.914,1.812,1.877,1.954,1.325,23,4.524,5.188,0,5.41490680666,norm,0,81,81,81,303.204,303.21,303.2145349,303.215,303.216,303.218,up,1,1.56711609999,8.43288390001,001,306,1366_768,Intel(R) Core(TM) i7-8750H CPU @ 2.20GHz,orientation_search,GHUM-L-P55205,Intel(R) UHD Graphics 630,2018_Nov_08_1324,testMonitor,
105.9,103.5,103.3,111.0,36,10,96.3,94.8,101.9,104.9,7.903,7.976,8.494,8.161,7.733,8.433,8.175,4.339,-4.411,-8.252,1.895,-1.238,7.619,4.823,-4.93,-7.703,104.0,108.2,-7.919,112.7,101.6,102.1,82.7,109.5,36,94.7,1,5,prime,10,0,103,norm,36,-5.105,up,norm,102.679019584,91.9,86.0,114.7,102.8,4,107.0,86.8,115.9,10,6,8.377,4.968,1.428,-1.194,-4.703,-7.568,,6,205.7,-7.516,-7.865,10,-7.778,-7.737,-4.699,-4.854,-4.348,-4.969,4.782,8.166,10,-1.787,1.923,5.139,8.4,-8.173,-8.432,-1.805,1.336,122.7,100.3,94.7,110.6,117.3,103.4,90.2,104.9,99.6,97.6,0,norm,1.767,1.826,-1.433,-1.775,-4.676,-4.484,-1.4,-1.71,-1.893,-1.447,1.871,-1.445,112.4,117.9,-4.642,-7.733,1.254,-1.703,8.431,4.914,-4.343,-7.864,24,4.486,4.421,4.494,4.582,1.13,1.284,1.703,1.815,24,4.514,4.441,0,5.41490680666,norm,0,82,82,82,304.807,304.817,304.8293179,304.83,304.831,304.833,up,1,1.83498739998,8.16501260002,001,306,1366_768,Intel(R) Core(TM) i7-8750H CPU @ 2.20GHz,orientation_search,GHUM-L-P55205,Intel(R) UHD Graphics 630,2018_Nov_08_1324,testMonitor,
95.3,96.1,94.1,99.5,36,10,95.7,116.3,82.7,122.7,8.006,7.515,7.69,7.502,8.343,7.744,7.68,5.258,-4.634,-7.941,1.805,-1.786,8.099,4.707,-5.106,-8.463,108.1,104.3,-7.688,111.6,107.8,117.8,101.9,106.4,36,108.1,2,5,prime,10,0,64,norm,36,-4.939,up,norm,102.679019584,,85.6,94.9,107.8,5,90.0,92.4,107.6,10,6,8.12,4.815,1.75,-1.256,-4.586,-8.25,118.4,6,166.7,-7.962,-8.105,10,-8.427,-7.986,-4.355,-4.648,-4.332,-4.344,4.376,8.269,17,-1.826,1.726,4.735,8.383,-8.218,-7.916,-1.441,2.014,108.6,103.8,101.9,91.2,107.3,104.9,83.7,92.6,95.1,110.9,1,norm,1.108,1.377,-1.614,-1.132,-5.029,-5.044,-1.629,-2.009,-1.4,-1.453,1.218,-1.427,99.0,101.2,-4.459,-8.269,1.552,-1.502,7.582,5.174,-4.644,-8.287,24,4.956,4.544,5.3,5.059,1.41,1.194,1.746,1.918,24,4.676,5.023,0,5.41490680666,norm,0,83,83,83,306.693,306.702,306.7125612,306.713,306.714,306.716,up,1,3.58439909993,6.41560090007,001,306,1366_768,Intel(R) Core(TM) i7-8750H CPU @ 2.20GHz,orientation_search,GHUM-L-P55205,Intel(R) UHD Graphics 630,2018_Nov_08_1324,testMonitor,
84.9,100.9,104.3,114.9,36,10,109.4,97.0,98.6,122.7,8.023,8.343,8.258,8.1,8.312,7.768,8.345,4.984,-5.094,-8.109,1.538,-1.661,7.711,5.296,-4.443,-7.977,98.9,86.8,-7.688,90.2,97.6,96.0,101.5,104.7,36,104.6,0,5,prime,10,0,118,norm,36,-4.662,down,norm,102.679019584,105.9,107.5,110.6,103.1,2,107.8,97.7,92.6,10,6,7.793,4.612,1.882,-1.991,-4.984,-8.102,105.4,6,220.7,-8.493,-7.988,10,-7.538,-7.517,-4.581,-4.991,-4.74,-4.911,4.397,8.496,2,-2.027,1.7,4.516,7.509,-8.139,-7.943,-1.99,1.481,109.8,101.7,106.3,,82.7,121.3,97.1,100.1,106.5,88.7,2,norm,1.666,2.095,-1.597,-1.953,-5.117,-4.479,-1.481,-1.363,-2.086,-1.739,1.145,-1.396,108.2,103.9,-4.773,-7.637,1.55,-1.816,8.265,4.587,-4.406,-7.891,24,5.041,5.1,4.331,4.33,2.042,1.902,1.813,1.367,24,5.117,4.687,0,5.41490680666,norm,0,84,84,84,310.322,310.331,310.3447681,310.345,310.346,310.348,up,0,2.38534600008,-10,001,306,1366_768,Intel(R) Core(TM) i7-8750H CPU @ 2.20GHz,orientation_search,GHUM-L-P55205,Intel(R) UHD Graphics 630,2018_Nov_08_1324,testMonitor,
98.6,97.0,100.5,106.0,36,10,122.7,99.5,102.0,104.6,7.903,7.545,8.099,7.656,8.483,7.589,7.666,4.728,-4.526,-8.391,1.296,-1.812,8.077,4.712,-4.777,-8.184,98.1,112.8,-8.025,116.5,105.9,108.1,100.0,103.1,36,,4,5,prime,10,0,64,norm,36,-5.093,up,norm,102.679019584,101.6,104.0,101.8,107.3,3,102.2,92.9,94.9,10,6,7.805,5.274,2.038,-1.638,-5.177,-7.769,93.7,6,166.7,-7.711,-7.802,10,-7.881,-7.673,-4.537,-4.647,-4.524,-5.193,4.518,7.634,27,-1.318,1.845,5.197,8.338,-8.156,-8.324,-1.525,1.877,109.1,82.7,111.9,89.8,111.6,96.3,99.7,113.0,86.1,112.4,3,norm,1.351,1.774,-2.006,-1.595,-4.986,-4.42,-1.954,-1.15,-1.931,-1.987,1.245,-1.691,103.1,104.8,-4.447,-7.536,1.16,-1.826,8.073,4.969,-4.608,-7.94,24,4.872,4.88,4.882,4.383,1.883,1.297,1.768,1.958,24,4.371,5.245,0,5.41490680666,norm,0,85,85,85,313.762,313.814,313.8173393,313.818,313.819,313.82,up,1,3.84143230005,6.15856769995,001,306,1366_768,Intel(R) Core(TM) i7-8750H CPU @ 2.20GHz,orientation_search,GHUM-L-P55205,Intel(R) UHD Graphics 630,2018_Nov_08_1324,testMonitor,
97.9,95.0,119.5,115.8,36,10,106.2,99.7,104.2,106.7,8.289,7.995,7.922,8.32,8.019,7.599,8.05,4.685,-4.318,-8.302,1.969,-1.152,8.315,4.403,-5.067,-8.465,107.6,89.2,-8.475,116.7,98.8,103.9,101.5,122.7,36,102.4,1,5,prime,10,0,88,norm,36,-4.611,down,norm,102.679019584,103.8,87.9,107.2,119.8,1,104.5,97.1,119.3,10,6,8.036,4.624,1.793,-1.626,-4.437,-7.513,95.0,6,190.7,-8.168,-7.505,10,-7.978,-7.624,-5.262,-4.567,-4.935,-5.02,4.659,7.601,7,-1.903,1.267,4.565,8.303,-7.997,-7.793,-1.293,1.198,120.6,91.2,92.2,82.7,94.7,104.7,,88.1,112.9,109.4,4,norm,1.341,1.535,-1.828,-1.317,-4.759,-4.565,-1.449,-1.428,-1.346,-1.684,1.803,-1.377,109.6,99.9,-4.67,-7.544,2.024,-1.139,8.114,4.526,-4.999,-7.734,24,5.212,5.041,4.819,4.943,1.76,1.955,1.742,1.395,24,4.543,5.143,0,5.41490680666,norm,0,86,86,86,317.678,317.686,317.6937335,317.694,317.695,317.697,down,1,2.68290920008,7.31709079992,001,306,1366_768,Intel(R) Core(TM) i7-8750H CPU @ 2.20GHz,orientation_search,GHUM-L-P55205,Intel(R) UHD Graphics 630,2018_Nov_08_1324,testMonitor,
88.8,86.9,107.0,106.0,36,10,87.5,103.7,99.8,122.7,8.238,8.402,8.48,8.125,8.156,7.733,7.82,5.149,-4.503,-7.918,1.424,-1.533,7.517,5.105,-4.532,-8.254,,109.6,-8.127,108.5,104.4,106.6,117.6,97.6,36,105.9,5,5,prime,10,0,119,norm,36,-5.012,up,norm,102.679019584,110.8,114.4,99.0,108.3,5,91.8,87.7,98.0,10,6,7.564,4.802,1.22,-1.122,-4.867,-8.424,92.0,6,221.7,-7.788,-8.152,10,-7.908,-7.814,-4.627,-4.762,-4.705,-5.288,4.48,7.7,35,-1.242,1.635,5.013,7.501,-7.542,-7.874,-2.086,1.661,114.2,97.3,109.9,96.7,101.6,96.9,110.1,99.2,82.7,100.0,5,norm,1.384,1.29,-1.144,-1.605,-4.519,-4.965,-1.287,-1.187,-1.594,-1.609,1.289,-1.155,105.6,105.8,-4.731,-7.878,2.016,-1.199,8.275,5.083,-4.917,-7.791,24,4.917,4.939,4.734,4.99,1.757,1.497,1.407,2.052,24,4.37,5.12,0,5.41490680666,norm,0,87,87,87,320.401,320.41,320.4255407,320.426,320.427,320.429,up,1,2.35133550002,7.64866449998,001,306,1366_768,Intel(R) Core(TM) i7-8750H CPU @ 2.20GHz,orientation_search,GHUM-L-P55205,Intel(R) UHD Graphics 630,2018_Nov_08_1324,testMonitor,
221.0,221.4,223.0,216.9,36,40,219.3,218.1,213.3,215.8,8.142,8.5,7.807,7.741,7.985,7.791,7.727,4.938,-4.303,-8.456,1.131,-1.546,7.83,5.19,-4.387,-7.705,221.6,217.5,-7.866,214.8,220.3,220.1,228.9,217.2,36,210.1,0,5,probe,5,0,106,norm,36,-5.228,down,norm,219.062325058,218.8,225.7,223.8,214.1,2,219.1,228.1,211.7,10,6,8.432,4.836,1.128,-1.638,-4.815,-7.946,212.1,1,113.1,-8.221,-8.328,10,-7.992,-7.785,-5.265,-5.08,-5.072,-4.884,4.865,8.139,2,-1.147,1.207,4.412,8.434,-8.394,-7.553,-1.894,1.751,222.3,224.7,229.1,,214.0,220.7,209.4,224.9,221.6,226.9,0,norm,1.859,1.163,-1.102,-1.312,-5.031,-5.017,-1.837,-1.908,-1.891,-1.21,1.561,-1.332,222.0,220.3,-4.351,-7.541,1.659,-1.389,7.859,4.96,-5.073,-7.873,25,5.021,4.953,4.66,4.838,1.773,1.527,1.33,2.041,25,4.37,4.779,10,102.679019584,norm,0,88,88,88,322.803,322.812,322.8246165,322.825,322.826,322.828,down,1,2.61781929992,7.38218070008,001,306,1366_768,Intel(R) Core(TM) i7-8750H CPU @ 2.20GHz,orientation_search,GHUM-L-P55205,Intel(R) UHD Graphics 630,2018_Nov_08_1324,testMonitor,
153.9,157.2,150.1,157.5,36,40,150.2,153.8,169.0,137.7,8.485,8.349,8.126,8.444,8.26,8.424,8.31,4.845,-5.258,-7.568,1.828,-1.618,7.862,4.714,-4.451,-7.99,154.4,143.9,-8.079,152.4,153.9,144.8,155.4,155.7,36,147.5,3,5,prime,10,0,110,norm,36,-4.5,down,norm,152.244385069,147.2,140.4,161.3,154.2,0,160.2,157.5,172.2,10,6,7.977,4.368,1.724,-2.048,-4.636,-8.138,159.4,6,262.2,-8.147,-8.459,40,-7.558,-8.406,-5.22,-4.477,-4.777,-5.272,4.304,8.447,18,-2.061,1.639,4.362,8.082,-8.296,-8.472,-1.427,1.67,146.2,156.4,149.7,167.6,150.7,149.1,144.4,132.2,169.4,146.5,0,norm,1.417,1.403,-1.853,-1.984,-5.098,-4.678,-1.831,-1.857,-1.245,-1.773,1.105,-1.515,136.0,,-4.83,-8.441,1.272,-1.78,7.944,5.249,-4.571,-7.709,26,4.611,4.693,4.852,4.678,1.193,1.761,1.566,1.128,26,4.38,4.914,40,102.679019584,norm,0,89,89,89,325.467,325.475,325.4902487,325.49,325.492,325.493,down,1,4.50105000008,5.49894999992,001,306,1366_768,Intel(R) Core(TM) i7-8750H CPU @ 2.20GHz,orientation_search,GHUM-L-P55205,Intel(R) UHD Graphics 630,2018_Nov_08_1324,testMonitor,
155.9,134.0,151.7,144.1,36,40,154.6,165.0,141.6,147.2,7.607,7.891,8.065,7.976,8.073,8.08,8.33,5.274,-4.5,-8.363,1.901,-1.198,7.761,4.783,-5.149,-8.109,156.2,161.5,-7.689,145.0,147.9,148.2,149.3,132.2,36,,4,5,prime,10,0,100,norm,36,-4.61,up,norm,152.244385069,138.0,161.5,137.4,142.4,3,148.2,140.0,146.4,10,6,7.813,4.64,1.488,-2.023,-4.786,-8.255,172.2,6,252.2,-7.708,-8.089,40,-7.648,-8.251,-5.028,-4.472,-4.7,-5.137,5.263,7.861,27,-1.801,1.882,4.397,8.395,-7.505,-7.778,-1.65,1.202,161.2,151.8,151.0,147.8,142.0,148.0,150.2,147.6,163.4,143.7,1,norm,1.476,1.933,-1.119,-1.723,-5.214,-5.202,-2.081,-1.713,-1.609,-1.674,1.243,-1.321,136.2,151.2,-5.083,-8.264,1.183,-1.581,7.911,4.352,-5.18,-8.205,26,5.217,5.244,4.551,4.992,1.305,1.403,1.82,1.974,26,4.812,4.416,40,102.679019584,norm,0,90,90,90,330.016,330.026,330.0395691,330.04,330.041,330.043,up,1,1.40503829997,8.59496170003,001,306,1366_768,Intel(R) Core(TM) i7-8750H CPU @ 2.20GHz,orientation_search,GHUM-L-P55205,Intel(R) UHD Graphics 630,2018_Nov_08_1324,testMonitor,
,147.8,152.8,152.5,36,40,141.9,132.2,172.2,158.2,7.688,8.0,7.972,8.144,8.411,8.284,7.506,4.426,-5.056,-7.916,1.341,-1.389,7.801,4.852,-5.037,-7.88,157.4,141.4,-8.22,155.0,161.0,154.3,147.9,158.1,36,144.4,3,5,prime,10,0,113,norm,36,-4.399,up,norm,152.244385069,148.8,157.8,156.5,164.2,4,144.8,150.7,140.9,10,6,8.433,4.731,2.05,-1.267,-4.715,-8.103,156.2,6,265.2,-7.509,-7.826,40,-8.036,-8.477,-5.188,-4.863,-5.228,-4.759,4.412,8.431,22,-1.767,1.535,4.824,7.76,-7.821,-7.534,-1.54,1.433,149.9,149.3,138.5,154.0,156.1,168.6,148.9,137.9,145.8,141.3,2,norm,1.12,2.083,-1.97,-1.735,-5.235,-4.789,-1.528,-1.616,-1.439,-1.682,1.613,-1.411,146.9,159.6,-5.01,-7.589,1.287,-1.876,8.47,4.766,-5.248,-8.415,26,4.87,4.421,4.658,4.652,1.402,1.91,1.843,1.302,26,4.935,4.381,40,102.679019584,norm,0,91,91,91,331.467,331.475,331.489289,331.49,331.491,331.492,up,1,1.36914189998,8.63085810002,001,306,1366_768,Intel(R) Core(TM) i7-8750H CPU @ 2.20GHz,orientation_search,GHUM-L-P55205,Intel(R) UHD Graphics 630,2018_Nov_08_1324,testMonitor,
143.8,159.1,138.3,172.2,36,40,154.8,161.0,150.9,149.1,8.113,7.846,7.894,7.759,7.849,8.46,8.26,5.045,-4.73,-7.695,1.132,-1.583,7.906,4.631,-4.727,-7.721,158.2,152.5,-7.873,162.0,151.4,163.7,161.0,155.9,36,157.8,1,5,prime,10,0,110,norm,36,-4.743,up,norm,152.244385069,151.8,146.3,140.2,165.6,4,165.0,132.2,139.1,10,6,7.502,4.344,1.261,-1.944,-4.448,-7.721,,6,262.2,-7.955,-7.762,40,-7.698,-8.301,-4.707,-4.868,-4.421,-5.179,4.551,8.17,10,-1.425,1.141,4.747,7.623,-8.014,-7.875,-1.569,1.425,140.9,150.9,157.3,142.1,158.1,149.9,150.9,164.5,159.3,154.3,3,norm,1.174,1.126,-2.003,-1.851,-4.93,-5.035,-1.177,-1.342,-1.244,-1.329,1.511,-1.632,149.7,168.0,-4.769,-7.745,1.662,-1.219,8.468,4.943,-5.062,-8.395,26,4.973,5.258,4.487,4.961,1.976,1.151,1.462,1.819,26,4.357,4.936,40,102.679019584,norm,0,92,92,92,332.881,332.888,332.906161,332.906,332.908,332.909,up,1,0.952525700093,9.04747429991,001,306,1366_768,Intel(R) Core(TM) i7-8750H CPU @ 2.20GHz,orientation_search,GHUM-L-P55205,Intel(R) UHD Graphics 630,2018_Nov_08_1324,testMonitor,
172.2,136.2,157.6,165.3,36,40,150.6,150.8,,163.0,7.787,8.165,8.086,7.893,7.623,8.375,8.466,4.454,-4.864,-8.454,1.583,-1.751,7.699,4.927,-4.917,-7.946,165.9,170.3,-8.039,154.0,144.0,156.6,151.6,142.5,36,155.8,4,5,prime,10,0,119,norm,36,-4.803,up,norm,152.244385069,132.2,156.4,143.6,153.1,4,154.9,156.6,145.7,10,6,7.502,4.536,1.961,-1.931,-4.562,-8.408,156.8,6,271.2,-7.689,-7.699,40,-7.677,-8.143,-4.722,-4.891,-5.022,-5.126,4.768,7.73,28,-1.138,1.509,4.681,8.245,-7.762,-7.716,-1.344,1.388,162.8,135.8,158.9,158.5,164.1,158.7,167.5,152.2,147.6,145.5,4,norm,1.496,2.078,-1.567,-1.823,-4.968,-4.932,-1.965,-1.756,-1.21,-1.281,1.55,-1.588,161.6,155.9,-5.239,-7.504,1.846,-1.184,7.838,4.545,-4.922,-7.847,26,4.748,5.012,5.129,4.792,2.093,1.471,1.146,1.299,26,4.338,4.7,40,102.679019584,norm,0,93,93,93,333.882,333.889,333.9056753,333.906,333.907,333.909,up,1,2.16663560004,7.83336439996,001,306,1366_768,Intel(R) Core(TM) i7-8750H CPU @ 2.20GHz,orientation_search,GHUM-L-P55205,Intel(R) UHD Graphics 630,2018_Nov_08_1324,testMonitor,
151.3,134.6,141.3,132.2,36,40,152.3,147.3,149.2,151.2,8.169,8.361,7.982,8.416,7.531,8.166,7.602,4.649,-4.888,-8.038,1.161,-1.771,8.188,4.452,-4.427,-8.105,150.3,145.0,-7.734,165.5,162.1,144.1,154.9,138.8,36,156.8,0,5,prime,10,0,89,norm,36,-5.225,down,norm,152.244385069,154.2,165.2,153.2,141.7,2,148.4,140.2,165.1,10,6,7.625,4.969,1.378,-1.977,-4.877,-8.051,137.2,6,241.2,-8.169,-7.971,40,-8.014,-7.609,-4.717,-4.769,-4.711,-4.617,4.52,8.466,2,-2.089,1.368,5.049,7.814,-7.844,-8.163,-1.366,1.483,140.3,148.7,147.9,,153.9,144.9,172.2,152.4,155.0,153.6,5,norm,1.791,1.543,-1.78,-1.984,-4.479,-4.91,-1.468,-1.18,-1.824,-1.364,1.21,-1.583,155.7,152.7,-4.654,-8.095,1.931,-1.489,7.539,5.248,-4.687,-7.886,26,5.175,5.03,4.953,4.413,2.08,1.839,1.549,1.602,26,4.731,4.476,40,102.679019584,norm,0,94,94,94,336.095,336.104,336.1213896,336.122,336.123,336.125,down,1,1.18404790002,8.81595209998,001,306,1366_768,Intel(R) Core(TM) i7-8750H CPU @ 2.20GHz,orientation_search,GHUM-L-P55205,Intel(R) UHD Graphics 630,2018_Nov_08_1324,testMonitor,
259.6,252.3,245.3,255.8,36,10,253.6,248.7,256.0,252.1,8.005,7.962,8.392,8.394,7.572,7.547,7.85,5.185,-4.77,-8.499,1.447,-1.878,7.52,5.024,-5.215,-7.819,249.0,255.3,-8.066,250.1,254.5,242.1,243.8,256.3,36,245.4,1,5,probe,5,0,61,norm,36,-4.56,up,norm,252.133471426,254.2,250.6,251.8,250.7,4,244.2,251.7,253.8,10,6,8.462,4.957,1.545,-1.608,-5.006,-8.408,,2,191.1,-8.424,-8.363,40,-7.865,-7.986,-5.252,-5.266,-4.314,-5.219,5.041,8.372,10,-1.318,1.504,4.96,7.813,-8.389,-8.458,-1.431,1.59,247.8,256.1,252.7,262.1,249.8,243.5,254.8,260.0,252.6,258.9,0,norm,1.501,1.836,-1.998,-1.915,-5.194,-4.552,-1.955,-1.373,-1.992,-1.806,1.998,-1.235,245.7,255.0,-4.618,-8.442,1.325,-1.763,7.878,4.686,-4.681,-7.601,27,4.828,4.874,5.093,4.368,1.729,1.402,1.237,1.228,27,4.588,4.677,40,152.244385069,norm,0,95,95,95,337.324,337.33,337.3386563,337.339,337.34,337.342,up,1,1.0848367,8.9151633,001,306,1366_768,Intel(R) Core(TM) i7-8750H CPU @ 2.20GHz,orientation_search,GHUM-L-P55205,Intel(R) UHD Graphics 630,2018_Nov_08_1324,testMonitor,
