d_ori_22,d_ori_23,d_ori_20,d_ori_21,set_size,ctpd,d_ori_24,d_ori_25,d_ori_28,d_ori_29,stim_pos_x_30,stim_pos_x_31,stim_pos_x_32,stim_pos_x_33,stim_pos_x_34,stim_pos_x_35,stim_pos_y_11,stim_pos_y_10,stim_pos_y_13,stim_pos_y_12,stim_pos_y_15,stim_pos_y_14,stim_pos_y_17,stim_pos_y_16,stim_pos_y_19,stim_pos_y_18,d_ori_35,d_ori_34,stim_pos_x_3,d_ori_31,d_ori_30,d_ori_33,d_ori_32,d_ori_26,test_set_size,d_ori_27,targetCol,dsd_test,seq_type,dsd,blockRepN,targetDist,dtype_test,prime_set_size,stim_pos_y_25,correctResponse,dtype,distrMean,d_ori_17,d_ori_16,d_ori_15,d_ori_14,targetRow,d_ori_11,d_ori_13,d_ori_12,dsd_prime,streak_length_prime,stim_pos_y_35,stim_pos_y_34,stim_pos_y_33,stim_pos_y_32,stim_pos_y_31,stim_pos_y_30,d_ori_10,nextProbe,targetOri,stim_pos_x_1,stim_pos_x_2,ctpd_prime,stim_pos_x_4,stim_pos_x_5,stim_pos_x_6,stim_pos_x_7,stim_pos_x_8,stim_pos_x_9,stim_pos_y_28,stim_pos_y_29,targetPos,stim_pos_y_20,stim_pos_y_21,stim_pos_y_22,stim_pos_y_23,stim_pos_y_24,stim_pos_x_0,stim_pos_y_26,stim_pos_y_27,d_ori_9,d_ori_8,d_ori_3,d_ori_2,d_ori_1,d_ori_0,d_ori_7,d_ori_6,d_ori_5,d_ori_4,trialN,dtype_prime,stim_pos_x_18,stim_pos_x_19,stim_pos_x_12,stim_pos_x_13,stim_pos_x_10,stim_pos_x_11,stim_pos_x_16,stim_pos_x_17,stim_pos_x_14,stim_pos_x_15,stim_pos_y_9,stim_pos_y_8,d_ori_19,d_ori_18,stim_pos_y_1,stim_pos_y_0,stim_pos_y_3,stim_pos_y_2,stim_pos_y_5,stim_pos_y_4,stim_pos_y_7,stim_pos_y_6,totBlockN,stim_pos_x_27,stim_pos_x_26,stim_pos_x_25,stim_pos_x_24,stim_pos_x_23,stim_pos_x_22,stim_pos_x_21,stim_pos_x_20,blockN,stim_pos_x_29,stim_pos_x_28,prevDistrCTPD,prevDistrMean,prevDistrType,trials.thisRepN,trials.thisTrialN,trials.thisN,trials.thisIndex,timeStart,timeBeforeDraw,timeDraw,timeAfterSaving,timeAfterWritingToTemp,timeAfterPreparingNext,answer,correct,rt,trialScore,session,participant,resolution,cpu_info,expName,pc_name,graphic_card,date,monitorName,
,255.5,249.0,258.8,36,-80,257.2,257.6,276.3,251.4,7.906,8.374,8.266,8.431,7.864,7.813,7.963,4.994,-5.19,-7.967,1.84,-1.244,8.026,5.149,-4.614,-8.465,267.9,270.1,-8.45,242.3,265.5,261.8,255.7,249.3,36,270.4,3,5,prime,10,0,78,norm,36,-4.748,up,norm,258.55495218,262.5,272.5,257.1,251.1,4,238.6,248.7,246.4,10,6,8.094,4.817,1.415,-2.056,-4.981,-7.948,261.0,6,336.6,-7.797,-8.296,-80,-8.484,-7.971,-5.108,-4.904,-4.96,-4.918,4.58,7.96,22,-1.271,2.054,4.914,7.769,-7.908,-7.81,-2.049,1.227,273.4,261.3,246.9,253.8,251.1,278.6,255.1,253.8,266.7,258.5,0,norm,1.553,1.293,-1.822,-1.233,-5.153,-4.799,-1.259,-1.129,-1.763,-1.315,1.794,-1.452,253.8,254.9,-4.327,-8.172,1.958,-1.778,8.163,5.181,-4.788,-8.059,0,4.783,4.849,4.658,5.198,1.252,2.076,1.512,2.024,0,4.77,4.694,,,,0,0,0,0,335.816,335.845,335.866049149,335.866,335.866,335.869,up,1,1.09031829442,8.90968170558,001,012,1920_1080,Intel(R) Core(TM) i5-3570 CPU @ 3.40GHz,orientation_search,LEPPC096,Intel(R) HD Graphics 2500,2018_Nov_17_1512,testMonitor,
258.7,256.9,259.1,260.8,36,-80,268.9,266.4,262.8,272.2,7.728,8.157,7.814,7.708,8.149,7.8,8.486,4.791,-5.202,-8.459,1.44,-1.435,8.007,4.437,-5.249,-8.077,261.0,261.0,-7.786,258.7,257.9,275.1,255.7,257.8,36,251.1,2,5,prime,10,0,86,norm,36,-4.417,up,norm,258.55495218,272.9,261.9,,238.6,3,255.7,258.0,254.0,10,6,8.282,4.954,1.732,-1.582,-5.078,-8.075,255.1,6,344.6,-7.583,-7.808,-80,-8.318,-8.426,-4.494,-4.604,-4.462,-4.817,4.415,7.931,15,-1.344,2.067,5.116,8.113,-8.424,-8.335,-1.196,1.946,278.6,253.2,259.9,252.5,256.2,260.0,239.5,268.5,277.2,276.9,1,norm,1.245,1.397,-1.651,-1.984,-5.119,-4.876,-1.14,-1.758,-1.474,-2.068,2.082,-1.269,261.1,243.7,-5.137,-7.865,1.972,-2.08,7.716,4.973,-4.91,-7.553,0,4.688,4.934,5.285,4.513,1.793,1.436,1.584,1.411,0,5.186,4.37,,,,0,1,1,1,336.993,337.006,337.024634924,337.025,337.026,337.028,up,1,2.9513682564,7.0486317436,001,012,1920_1080,Intel(R) Core(TM) i5-3570 CPU @ 3.40GHz,orientation_search,LEPPC096,Intel(R) HD Graphics 2500,2018_Nov_17_1512,testMonitor,
238.6,254.4,269.4,251.1,36,-80,250.9,254.0,256.8,259.3,8.186,8.161,7.619,8.103,8.484,7.592,7.63,4.868,-4.561,-7.556,1.994,-1.635,8.265,5.188,-5.102,-8.102,278.6,254.9,-7.674,254.3,256.0,,268.3,265.5,36,274.9,5,5,prime,10,0,118,norm,36,-4.362,up,norm,258.55495218,275.8,243.9,242.9,260.5,3,240.2,270.2,264.9,10,6,7.695,5.105,1.487,-1.596,-4.73,-8.042,275.8,6,376.6,-8.437,-7.98,-80,-8.393,-7.78,-4.73,-5.158,-4.374,-4.47,4.984,8.076,33,-1.47,1.235,4.779,7.669,-8.132,-7.853,-1.952,1.728,255.1,267.9,251.1,267.0,252.0,251.1,247.0,254.2,253.4,258.2,2,norm,1.761,1.716,-1.407,-2.032,-4.806,-4.736,-1.206,-1.15,-1.641,-1.329,2.043,-1.704,247.4,259.7,-4.332,-7.738,1.742,-1.937,7.82,4.837,-4.305,-7.639,0,4.493,5.144,4.555,4.826,1.552,1.406,1.457,1.64,0,5.204,4.956,,,,0,2,2,2,339.998,340.007,340.014188006,340.014,340.016,340.019,up,1,2.66791601053,7.33208398947,001,012,1920_1080,Intel(R) Core(TM) i5-3570 CPU @ 3.40GHz,orientation_search,LEPPC096,Intel(R) HD Graphics 2500,2018_Nov_17_1512,testMonitor,
251.4,259.9,248.8,257.8,36,-80,260.6,270.1,258.9,251.9,7.72,8.392,8.025,7.747,7.718,8.325,7.529,5.17,-4.366,-7.538,1.867,-1.435,7.796,4.685,-5.248,-8.493,274.8,260.8,-7.978,254.4,257.5,255.3,238.6,259.6,36,,4,5,prime,10,0,84,norm,36,-4.336,up,norm,258.55495218,256.9,259.9,269.4,253.2,3,263.8,257.8,266.9,10,6,7.517,4.876,1.515,-1.994,-4.86,-8.42,255.9,6,342.6,-7.878,-8.461,-80,-7.779,-8.205,-4.939,-4.524,-5.225,-4.334,5.246,8.057,27,-1.824,1.754,5.252,7.886,-8.391,-7.649,-1.812,1.653,266.0,245.1,242.0,254.8,278.6,266.4,257.9,263.1,247.8,258.1,3,norm,1.259,1.86,-2.059,-1.904,-5.013,-4.953,-1.1,-1.83,-1.77,-1.962,1.56,-1.892,268.1,263.1,-4.68,-7.662,1.493,-1.404,7.563,4.445,-4.74,-7.808,0,5.083,4.71,5.206,4.377,2.089,1.517,1.771,1.473,0,5.087,4.802,,,,0,3,3,3,342.719,342.729,342.743193581,342.743,342.745,342.748,up,1,2.44828806084,7.55171193916,001,012,1920_1080,Intel(R) Core(TM) i5-3570 CPU @ 3.40GHz,orientation_search,LEPPC096,Intel(R) HD Graphics 2500,2018_Nov_17_1512,testMonitor,
250.7,269.7,,244.6,36,-80,260.2,249.5,251.0,258.4,8.202,8.084,8.454,8.391,7.996,8.011,8.03,4.613,-5.139,-7.953,1.915,-1.135,8.392,4.988,-4.827,-8.494,257.0,268.3,-8.305,259.7,267.9,246.2,260.6,254.2,36,269.5,3,5,prime,10,0,110,norm,36,-5.144,down,norm,258.55495218,238.6,267.8,263.8,254.1,2,274.0,269.3,264.3,10,6,8.312,4.461,1.206,-1.55,-4.899,-8.27,272.3,6,368.6,-7.593,-8.274,-80,-8.493,-7.759,-4.658,-4.83,-5.035,-4.91,5.188,7.523,20,-2.074,2.089,5.113,7.586,-8.371,-8.079,-1.263,1.454,248.9,267.9,249.3,278.3,264.8,266.0,268.4,249.6,278.6,273.2,4,norm,2.061,1.268,-2.007,-2.024,-4.89,-4.902,-1.291,-2.085,-1.768,-1.114,1.144,-1.103,255.8,258.7,-4.471,-7.511,1.852,-1.42,7.612,4.921,-4.317,-7.532,0,5.133,5.267,4.494,4.393,1.994,1.185,1.616,1.969,0,5.245,5.276,,,,0,4,4,4,345.228,345.237,345.254693189,345.255,345.257,345.259,up,0,3.01724360153,-10,001,012,1920_1080,Intel(R) Core(TM) i5-3570 CPU @ 3.40GHz,orientation_search,LEPPC096,Intel(R) HD Graphics 2500,2018_Nov_17_1512,testMonitor,
258.2,264.0,255.7,257.9,36,-80,268.7,254.0,267.0,278.6,8.336,7.856,8.299,7.859,8.188,8.349,7.875,4.575,-4.7,-8.108,1.627,-1.288,8.272,4.776,-4.347,-8.2,241.3,249.0,-7.668,265.5,238.7,268.9,244.7,242.1,36,239.8,2,5,prime,10,0,111,norm,36,-4.64,up,norm,258.55495218,277.0,,243.7,263.9,4,257.1,256.0,262.0,10,6,7.562,4.655,1.531,-1.372,-4.897,-8.302,253.2,6,369.6,-7.579,-7.791,-80,-7.756,-8.372,-5.018,-4.499,-4.396,-4.743,4.719,7.57,16,-1.617,1.649,4.729,8.151,-7.807,-8.033,-1.575,1.741,256.0,265.8,251.6,240.7,247.9,238.6,244.8,251.1,264.4,252.1,5,norm,1.883,1.641,-2.069,-1.99,-4.393,-4.441,-1.328,-1.254,-1.219,-2.095,1.403,-1.691,269.7,250.1,-4.409,-8.212,1.831,-1.753,8.488,4.369,-4.487,-8.366,0,4.389,4.751,4.483,5.161,1.823,1.618,1.44,1.219,0,5.14,4.954,,,,0,5,5,5,349.346,349.356,349.372922653,349.373,349.375,349.377,up,1,3.43897125785,6.56102874215,001,012,1920_1080,Intel(R) Core(TM) i5-3570 CPU @ 3.40GHz,orientation_search,LEPPC096,Intel(R) HD Graphics 2500,2018_Nov_17_1512,testMonitor,
290.1,302.9,294.9,291.5,36,80,298.2,284.8,289.3,287.3,8.449,8.149,7.521,8.128,8.058,8.446,8.148,4.438,-4.763,-8.0,1.807,-1.237,8.423,4.32,-5.133,-7.987,293.1,296.5,-7.635,293.7,295.9,295.8,298.3,297.4,36,289.2,0,5,probe,5,0,113,norm,36,-4.67,up,norm,294.831762938,301.4,304.4,292.8,286.1,4,301.4,304.8,298.6,10,6,7.766,4.706,1.939,-1.144,-4.838,-8.424,293.9,1,181.8,-7.558,-7.552,-80,-8.097,-7.846,-4.501,-4.519,-4.929,-4.563,4.592,7.597,4,-1.51,1.725,4.796,7.893,-8.238,-8.386,-1.342,1.341,296.8,293.6,297.7,303.8,291.4,286.2,293.5,296.4,300.1,,0,norm,1.353,1.371,-1.51,-1.765,-4.681,-4.302,-1.707,-1.338,-1.808,-1.166,1.115,-1.937,285.3,291.6,-4.357,-7.896,2.01,-1.612,7.702,5.091,-4.475,-8.408,1,4.972,4.657,5.259,5.123,1.885,1.673,1.387,1.656,1,5.236,4.75,-80,258.55495218,norm,0,6,6,6,352.837,352.845,352.853794471,352.854,352.856,352.858,up,1,2.2640232736,7.7359767264,001,012,1920_1080,Intel(R) Core(TM) i5-3570 CPU @ 3.40GHz,orientation_search,LEPPC096,Intel(R) HD Graphics 2500,2018_Nov_17_1512,testMonitor,
249.3,262.1,256.8,269.6,36,-10,255.5,267.7,252.8,252.9,8.036,8.175,7.784,8.202,8.297,8.073,8.367,4.37,-4.43,-8.289,1.797,-1.305,8.16,4.583,-4.662,-7.938,263.7,256.8,-8.012,253.6,274.4,274.2,254.5,262.9,36,265.9,1,5,prime,10,0,107,norm,36,-4.847,up,norm,264.184688964,267.8,249.6,276.9,284.2,3,261.6,257.6,251.3,10,5,7.617,4.665,1.721,-1.6,-4.962,-7.955,267.6,5,371.2,-7.923,-8.408,-10,-8.362,-8.325,-4.885,-4.821,-4.615,-4.452,4.759,7.663,9,-1.164,1.464,5.074,7.631,-8.137,-7.771,-1.656,1.584,,279.2,271.9,268.2,244.2,264.4,255.3,266.7,271.9,282.5,0,norm,1.859,1.732,-1.156,-2.089,-4.347,-5.291,-1.578,-1.648,-1.304,-1.449,1.983,-2.014,246.7,263.6,-5.079,-8.088,1.72,-1.158,7.661,4.711,-4.383,-8.403,2,4.908,5.025,4.524,4.363,1.703,1.427,1.16,1.808,2,4.722,4.644,80,258.55495218,norm,0,7,7,7,355.154,355.164,355.175903329,355.176,355.178,355.18,up,1,1.44196618169,8.55803381831,001,012,1920_1080,Intel(R) Core(TM) i5-3570 CPU @ 3.40GHz,orientation_search,LEPPC096,Intel(R) HD Graphics 2500,2018_Nov_17_1512,testMonitor,
254.5,264.6,254.9,263.3,36,-10,263.3,244.2,256.1,275.2,7.687,8.265,7.833,8.251,8.24,8.368,7.934,4.474,-4.544,-8.136,1.432,-1.508,7.94,4.54,-4.576,-8.448,261.4,253.4,-8.37,277.7,264.7,273.6,256.2,266.0,36,267.9,2,5,prime,10,0,100,norm,36,-5.209,up,norm,264.184688964,276.4,,254.6,253.3,4,259.9,270.2,265.6,10,5,7.982,5.058,1.148,-1.951,-4.68,-8.142,269.5,5,364.2,-7.933,-8.312,-10,-8.046,-8.063,-4.564,-4.879,-5.012,-4.966,5.246,7.519,16,-1.766,1.636,4.538,7.89,-8.27,-7.78,-1.633,1.197,266.8,276.3,248.0,257.7,275.2,277.9,284.2,261.8,266.8,272.9,1,norm,2.081,1.389,-1.69,-1.769,-4.882,-4.872,-1.231,-1.415,-1.545,-1.745,2.026,-1.609,269.4,261.2,-4.522,-8.035,1.381,-1.214,7.842,4.359,-4.55,-7.714,2,4.847,4.908,4.306,4.542,1.743,1.246,1.597,1.421,2,4.808,4.306,80,258.55495218,norm,0,8,8,8,356.654,356.663,356.673341405,356.674,356.675,356.678,up,1,1.99559303688,8.00440696312,001,012,1920_1080,Intel(R) Core(TM) i5-3570 CPU @ 3.40GHz,orientation_search,LEPPC096,Intel(R) HD Graphics 2500,2018_Nov_17_1512,testMonitor,
270.1,276.5,253.4,268.1,36,-10,283.4,257.8,265.3,253.9,7.652,7.699,7.703,7.834,8.248,7.794,8.107,4.718,-4.497,-8.452,1.818,-1.526,7.809,4.324,-4.665,-8.073,275.0,280.4,-7.897,,275.3,254.4,272.6,271.5,36,260.0,5,5,prime,10,0,87,norm,36,-5.114,down,norm,264.184688964,261.8,261.7,284.2,258.9,1,252.8,261.3,267.6,10,5,7.653,4.504,1.321,-1.571,-4.335,-8.45,272.2,5,351.2,-7.521,-8.21,-10,-7.678,-8.464,-4.818,-4.451,-5.235,-5.238,5.175,7.891,31,-1.196,1.843,4.738,7.663,-8.355,-8.04,-2.05,1.749,268.6,255.0,267.1,244.2,275.7,277.3,250.3,280.0,259.1,269.8,2,norm,1.135,1.454,-1.791,-1.363,-5.197,-4.425,-1.22,-1.361,-1.764,-1.147,1.795,-1.241,268.2,268.2,-4.497,-7.863,1.313,-1.451,8.49,4.474,-4.608,-7.948,2,4.945,5.247,4.46,5.196,1.629,1.988,1.64,1.33,2,4.812,5.172,80,258.55495218,norm,0,9,9,9,358.706,358.716,358.732415538,358.733,358.735,358.737,up,0,2.57127734619,-10,001,012,1920_1080,Intel(R) Core(TM) i5-3570 CPU @ 3.40GHz,orientation_search,LEPPC096,Intel(R) HD Graphics 2500,2018_Nov_17_1512,testMonitor,
266.3,258.6,254.4,253.3,36,-10,,250.2,263.6,274.9,7.889,7.747,7.626,8.063,7.683,8.042,8.149,5.052,-4.414,-8.386,1.208,-1.582,8.389,4.45,-5.106,-8.367,265.5,252.2,-7.918,277.0,259.1,269.8,262.5,252.6,36,254.3,4,5,prime,10,0,64,norm,36,-5.097,down,norm,264.184688964,265.7,256.0,245.0,248.7,0,266.9,257.5,284.2,10,5,7.704,5.251,1.218,-1.67,-4.919,-8.232,257.7,5,328.2,-8.12,-8.259,-10,-8.038,-7.637,-4.327,-4.666,-5.179,-4.653,4.474,7.606,24,-2.044,1.887,4.825,8.218,-7.555,-8.272,-1.674,1.197,269.0,270.7,271.8,254.6,272.5,261.5,276.5,245.9,244.2,274.5,3,norm,1.375,1.316,-1.671,-1.574,-4.314,-4.406,-1.728,-1.172,-1.285,-1.795,1.206,-1.549,268.0,254.4,-4.33,-7.869,1.326,-1.281,7.697,4.92,-4.833,-8.291,2,4.874,5.284,5.108,4.762,1.901,2.023,1.188,1.767,2,4.721,4.309,80,258.55495218,norm,0,10,10,10,362.375,362.384,362.398343586,362.399,362.4,362.403,down,1,4.58218035406,5.41781964594,001,012,1920_1080,Intel(R) Core(TM) i5-3570 CPU @ 3.40GHz,orientation_search,LEPPC096,Intel(R) HD Graphics 2500,2018_Nov_17_1512,testMonitor,
273.6,268.1,245.2,284.2,36,-10,260.4,261.5,261.8,270.0,7.685,7.72,7.574,7.565,8.073,7.661,8.445,4.404,-5.047,-8.306,1.34,-1.931,7.714,4.35,-4.337,-8.247,247.6,266.7,-8.178,264.5,261.4,268.3,267.7,271.1,36,258.6,1,5,prime,10,0,103,norm,36,-4.659,up,norm,264.184688964,256.0,268.6,278.8,276.4,4,253.9,258.3,266.7,10,5,8.487,4.943,1.2,-1.482,-4.415,-7.894,,5,367.2,-7.625,-7.753,-10,-8.005,-7.645,-4.69,-5.236,-4.7,-4.977,4.744,8.214,10,-1.134,1.263,4.853,7.899,-8.203,-7.731,-2.025,1.196,282.1,256.4,263.3,258.6,267.4,265.2,269.2,261.0,263.9,244.2,4,norm,1.455,1.304,-1.998,-1.266,-4.775,-4.945,-1.881,-1.613,-1.881,-1.406,1.135,-1.335,263.1,260.9,-4.506,-8.479,1.776,-1.864,7.701,4.537,-4.616,-8.14,2,4.603,4.323,5.283,4.615,1.515,1.665,1.201,1.734,2,4.896,5.022,80,258.55495218,norm,0,11,11,11,367.002,367.011,367.017689429,367.018,367.02,367.022,up,1,1.072321887,8.927678113,001,012,1920_1080,Intel(R) Core(TM) i5-3570 CPU @ 3.40GHz,orientation_search,LEPPC096,Intel(R) HD Graphics 2500,2018_Nov_17_1512,testMonitor,
338.6,336.3,336.1,334.5,36,0,332.9,340.8,344.6,335.0,7.686,7.729,8.119,8.113,7.515,7.887,7.945,4.515,-4.693,-7.866,1.281,-1.805,8.309,4.874,-4.676,-8.205,339.5,333.7,-7.697,335.3,339.6,333.1,338.3,328.0,36,337.6,2,5,probe,5,0,76,norm,36,-5.0,down,norm,334.612060283,334.6,334.8,324.6,,2,343.2,333.7,339.8,10,5,7.955,5.093,1.114,-1.474,-5.274,-8.268,330.6,1,258.6,-8.432,-7.777,-10,-7.978,-7.995,-4.932,-5.101,-5.115,-5.024,4.54,7.873,14,-1.908,1.527,5.22,7.956,-7.54,-8.098,-1.921,1.288,327.4,342.1,332.3,339.6,332.6,337.1,337.0,334.4,326.4,333.6,0,norm,1.964,2.008,-2.082,-1.548,-4.365,-4.331,-1.87,-1.686,-1.184,-1.789,1.903,-2.094,325.5,337.7,-4.882,-8.452,1.927,-1.607,8.14,5.126,-4.61,-8.117,3,5.057,4.387,4.427,4.551,1.972,2.002,1.517,2.011,3,5.266,4.377,-10,264.184688964,norm,0,12,12,12,368.127,368.136,368.154545254,368.155,368.156,368.159,down,1,1.0037133192,8.9962866808,001,012,1920_1080,Intel(R) Core(TM) i5-3570 CPU @ 3.40GHz,orientation_search,LEPPC096,Intel(R) HD Graphics 2500,2018_Nov_17_1512,testMonitor,
168.2,170.5,182.4,198.8,36,60,168.5,174.3,164.9,178.0,7.795,8.234,7.66,7.704,7.73,8.366,7.986,4.62,-4.799,-8.329,2.022,-1.365,8.244,4.654,-4.832,-7.838,160.4,160.9,-7.809,181.9,180.1,172.6,195.5,175.3,36,185.6,0,5,prime,10,0,115,norm,36,-5.161,up,norm,178.776342643,184.1,191.1,178.9,169.7,4,158.8,185.7,195.7,10,6,7.616,4.873,1.588,-1.401,-4.343,-8.463,175.0,6,293.8,-8.416,-7.79,60,-7.608,-7.795,-5.244,-5.047,-4.421,-5.056,4.675,8.346,4,-1.148,1.859,5.237,7.509,-7.974,-7.786,-1.209,1.746,177.3,189.3,167.4,167.8,181.6,162.8,181.5,186.2,184.0,,0,norm,1.197,2.063,-1.183,-1.257,-4.97,-4.711,-1.131,-1.906,-1.577,-1.775,1.643,-1.453,182.4,170.6,-4.381,-8.382,1.87,-1.108,7.544,4.675,-4.723,-7.59,4,4.639,5.254,4.345,4.605,1.641,1.234,1.309,2.071,4,4.736,4.894,0,264.184688964,norm,0,13,13,13,369.195,369.205,369.215167258,369.215,369.217,369.22,up,1,3.01750560454,6.98249439546,001,012,1920_1080,Intel(R) Core(TM) i5-3570 CPU @ 3.40GHz,orientation_search,LEPPC096,Intel(R) HD Graphics 2500,2018_Nov_17_1512,testMonitor,
195.5,179.0,191.4,173.7,36,60,189.1,184.6,176.1,162.8,8.025,7.554,8.425,7.713,7.719,7.91,8.167,4.936,-5.211,-7.913,1.902,-1.732,8.211,5.223,-4.478,-8.261,164.4,178.8,-7.973,172.9,171.1,196.8,165.3,169.5,36,189.2,0,5,prime,10,0,92,norm,36,-4.588,down,norm,178.776342643,177.8,172.4,172.6,174.5,2,187.2,165.7,181.1,10,6,8.379,4.503,1.298,-1.499,-5.007,-8.188,158.8,6,270.8,-8.132,-7.616,60,-8.277,-7.903,-4.523,-5.0,-4.753,-4.79,4.957,8.45,2,-1.404,1.514,4.472,8.39,-8.387,-8.454,-1.715,1.636,198.8,190.6,167.0,,173.8,166.3,178.1,183.9,184.3,185.1,1,norm,2.007,1.816,-1.399,-1.619,-4.536,-4.856,-2.028,-1.292,-1.785,-1.279,1.291,-1.865,181.2,172.0,-4.739,-8.214,1.549,-1.363,8.306,4.665,-5.26,-8.427,4,4.358,5.128,4.919,4.472,1.23,1.111,1.681,1.741,4,4.952,5.139,0,264.184688964,norm,0,14,14,14,372.27,372.284,372.302241907,372.302,372.304,372.307,down,1,2.49963974586,7.50036025414,001,012,1920_1080,Intel(R) Core(TM) i5-3570 CPU @ 3.40GHz,orientation_search,LEPPC096,Intel(R) HD Graphics 2500,2018_Nov_17_1512,testMonitor,
171.1,167.9,161.9,186.6,36,60,181.1,172.8,183.0,173.9,7.547,8.231,7.558,7.561,8.114,8.24,8.205,4.791,-4.52,-7.568,1.233,-2.009,7.765,4.753,-4.896,-8.422,167.6,185.9,-8.494,158.8,187.5,162.8,191.9,182.6,36,,4,5,prime,10,0,64,norm,36,-4.398,up,norm,178.776342643,186.7,191.2,172.5,174.9,3,178.6,189.5,188.7,10,6,8.196,4.55,1.863,-1.794,-4.711,-7.808,176.6,6,242.8,-8.305,-7.805,60,-8.01,-8.353,-4.372,-4.547,-4.321,-4.869,5.297,8.35,27,-1.707,1.717,4.653,8.08,-7.719,-8.304,-1.58,1.154,198.8,165.8,181.5,183.0,174.9,194.5,180.3,176.9,167.5,162.4,2,norm,1.917,2.09,-1.467,-1.903,-4.492,-5.156,-1.471,-2.053,-1.224,-1.725,2.012,-1.201,164.3,179.1,-4.304,-8.408,1.887,-1.24,8.104,4.672,-5.026,-8.157,4,4.901,5.199,4.944,4.718,1.943,1.667,1.14,1.911,4,4.961,4.844,0,264.184688964,norm,0,15,15,15,374.839,374.848,374.862206639,374.862,374.864,374.867,up,1,2.41494878113,7.58505121887,001,012,1920_1080,Intel(R) Core(TM) i5-3570 CPU @ 3.40GHz,orientation_search,LEPPC096,Intel(R) HD Graphics 2500,2018_Nov_17_1512,testMonitor,
171.1,183.6,168.3,158.8,36,60,176.8,183.1,183.1,172.5,7.624,7.926,8.493,7.74,8.273,7.533,7.757,5.264,-5.096,-8.024,1.158,-1.107,8.009,4.761,-4.553,-8.148,180.1,,-8.221,173.4,184.2,179.3,163.8,168.7,36,191.3,5,5,prime,10,0,116,norm,36,-5.069,up,norm,178.776342643,198.8,183.4,179.9,179.3,4,164.4,186.9,164.0,10,6,8.274,4.364,1.472,-1.928,-5.114,-8.36,176.9,6,294.8,-7.505,-7.599,60,-7.795,-7.865,-4.867,-5.248,-4.352,-4.559,4.78,7.639,34,-1.126,1.878,4.637,7.66,-8.473,-7.946,-1.835,1.202,190.4,169.3,186.9,183.2,180.3,176.6,176.5,159.1,175.6,187.6,3,norm,1.139,1.105,-1.159,-1.544,-4.881,-4.707,-1.361,-1.89,-1.534,-2.054,1.949,-1.115,176.1,178.4,-5.262,-7.801,1.307,-2.033,8.294,4.877,-5.138,-7.788,4,4.604,5.206,4.401,4.684,1.698,2.009,1.868,1.448,4,4.356,5.052,0,264.184688964,norm,0,16,16,16,377.298,377.308,377.326894941,377.327,377.329,377.331,up,1,8.36250501443,1.63749498557,001,012,1920_1080,Intel(R) Core(TM) i5-3570 CPU @ 3.40GHz,orientation_search,LEPPC096,Intel(R) HD Graphics 2500,2018_Nov_17_1512,testMonitor,
197.7,188.1,164.2,175.2,36,60,168.9,173.2,166.3,168.3,8.478,7.804,8.286,7.548,8.453,8.249,8.157,4.648,-5.161,-7.948,1.622,-1.582,7.886,4.592,-4.44,-8.492,164.5,174.2,-8.289,170.4,170.9,192.5,179.7,162.3,36,170.8,2,5,prime,10,0,61,norm,36,-4.795,up,norm,178.776342643,178.0,174.3,,165.1,3,181.4,179.6,182.8,10,6,7.76,4.698,1.656,-1.381,-4.566,-8.217,198.8,6,239.8,-8.37,-8.324,60,-7.898,-8.298,-5.083,-5.205,-5.161,-4.504,4.986,7.955,15,-2.047,1.722,5.098,8.473,-8.216,-7.904,-1.196,1.414,166.0,180.9,158.8,181.1,182.5,176.7,182.7,173.9,192.3,165.9,4,norm,1.631,1.346,-1.672,-1.785,-5.044,-4.409,-1.689,-1.285,-1.277,-1.893,1.514,-1.176,187.1,164.3,-4.733,-8.141,1.703,-1.361,7.803,4.986,-4.494,-8.039,4,5.027,5.294,4.983,4.349,1.922,1.229,1.543,1.158,4,4.739,5.278,0,264.184688964,norm,0,17,17,17,385.726,385.736,385.750547475,385.751,385.752,385.755,up,1,1.35727400957,8.64272599043,001,012,1920_1080,Intel(R) Core(TM) i5-3570 CPU @ 3.40GHz,orientation_search,LEPPC096,Intel(R) HD Graphics 2500,2018_Nov_17_1512,testMonitor,
188.0,178.0,193.9,174.3,36,60,182.5,,182.4,167.2,8.468,8.156,7.955,8.333,8.434,8.497,7.976,4.57,-4.413,-8.32,1.211,-1.337,8.402,5.047,-4.467,-8.435,177.6,170.1,-7.744,182.3,171.5,175.5,184.8,169.6,36,180.3,4,5,prime,10,0,116,norm,36,-4.303,down,norm,178.776342643,187.3,176.1,158.8,172.4,1,190.2,161.1,172.6,10,6,8.265,5.251,1.797,-2.055,-4.888,-8.245,198.8,6,294.8,-7.59,-7.535,60,-7.697,-7.948,-4.526,-5.226,-4.593,-4.36,4.904,8.137,25,-1.606,1.854,4.538,7.514,-8.36,-7.814,-1.732,1.971,179.1,177.8,176.6,181.2,188.9,174.4,188.4,169.2,173.8,173.3,5,norm,1.69,1.545,-1.268,-1.965,-5.054,-5.076,-1.861,-1.258,-1.813,-1.637,1.3,-1.252,179.1,175.3,-4.471,-8.41,1.809,-1.812,8.256,4.858,-4.952,-8.189,4,4.535,4.306,4.897,5.067,1.844,1.363,1.639,1.858,4,4.652,4.465,0,264.184688964,norm,0,18,18,18,387.145,387.154,387.169916198,387.17,387.172,387.174,down,1,9.33384707657,0.666152923432,001,012,1920_1080,Intel(R) Core(TM) i5-3570 CPU @ 3.40GHz,orientation_search,LEPPC096,Intel(R) HD Graphics 2500,2018_Nov_17_1512,testMonitor,
303.5,296.8,309.6,307.2,36,10,307.2,308.7,299.4,312.5,7.579,8.277,8.431,8.001,7.909,7.695,7.899,4.42,-4.636,-7.708,2.075,-1.896,8.132,5.105,-5.079,-8.009,303.7,305.3,-8.276,292.5,298.7,309.5,298.8,298.4,36,303.9,2,5,probe,5,0,66,norm,36,-5.111,up,norm,302.459310725,,307.6,300.7,302.0,5,305.8,304.0,304.6,10,6,8.347,5.052,1.116,-1.852,-4.787,-7.956,306.0,2,236.5,-7.973,-7.629,60,-8.217,-8.346,-4.986,-5.189,-4.351,-4.488,4.561,8.345,17,-1.305,1.291,5.222,7.65,-7.712,-8.473,-2.043,1.259,302.0,307.1,304.7,307.0,307.9,307.9,302.3,302.8,295.8,303.3,0,norm,1.752,1.21,-1.654,-1.528,-4.591,-4.686,-2.032,-1.319,-1.723,-1.471,1.562,-1.577,306.8,302.6,-4.565,-7.866,1.334,-1.422,7.694,4.714,-5.153,-7.653,5,5.25,4.71,5.237,4.975,1.766,1.696,1.995,1.971,5,5.14,4.422,60,178.776342643,norm,0,19,19,19,396.546,396.555,396.561830749,396.562,396.564,396.566,up,1,1.22262015691,8.77737984309,001,012,1920_1080,Intel(R) Core(TM) i5-3570 CPU @ 3.40GHz,orientation_search,LEPPC096,Intel(R) HD Graphics 2500,2018_Nov_17_1512,testMonitor,
341.6,345.1,354.5,342.5,36,10,347.2,,342.5,347.1,8.233,8.428,8.229,7.924,8.104,7.702,8.208,5.105,-4.807,-7.692,1.772,-1.314,7.518,4.791,-4.3,-7.947,337.8,345.6,-7.979,344.4,346.8,342.1,339.6,337.3,36,350.1,4,5,probe,5,0,108,norm,36,-4.878,down,norm,344.459310725,347.3,353.8,340.9,343.9,1,344.0,342.6,347.0,10,6,8.003,4.97,1.491,-1.877,-4.828,-8.088,337.4,2,236.5,-8.252,-7.807,60,-8.271,-7.949,-5.089,-4.882,-5.116,-4.479,4.305,8.196,25,-1.779,1.232,4.996,7.845,-8.317,-7.807,-1.258,1.276,343.4,334.5,349.1,340.9,336.4,351.7,344.6,345.0,340.2,341.6,1,norm,1.87,1.734,-1.587,-1.666,-5.21,-5.264,-2.056,-1.923,-1.17,-1.39,1.25,-1.33,346.2,341.4,-5.085,-8.46,1.297,-1.278,7.513,5.29,-4.622,-8.04,5,4.341,5.058,5.046,4.836,1.878,1.883,1.242,2.093,5,4.772,4.329,60,178.776342643,norm,0,20,20,20,397.805,397.815,397.824360183,397.825,397.826,397.829,down,1,1.29057039686,8.70942960314,001,012,1920_1080,Intel(R) Core(TM) i5-3570 CPU @ 3.40GHz,orientation_search,LEPPC096,Intel(R) HD Graphics 2500,2018_Nov_17_1512,testMonitor,
277.4,289.2,272.8,272.4,36,-60,261.3,249.3,266.7,258.3,7.986,8.366,8.401,8.184,8.23,8.427,7.923,4.742,-4.304,-8.253,2.089,-1.734,8.321,5.238,-5.201,-7.504,256.1,285.4,-7.513,261.5,266.9,281.2,273.4,249.2,36,250.1,0,5,prime,10,0,84,norm,36,-4.951,up,norm,269.155397531,275.5,276.0,254.8,265.7,4,264.2,269.3,258.5,10,6,8.349,4.425,2.011,-1.536,-5.001,-8.42,276.9,6,353.2,-8.025,-8.45,-60,-8.462,-7.694,-4.898,-4.708,-4.798,-4.802,4.918,7.914,4,-1.153,1.349,4.787,7.712,-8.497,-8.064,-1.279,1.205,258.6,267.2,277.8,259.3,261.4,266.7,261.3,272.3,267.4,,0,norm,1.118,1.881,-1.314,-1.282,-4.431,-4.739,-1.794,-1.671,-2.097,-1.652,1.954,-2.077,273.5,288.1,-5.096,-8.31,1.5,-1.664,8.011,4.896,-4.553,-8.261,6,4.431,5.078,4.45,4.631,1.839,1.276,1.507,1.131,6,4.934,5.023,10,178.776342643,norm,0,21,21,21,399.136,399.146,399.152311286,399.152,399.154,399.157,up,1,3.89034600396,6.10965399604,001,012,1920_1080,Intel(R) Core(TM) i5-3570 CPU @ 3.40GHz,orientation_search,LEPPC096,Intel(R) HD Graphics 2500,2018_Nov_17_1512,testMonitor,
270.0,260.0,256.7,252.7,36,-60,286.1,278.5,269.7,271.0,7.561,7.895,8.069,7.978,7.605,7.596,7.514,4.379,-4.834,-8.362,1.995,-1.921,8.105,4.947,-5.243,-8.264,274.5,254.8,-7.826,282.7,277.2,262.3,262.7,283.3,36,269.1,2,5,prime,10,0,91,norm,36,-4.628,up,norm,269.155397531,,289.2,275.0,267.4,5,285.5,272.2,254.9,10,6,8.054,4.731,1.468,-1.577,-5.186,-7.964,266.2,6,360.2,-8.261,-7.703,-60,-8.237,-7.725,-4.732,-4.302,-5.035,-4.852,5.246,7.932,17,-1.717,1.245,5.29,8.011,-7.997,-8.37,-1.602,1.813,249.2,262.6,269.5,257.1,274.2,288.6,252.3,280.2,285.6,271.8,1,norm,1.243,1.358,-1.414,-1.427,-4.608,-4.657,-1.204,-2.06,-2.08,-2.097,1.442,-1.652,278.1,261.3,-4.723,-7.618,1.163,-1.819,8.487,4.333,-4.782,-8.018,6,4.954,4.527,4.934,4.41,1.292,1.898,2.036,1.954,6,4.422,4.616,10,178.776342643,norm,0,22,22,22,403.08,403.09,403.096810717,403.097,403.099,403.101,up,1,1.59238730324,8.40761269676,001,012,1920_1080,Intel(R) Core(TM) i5-3570 CPU @ 3.40GHz,orientation_search,LEPPC096,Intel(R) HD Graphics 2500,2018_Nov_17_1512,testMonitor,
256.7,266.4,271.6,268.6,36,-60,275.8,275.3,264.7,268.1,7.754,8.184,7.852,8.455,7.778,7.876,8.107,4.695,-4.396,-7.61,1.481,-1.38,8.229,5.271,-4.864,-7.65,270.1,263.7,-8.031,278.6,253.4,277.5,269.6,264.9,36,265.7,1,5,prime,10,0,67,norm,36,-4.58,down,norm,269.155397531,261.6,251.0,261.3,289.2,2,249.2,261.9,258.7,10,6,7.943,5.194,1.929,-1.133,-4.978,-7.612,277.9,6,336.2,-7.927,-7.654,-60,-7.676,-8.313,-4.799,-5.226,-4.787,-4.756,4.629,8.144,8,-1.616,1.17,5.046,7.552,-7.565,-8.322,-1.854,1.532,274.5,,271.2,269.7,259.0,278.0,272.8,261.7,278.1,261.5,2,norm,2.052,1.936,-1.447,-1.161,-5.08,-5.142,-1.453,-1.473,-1.561,-1.287,1.904,-1.564,261.0,260.6,-4.719,-8.326,1.436,-1.347,8.252,4.481,-4.429,-7.942,6,4.396,4.32,4.837,4.379,1.593,1.419,1.714,1.208,6,5.075,5.11,10,178.776342643,norm,0,23,23,23,404.726,404.736,404.75037512,404.751,404.752,404.755,down,1,8.64920211329,1.35079788671,001,012,1920_1080,Intel(R) Core(TM) i5-3570 CPU @ 3.40GHz,orientation_search,LEPPC096,Intel(R) HD Graphics 2500,2018_Nov_17_1512,testMonitor,
261.5,263.7,276.0,277.2,36,-60,261.8,277.6,274.4,260.2,8.392,8.417,8.227,7.737,7.897,8.451,8.072,5.181,-4.516,-8.437,1.858,-1.132,7.507,4.704,-4.649,-8.491,262.8,251.9,-8.324,250.8,269.0,249.2,275.1,275.1,36,269.8,1,5,prime,10,0,100,norm,36,-4.357,down,norm,269.155397531,289.2,274.8,273.1,266.2,2,279.3,275.4,272.7,10,6,7.572,5.197,1.218,-1.676,-5.27,-7.898,274.4,6,369.2,-7.909,-8.25,-60,-7.565,-7.947,-5.179,-5.242,-5.024,-4.744,4.941,7.832,8,-1.853,1.767,4.712,7.948,-7.93,-7.596,-1.742,2.033,257.9,,264.0,273.5,254.1,253.4,281.7,278.2,254.0,274.8,3,norm,1.712,1.165,-1.199,-1.519,-4.931,-4.358,-1.628,-1.606,-1.417,-1.118,1.456,-1.197,260.6,271.9,-4.507,-8.251,2.052,-1.883,7.608,4.473,-4.959,-8.175,6,5.125,4.675,4.333,5.137,1.182,1.599,1.438,1.115,6,4.886,5.148,10,178.776342643,norm,0,24,24,24,413.424,413.434,413.440261653,413.44,413.442,413.445,down,1,1.59090704658,8.40909295342,001,012,1920_1080,Intel(R) Core(TM) i5-3570 CPU @ 3.40GHz,orientation_search,LEPPC096,Intel(R) HD Graphics 2500,2018_Nov_17_1512,testMonitor,
279.1,253.3,273.8,265.4,36,-60,251.6,268.4,259.4,271.9,7.59,7.851,8.215,8.157,7.946,8.323,7.746,5.125,-5.167,-7.58,1.584,-2.074,7.95,4.371,-4.552,-8.342,267.1,283.7,-7.805,275.4,249.2,289.2,270.4,261.4,36,273.2,2,5,prime,10,0,92,norm,36,-4.505,up,norm,269.155397531,,262.4,265.7,275.3,5,268.7,279.2,266.7,10,6,7.76,4.499,1.923,-1.927,-4.55,-8.22,281.2,6,361.2,-7.843,-7.51,-60,-7.581,-8.084,-4.825,-5.025,-4.319,-5.188,4.918,8.243,17,-1.434,1.868,4.528,7.777,-8.374,-7.603,-1.154,1.392,277.0,276.3,267.0,271.2,261.3,259.1,265.7,259.6,263.1,259.4,4,norm,1.155,1.498,-1.152,-1.946,-4.905,-4.66,-1.942,-2.046,-1.688,-2.053,1.472,-1.908,267.1,255.5,-5.053,-8.317,2.022,-1.922,8.196,4.513,-4.908,-8.101,6,4.503,4.311,5.115,4.583,1.54,1.453,1.795,1.207,6,5.288,4.697,10,178.776342643,norm,0,25,25,25,415.067,415.077,415.092858335,415.093,415.095,415.097,up,1,1.33838202273,8.66161797727,001,012,1920_1080,Intel(R) Core(TM) i5-3570 CPU @ 3.40GHz,orientation_search,LEPPC096,Intel(R) HD Graphics 2500,2018_Nov_17_1512,testMonitor,
277.2,272.5,278.5,289.2,36,-60,271.1,268.1,268.2,249.2,7.531,7.563,7.889,7.54,7.991,7.522,8.367,4.851,-4.643,-7.628,1.28,-1.794,8.008,5.286,-4.325,-7.913,265.0,286.4,-8.011,271.0,256.6,278.5,267.5,251.8,36,269.6,2,5,prime,10,0,88,norm,36,-5.194,down,norm,269.155397531,277.0,257.6,270.8,,2,265.8,264.2,283.6,10,6,8.393,4.432,1.866,-2.096,-4.593,-8.367,260.1,6,357.2,-8.027,-8.178,-60,-7.908,-7.603,-4.367,-4.573,-4.577,-4.748,4.503,7.54,14,-1.825,1.972,5.176,8.454,-8.318,-7.984,-1.316,1.317,272.5,273.3,277.7,283.8,263.0,249.9,280.4,262.2,269.1,258.7,5,norm,2.041,1.607,-1.118,-2.073,-5.276,-5.057,-1.658,-1.979,-1.383,-1.386,1.171,-1.11,260.2,257.6,-4.68,-8.109,2.0,-1.352,8.237,4.837,-4.917,-7.562,6,4.808,5.206,4.863,4.919,2.009,1.899,1.39,1.993,6,4.854,4.9,10,178.776342643,norm,0,26,26,26,416.452,416.462,416.468539867,416.469,416.47,416.473,down,1,2.90079775088,7.09920224912,001,012,1920_1080,Intel(R) Core(TM) i5-3570 CPU @ 3.40GHz,orientation_search,LEPPC096,Intel(R) HD Graphics 2500,2018_Nov_17_1512,testMonitor,
305.1,300.9,302.7,296.1,36,-80,,313.4,305.9,306.4,8.13,8.359,7.681,8.458,7.763,8.413,7.644,4.702,-4.799,-8.071,1.993,-1.355,7.945,4.857,-4.313,-8.293,308.3,306.2,-7.735,298.4,304.5,302.9,298.4,303.1,36,301.1,4,5,probe,5,0,101,norm,36,-5.144,down,norm,306.136032674,309.2,311.3,297.8,308.0,0,303.6,302.9,305.8,10,6,7.527,4.39,1.321,-1.636,-4.645,-7.528,301.8,2,205.1,-7.669,-7.608,-60,-8.29,-7.908,-4.363,-4.325,-5.047,-4.491,4.341,7.775,24,-1.717,1.757,5.232,7.764,-7.88,-8.053,-1.931,1.714,311.4,310.1,307.8,303.5,301.4,300.7,302.5,306.3,311.6,308.1,0,norm,1.113,1.817,-1.462,-1.414,-4.573,-5.079,-1.915,-1.691,-1.711,-1.765,1.308,-1.449,316.1,306.1,-5.27,-7.724,1.56,-1.685,8.409,4.957,-4.986,-7.597,7,4.521,5.181,4.922,5.2,1.171,1.658,1.603,1.24,7,4.428,4.435,-60,269.155397531,norm,0,27,27,27,419.406,419.417,419.429326951,419.43,419.431,419.434,down,1,0.971608894699,9.0283911053,001,012,1920_1080,Intel(R) Core(TM) i5-3570 CPU @ 3.40GHz,orientation_search,LEPPC096,Intel(R) HD Graphics 2500,2018_Nov_17_1512,testMonitor,
314.5,319.1,314.0,317.7,36,-80,310.2,318.0,317.4,309.8,8.432,7.936,7.593,7.743,7.872,8.279,8.425,5.084,-5.118,-8.226,1.432,-1.933,7.869,4.819,-4.421,-7.582,312.8,309.0,-8.199,320.6,311.5,311.2,326.1,312.9,36,311.1,0,5,probe,5,0,111,norm,36,-4.919,down,norm,316.136032674,322.0,309.6,321.6,320.5,0,325.8,317.2,312.1,10,6,8.311,4.689,1.627,-1.403,-5.283,-7.627,314.4,2,205.1,-8.317,-8.449,-60,-7.72,-7.581,-5.251,-4.624,-5.075,-4.793,4.812,8.055,0,-1.564,1.3,4.598,8.207,-8.31,-7.584,-1.626,2.034,314.8,315.7,313.2,313.6,306.1,,312.7,314.7,323.6,314.5,1,norm,1.115,1.634,-1.937,-1.976,-4.381,-5.225,-1.888,-1.717,-1.526,-1.623,1.256,-1.55,317.7,313.2,-4.529,-7.942,1.952,-1.399,8.184,4.594,-4.395,-7.972,7,4.852,4.907,5.293,5.227,2.033,1.943,1.279,2.08,7,4.979,4.655,-60,269.155397531,norm,0,28,28,28,420.444,420.454,420.459994283,420.46,420.462,420.464,down,1,0.954192334962,9.04580766504,001,012,1920_1080,Intel(R) Core(TM) i5-3570 CPU @ 3.40GHz,orientation_search,LEPPC096,Intel(R) HD Graphics 2500,2018_Nov_17_1512,testMonitor,
215.0,236.4,220.2,224.1,36,-20,209.5,201.6,239.9,,8.265,7.644,8.309,8.369,7.983,8.207,7.512,5.135,-5.284,-7.535,2.004,-1.862,8.066,4.534,-4.716,-8.156,204.0,220.0,-8.196,231.4,216.4,210.9,224.2,241.6,36,218.7,4,5,prime,10,0,73,norm,36,-4.771,up,norm,221.629926192,217.5,231.5,209.2,213.0,5,210.4,213.3,229.1,10,6,7.952,4.399,1.876,-1.456,-4.376,-7.918,223.0,6,294.6,-7.647,-7.532,-20,-7.744,-8.036,-4.413,-4.719,-4.658,-5.292,5.108,7.877,29,-1.51,1.89,4.64,8.217,-7.51,-7.681,-1.701,1.138,228.9,206.9,227.9,222.8,209.1,228.3,217.8,228.9,224.2,215.9,0,norm,1.648,1.298,-1.966,-1.873,-4.788,-4.44,-1.504,-1.455,-1.535,-1.859,1.217,-1.715,218.2,231.7,-5.008,-7.876,1.122,-1.198,8.235,5.044,-4.46,-7.862,8,4.355,4.518,4.715,4.931,1.122,1.75,1.166,1.398,8,4.544,4.528,-80,269.155397531,norm,0,29,29,29,421.459,421.476,421.490759111,421.491,421.493,421.496,up,1,1.67513709126,8.32486290874,001,012,1920_1080,Intel(R) Core(TM) i5-3570 CPU @ 3.40GHz,orientation_search,LEPPC096,Intel(R) HD Graphics 2500,2018_Nov_17_1512,testMonitor,
226.6,208.8,230.6,234.3,36,-20,229.0,218.2,228.9,229.7,7.882,8.337,8.25,8.351,7.731,7.705,8.401,4.318,-4.899,-7.74,1.705,-1.73,8.211,4.466,-4.808,-8.489,216.4,206.4,-8.103,227.4,231.5,225.8,217.7,233.0,36,233.5,2,5,prime,10,0,108,norm,36,-4.356,down,norm,221.629926192,216.2,201.6,239.7,,2,233.7,225.6,226.9,10,6,7.901,4.988,1.337,-1.547,-4.91,-8.137,219.1,6,329.6,-7.619,-8.487,-20,-7.941,-8.157,-5.226,-4.588,-4.82,-4.521,4.967,8.094,14,-1.609,1.602,4.802,8.476,-8.006,-7.918,-1.148,1.813,205.2,234.1,235.5,219.7,224.1,241.6,233.4,213.4,223.2,226.0,1,norm,1.972,1.241,-1.852,-1.535,-4.704,-5.024,-1.663,-1.83,-1.903,-1.879,1.555,-1.886,221.5,218.5,-4.438,-7.569,2.047,-1.178,8.188,4.901,-4.41,-7.643,8,5.137,4.842,4.675,4.907,1.444,1.967,1.95,1.244,8,5.297,4.97,-80,269.155397531,norm,0,30,30,30,423.189,423.199,423.205373235,423.206,423.207,423.21,down,1,0.969588634141,9.03041136586,001,012,1920_1080,Intel(R) Core(TM) i5-3570 CPU @ 3.40GHz,orientation_search,LEPPC096,Intel(R) HD Graphics 2500,2018_Nov_17_1512,testMonitor,
235.0,232.9,217.8,224.9,36,-20,218.5,215.9,223.3,229.6,8.202,7.674,7.554,8.421,7.528,8.37,7.975,4.606,-4.798,-7.583,1.932,-1.159,7.516,4.65,-4.618,-8.31,221.1,224.6,-8.497,241.6,218.2,218.2,234.5,228.7,36,,4,5,prime,10,0,100,norm,36,-4.775,up,norm,221.629926192,231.8,224.8,214.0,231.7,3,226.1,203.7,219.9,10,6,7.904,4.797,1.187,-1.636,-4.548,-8.457,212.3,6,321.6,-8.136,-8.145,-20,-7.691,-8.126,-4.353,-5.041,-4.658,-4.302,5.227,8.487,27,-1.685,1.486,4.916,8.066,-7.9,-7.942,-1.116,1.572,238.3,202.3,226.9,201.6,204.7,231.1,236.4,224.0,223.8,225.1,2,norm,1.194,1.616,-1.275,-2.054,-5.115,-4.926,-1.827,-1.647,-1.303,-1.1,1.647,-1.186,228.9,220.8,-4.728,-8.016,1.402,-1.704,7.753,4.72,-5.032,-7.908,8,5.211,4.924,4.732,4.818,1.329,1.7,1.258,1.445,8,4.766,5.279,-80,269.155397531,norm,0,31,31,31,424.212,424.222,424.233943336,424.234,424.236,424.238,up,1,0.799876484294,9.20012351571,001,012,1920_1080,Intel(R) Core(TM) i5-3570 CPU @ 3.40GHz,orientation_search,LEPPC096,Intel(R) HD Graphics 2500,2018_Nov_17_1512,testMonitor,
223.3,241.6,229.9,215.1,36,-20,232.6,,222.0,225.2,7.556,8.079,8.483,7.828,8.366,8.187,7.947,4.354,-4.303,-7.554,1.784,-1.335,8.469,4.698,-4.974,-8.283,230.1,220.7,-7.773,219.5,221.1,201.6,207.7,213.0,36,217.9,4,5,prime,10,0,119,norm,36,-4.448,down,norm,221.629926192,208.1,217.2,232.5,228.9,1,207.9,212.4,236.2,10,6,8.182,4.751,1.52,-1.119,-4.852,-7.556,219.5,6,340.6,-8.189,-7.66,-20,-8.161,-7.735,-4.315,-4.616,-4.881,-5.127,5.262,8.295,25,-1.849,1.542,4.725,7.799,-8.325,-8.378,-1.857,1.396,229.2,235.5,222.7,226.5,210.8,216.2,214.6,211.3,211.5,205.3,3,norm,1.585,1.843,-1.81,-1.903,-4.827,-5.164,-1.34,-1.166,-1.347,-2.031,1.928,-1.767,222.4,233.6,-5.126,-7.742,1.379,-1.623,7.651,4.618,-4.402,-8.447,8,5.184,4.795,5.043,4.867,1.151,1.136,1.846,2.009,8,4.344,5.289,-80,269.155397531,norm,0,32,32,32,425.071,425.08,425.091666644,425.092,425.094,425.096,down,1,0.667148112296,9.3328518877,001,012,1920_1080,Intel(R) Core(TM) i5-3570 CPU @ 3.40GHz,orientation_search,LEPPC096,Intel(R) HD Graphics 2500,2018_Nov_17_1512,testMonitor,
231.6,218.9,210.7,215.1,36,-20,224.4,211.1,235.3,233.5,8.376,7.87,7.771,7.666,8.21,8.132,8.257,4.363,-5.026,-7.637,1.599,-1.123,7.917,4.771,-4.893,-8.278,237.2,233.1,-7.508,232.4,224.3,225.1,222.4,221.0,36,227.4,3,5,prime,10,0,62,norm,36,-5.056,down,norm,221.629926192,223.0,239.2,218.3,210.4,1,239.5,238.2,219.3,10,6,8.003,4.405,1.24,-1.517,-5.267,-7.985,220.7,6,283.6,-7.812,-8.215,-20,-7.582,-8.225,-5.03,-4.422,-5.243,-4.571,5.149,8.105,19,-1.987,1.396,4.811,8.212,-8.491,-7.522,-1.721,1.337,202.1,201.6,215.6,220.1,206.1,216.2,218.3,219.2,224.9,216.5,4,norm,2.076,1.642,-1.425,-1.633,-4.315,-4.533,-1.891,-1.204,-1.995,-1.945,1.172,-1.468,,207.1,-4.75,-7.615,1.841,-1.438,8.225,5.033,-4.774,-8.313,8,5.284,4.483,4.873,5.11,2.048,2.077,1.434,1.605,8,4.844,4.943,-80,269.155397531,norm,0,33,33,33,425.78,425.79,425.79603156,425.796,425.798,425.8,down,1,0.836351650301,9.1636483497,001,012,1920_1080,Intel(R) Core(TM) i5-3570 CPU @ 3.40GHz,orientation_search,LEPPC096,Intel(R) HD Graphics 2500,2018_Nov_17_1512,testMonitor,
224.3,213.8,230.1,210.0,36,-20,213.4,229.3,241.6,219.0,8.187,7.881,8.246,8.158,8.343,7.818,8.165,4.44,-4.739,-8.282,1.924,-2.086,7.982,4.599,-5.094,-7.801,224.9,215.4,-8.387,224.5,206.2,210.1,216.3,232.9,36,212.2,2,5,prime,10,0,112,norm,36,-4.434,down,norm,221.629926192,234.3,220.1,216.7,228.2,1,205.2,,220.8,10,6,8.478,5.077,1.814,-1.229,-4.327,-7.891,224.3,6,333.6,-7.91,-7.847,-20,-7.969,-8.223,-4.51,-4.609,-5.028,-5.169,4.317,7.9,13,-1.643,2.006,4.554,8.22,-7.914,-8.493,-1.868,1.173,234.7,214.1,208.0,219.1,202.1,203.9,234.1,201.6,214.0,231.5,5,norm,1.307,1.551,-1.607,-1.305,-4.908,-4.732,-1.563,-1.577,-1.289,-1.691,1.954,-1.744,228.2,212.1,-4.338,-8.355,1.259,-1.337,7.709,4.452,-5.226,-7.719,8,5.012,5.14,5.194,5.245,1.546,1.105,1.614,1.326,8,4.5,4.731,-80,269.155397531,norm,0,34,34,34,426.654,426.663,426.683113091,426.683,426.685,426.687,up,0,0.73434796113,-10,001,012,1920_1080,Intel(R) Core(TM) i5-3570 CPU @ 3.40GHz,orientation_search,LEPPC096,Intel(R) HD Graphics 2500,2018_Nov_17_1512,testMonitor,
297.5,297.4,304.8,294.7,36,40,297.4,291.7,298.3,303.6,8.257,7.835,8.014,7.934,8.202,8.396,7.574,4.343,-4.743,-7.727,1.568,-1.995,8.337,4.592,-4.66,-8.009,295.9,307.0,-8.432,309.1,290.8,297.2,304.7,308.1,36,292.8,3,5,probe,5,0,95,norm,36,-4.958,down,norm,299.055745254,303.2,297.8,293.1,289.1,1,294.4,295.6,299.8,10,6,8.441,5.271,1.738,-1.726,-5.024,-7.787,303.5,2,204.1,-8.135,-7.681,-20,-8.228,-7.947,-5.164,-5.063,-4.407,-5.095,4.983,8.136,19,-1.201,1.516,4.738,7.75,-7.908,-7.765,-1.344,1.662,300.2,302.6,291.3,300.1,294.8,292.6,302.6,297.6,297.3,292.3,0,norm,1.784,1.161,-1.535,-1.481,-4.658,-4.857,-1.817,-1.334,-1.353,-1.746,2.026,-1.422,,301.2,-5.298,-8.412,1.389,-1.392,7.593,4.726,-4.895,-7.644,9,4.506,5.115,4.965,5.277,1.894,1.476,1.541,2.034,9,4.923,4.35,-20,221.629926192,norm,0,35,35,35,428.497,428.506,428.523910039,428.524,428.526,428.528,down,1,1.49070719382,8.50929280618,001,012,1920_1080,Intel(R) Core(TM) i5-3570 CPU @ 3.40GHz,orientation_search,LEPPC096,Intel(R) HD Graphics 2500,2018_Nov_17_1512,testMonitor,
302.6,293.5,298.2,293.7,36,40,312.3,304.8,300.3,300.4,7.919,8.465,7.679,7.777,8.023,7.861,8.142,4.661,-4.515,-8.181,1.399,-1.303,7.747,4.557,-5.239,-8.385,305.2,294.6,-7.958,303.7,305.5,300.3,304.7,298.2,36,294.6,1,5,probe,5,0,99,norm,36,-5.266,up,norm,303.055745254,306.5,311.7,313.1,306.1,4,302.8,304.9,304.8,10,6,7.511,5.225,1.703,-1.701,-4.994,-7.7,,2,204.1,-7.624,-8.481,-20,-7.792,-7.719,-4.692,-5.026,-4.713,-4.898,4.391,7.914,10,-1.426,1.389,4.768,7.97,-7.858,-7.517,-1.161,1.58,297.5,300.0,305.4,307.2,305.3,301.2,309.0,313.1,307.0,300.9,1,norm,1.532,1.156,-1.177,-1.502,-4.333,-4.875,-1.481,-1.352,-1.555,-2.008,1.641,-1.765,293.1,300.3,-4.73,-7.568,1.198,-1.409,8.334,4.421,-4.951,-7.761,9,4.402,5.16,5.187,4.442,1.56,1.846,1.993,1.695,9,4.415,5.151,-20,221.629926192,norm,0,36,36,36,430.037,430.047,430.053442276,430.054,430.055,430.058,up,1,1.68989015493,8.31010984507,001,012,1920_1080,Intel(R) Core(TM) i5-3570 CPU @ 3.40GHz,orientation_search,LEPPC096,Intel(R) HD Graphics 2500,2018_Nov_17_1512,testMonitor,
161.0,165.1,178.9,163.4,36,10,175.4,154.2,180.4,185.7,7.911,8.458,7.68,8.305,7.778,8.056,8.49,4.559,-4.908,-8.156,1.674,-1.809,8.446,4.591,-4.778,-8.278,,171.6,-7.579,172.4,152.8,172.7,172.1,164.1,36,160.9,5,5,prime,10,0,78,norm,36,-5.016,up,norm,172.826931698,179.0,175.2,174.2,157.7,5,170.4,167.0,180.8,10,5,7.744,5.259,1.309,-2.059,-4.431,-7.779,170.7,5,250.8,-7.748,-8.112,10,-8.479,-7.939,-4.531,-4.932,-5.225,-5.119,4.957,7.824,35,-1.684,1.802,4.941,8.09,-8.333,-7.658,-1.627,1.461,181.9,192.8,189.9,170.2,182.2,173.0,169.1,166.8,171.5,177.0,0,norm,1.493,1.594,-1.741,-1.159,-4.506,-4.627,-1.655,-1.995,-2.012,-1.84,1.416,-1.268,180.9,166.2,-5.285,-7.956,1.997,-1.636,8.173,5.187,-5.105,-7.823,10,4.314,5.086,5.24,4.888,1.476,1.181,1.953,1.281,10,5.173,4.611,40,221.629926192,norm,0,37,37,37,431.781,431.79,431.799613576,431.8,431.801,431.804,down,0,1.10559476042,-10,001,012,1920_1080,Intel(R) Core(TM) i5-3570 CPU @ 3.40GHz,orientation_search,LEPPC096,Intel(R) HD Graphics 2500,2018_Nov_17_1512,testMonitor,
164.7,179.4,159.5,181.6,36,10,161.2,190.0,171.1,192.8,8.373,8.088,7.804,8.3,8.171,7.766,7.7,4.324,-4.929,-8.282,1.243,-1.442,8.12,4.326,-4.94,-8.159,173.4,171.1,-8.324,183.0,165.9,175.6,188.8,170.9,36,166.9,1,5,prime,10,0,94,norm,36,-5.254,down,norm,172.826931698,184.1,159.6,187.0,171.5,0,167.4,177.0,176.3,10,5,8.286,4.493,1.832,-1.918,-5.022,-7.544,162.0,5,266.8,-8.119,-8.241,10,-7.917,-7.64,-5.051,-5.083,-4.816,-4.552,4.945,7.662,6,-1.955,1.194,4.645,7.685,-8.407,-8.248,-1.806,1.296,183.9,168.5,164.6,157.2,172.8,161.0,185.9,,152.8,174.1,1,norm,1.936,1.393,-1.546,-1.15,-4.962,-4.831,-1.828,-1.368,-1.29,-1.202,1.732,-1.635,181.7,169.1,-5.118,-8.017,1.59,-1.602,8.379,4.912,-5.215,-7.515,10,4.462,4.824,5.246,4.566,1.363,1.665,1.692,1.58,10,5.135,4.891,40,221.629926192,norm,0,38,38,38,433.976,433.985,433.999187428,433.999,434.001,434.004,down,1,3.85829198787,6.14170801213,001,012,1920_1080,Intel(R) Core(TM) i5-3570 CPU @ 3.40GHz,orientation_search,LEPPC096,Intel(R) HD Graphics 2500,2018_Nov_17_1512,testMonitor,
165.8,178.0,166.5,162.8,36,10,168.4,173.7,178.5,171.9,7.841,8.114,7.606,8.157,7.649,7.795,8.397,4.687,-4.662,-7.945,1.869,-1.931,8.151,4.746,-4.337,-7.653,158.5,173.6,-7.591,170.9,176.2,169.8,164.9,165.6,36,173.5,1,5,prime,10,0,68,norm,36,-4.982,down,norm,172.826931698,192.8,158.6,169.7,179.8,2,157.3,169.4,179.8,10,5,8.125,4.722,1.95,-1.656,-5.262,-8.075,163.9,5,240.8,-8.27,-7.79,10,-7.786,-7.726,-5.224,-5.275,-4.563,-4.355,5.183,7.818,8,-1.79,1.508,4.524,8.245,-8.081,-7.554,-1.402,1.781,178.9,,171.2,163.9,170.5,180.6,171.8,167.5,181.1,176.2,2,norm,1.349,1.343,-1.104,-1.772,-5.013,-5.221,-1.471,-1.685,-1.193,-1.528,1.628,-1.951,164.6,152.8,-4.828,-8.22,1.845,-1.673,7.578,4.884,-4.319,-8.086,10,4.827,4.415,4.378,4.714,1.72,1.609,1.504,1.353,10,4.93,4.949,40,221.629926192,norm,0,39,39,39,437.894,437.904,437.914395949,437.915,437.916,437.919,down,1,1.72384640949,8.27615359051,001,012,1920_1080,Intel(R) Core(TM) i5-3570 CPU @ 3.40GHz,orientation_search,LEPPC096,Intel(R) HD Graphics 2500,2018_Nov_17_1512,testMonitor,
179.2,184.1,166.6,160.2,36,10,165.9,158.6,179.0,168.4,8.231,8.298,7.867,8.369,8.215,8.351,8.394,4.671,-4.444,-8.311,1.647,-1.536,7.633,5.005,-5.265,-7.777,184.8,175.6,-7.907,174.3,163.5,177.1,170.8,172.8,36,173.8,1,5,prime,10,0,112,norm,36,-4.768,down,norm,172.826931698,188.8,176.2,179.4,175.8,0,182.3,176.1,175.6,10,5,8.41,4.584,1.643,-1.822,-4.645,-8.109,171.3,5,284.8,-7.877,-8.325,10,-7.855,-7.744,-4.722,-4.923,-4.756,-5.195,5.12,8.069,6,-1.5,1.631,4.618,7.831,-7.842,-8.359,-1.896,1.297,168.6,164.8,173.2,175.1,176.0,170.6,167.1,,152.8,192.8,3,norm,1.88,1.946,-1.143,-1.689,-4.353,-4.599,-1.235,-1.121,-1.275,-2.094,1.476,-1.214,171.2,178.0,-5.247,-7.982,1.461,-1.501,8.3,5.03,-4.839,-7.717,10,4.94,4.771,4.418,4.736,2.015,1.553,1.623,1.305,10,4.325,4.578,40,221.629926192,norm,0,40,40,40,439.662,439.672,439.678085229,439.678,439.68,439.683,down,1,1.57587296355,8.42412703645,001,012,1920_1080,Intel(R) Core(TM) i5-3570 CPU @ 3.40GHz,orientation_search,LEPPC096,Intel(R) HD Graphics 2500,2018_Nov_17_1512,testMonitor,
157.5,170.8,178.7,175.5,36,10,179.7,182.4,168.1,175.7,7.837,7.619,8.148,7.899,8.416,8.389,8.06,4.437,-5.265,-8.277,1.625,-1.176,7.877,4.972,-5.2,-8.352,166.1,192.8,-8.104,162.1,179.3,173.2,181.5,171.7,36,167.7,2,5,prime,10,0,62,norm,36,-4.446,down,norm,172.826931698,154.4,177.9,163.1,174.2,0,165.8,165.3,,10,5,7.636,4.743,1.401,-1.575,-5.208,-8.143,178.7,5,234.8,-8.414,-8.404,10,-8.375,-8.485,-4.793,-4.789,-4.969,-5.218,4.851,8.22,12,-1.538,1.621,4.313,8.375,-7.683,-7.698,-1.726,1.113,182.9,154.6,162.5,162.8,161.8,179.2,176.6,180.4,163.4,152.8,4,norm,2.096,1.872,-1.277,-1.584,-4.796,-5.199,-1.413,-1.861,-1.372,-1.845,1.819,-1.344,171.0,169.1,-4.538,-8.301,1.127,-1.92,8.377,4.564,-4.744,-8.448,10,5.048,4.465,5.067,4.994,1.485,1.969,1.207,1.644,10,4.55,4.948,40,221.629926192,norm,0,41,41,41,441.291,441.301,441.315233996,441.315,441.317,441.32,down,1,2.68646992897,7.31353007103,001,012,1920_1080,Intel(R) Core(TM) i5-3570 CPU @ 3.40GHz,orientation_search,LEPPC096,Intel(R) HD Graphics 2500,2018_Nov_17_1512,testMonitor,
287.5,287.1,289.0,293.7,36,0,301.8,292.7,300.8,288.0,8.225,7.834,7.664,8.116,8.183,7.883,8.385,4.886,-4.388,-8.155,1.75,-1.178,7.613,4.808,-4.414,-8.203,290.1,294.0,-8.327,290.3,293.6,289.6,299.2,294.0,36,292.9,0,5,probe,5,0,112,norm,36,-4.369,up,norm,292.61273021,287.2,295.7,286.2,290.2,3,286.4,294.1,294.5,10,5,7.6,4.777,1.165,-1.538,-5.152,-7.845,298.1,2,180.6,-7.729,-7.711,10,-7.964,-8.289,-4.552,-4.307,-5.08,-5.189,5.128,7.548,3,-1.432,2.0,4.48,7.592,-7.95,-7.941,-1.188,1.698,282.6,300.1,,294.6,302.6,284.5,292.3,295.1,294.1,299.8,0,norm,2.079,1.139,-1.117,-1.802,-5.006,-5.236,-1.692,-1.487,-1.731,-2.049,1.102,-1.391,296.1,295.8,-4.786,-8.109,1.965,-1.203,7.852,4.682,-4.765,-8.149,11,4.374,5.036,4.969,4.672,1.647,1.82,2.0,1.675,11,4.499,4.797,10,172.826931698,norm,0,42,42,42,444.039,444.049,444.060690825,444.061,444.063,444.065,up,1,2.48557549656,7.51442450344,001,012,1920_1080,Intel(R) Core(TM) i5-3570 CPU @ 3.40GHz,orientation_search,LEPPC096,Intel(R) HD Graphics 2500,2018_Nov_17_1512,testMonitor,
,291.3,296.1,285.6,36,0,284.9,284.0,285.7,289.4,8.09,7.735,7.86,7.784,8.268,8.342,8.433,4.304,-4.839,-8.446,1.114,-1.262,8.138,4.526,-4.916,-8.058,289.3,293.7,-7.579,284.2,294.6,291.8,290.5,292.5,36,285.5,3,5,probe,5,0,108,norm,36,-4.752,up,norm,288.61273021,287.2,289.8,284.3,280.7,4,278.7,288.2,278.6,10,5,8.289,5.261,2.02,-1.817,-4.901,-8.154,294.0,2,180.6,-8.263,-7.84,10,-8.403,-8.226,-4.563,-4.943,-5.117,-4.35,5.265,8.26,22,-1.93,1.108,5.041,7.904,-7.61,-7.719,-2.022,1.636,281.9,283.1,294.0,290.1,292.2,293.2,279.6,294.4,279.9,279.8,1,norm,1.416,1.394,-1.378,-1.376,-5.038,-4.848,-2.07,-1.47,-1.832,-1.118,1.196,-1.962,284.4,298.6,-4.734,-8.435,1.564,-1.42,7.531,4.534,-5.129,-7.635,11,4.959,4.546,5.106,5.292,1.871,1.241,1.338,1.622,11,4.587,4.647,10,172.826931698,norm,0,43,43,43,446.583,446.593,446.603562879,446.604,446.605,446.608,up,1,0.935744062899,9.0642559371,001,012,1920_1080,Intel(R) Core(TM) i5-3570 CPU @ 3.40GHz,orientation_search,LEPPC096,Intel(R) HD Graphics 2500,2018_Nov_17_1512,testMonitor,
318.4,322.8,,309.8,36,40,342.9,328.8,330.5,329.4,7.779,8.109,8.344,8.19,8.436,8.114,7.748,4.517,-5.27,-7.514,1.276,-1.588,7.792,4.713,-4.642,-8.325,338.2,330.0,-8.366,316.6,327.3,323.2,320.1,331.3,36,324.7,3,5,prime,10,0,86,norm,36,-4.443,down,norm,329.762464844,319.2,318.8,321.8,335.9,2,349.8,338.1,323.1,10,5,7.701,4.408,1.754,-1.595,-4.398,-7.595,336.8,5,415.8,-8.221,-8.138,40,-7.814,-7.599,-4.906,-4.781,-4.637,-4.756,4.745,8.277,20,-2.033,1.93,5.046,7.881,-8.226,-8.349,-1.82,2.035,328.2,337.0,314.3,329.5,318.5,328.7,323.9,314.9,329.7,327.7,0,norm,1.562,1.603,-1.676,-1.798,-5.18,-4.524,-1.432,-1.6,-1.67,-1.886,1.326,-1.182,333.8,338.4,-4.441,-8.236,1.959,-1.379,8.219,5.268,-4.899,-7.928,12,4.619,4.301,4.707,5.188,2.041,1.927,1.289,1.659,12,5.159,4.632,0,172.826931698,norm,0,44,44,44,447.577,447.59,447.60905649,447.609,447.611,447.613,down,1,1.10573964688,8.89426035312,001,012,1920_1080,Intel(R) Core(TM) i5-3570 CPU @ 3.40GHz,orientation_search,LEPPC096,Intel(R) HD Graphics 2500,2018_Nov_17_1512,testMonitor,
321.4,325.8,329.8,325.7,36,40,334.3,319.8,335.7,330.4,8.071,7.969,7.721,8.151,7.731,8.422,7.654,4.96,-4.853,-7.615,1.967,-1.67,8.373,4.953,-4.427,-7.904,349.8,309.8,-8.478,326.6,334.8,320.6,315.8,329.3,36,322.5,0,5,prime,10,0,116,norm,36,-4.924,down,norm,329.762464844,339.4,330.4,345.6,337.6,0,328.0,329.5,341.0,10,5,7.777,5.156,1.582,-1.4,-5.26,-8.353,339.7,5,445.8,-7.634,-7.564,40,-8.409,-7.681,-4.986,-4.318,-5.106,-5.022,4.35,7.85,0,-1.252,1.238,4.546,8.431,-7.982,-7.531,-1.171,1.429,326.5,341.2,340.0,325.6,340.3,,321.7,345.4,335.7,332.9,1,norm,1.705,1.192,-1.791,-1.846,-5.299,-4.789,-1.912,-1.159,-1.793,-2.1,1.604,-1.758,316.1,327.0,-4.68,-7.979,1.481,-1.685,8.254,4.31,-4.733,-8.395,12,5.021,4.407,4.349,4.39,1.762,1.187,2.007,1.901,12,4.607,4.731,0,172.826931698,norm,0,45,45,45,448.752,448.762,448.771650791,448.772,448.774,448.776,down,1,2.06235098201,7.93764901799,001,012,1920_1080,Intel(R) Core(TM) i5-3570 CPU @ 3.40GHz,orientation_search,LEPPC096,Intel(R) HD Graphics 2500,2018_Nov_17_1512,testMonitor,
326.5,338.4,309.8,326.1,36,40,332.1,341.7,334.5,319.2,8.479,8.157,8.292,8.263,7.607,7.799,8.405,4.31,-5.246,-8.347,1.382,-1.344,8.046,4.649,-5.047,-8.11,325.4,334.8,-7.781,334.0,324.5,332.9,330.3,349.8,36,312.1,2,5,prime,10,0,105,norm,36,-4.395,down,norm,329.762464844,312.9,320.2,330.2,326.1,1,316.5,,322.9,10,5,8.441,4.489,1.74,-1.528,-4.975,-7.614,324.2,5,434.8,-8.219,-7.881,40,-7.566,-8.096,-4.494,-4.776,-5.082,-4.916,4.758,8.052,13,-1.589,1.315,4.625,8.219,-7.982,-8.422,-1.945,1.519,332.0,345.9,333.4,326.4,327.1,338.0,312.6,332.9,335.8,322.4,2,norm,1.759,1.258,-1.605,-1.42,-4.596,-4.478,-1.47,-1.61,-1.876,-1.786,1.237,-1.36,322.1,341.6,-4.696,-8.224,1.63,-1.817,8.38,4.623,-5.035,-8.226,12,4.743,4.395,4.406,4.514,1.743,1.396,1.785,1.445,12,4.904,4.911,0,172.826931698,norm,0,46,46,46,450.871,450.881,450.892995313,450.893,450.895,450.898,down,1,1.22102640586,8.77897359414,001,012,1920_1080,Intel(R) Core(TM) i5-3570 CPU @ 3.40GHz,orientation_search,LEPPC096,Intel(R) HD Graphics 2500,2018_Nov_17_1512,testMonitor,
318.2,327.3,324.7,326.8,36,40,315.7,336.5,326.0,342.7,7.978,8.389,8.3,8.272,8.046,7.774,8.292,5.286,-5.262,-8.169,1.688,-1.239,7.888,4.357,-5.21,-7.928,344.1,328.2,-7.914,,348.0,345.3,323.9,336.8,36,321.5,5,5,prime,10,0,109,norm,36,-4.579,down,norm,329.762464844,337.5,343.4,326.5,327.6,1,331.7,331.3,325.1,10,5,7.702,4.464,1.311,-2.008,-4.755,-8.226,349.8,5,438.8,-8.049,-7.701,40,-8.087,-8.047,-4.48,-4.642,-5.243,-4.661,4.387,8.441,31,-1.242,1.986,4.831,7.87,-7.635,-8.335,-1.73,1.823,336.3,312.2,323.6,328.1,330.2,311.1,309.8,331.1,333.6,318.1,3,norm,1.62,1.386,-2.079,-1.926,-4.949,-4.72,-1.606,-2.03,-1.437,-1.239,1.176,-1.411,333.9,324.2,-5.147,-7.51,1.341,-1.471,7.849,4.438,-4.805,-8.049,12,4.719,4.736,5.208,5.287,1.574,1.172,2.07,2.02,12,5.246,4.733,0,172.826931698,norm,0,47,47,47,452.157,452.167,452.173397095,452.174,452.175,452.178,down,1,2.38186697672,7.61813302328,001,012,1920_1080,Intel(R) Core(TM) i5-3570 CPU @ 3.40GHz,orientation_search,LEPPC096,Intel(R) HD Graphics 2500,2018_Nov_17_1512,testMonitor,
348.5,328.4,321.4,330.7,36,40,322.6,328.7,325.1,331.3,8.195,7.637,7.696,7.903,7.887,8.125,7.94,4.617,-4.849,-7.573,1.812,-1.946,7.666,4.844,-4.377,-8.313,345.0,320.1,-7.69,342.2,325.0,335.8,345.9,346.4,36,329.6,1,5,prime,10,0,111,norm,36,-5.041,up,norm,329.762464844,333.2,328.1,314.0,349.8,5,,327.3,342.3,10,5,8.254,4.425,1.332,-1.368,-4.395,-7.888,331.6,5,440.8,-7.758,-7.865,40,-7.944,-8.456,-5.257,-4.353,-5.098,-4.538,4.495,7.688,11,-1.14,1.524,4.776,8.039,-8.059,-8.1,-1.577,1.118,315.9,339.6,333.1,347.8,330.2,315.6,309.8,332.9,328.4,337.7,4,norm,1.999,1.93,-1.666,-1.863,-4.927,-4.468,-1.135,-1.851,-1.343,-1.423,1.332,-2.074,309.9,312.3,-5.119,-8.132,1.121,-1.273,7.732,4.97,-5.085,-7.879,12,4.773,5.241,4.992,4.349,1.433,1.377,1.765,1.426,12,5.191,4.914,0,172.826931698,norm,0,48,48,48,454.576,454.586,454.592261131,454.592,454.594,454.597,up,1,0.903202866097,9.0967971339,001,012,1920_1080,Intel(R) Core(TM) i5-3570 CPU @ 3.40GHz,orientation_search,LEPPC096,Intel(R) HD Graphics 2500,2018_Nov_17_1512,testMonitor,
465.9,462.0,466.1,462.0,36,-60,469.4,458.4,465.5,461.5,7.674,8.321,7.971,8.401,7.839,7.607,8.104,4.726,-5.214,-7.741,1.778,-1.738,8.314,4.46,-5.252,-7.644,464.9,460.9,-7.928,470.4,457.5,459.1,465.7,462.5,36,462.4,0,5,probe,5,0,96,norm,36,-5.137,up,norm,463.720475867,465.3,466.7,471.8,459.4,5,463.9,468.0,472.3,10,5,7.638,4.755,1.982,-1.925,-5.062,-7.507,472.5,1,367.7,-7.753,-7.813,40,-7.941,-8.2,-5.028,-4.601,-5.092,-5.246,4.407,7.725,5,-1.761,1.981,5.087,7.656,-8.049,-7.636,-1.711,1.369,466.5,463.2,466.5,464.0,473.7,458.3,453.7,462.6,,467.4,0,norm,1.241,1.242,-1.513,-1.657,-4.829,-4.487,-1.699,-2.089,-1.54,-2.064,1.717,-1.646,470.2,459.5,-5.238,-8.298,1.303,-1.791,8.198,4.603,-4.378,-8.273,13,5.178,4.675,5.177,4.405,1.589,1.515,1.65,1.177,13,4.87,4.302,40,329.762464844,norm,0,49,49,49,455.531,455.54,455.557594631,455.558,455.559,455.562,up,1,2.49778248256,7.50221751744,001,012,1920_1080,Intel(R) Core(TM) i5-3570 CPU @ 3.40GHz,orientation_search,LEPPC096,Intel(R) HD Graphics 2500,2018_Nov_17_1512,testMonitor,
120.2,100.2,123.4,127.3,36,20,106.6,110.7,95.3,103.3,7.645,8.471,8.184,7.979,7.973,8.321,8.074,5.137,-4.587,-7.935,1.497,-2.034,7.851,4.477,-4.32,-7.762,117.7,94.6,-7.988,107.4,107.6,,127.4,118.6,36,110.1,5,5,prime,10,0,61,norm,36,-4.625,up,norm,109.980538721,90.0,105.3,130.0,107.9,3,100.8,118.6,106.6,10,5,8.369,4.589,1.163,-1.332,-5.045,-8.231,105.3,5,171.0,-8.292,-8.334,20,-8.337,-8.122,-4.788,-5.295,-4.377,-4.489,4.576,7.6,33,-1.539,1.187,4.515,8.188,-8.052,-7.969,-1.89,1.233,92.6,105.1,106.5,103.6,94.9,118.9,114.0,104.7,111.0,106.6,0,norm,1.86,1.918,-1.787,-1.554,-4.579,-5.018,-1.666,-1.819,-1.1,-1.845,1.63,-1.716,106.9,124.2,-4.788,-7.914,1.152,-1.387,8.15,4.792,-4.75,-8.413,14,4.995,5.282,4.547,5.254,1.286,1.998,1.49,1.522,14,5.062,5.281,-60,329.762464844,norm,0,50,50,50,458.101,458.11,458.116555119,458.117,458.118,458.121,down,0,1.35750703529,-10,001,012,1920_1080,Intel(R) Core(TM) i5-3570 CPU @ 3.40GHz,orientation_search,LEPPC096,Intel(R) HD Graphics 2500,2018_Nov_17_1512,testMonitor,
112.6,118.2,119.7,117.9,36,20,119.1,105.9,93.3,100.5,7.561,7.722,7.535,8.002,8.479,7.615,8.384,5.094,-5.274,-8.109,1.429,-1.27,8.445,5.285,-4.672,-8.002,121.4,130.0,-7.594,118.7,125.2,107.1,114.6,114.9,36,102.4,2,5,prime,10,0,89,norm,36,-4.777,up,norm,109.980538721,109.9,124.4,,125.7,3,96.1,110.2,113.1,10,5,8.44,4.494,2.087,-2.062,-5.057,-7.638,95.6,5,199.0,-7.959,-7.628,20,-8.266,-8.459,-4.394,-4.923,-4.579,-4.467,5.266,7.681,15,-1.233,1.129,5.197,7.85,-8.468,-8.313,-1.923,1.897,97.7,114.2,101.3,110.3,124.3,103.7,115.9,122.4,124.1,105.7,1,norm,1.275,1.996,-1.967,-1.659,-4.799,-5.197,-1.523,-1.906,-1.409,-1.642,1.895,-1.879,114.0,90.0,-5.152,-7.514,1.675,-1.501,8.071,4.915,-4.431,-8.258,14,4.494,4.347,5.008,4.883,1.219,1.337,1.572,1.677,14,4.908,4.367,-60,329.762464844,norm,0,51,51,51,460.544,460.554,460.564833219,460.565,460.567,460.569,down,0,2.88685906985,-10,001,012,1920_1080,Intel(R) Core(TM) i5-3570 CPU @ 3.40GHz,orientation_search,LEPPC096,Intel(R) HD Graphics 2500,2018_Nov_17_1512,testMonitor,
108.9,105.8,,101.9,36,20,100.4,109.3,111.4,98.0,8.114,8.287,8.32,8.053,7.565,7.689,8.0,4.879,-4.963,-8.415,2.092,-1.216,8.475,4.683,-4.876,-7.689,123.4,107.8,-7.869,113.6,108.1,119.7,101.2,106.7,36,102.8,3,5,prime,10,0,67,norm,36,-4.919,down,norm,109.980538721,113.2,118.8,102.7,90.0,2,119.4,108.2,109.7,10,5,8.295,5.006,1.983,-1.726,-4.761,-7.653,113.3,5,177.0,-8.26,-7.514,20,-7.597,-8.02,-5.242,-4.994,-4.557,-4.405,5.157,8.353,20,-1.408,1.738,5.218,8.425,-7.893,-7.509,-1.784,1.438,108.2,119.0,97.9,108.5,115.5,111.7,116.6,117.9,102.3,114.0,2,norm,2.056,1.89,-1.382,-1.354,-4.881,-4.367,-2.018,-1.298,-1.29,-1.792,2.009,-1.968,130.0,98.4,-4.775,-7.686,2.012,-1.35,8.406,4.612,-4.508,-8.268,14,4.458,4.961,4.877,4.941,1.417,1.676,2.063,1.138,14,4.864,4.47,-60,329.762464844,norm,0,52,52,52,464.522,464.532,464.542751315,464.543,464.545,464.547,down,1,1.30599899364,8.69400100636,001,012,1920_1080,Intel(R) Core(TM) i5-3570 CPU @ 3.40GHz,orientation_search,LEPPC096,Intel(R) HD Graphics 2500,2018_Nov_17_1512,testMonitor,
96.8,113.7,90.0,108.1,36,20,108.8,106.9,119.2,108.5,7.633,8.137,7.564,8.323,7.616,7.977,8.396,5.133,-5.152,-8.214,1.999,-1.256,7.929,4.311,-4.306,-7.695,103.9,110.3,-7.883,90.2,129.0,116.3,119.3,97.9,36,97.1,3,5,prime,10,0,66,norm,36,-4.374,down,norm,109.980538721,102.8,107.1,106.7,107.0,1,103.4,111.4,102.0,10,5,8.054,5.169,1.57,-1.495,-5.172,-8.034,111.6,5,176.0,-8.33,-7.802,20,-8.437,-8.118,-4.803,-4.555,-4.413,-4.696,4.581,8.354,19,-1.142,2.056,4.685,7.864,-7.813,-8.151,-1.26,1.821,117.5,112.0,100.9,106.6,103.0,109.6,121.6,106.5,101.7,111.4,3,norm,1.494,1.621,-1.44,-1.124,-4.46,-4.768,-1.339,-1.823,-1.253,-1.747,1.865,-1.395,,107.2,-4.597,-7.65,1.961,-1.18,8.079,5.118,-5.273,-8.369,14,5.204,5.035,5.084,4.35,1.465,1.652,1.672,1.509,14,4.541,4.375,-60,329.762464844,norm,0,53,53,53,465.87,465.88,465.886100227,465.886,465.888,465.89,down,1,1.05232091505,8.94767908495,001,012,1920_1080,Intel(R) Core(TM) i5-3570 CPU @ 3.40GHz,orientation_search,LEPPC096,Intel(R) HD Graphics 2500,2018_Nov_17_1512,testMonitor,
123.5,117.2,114.1,99.8,36,20,105.5,,100.8,109.7,7.833,8.054,8.325,8.404,8.288,8.002,8.441,4.301,-5.249,-8.462,2.016,-1.254,7.876,4.532,-5.186,-7.656,115.3,107.4,-7.895,103.8,114.8,124.0,121.0,124.3,36,97.5,4,5,prime,10,0,104,norm,36,-4.303,down,norm,109.980538721,123.2,102.7,120.4,113.4,1,103.3,126.5,128.8,10,5,7.508,4.661,1.946,-1.289,-4.378,-7.874,102.8,5,214.0,-8.157,-8.358,20,-7.897,-7.764,-5.009,-4.401,-4.589,-4.882,4.454,8.429,25,-1.722,1.723,4.765,7.675,-7.895,-7.813,-1.105,1.859,130.0,107.2,104.6,117.7,107.0,103.6,108.1,103.5,90.0,117.2,4,norm,1.827,2.001,-1.16,-2.075,-5.127,-4.723,-1.615,-1.967,-1.26,-1.473,1.3,-1.512,112.8,108.5,-4.389,-8.096,1.483,-1.527,8.151,4.616,-5.058,-7.749,14,4.995,4.569,4.358,4.56,1.938,1.708,2.052,1.746,14,5.12,4.625,-60,329.762464844,norm,0,54,54,54,466.959,466.969,466.976119693,466.976,466.978,466.981,down,1,1.94316858837,8.05683141163,001,012,1920_1080,Intel(R) Core(TM) i5-3570 CPU @ 3.40GHz,orientation_search,LEPPC096,Intel(R) HD Graphics 2500,2018_Nov_17_1512,testMonitor,
185.9,183.7,182.0,189.2,36,-30,194.6,191.2,196.5,181.9,7.514,8.477,7.631,7.772,8.101,8.389,7.84,5.17,-4.648,-7.539,1.547,-1.105,8.484,5.165,-5.101,-8.177,189.4,186.8,-7.719,186.4,186.5,192.3,189.6,191.9,36,188.0,2,5,probe,5,0,63,norm,36,-5.267,up,norm,190.819388825,188.2,194.2,,191.7,3,194.5,195.2,197.5,10,5,8.36,4.658,1.446,-2.1,-4.572,-8.4,189.2,2,127.8,-8.298,-8.359,20,-8.144,-7.691,-4.765,-4.949,-5.145,-4.44,4.356,8.371,15,-1.558,2.035,4.588,7.707,-7.768,-8.014,-1.953,1.187,187.5,193.8,187.5,200.8,180.8,185.4,185.3,190.0,198.7,190.6,0,norm,1.692,1.402,-1.59,-1.613,-5.15,-4.72,-1.72,-1.549,-1.626,-1.587,1.697,-1.256,193.7,182.6,-5.2,-8.232,1.291,-1.84,8.195,4.769,-4.415,-8.328,15,4.5,5.204,5.063,5.202,1.478,1.863,1.996,1.793,15,5.187,4.924,20,109.980538721,norm,0,55,55,55,468.942,468.951,468.957948818,468.958,468.96,468.962,up,1,1.86215049538,8.13784950462,001,012,1920_1080,Intel(R) Core(TM) i5-3570 CPU @ 3.40GHz,orientation_search,LEPPC096,Intel(R) HD Graphics 2500,2018_Nov_17_1512,testMonitor,
190.5,196.9,186.9,192.2,36,-30,200.8,191.9,193.5,190.5,7.58,7.883,8.315,7.902,7.752,7.66,8.213,4.771,-4.363,-7.755,1.847,-2.055,7.83,5.284,-4.638,-8.09,185.6,,-7.933,187.6,187.1,191.4,183.1,187.4,36,185.3,5,5,probe,5,0,63,norm,36,-4.468,up,norm,190.819388825,197.7,191.5,200.8,194.6,4,186.8,192.5,188.2,10,5,7.978,4.37,1.333,-1.528,-5.145,-7.64,189.9,2,127.8,-8.206,-7.558,20,-7.842,-7.755,-4.993,-4.888,-5.112,-4.997,4.392,8.022,34,-1.965,1.79,5.219,7.598,-8.101,-8.358,-1.199,1.667,192.9,188.1,190.7,186.7,189.4,195.8,194.2,193.9,185.4,180.8,1,norm,1.894,1.764,-1.777,-2.078,-4.657,-4.948,-1.768,-1.634,-1.991,-1.541,1.209,-1.671,194.2,197.1,-4.472,-7.988,1.657,-1.504,8.426,4.546,-4.57,-8.459,15,4.398,5.089,4.449,5.149,2.022,1.924,1.779,1.141,15,4.766,4.855,20,109.980538721,norm,0,56,56,56,470.861,470.872,470.891552184,470.892,470.894,470.897,up,1,1.50614363862,8.49385636138,001,012,1920_1080,Intel(R) Core(TM) i5-3570 CPU @ 3.40GHz,orientation_search,LEPPC096,Intel(R) HD Graphics 2500,2018_Nov_17_1512,testMonitor,
267.6,257.6,262.3,253.6,36,-20,261.1,239.7,259.6,262.4,8.214,8.165,7.711,8.361,8.306,8.425,7.744,4.388,-4.739,-8.06,1.316,-1.373,7.675,5.228,-4.495,-8.295,257.7,269.0,-7.789,279.7,264.0,274.7,264.0,244.3,36,250.9,1,5,prime,10,0,110,norm,36,-5.182,up,norm,259.736863842,248.3,254.7,265.0,242.2,3,269.3,258.3,277.1,10,5,7.539,4.971,1.132,-1.352,-4.83,-8.29,254.8,5,369.7,-8.479,-7.544,-20,-7.836,-7.713,-4.616,-5.013,-4.46,-5.187,4.401,7.681,9,-2.085,2.033,4.705,8.404,-7.857,-8.116,-1.219,1.127,,253.5,275.3,252.2,257.7,247.5,269.0,254.6,268.8,259.7,0,norm,1.45,1.828,-1.66,-1.204,-4.464,-4.472,-1.454,-1.982,-1.278,-2.04,1.664,-1.314,258.9,260.8,-4.341,-8.111,1.227,-1.283,7.512,4.866,-4.396,-8.489,16,4.393,4.801,4.857,5.276,1.173,1.461,1.48,1.986,16,5.216,5.046,-30,109.980538721,norm,0,57,57,57,472.421,472.43,472.436577009,472.437,472.438,472.441,up,1,1.77682625608,8.22317374392,001,012,1920_1080,Intel(R) Core(TM) i5-3570 CPU @ 3.40GHz,orientation_search,LEPPC096,Intel(R) HD Graphics 2500,2018_Nov_17_1512,testMonitor,
257.3,252.2,265.0,279.7,36,-20,253.0,264.2,265.3,265.1,7.857,7.722,7.709,8.288,8.493,7.559,7.79,4.8,-4.613,-7.936,2.035,-1.98,7.55,4.769,-5.174,-7.69,,264.2,-7.566,255.7,271.5,249.2,258.4,270.3,36,248.8,5,5,prime,10,0,98,norm,36,-4.902,up,norm,259.736863842,239.7,258.4,258.9,270.6,5,251.3,257.5,253.5,10,5,8.101,5.181,1.995,-1.264,-4.584,-7.777,264.2,5,357.7,-8.41,-7.609,-20,-8.488,-8.469,-4.632,-5.25,-4.491,-5.141,5.052,8.068,35,-2.025,1.28,4.35,7.637,-8.099,-7.696,-1.716,1.116,269.1,262.4,264.5,264.8,252.6,243.4,259.2,265.7,267.1,271.2,1,norm,2.09,2.019,-1.175,-1.686,-5.278,-4.561,-1.666,-2.096,-1.16,-1.634,1.567,-1.682,264.8,256.5,-4.424,-8.173,1.499,-1.919,7.618,4.412,-4.929,-8.282,16,4.919,4.848,5.228,4.473,1.97,1.605,1.877,1.479,16,4.578,4.828,-30,109.980538721,norm,0,58,58,58,474.25,474.259,474.276762114,474.277,474.279,474.281,up,1,2.19817056698,7.80182943302,001,012,1920_1080,Intel(R) Core(TM) i5-3570 CPU @ 3.40GHz,orientation_search,LEPPC096,Intel(R) HD Graphics 2500,2018_Nov_17_1512,testMonitor,
277.6,256.5,254.8,271.5,36,-20,273.3,250.7,256.7,239.7,8.204,7.636,7.575,7.876,7.528,7.758,8.101,4.599,-4.472,-7.513,2.006,-1.574,8.01,5.17,-4.483,-8.15,,266.8,-8.188,260.3,247.5,259.1,275.7,277.9,36,275.2,5,5,prime,10,0,61,norm,36,-5.227,up,norm,259.736863842,253.7,262.9,270.6,250.3,5,258.1,271.9,253.8,10,5,7.812,4.949,1.809,-1.16,-4.95,-7.944,274.1,5,320.7,-7.812,-8.063,-20,-8.175,-8.174,-5.081,-4.936,-4.853,-5.025,4.742,7.628,35,-1.803,2.043,5.084,7.755,-7.862,-7.648,-1.382,1.568,261.1,277.9,265.8,249.9,262.6,260.3,250.3,262.0,269.9,243.3,2,norm,1.694,1.38,-2.094,-1.153,-5.113,-4.832,-1.116,-1.153,-1.747,-2.087,1.68,-1.801,279.7,260.3,-4.465,-7.501,1.68,-1.593,8.038,4.851,-4.702,-8.351,16,4.734,4.614,5.015,4.354,1.694,1.69,1.683,1.812,16,4.812,4.781,-30,109.980538721,norm,0,59,59,59,476.512,476.521,476.538368802,476.539,476.54,476.543,up,1,2.56549999864,7.43450000136,001,012,1920_1080,Intel(R) Core(TM) i5-3570 CPU @ 3.40GHz,orientation_search,LEPPC096,Intel(R) HD Graphics 2500,2018_Nov_17_1512,testMonitor,
242.6,264.2,260.2,255.5,36,-20,277.0,256.3,254.0,250.1,7.838,7.812,7.659,7.728,7.607,8.15,8.36,5.149,-4.698,-8.43,1.382,-1.963,7.868,4.947,-4.882,-7.643,241.5,250.7,-7.928,244.7,247.2,239.7,269.0,264.7,36,260.4,0,5,prime,10,0,61,norm,36,-4.562,up,norm,259.736863842,272.7,279.7,251.8,271.8,5,261.9,267.0,263.2,10,5,7.887,5.263,1.684,-2.067,-4.557,-7.918,254.5,5,320.7,-8.452,-8.094,-20,-7.808,-8.015,-5.274,-4.398,-5.187,-4.923,5.077,7.933,5,-1.841,1.847,5.295,7.595,-7.83,-8.145,-1.112,1.268,262.9,264.2,263.2,261.9,247.8,262.9,256.4,272.5,,243.7,3,norm,1.645,1.561,-1.327,-1.449,-4.541,-5.135,-1.302,-1.627,-2.046,-1.857,1.638,-2.032,276.0,258.6,-4.416,-8.4,1.75,-1.68,7.505,4.839,-5.283,-8.079,16,4.933,4.464,4.468,4.545,1.945,2.014,1.815,1.703,16,4.34,5.263,-30,109.980538721,norm,0,60,60,60,479.128,479.138,479.144537524,479.145,479.146,479.149,up,1,3.28819033493,6.71180966507,001,012,1920_1080,Intel(R) Core(TM) i5-3570 CPU @ 3.40GHz,orientation_search,LEPPC096,Intel(R) HD Graphics 2500,2018_Nov_17_1512,testMonitor,
279.7,255.8,270.2,276.6,36,-20,254.9,266.8,260.8,278.4,7.862,7.658,8.389,8.132,8.357,7.537,7.699,4.403,-4.823,-7.677,1.676,-1.938,8.394,5.01,-4.965,-8.151,266.5,259.7,-8.412,264.6,252.1,,251.5,254.1,36,259.2,5,5,prime,10,0,75,norm,36,-5.259,up,norm,259.736863842,271.9,275.4,253.5,271.2,3,259.9,264.0,263.9,10,5,7.785,4.706,1.572,-1.909,-5.162,-8.079,266.7,5,334.7,-7.639,-8.127,-20,-7.603,-8.414,-5.078,-4.925,-4.382,-4.863,4.813,8.351,33,-1.272,1.657,4.77,7.809,-7.721,-7.949,-1.623,1.586,270.7,270.4,254.2,259.0,258.4,272.1,239.7,247.3,247.1,266.3,4,norm,1.834,2.016,-1.683,-1.637,-4.682,-4.607,-1.126,-1.16,-1.407,-1.475,2.067,-1.793,266.3,262.6,-4.946,-7.568,1.48,-1.888,8.486,4.614,-5.183,-7.739,16,4.637,4.781,4.383,5.162,1.436,1.973,1.997,1.128,16,4.874,5.275,-30,109.980538721,norm,0,61,61,61,482.47,482.48,482.49722467,482.497,482.499,482.502,up,1,2.39820081203,7.60179918797,001,012,1920_1080,Intel(R) Core(TM) i5-3570 CPU @ 3.40GHz,orientation_search,LEPPC096,Intel(R) HD Graphics 2500,2018_Nov_17_1512,testMonitor,
330.9,330.8,337.0,330.2,36,-10,337.7,338.4,339.0,333.9,8.302,7.784,7.895,7.627,7.75,7.641,7.718,5.153,-4.831,-7.522,1.797,-1.517,8.246,5.187,-5.031,-8.17,341.7,340.5,-8.367,325.8,332.5,332.0,333.6,327.9,36,333.0,1,5,probe,5,0,91,norm,36,-4.457,down,norm,332.526061125,327.3,327.9,329.8,333.4,2,323.3,325.1,336.8,10,5,7.818,4.957,1.898,-1.726,-5.026,-7.735,323.7,1,241.5,-7.848,-7.758,-20,-7.982,-8.438,-4.872,-4.546,-4.466,-4.997,4.653,7.935,8,-1.471,1.992,4.711,7.934,-7.961,-8.317,-1.85,1.914,331.8,,328.2,331.9,342.5,329.3,335.1,329.6,329.2,327.7,0,norm,2.011,2.038,-1.869,-1.129,-4.916,-4.396,-1.798,-1.318,-1.935,-1.753,1.361,-1.713,335.7,322.5,-5.179,-7.823,1.268,-1.325,7.507,4.784,-4.631,-7.704,17,4.723,5.234,4.489,4.39,1.108,1.178,1.98,1.862,17,4.341,5.023,-20,259.736863842,norm,0,62,62,62,484.917,484.926,484.933015066,484.933,484.935,484.937,down,1,0.970621553852,9.02937844615,001,012,1920_1080,Intel(R) Core(TM) i5-3570 CPU @ 3.40GHz,orientation_search,LEPPC096,Intel(R) HD Graphics 2500,2018_Nov_17_1512,testMonitor,
238.1,234.2,219.8,238.4,36,80,225.4,214.4,234.3,234.2,7.709,7.968,8.383,8.321,7.661,7.786,8.408,4.821,-4.892,-7.718,1.292,-1.433,8.41,5.244,-4.847,-8.275,,230.4,-8.395,220.0,233.7,233.2,221.9,236.8,36,223.0,5,5,prime,10,0,78,norm,36,-4.499,up,norm,231.219250069,222.6,251.2,220.6,220.6,5,230.3,236.5,225.3,10,5,7.617,4.356,1.557,-1.786,-4.773,-8.456,223.8,5,309.2,-7.842,-8.009,80,-8.071,-7.784,-4.944,-5.081,-4.611,-5.241,4.777,7.612,35,-1.434,1.283,4.385,8.068,-7.795,-8.435,-2.08,1.436,232.8,226.7,220.0,227.2,234.2,245.6,221.1,242.7,244.9,211.2,0,norm,2.057,1.921,-1.815,-1.667,-4.675,-4.682,-1.715,-1.858,-1.646,-1.84,1.261,-1.136,228.1,225.9,-5.208,-8.082,2.085,-1.693,8.334,4.658,-4.982,-7.898,18,4.305,4.635,5.206,4.406,2.084,1.287,2.096,1.366,18,5.189,4.364,-10,259.736863842,norm,0,63,63,63,485.94,508.982,509.000658026,509.001,509.003,509.005,up,1,1.00138577861,8.99861422139,001,012,1920_1080,Intel(R) Core(TM) i5-3570 CPU @ 3.40GHz,orientation_search,LEPPC096,Intel(R) HD Graphics 2500,2018_Nov_17_1512,testMonitor,
234.9,231.2,240.6,243.4,36,80,220.6,229.2,224.7,242.3,7.98,8.263,7.775,7.976,8.133,8.445,8.014,4.753,-4.406,-8.062,1.375,-1.624,7.793,4.378,-4.61,-7.632,,231.8,-7.835,251.2,227.6,228.7,236.0,227.9,36,240.4,5,5,prime,10,0,67,norm,36,-4.52,up,norm,231.219250069,213.3,236.2,235.8,233.1,5,249.6,219.0,243.2,10,5,8.284,5.103,1.532,-1.4,-4.599,-8.379,228.7,5,298.2,-8.028,-7.883,80,-7.827,-7.588,-4.903,-4.996,-5.125,-4.455,4.753,7.636,35,-1.973,2.029,4.595,8.047,-8.418,-8.38,-1.663,1.63,211.2,228.7,235.6,246.2,238.1,245.3,232.9,233.6,239.0,238.9,1,norm,1.234,1.144,-1.876,-2.044,-4.408,-4.338,-1.524,-1.15,-1.628,-1.332,1.64,-2.041,229.6,225.0,-5.299,-8.287,1.14,-1.807,7.787,4.631,-4.977,-8.236,18,5.098,4.865,4.417,4.444,1.75,1.355,1.349,1.413,18,4.468,5.243,-10,259.736863842,norm,0,64,64,64,510.039,510.049,510.061369376,510.062,510.063,510.066,up,1,0.68527371014,9.31472628986,001,012,1920_1080,Intel(R) Core(TM) i5-3570 CPU @ 3.40GHz,orientation_search,LEPPC096,Intel(R) HD Graphics 2500,2018_Nov_17_1512,testMonitor,
233.2,232.9,222.8,231.3,36,80,232.0,228.2,237.7,216.8,7.894,8.48,7.887,8.425,7.793,7.644,7.865,4.786,-4.934,-7.905,1.703,-1.212,8.488,4.737,-4.967,-7.968,243.1,222.1,-7.522,235.7,218.0,239.3,232.2,237.2,36,220.5,1,5,prime,10,0,117,norm,36,-5.174,down,norm,231.219250069,235.7,224.8,235.8,229.8,0,243.6,231.5,251.2,10,5,7.814,5.111,1.919,-1.592,-4.874,-7.592,228.5,5,348.2,-8.224,-7.778,80,-7.898,-7.967,-4.537,-4.863,-5.124,-4.531,4.382,7.813,6,-1.497,1.82,5.298,7.77,-7.738,-8.168,-1.806,2.031,227.4,221.9,211.8,228.4,239.9,221.3,231.5,,226.1,231.1,2,norm,1.579,2.06,-1.361,-2.084,-4.986,-4.315,-1.518,-1.767,-1.18,-1.878,2.055,-1.278,211.2,245.7,-4.322,-7.91,1.755,-2.089,8.004,5.253,-5.201,-7.646,18,5.268,4.949,4.971,4.548,1.26,1.839,1.622,2.057,18,5.121,4.946,-10,259.736863842,norm,0,65,65,65,510.784,510.797,510.825825951,510.826,510.83,510.836,down,1,1.0663145322,8.9336854678,001,012,1920_1080,Intel(R) Core(TM) i5-3570 CPU @ 3.40GHz,orientation_search,LEPPC096,Intel(R) HD Graphics 2500,2018_Nov_17_1512,testMonitor,
217.2,239.3,248.5,225.6,36,80,248.4,240.1,221.8,,8.316,7.756,8.469,7.586,8.5,7.96,8.463,4.56,-4.408,-7.726,1.27,-1.824,8.206,4.59,-5.037,-8.096,249.2,228.1,-7.615,225.5,227.0,226.6,240.8,236.6,36,231.1,4,5,prime,10,0,94,norm,36,-4.749,up,norm,231.219250069,214.0,235.5,235.0,235.6,5,217.2,226.8,225.5,10,5,8.11,5.188,2.02,-1.703,-4.963,-7.688,217.5,5,325.2,-7.865,-8.15,80,-8.392,-8.268,-4.429,-4.685,-4.312,-4.682,5.177,7.864,29,-1.877,1.346,5.087,8.098,-7.988,-8.373,-1.165,1.283,211.3,246.9,232.1,227.6,224.0,242.0,227.7,240.4,211.8,251.2,3,norm,1.537,2.081,-1.258,-1.151,-4.661,-5.094,-1.362,-1.266,-1.765,-1.893,2.074,-1.875,211.2,241.5,-4.914,-8.417,1.503,-1.962,7.693,5.294,-4.496,-7.674,18,4.974,5.003,4.999,5.047,1.817,1.483,2.004,1.55,18,4.928,5.235,-10,259.736863842,norm,0,66,66,66,511.919,511.93,511.935386374,511.936,511.937,511.94,up,1,0.800339215421,9.19966078458,001,012,1920_1080,Intel(R) Core(TM) i5-3570 CPU @ 3.40GHz,orientation_search,LEPPC096,Intel(R) HD Graphics 2500,2018_Nov_17_1512,testMonitor,
244.4,235.2,248.3,218.1,36,80,243.0,226.6,228.9,227.9,7.79,7.691,7.605,8.42,8.346,8.205,7.593,4.642,-4.593,-7.848,1.492,-2.025,7.719,5.184,-4.578,-7.614,233.5,227.1,-7.923,239.9,235.7,223.7,211.2,233.9,36,245.3,1,5,prime,10,0,101,norm,36,-4.537,up,norm,231.219250069,221.8,239.1,227.6,220.4,4,236.5,235.0,230.7,10,5,8.401,4.522,1.869,-2.046,-4.358,-7.959,,5,332.2,-7.976,-7.691,80,-8.202,-8.422,-4.378,-4.922,-5.245,-4.988,5.105,8.1,10,-1.616,1.222,4.923,8.371,-7.592,-8.262,-1.452,1.614,243.3,243.4,251.2,217.3,214.0,229.8,223.8,249.0,237.5,232.5,4,norm,1.526,1.535,-1.612,-1.643,-4.55,-4.824,-1.755,-1.986,-1.783,-1.991,1.814,-1.246,215.9,234.6,-4.682,-7.526,1.673,-1.126,7.965,4.709,-4.591,-8.328,18,5.065,5.13,5.165,5.061,1.253,1.639,1.699,1.882,18,4.787,4.504,-10,259.736863842,norm,0,67,67,67,512.774,512.783,512.791185712,512.791,512.793,512.796,down,0,0.769887402092,-10,001,012,1920_1080,Intel(R) Core(TM) i5-3570 CPU @ 3.40GHz,orientation_search,LEPPC096,Intel(R) HD Graphics 2500,2018_Nov_17_1512,testMonitor,
409.4,408.8,403.2,408.6,36,30,408.8,413.0,403.7,400.4,8.4,7.557,7.702,8.229,8.082,7.757,8.379,4.596,-4.389,-7.551,1.523,-1.985,8.305,4.708,-5.17,-7.63,408.2,403.8,-7.787,402.1,399.0,415.5,403.9,406.5,36,410.3,2,5,probe,5,0,90,norm,36,-4.645,down,norm,405.451064201,412.3,404.0,404.4,403.5,0,404.4,404.9,,10,5,7.703,4.429,1.473,-1.553,-4.696,-7.568,403.1,2,315.5,-7.769,-7.873,80,-7.58,-7.528,-4.592,-4.396,-5.094,-4.526,4.595,8.209,12,-2.003,2.072,4.985,7.703,-7.648,-7.607,-1.931,1.154,404.3,414.1,402.1,414.7,403.5,405.8,397.3,411.5,409.5,405.3,0,norm,1.947,1.376,-1.255,-1.755,-4.873,-4.897,-1.668,-1.46,-1.881,-1.679,1.504,-1.673,414.0,395.5,-5.162,-8.486,1.695,-2.089,7.845,4.406,-4.739,-7.686,19,5.039,4.845,4.47,4.715,1.335,1.258,2.085,1.212,19,4.636,4.519,80,231.219250069,norm,0,68,68,68,514.617,514.626,514.633034596,514.633,514.635,514.637,down,1,0.853067321794,9.14693267821,001,012,1920_1080,Intel(R) Core(TM) i5-3570 CPU @ 3.40GHz,orientation_search,LEPPC096,Intel(R) HD Graphics 2500,2018_Nov_17_1512,testMonitor,
403.5,396.3,398.1,405.5,36,30,406.5,397.5,390.6,392.7,8.171,7.945,8.383,8.23,8.421,8.085,8.106,4.692,-4.643,-8.391,1.826,-1.471,7.844,4.363,-4.678,-7.577,408.5,404.6,-8.376,404.1,396.5,396.9,393.4,401.4,36,402.8,0,5,probe,5,0,83,norm,36,-4.647,up,norm,398.451064201,389.3,398.9,396.6,392.5,4,396.1,397.5,395.4,10,5,7.745,4.666,1.234,-1.331,-4.42,-8.173,397.7,2,315.5,-7.806,-8.09,80,-7.515,-7.607,-4.842,-5.251,-4.348,-5.08,5.019,8.247,4,-1.244,1.698,5.03,8.413,-7.854,-7.886,-1.132,1.283,388.5,400.0,391.7,402.1,398.3,401.9,402.4,398.5,402.3,,1,norm,1.692,1.203,-1.588,-1.516,-4.474,-4.684,-1.568,-2.035,-1.87,-1.884,1.359,-1.975,397.9,399.1,-4.819,-8.253,1.68,-1.233,8.276,4.58,-4.876,-8.197,19,5.067,5.096,4.658,5.167,1.686,1.121,1.795,1.452,19,5.187,5.193,80,231.219250069,norm,0,69,69,69,515.507,515.516,515.523240543,515.523,515.525,515.528,up,1,0.887272599948,9.11272740005,001,012,1920_1080,Intel(R) Core(TM) i5-3570 CPU @ 3.40GHz,orientation_search,LEPPC096,Intel(R) HD Graphics 2500,2018_Nov_17_1512,testMonitor,
285.5,294.9,285.8,280.6,36,-40,271.8,283.5,298.0,278.7,8.177,8.464,8.409,8.334,8.38,7.7,7.955,5.175,-4.986,-7.803,2.042,-1.307,8.373,4.64,-4.549,-7.558,279.8,290.4,-7.97,292.6,281.7,282.3,280.7,288.2,36,283.6,0,5,prime,10,0,115,norm,36,-4.69,down,norm,284.94138268,296.2,286.9,280.5,271.4,1,268.6,298.8,290.3,10,5,8.242,4.898,2.023,-1.892,-4.549,-8.428,286.1,5,399.9,-8.214,-8.295,-40,-8.394,-8.314,-4.941,-4.727,-4.314,-4.742,4.684,8.236,1,-1.16,1.404,4.669,7.711,-8.445,-7.724,-1.479,1.929,280.8,264.9,291.9,287.1,,288.7,284.4,304.9,273.0,301.7,0,norm,1.66,1.971,-1.258,-1.334,-5.114,-4.977,-1.292,-1.839,-1.439,-1.585,1.654,-1.255,286.8,282.3,-4.861,-8.352,1.789,-1.115,8.473,4.416,-4.605,-7.533,20,5.255,4.324,5.258,4.464,1.693,1.219,1.907,1.285,20,5.143,4.734,30,231.219250069,norm,0,70,70,70,516.448,516.461,516.488351883,516.489,516.49,516.493,down,1,1.47407302096,8.52592697904,001,012,1920_1080,Intel(R) Core(TM) i5-3570 CPU @ 3.40GHz,orientation_search,LEPPC096,Intel(R) HD Graphics 2500,2018_Nov_17_1512,testMonitor,
297.7,283.1,297.4,270.9,36,-40,285.0,275.0,285.9,280.8,8.275,8.369,8.492,7.828,7.689,8.487,7.722,5.104,-4.312,-8.476,1.129,-1.394,7.619,4.97,-5.001,-7.896,264.9,275.0,-7.984,291.8,304.9,279.5,296.2,281.9,36,292.5,3,5,prime,10,0,114,norm,36,-5.094,down,norm,284.94138268,302.8,267.5,283.7,298.0,1,287.0,274.1,265.4,10,5,7.849,4.765,1.578,-1.582,-4.445,-7.691,274.6,5,398.9,-7.695,-7.695,-40,-8.195,-8.478,-4.592,-5.018,-5.074,-4.478,4.775,8.489,19,-1.121,1.15,5.243,7.832,-8.302,-7.767,-1.826,2.065,291.5,279.6,280.8,270.7,284.8,279.3,284.1,277.3,285.0,291.8,1,norm,2.082,1.428,-1.892,-1.71,-5.089,-4.454,-1.335,-1.885,-1.252,-1.15,1.693,-1.184,,284.4,-4.585,-8.12,1.558,-1.422,8.496,4.693,-5.041,-7.501,20,4.345,4.754,4.48,5.083,1.2,1.214,1.423,1.872,20,4.585,4.522,30,231.219250069,norm,0,71,71,71,517.986,517.996,518.002366177,518.003,518.004,518.007,down,1,0.904250274454,9.09574972555,001,012,1920_1080,Intel(R) Core(TM) i5-3570 CPU @ 3.40GHz,orientation_search,LEPPC096,Intel(R) HD Graphics 2500,2018_Nov_17_1512,testMonitor,
289.3,293.6,269.9,278.8,36,-40,282.7,288.9,285.1,297.0,8.257,8.119,7.754,8.131,8.37,8.129,7.554,4.62,-4.379,-7.784,1.343,-1.932,7.568,5.011,-5.22,-8.354,287.9,297.5,-7.642,270.3,289.8,286.6,275.6,291.4,36,277.0,3,5,prime,10,0,62,norm,36,-5.205,down,norm,284.94138268,295.9,282.9,270.1,289.9,0,280.5,290.0,280.5,10,5,8.19,4.863,1.609,-2.051,-4.866,-7.566,281.4,5,346.9,-8.473,-7.663,-40,-7.506,-8.392,-4.309,-4.967,-5.174,-4.444,4.817,7.662,18,-1.238,1.954,5.022,8.282,-8.213,-8.075,-1.235,1.877,293.8,281.1,277.6,264.9,304.9,273.6,281.6,277.3,275.0,284.3,2,norm,1.841,1.851,-1.995,-1.533,-4.478,-5.284,-1.305,-1.699,-1.586,-1.503,1.994,-1.691,271.2,,-4.316,-7.821,1.339,-1.138,8.423,4.367,-4.687,-7.975,20,4.438,4.972,4.889,4.427,1.338,2.064,1.268,1.905,20,5.043,5.213,30,231.219250069,norm,0,72,72,72,518.944,518.956,518.984123764,518.984,518.986,518.988,down,1,5.63586501291,4.36413498709,001,012,1920_1080,Intel(R) Core(TM) i5-3570 CPU @ 3.40GHz,orientation_search,LEPPC096,Intel(R) HD Graphics 2500,2018_Nov_17_1512,testMonitor,
295.8,289.0,271.5,276.1,36,-40,288.1,284.3,281.7,271.6,7.703,8.191,7.98,8.205,8.401,7.55,8.379,4.394,-4.354,-7.75,1.643,-1.336,7.916,4.769,-4.547,-7.859,286.5,275.7,-7.541,291.6,303.8,280.7,290.1,286.1,36,269.1,3,5,prime,10,0,76,norm,36,-4.925,down,norm,284.94138268,273.7,275.4,289.3,273.7,1,285.8,283.1,296.3,10,5,7.537,4.619,2.088,-1.592,-4.612,-8.33,304.9,5,360.9,-8.358,-8.222,-40,-8.356,-7.516,-4.416,-4.308,-4.796,-4.512,4.773,8.467,19,-1.401,1.503,4.489,8.337,-8.315,-8.235,-2.078,1.517,286.1,276.1,264.9,273.0,287.8,277.8,284.9,283.6,297.1,294.5,3,norm,1.553,1.932,-1.126,-1.723,-4.589,-4.534,-1.459,-1.478,-1.548,-1.141,1.297,-1.402,,276.7,-5.058,-7.758,1.605,-2.099,8.344,4.949,-4.576,-7.725,20,4.954,4.825,4.781,5.211,1.427,1.981,1.965,1.854,20,4.622,5.284,30,231.219250069,norm,0,73,73,73,524.663,524.672,524.678768308,524.679,524.681,524.683,down,1,2.18225358209,7.81774641791,001,012,1920_1080,Intel(R) Core(TM) i5-3570 CPU @ 3.40GHz,orientation_search,LEPPC096,Intel(R) HD Graphics 2500,2018_Nov_17_1512,testMonitor,
296.2,265.7,291.1,286.4,36,-40,279.1,297.5,287.8,264.9,8.312,7.508,8.379,7.561,7.677,7.773,7.977,5.058,-4.693,-8.266,1.693,-1.321,8.21,4.856,-5.238,-7.555,272.4,291.8,-7.88,297.0,286.7,293.2,284.1,274.8,36,284.6,1,5,prime,10,0,93,norm,36,-4.636,up,norm,284.94138268,293.6,279.8,279.8,266.3,3,283.7,272.0,278.4,10,5,7.882,4.81,1.253,-1.36,-4.6,-8.001,268.9,5,377.9,-7.951,-7.751,-40,-8.329,-8.053,-4.808,-4.912,-4.64,-4.559,5.127,7.791,9,-2.055,1.771,4.333,7.705,-7.906,-7.545,-2.092,1.406,,290.9,291.4,279.5,287.3,295.5,290.2,277.1,270.0,288.9,4,norm,1.224,1.585,-1.294,-1.351,-4.968,-4.388,-1.53,-1.387,-1.38,-1.508,1.31,-1.383,304.9,276.8,-4.53,-8.001,1.91,-1.548,7.952,4.377,-4.36,-8.121,20,4.338,4.775,4.956,4.743,1.198,1.468,1.204,1.284,20,5.26,5.262,30,231.219250069,norm,0,74,74,74,526.898,526.907,526.924335462,526.924,526.926,526.929,up,1,2.07788552702,7.92211447298,001,012,1920_1080,Intel(R) Core(TM) i5-3570 CPU @ 3.40GHz,orientation_search,LEPPC096,Intel(R) HD Graphics 2500,2018_Nov_17_1512,testMonitor,
307.2,314.4,,316.3,36,20,303.6,310.6,323.6,317.1,8.019,8.474,8.406,8.141,7.755,7.593,7.685,5.109,-4.753,-8.195,1.228,-1.8,8.028,4.628,-4.677,-8.165,314.4,307.8,-7.988,315.5,319.5,307.4,318.7,309.8,36,315.4,3,5,probe,5,0,72,norm,36,-4.493,down,norm,313.641230585,314.2,313.3,316.4,306.2,2,306.1,312.2,315.5,10,5,7.651,4.679,1.977,-1.936,-4.857,-8.446,315.3,2,241.6,-8.265,-8.053,-40,-7.58,-8.265,-4.656,-4.517,-5.104,-5.108,4.455,7.893,20,-1.799,1.903,4.643,7.85,-8.054,-8.291,-2.047,2.018,314.0,310.9,322.0,314.6,314.6,315.1,305.9,314.1,313.3,315.3,0,norm,1.668,1.138,-1.224,-1.787,-5.086,-5.187,-1.217,-1.729,-1.7,-1.844,1.715,-1.142,312.3,310.5,-4.553,-8.308,1.406,-1.107,8.143,4.403,-4.918,-8.064,21,4.893,4.387,4.963,4.473,1.269,1.152,1.971,1.964,21,4.949,4.908,-40,284.94138268,norm,0,75,75,75,529.046,529.056,529.062219075,529.062,529.064,529.067,down,1,0.767989389482,9.23201061052,001,012,1920_1080,Intel(R) Core(TM) i5-3570 CPU @ 3.40GHz,orientation_search,LEPPC096,Intel(R) HD Graphics 2500,2018_Nov_17_1512,testMonitor,
315.2,319.8,309.0,316.1,36,20,313.1,317.3,315.7,311.7,8.341,7.683,8.05,7.736,8.383,7.755,8.134,4.335,-4.885,-8.191,1.837,-1.102,7.91,4.699,-5.225,-7.739,313.5,314.8,-8.471,322.2,305.9,307.8,319.1,314.8,36,319.6,0,5,probe,5,0,72,norm,36,-4.686,up,norm,313.641230585,320.9,316.4,318.1,303.6,3,313.3,317.4,317.5,10,5,8.359,5.271,1.228,-1.142,-4.913,-7.893,312.1,2,241.6,-7.517,-7.562,-40,-7.582,-8.198,-4.805,-5.239,-4.985,-5.103,5.019,8.355,3,-1.573,1.552,4.998,8.029,-8.125,-8.257,-2.019,1.69,310.1,317.4,,314.2,323.6,315.8,310.1,307.8,318.0,319.8,1,norm,1.969,1.497,-1.702,-2.002,-5.114,-4.705,-1.455,-2.016,-1.134,-1.722,2.005,-1.835,319.1,308.1,-5.116,-7.524,1.137,-1.114,7.852,4.541,-4.323,-7.931,21,4.821,5.05,4.861,5.287,1.505,1.109,1.319,1.312,21,4.419,4.551,-40,284.94138268,norm,0,76,76,76,529.867,529.877,529.888059213,529.888,529.89,529.892,up,1,0.703530309493,9.29646969051,001,012,1920_1080,Intel(R) Core(TM) i5-3570 CPU @ 3.40GHz,orientation_search,LEPPC096,Intel(R) HD Graphics 2500,2018_Nov_17_1512,testMonitor,
182.9,190.3,177.9,191.4,36,-30,186.2,200.7,179.3,196.4,7.909,7.908,7.558,7.96,7.596,7.747,8.406,4.523,-4.864,-8.374,1.529,-1.708,8.482,5.227,-4.778,-7.882,200.7,199.0,-7.622,,196.3,189.3,185.5,178.7,36,190.3,5,5,prime,10,0,101,norm,36,-5.126,down,norm,185.395000592,191.1,170.6,200.5,199.3,1,182.9,195.1,191.4,10,5,8.071,4.676,1.484,-1.772,-5.072,-7.748,167.8,5,286.4,-7.638,-8.189,-30,-7.509,-8.468,-4.756,-4.804,-4.379,-4.896,4.692,8.249,31,-2.035,1.65,4.327,7.559,-7.675,-8.18,-1.255,1.819,165.4,205.4,192.2,183.2,175.6,172.3,192.3,189.6,200.1,204.0,0,norm,2.003,1.987,-1.493,-1.73,-5.267,-4.322,-1.799,-1.709,-1.868,-1.847,1.628,-1.476,190.7,176.4,-4.86,-7.815,1.818,-1.847,8.309,5.039,-4.542,-8.233,22,4.813,5.19,5.159,4.383,1.815,1.836,1.376,1.974,22,5.008,5.136,20,284.94138268,norm,0,77,77,77,530.638,530.647,530.653582212,530.654,530.655,530.658,down,1,2.36625666817,7.63374333183,001,012,1920_1080,Intel(R) Core(TM) i5-3570 CPU @ 3.40GHz,orientation_search,LEPPC096,Intel(R) HD Graphics 2500,2018_Nov_17_1512,testMonitor,
194.2,182.9,,185.9,36,-30,205.4,182.6,170.6,182.9,8.038,8.331,8.001,8.324,7.89,7.695,8.07,5.028,-4.8,-8.356,1.285,-1.888,7.955,4.378,-4.992,-7.855,174.8,192.8,-7.761,176.0,192.0,194.2,182.0,190.1,36,170.2,3,5,prime,10,0,64,norm,36,-4.508,down,norm,185.395000592,196.3,191.5,169.8,174.2,2,185.8,197.7,179.2,10,5,8.059,4.437,1.782,-1.218,-5.105,-8.223,165.4,5,249.4,-7.933,-8.267,-30,-8.368,-8.412,-4.46,-4.411,-5.14,-4.633,4.859,8.381,20,-1.592,1.263,5.128,7.978,-8.239,-7.815,-1.725,2.086,189.1,199.6,172.1,194.6,187.6,190.8,182.5,181.7,180.0,203.6,1,norm,1.755,2.099,-1.714,-1.634,-5.009,-4.403,-1.166,-1.484,-1.995,-1.898,1.224,-2.051,189.1,201.0,-4.529,-8.285,2.055,-1.549,7.837,5.264,-4.872,-7.658,22,4.431,5.028,5.152,4.888,1.167,1.155,1.627,2.053,22,4.971,4.933,20,284.94138268,norm,0,78,78,78,533.041,533.051,533.056826582,533.057,533.059,533.061,down,1,5.39329761278,4.60670238722,001,012,1920_1080,Intel(R) Core(TM) i5-3570 CPU @ 3.40GHz,orientation_search,LEPPC096,Intel(R) HD Graphics 2500,2018_Nov_17_1512,testMonitor,
179.2,186.3,168.9,171.2,36,-30,183.8,205.4,180.2,166.9,8.282,8.072,8.009,8.338,7.564,8.051,7.855,4.448,-4.934,-8.461,1.319,-1.384,7.928,4.384,-4.671,-7.981,186.7,169.6,-8.068,198.7,186.4,195.7,186.4,174.4,36,197.5,0,5,prime,10,0,62,norm,36,-4.39,up,norm,185.395000592,165.4,179.4,185.4,197.0,3,189.2,188.4,182.8,10,5,8.485,4.672,1.177,-1.758,-4.456,-7.965,192.3,5,247.4,-8.416,-8.22,-30,-8.19,-7.662,-4.981,-5.002,-4.828,-4.801,4.384,8.331,3,-1.133,1.546,5.158,8.006,-7.588,-8.118,-1.131,1.462,183.9,174.1,,172.1,170.0,188.3,172.9,178.8,170.4,192.0,2,norm,1.937,1.597,-1.425,-1.48,-4.346,-5.176,-1.804,-1.842,-1.141,-1.875,1.321,-2.001,176.8,171.1,-4.483,-7.679,1.535,-1.905,8.401,5.12,-5.147,-7.574,22,5.232,4.638,5.233,5.288,1.608,1.975,1.422,1.977,22,4.354,4.406,20,284.94138268,norm,0,79,79,79,538.487,538.498,538.514527735,538.515,538.517,538.519,up,1,6.27837699396,3.72162300604,001,012,1920_1080,Intel(R) Core(TM) i5-3570 CPU @ 3.40GHz,orientation_search,LEPPC096,Intel(R) HD Graphics 2500,2018_Nov_17_1512,testMonitor,
188.9,173.9,175.3,180.9,36,-30,190.7,177.5,183.9,175.9,8.035,8.217,8.426,7.699,7.54,7.959,8.266,5.215,-5.086,-8.318,1.864,-1.495,7.798,4.502,-5.272,-8.351,185.7,,-8.33,202.3,186.4,200.1,185.8,183.4,36,201.2,5,5,prime,10,0,114,norm,36,-4.631,up,norm,185.395000592,186.9,168.0,182.7,182.2,4,203.4,184.0,192.3,10,5,7.518,4.368,1.504,-1.212,-5.184,-8.341,189.2,5,299.4,-8.276,-8.304,-30,-8.141,-7.645,-4.982,-4.431,-4.696,-4.833,4.959,8.15,34,-1.295,1.201,4.791,8.187,-7.69,-7.987,-1.17,1.895,178.5,185.6,205.4,187.5,165.4,176.7,196.2,181.9,189.7,181.1,3,norm,1.193,1.287,-1.171,-1.525,-4.392,-4.364,-1.295,-1.959,-1.924,-1.307,2.05,-1.13,180.1,189.0,-4.845,-8.089,2.017,-1.517,7.602,4.604,-5.188,-8.054,22,4.637,5.275,4.87,5.171,1.441,1.273,1.959,1.206,22,5.155,4.883,20,284.94138268,norm,0,80,80,80,544.817,544.826,544.833201275,544.833,544.835,544.838,up,1,1.77759687094,8.22240312906,001,012,1920_1080,Intel(R) Core(TM) i5-3570 CPU @ 3.40GHz,orientation_search,LEPPC096,Intel(R) HD Graphics 2500,2018_Nov_17_1512,testMonitor,
198.1,170.3,205.4,188.4,36,-30,185.5,197.1,168.8,199.1,7.609,8.013,7.751,7.702,8.355,8.124,8.158,4.602,-5.295,-8.004,1.842,-1.37,8.238,4.472,-5.272,-7.752,194.9,185.0,-7.633,188.6,196.1,184.3,203.9,175.7,36,201.7,1,5,prime,10,0,69,norm,36,-5.077,up,norm,185.395000592,181.1,196.6,181.0,185.8,3,176.2,165.4,188.9,10,5,7.904,4.645,1.17,-2.003,-4.585,-8.437,196.9,5,254.4,-8.181,-7.908,-30,-7.642,-7.577,-5.084,-4.945,-4.429,-4.602,5.252,8.454,9,-1.968,1.141,4.466,7.559,-7.763,-8.4,-1.882,1.56,,173.3,174.3,194.6,182.3,180.3,200.8,190.4,186.6,200.8,4,norm,1.523,2.002,-1.714,-1.387,-4.616,-4.544,-1.579,-1.196,-1.32,-1.183,1.937,-1.486,191.5,189.5,-5.249,-8.186,1.306,-2.06,8.342,4.976,-4.468,-8.267,22,5.045,4.687,4.344,5.262,1.222,1.848,1.59,1.842,22,5.12,4.969,20,284.94138268,norm,0,81,81,81,546.648,546.657,546.673031106,546.673,546.675,546.678,up,1,1.12304784362,8.87695215638,001,012,1920_1080,Intel(R) Core(TM) i5-3570 CPU @ 3.40GHz,orientation_search,LEPPC096,Intel(R) HD Graphics 2500,2018_Nov_17_1512,testMonitor,
,268.1,265.1,266.6,36,-40,269.1,272.9,265.9,264.8,7.676,7.894,7.59,7.985,8.179,8.424,8.297,4.957,-4.472,-8.168,1.374,-1.699,8.004,4.937,-4.564,-7.616,271.9,267.5,-7.817,260.3,265.1,266.0,273.6,275.4,36,269.7,3,5,probe,5,0,115,norm,36,-4.826,up,norm,268.388384578,269.4,269.9,278.4,277.2,4,274.4,275.8,277.5,10,5,8.082,4.451,1.164,-1.281,-4.627,-8.279,266.0,2,153.4,-7.512,-7.741,-30,-8.341,-7.567,-4.437,-5.103,-4.826,-5.092,5.109,7.549,22,-2.008,1.981,5.224,7.546,-8.252,-8.281,-1.555,1.232,267.1,262.5,266.8,270.6,268.2,267.0,273.0,263.1,266.7,268.7,0,norm,1.511,1.283,-1.991,-1.637,-4.39,-5.082,-1.108,-2.041,-1.729,-1.189,1.995,-1.163,258.4,263.1,-4.743,-8.375,1.713,-1.12,8.194,4.667,-5.084,-7.514,23,5.171,4.945,4.682,4.368,1.462,1.959,1.196,1.648,23,4.86,4.408,-30,185.395000592,norm,0,82,82,82,547.834,547.847,547.866005683,547.866,547.868,547.87,up,1,1.67842963604,8.32157036396,001,012,1920_1080,Intel(R) Core(TM) i5-3570 CPU @ 3.40GHz,orientation_search,LEPPC096,Intel(R) HD Graphics 2500,2018_Nov_17_1512,testMonitor,
243.4,237.1,234.8,235.1,36,-40,239.1,230.4,232.9,230.5,7.622,8.344,8.032,8.016,7.575,7.7,8.279,5.134,-5.294,-7.949,1.332,-1.212,8.425,4.729,-4.61,-7.682,233.9,241.1,-7.557,238.7,229.6,230.8,227.7,227.0,36,242.2,0,5,probe,5,0,82,norm,36,-4.608,up,norm,235.388384578,245.4,233.4,225.4,231.9,5,236.2,238.4,240.1,10,5,8.305,5.179,1.266,-1.214,-4.427,-7.753,241.2,2,153.4,-7.595,-7.954,-30,-8.476,-7.706,-4.685,-5.082,-4.948,-4.811,4.762,7.712,5,-1.726,1.402,4.709,8.212,-8.025,-7.554,-1.723,1.366,240.8,234.3,234.1,228.5,232.7,238.3,236.7,243.5,,235.6,1,norm,1.542,2.096,-1.529,-1.67,-4.968,-5.128,-2.045,-1.655,-1.505,-1.786,1.313,-1.865,242.9,232.4,-4.364,-8.334,1.863,-1.778,8.395,5.078,-5.021,-8.131,23,4.435,4.819,4.384,5.152,1.648,1.305,1.521,1.506,23,4.94,5.119,-30,185.395000592,norm,0,83,83,83,549.581,549.591,549.60561272,549.606,549.608,549.61,up,1,1.52485723402,8.47514276598,001,012,1920_1080,Intel(R) Core(TM) i5-3570 CPU @ 3.40GHz,orientation_search,LEPPC096,Intel(R) HD Graphics 2500,2018_Nov_17_1512,testMonitor,
76.8,77.1,72.3,79.3,36,60,87.1,72.2,63.3,57.5,7.7,7.928,7.661,8.093,7.94,7.836,7.87,4.374,-4.506,-7.856,1.31,-1.843,8.072,4.379,-4.417,-7.57,79.9,77.8,-8.338,78.2,90.3,64.0,83.1,62.1,36,60.6,0,5,prime,10,0,86,norm,36,-4.303,up,norm,75.2780058668,76.5,95.3,55.3,75.5,3,63.8,90.9,79.2,10,5,7.994,5.038,1.285,-1.596,-5.027,-7.793,62.2,5,161.3,-7.54,-8.329,60,-8.015,-8.465,-5.008,-4.56,-4.502,-4.424,5.041,7.779,3,-1.528,1.783,4.977,8.169,-7.998,-8.413,-1.703,1.138,64.5,77.1,,75.1,67.4,90.6,67.7,75.5,82.4,72.6,0,norm,1.141,1.81,-1.713,-1.136,-4.947,-5.094,-1.709,-1.338,-1.129,-1.962,1.633,-1.208,64.5,81.1,-4.545,-8.098,1.704,-2.082,8.293,4.932,-4.973,-7.509,24,4.866,4.429,4.392,4.746,1.692,1.257,2.042,1.447,24,4.738,4.358,-40,185.395000592,norm,0,84,84,84,551.152,551.162,551.181199231,551.181,551.183,551.186,up,1,2.39772510149,7.60227489851,001,012,1920_1080,Intel(R) Core(TM) i5-3570 CPU @ 3.40GHz,orientation_search,LEPPC096,Intel(R) HD Graphics 2500,2018_Nov_17_1512,testMonitor,
,77.9,94.3,66.7,36,60,62.2,60.5,63.7,75.5,8.069,8.3,8.176,7.789,7.998,8.095,8.31,4.583,-4.941,-7.581,1.395,-1.703,7.747,4.854,-4.588,-8.439,77.7,74.4,-7.523,92.8,74.5,78.4,67.8,89.3,36,95.3,3,5,prime,10,0,70,norm,36,-4.583,up,norm,75.2780058668,79.6,65.7,77.3,55.3,4,74.7,65.9,58.1,10,5,7.641,4.727,1.254,-1.94,-4.981,-8.067,71.3,5,145.3,-7.995,-7.964,60,-8.388,-7.557,-4.763,-5.064,-4.389,-4.808,4.895,7.832,22,-1.748,1.761,5.236,8.122,-8.136,-8.061,-1.601,1.756,79.2,85.8,63.9,76.6,79.5,64.5,73.7,68.8,90.9,86.7,1,norm,1.441,1.69,-1.964,-1.908,-4.689,-5.297,-1.179,-2.068,-1.614,-1.74,1.395,-2.014,79.2,81.5,-4.956,-8.455,1.723,-1.355,7.708,5.201,-5.091,-8.209,24,5.165,4.87,4.318,4.958,1.308,2.074,1.94,1.252,24,4.457,4.507,-40,185.395000592,norm,0,85,85,85,553.601,553.61,553.616658804,553.617,553.619,553.621,up,1,0.867587359742,9.13241264026,001,012,1920_1080,Intel(R) Core(TM) i5-3570 CPU @ 3.40GHz,orientation_search,LEPPC096,Intel(R) HD Graphics 2500,2018_Nov_17_1512,testMonitor,
88.0,74.3,79.0,72.9,36,60,84.5,58.2,71.3,66.3,7.972,7.92,7.73,8.118,7.715,7.611,8.396,4.863,-5.186,-7.579,1.263,-2.033,7.733,5.073,-4.591,-8.321,73.9,89.1,-8.104,66.7,61.4,82.2,86.3,55.3,36,76.3,0,5,prime,10,0,111,norm,36,-4.757,up,norm,75.2780058668,76.2,66.3,76.8,79.8,5,71.1,81.2,84.8,10,5,7.828,4.326,1.208,-1.86,-5.186,-7.624,88.5,5,186.3,-8.282,-7.551,60,-8.479,-7.923,-4.707,-5.286,-5.189,-5.276,4.619,7.769,5,-2.026,1.746,4.503,8.489,-7.9,-7.666,-1.502,1.269,84.4,95.3,66.3,75.1,82.0,70.4,91.6,73.6,,90.1,2,norm,1.124,2.048,-1.885,-1.192,-4.829,-4.81,-1.538,-1.642,-1.505,-1.424,1.669,-1.438,72.9,68.8,-5.054,-7.906,1.897,-1.248,8.231,5.24,-5.225,-7.873,24,5.206,4.718,4.468,5.072,1.995,1.651,1.584,1.736,24,5.057,4.694,-40,185.395000592,norm,0,86,86,86,554.505,554.515,554.521576763,554.522,554.524,554.526,up,1,1.44012884028,8.55987115972,001,012,1920_1080,Intel(R) Core(TM) i5-3570 CPU @ 3.40GHz,orientation_search,LEPPC096,Intel(R) HD Graphics 2500,2018_Nov_17_1512,testMonitor,
65.2,75.9,87.3,78.5,36,60,80.7,74.9,81.1,77.2,7.923,7.835,8.422,8.118,7.523,7.761,8.162,4.567,-4.652,-8.31,1.369,-1.635,7.55,4.51,-5.18,-7.591,82.0,85.8,-8.334,71.0,76.8,74.1,73.5,75.4,36,95.3,2,5,prime,10,0,88,norm,36,-4.821,up,norm,75.2780058668,77.7,,63.7,70.1,4,73.3,72.6,80.8,10,5,7.847,4.927,1.776,-2.001,-4.974,-8.491,79.8,5,163.3,-8.398,-8.269,60,-8.222,-7.801,-5.087,-4.564,-4.995,-5.129,5.265,7.67,16,-1.242,1.397,4.687,7.598,-7.524,-7.729,-1.117,1.535,76.6,67.8,66.3,78.2,80.7,55.3,68.4,84.1,72.7,79.5,3,norm,1.249,1.307,-1.716,-1.731,-4.782,-4.647,-1.568,-1.72,-1.158,-1.649,1.462,-1.951,79.3,74.1,-4.789,-8.215,1.303,-1.535,8.153,5.083,-5.017,-7.68,24,4.694,4.857,4.518,4.427,1.795,1.437,1.228,1.129,24,4.679,4.457,-40,185.395000592,norm,0,87,87,87,555.982,555.993,556.001137359,556.001,556.003,556.006,up,1,1.05723105677,8.94276894323,001,012,1920_1080,Intel(R) Core(TM) i5-3570 CPU @ 3.40GHz,orientation_search,LEPPC096,Intel(R) HD Graphics 2500,2018_Nov_17_1512,testMonitor,
86.2,71.9,83.3,62.4,36,60,68.7,62.1,71.5,78.4,7.686,8.375,8.485,8.136,8.368,7.909,7.519,4.729,-5.171,-8.177,1.365,-1.224,7.879,5.224,-4.476,-7.746,89.2,73.6,-8.253,83.0,95.3,,69.8,55.3,36,86.9,5,5,prime,10,0,76,norm,36,-5.045,up,norm,75.2780058668,62.6,69.0,74.2,68.6,3,87.2,57.8,82.5,10,5,7.566,4.329,1.704,-1.532,-4.668,-7.557,81.0,5,151.3,-7.717,-7.69,60,-8.17,-8.427,-4.524,-4.385,-4.816,-4.622,5.163,8.052,33,-1.124,1.76,4.301,7.87,-7.966,-8.131,-1.791,1.389,80.8,57.4,73.9,82.7,67.5,73.0,57.0,88.6,80.9,81.6,4,norm,1.814,1.219,-1.299,-1.521,-4.607,-4.304,-1.276,-1.691,-1.884,-1.4,1.419,-1.557,83.4,80.8,-5.204,-7.648,1.473,-1.87,7.787,4.593,-5.03,-7.651,24,5.127,4.904,4.434,4.73,1.517,1.587,1.246,1.84,24,4.511,5.229,-40,185.395000592,norm,0,88,88,88,557.079,557.088,557.095460556,557.096,557.097,557.1,up,1,4.22852246902,5.77147753098,001,012,1920_1080,Intel(R) Core(TM) i5-3570 CPU @ 3.40GHz,orientation_search,LEPPC096,Intel(R) HD Graphics 2500,2018_Nov_17_1512,testMonitor,
193.8,194.6,198.7,192.6,36,30,191.3,196.0,186.8,192.6,7.505,8.369,7.847,8.215,8.234,8.349,8.272,5.269,-4.964,-8.009,1.106,-1.64,7.907,5.065,-4.461,-8.371,195.2,183.6,-7.976,203.6,194.1,194.7,193.1,190.0,36,189.1,2,5,probe,5,0,64,norm,36,-5.027,down,norm,193.627272327,188.7,192.5,191.3,,2,202.6,198.5,193.9,10,5,8.456,4.979,1.737,-1.132,-4.551,-7.579,196.3,1,129.6,-8.017,-8.2,60,-8.356,-7.523,-5.146,-5.025,-5.132,-4.67,5.181,7.605,14,-1.419,1.306,5.016,8.393,-8.11,-8.472,-1.205,1.388,198.4,190.9,191.0,197.1,200.0,184.9,191.6,197.0,202.7,196.0,0,norm,1.32,1.377,-1.534,-1.706,-4.324,-5.029,-1.47,-1.536,-1.528,-1.985,1.497,-1.67,194.8,189.4,-5.007,-7.78,1.367,-1.653,7.517,4.422,-4.317,-7.844,25,4.41,4.858,5.114,4.667,1.417,1.65,1.624,1.31,25,4.8,4.98,60,75.2780058668,norm,0,89,89,89,561.361,561.371,561.383229815,561.383,561.385,561.388,down,1,2.16146599741,7.83853400259,001,012,1920_1080,Intel(R) Core(TM) i5-3570 CPU @ 3.40GHz,orientation_search,LEPPC096,Intel(R) HD Graphics 2500,2018_Nov_17_1512,testMonitor,
205.4,215.4,228.2,225.3,36,30,210.7,231.8,215.6,236.6,8.367,8.4,7.531,8.426,8.379,7.996,8.018,4.738,-5.263,-8.396,1.324,-1.514,8.359,4.611,-4.979,-8.151,226.0,223.4,-8.064,,214.2,212.3,221.9,212.0,36,227.9,5,5,prime,10,0,113,norm,36,-4.855,down,norm,223.376601717,239.3,217.5,222.6,229.8,1,216.1,219.1,233.1,10,6,7.534,4.361,1.649,-1.278,-4.676,-7.676,214.1,6,336.4,-7.923,-7.937,30,-8.109,-7.534,-5.266,-4.377,-4.705,-4.667,5.278,7.74,31,-1.105,1.738,4.334,8.396,-8.483,-8.019,-1.636,1.122,211.8,224.4,221.7,232.8,217.9,203.4,226.9,241.4,222.5,218.9,0,norm,1.43,1.481,-1.295,-1.105,-4.846,-4.371,-1.59,-1.87,-1.29,-1.665,1.664,-1.914,238.5,243.4,-5.102,-8.489,1.738,-1.714,7.734,5.085,-5.08,-8.371,26,4.952,4.87,4.678,4.336,1.972,1.962,1.102,1.26,26,4.934,5.27,30,75.2780058668,norm,0,90,90,90,563.568,563.577,563.583653366,563.584,563.586,563.588,down,1,1.81140008917,8.18859991083,001,012,1920_1080,Intel(R) Core(TM) i5-3570 CPU @ 3.40GHz,orientation_search,LEPPC096,Intel(R) HD Graphics 2500,2018_Nov_17_1512,testMonitor,
226.7,213.9,215.6,234.2,36,30,224.1,215.7,208.2,218.7,7.972,8.27,7.612,8.37,7.891,8.319,8.226,4.861,-5.154,-8.449,1.729,-1.396,7.731,4.525,-4.429,-7.733,203.4,212.5,-8.088,211.5,211.3,233.0,228.8,207.0,36,228.8,0,5,prime,10,0,97,norm,36,-4.742,down,norm,223.376601717,224.0,216.1,209.5,242.6,1,217.5,207.5,226.3,10,6,7.667,4.895,1.268,-1.207,-5.18,-8.074,232.4,6,320.4,-7.929,-7.981,30,-8.387,-8.189,-5.033,-4.966,-5.067,-4.663,5.147,7.827,1,-2.028,1.703,4.725,7.505,-8.238,-7.766,-1.499,1.422,234.7,221.1,222.8,227.4,,243.4,241.8,210.3,228.9,205.3,1,norm,1.186,1.305,-1.5,-1.564,-4.708,-4.822,-1.316,-1.159,-2.029,-1.305,1.638,-1.121,230.7,223.0,-5.168,-8.21,1.355,-1.831,8.127,4.616,-5.196,-8.467,26,4.343,4.979,4.644,5.274,1.73,1.66,1.204,1.808,26,5.239,4.963,30,75.2780058668,norm,0,91,91,91,565.432,565.443,565.454591225,565.455,565.456,565.459,down,1,0.769682749968,9.23031725003,001,012,1920_1080,Intel(R) Core(TM) i5-3570 CPU @ 3.40GHz,orientation_search,LEPPC096,Intel(R) HD Graphics 2500,2018_Nov_17_1512,testMonitor,
217.8,236.9,227.8,226.9,36,30,227.6,220.2,222.5,231.2,7.731,7.955,8.189,7.829,8.082,8.405,8.023,4.916,-4.569,-7.725,1.986,-1.142,8.103,5.195,-4.324,-8.141,223.6,207.3,-8.283,220.0,215.0,207.8,221.5,209.9,36,233.3,1,5,prime,10,0,89,norm,36,-4.995,down,norm,223.376601717,226.7,243.4,216.8,227.0,0,222.2,235.0,228.5,10,6,7.714,4.895,1.856,-1.634,-5.257,-8.155,217.8,6,312.4,-8.284,-8.247,30,-8.343,-7.564,-4.99,-4.44,-4.429,-4.665,4.645,8.317,6,-1.161,1.455,4.359,7.683,-8.21,-7.813,-1.971,1.638,229.7,218.2,223.8,224.7,234.2,215.4,216.4,,235.9,218.9,2,norm,1.716,1.149,-1.646,-1.463,-4.823,-4.426,-1.811,-1.891,-1.145,-1.227,1.489,-2.012,211.9,228.3,-5.006,-8.431,1.98,-2.039,8.493,5.04,-4.964,-8.255,26,5.194,4.784,5.225,4.946,1.321,1.867,1.114,2.053,26,4.926,5.268,30,75.2780058668,norm,0,92,92,92,566.266,566.276,566.282245462,566.282,566.284,566.287,down,1,0.784950462414,9.21504953759,001,012,1920_1080,Intel(R) Core(TM) i5-3570 CPU @ 3.40GHz,orientation_search,LEPPC096,Intel(R) HD Graphics 2500,2018_Nov_17_1512,testMonitor,
243.4,228.8,232.0,,36,30,230.4,231.2,218.0,219.8,7.883,8.149,8.478,8.468,8.409,7.978,8.08,4.483,-4.879,-7.609,1.81,-1.38,8.319,4.684,-5.236,-8.055,203.4,215.7,-8.299,221.4,211.5,215.9,230.2,227.2,36,228.8,3,5,prime,10,0,65,norm,36,-4.531,up,norm,223.376601717,216.4,214.4,221.2,226.7,3,237.0,233.0,223.1,10,6,7.859,4.62,1.246,-1.766,-5.079,-7.644,224.1,6,288.4,-8.452,-8.417,30,-7.765,-7.904,-4.686,-4.764,-4.723,-4.755,4.784,8.389,21,-1.173,2.061,4.804,8.352,-8.459,-8.018,-1.372,1.24,217.3,220.5,233.7,221.5,235.7,220.2,238.0,241.2,216.9,214.0,3,norm,1.182,1.826,-1.556,-1.397,-5.246,-5.287,-1.539,-1.91,-1.493,-1.502,1.55,-1.395,215.8,210.8,-4.91,-8.208,1.542,-1.72,8.267,4.702,-5.271,-7.653,26,5.102,4.613,4.587,4.905,1.515,2.046,1.693,1.492,26,4.611,4.814,30,75.2780058668,norm,0,93,93,93,567.105,567.114,567.123590564,567.124,567.125,567.128,up,1,0.869713568527,9.13028643147,001,012,1920_1080,Intel(R) Core(TM) i5-3570 CPU @ 3.40GHz,orientation_search,LEPPC096,Intel(R) HD Graphics 2500,2018_Nov_17_1512,testMonitor,
219.2,225.2,237.6,227.7,36,30,229.2,223.0,228.0,228.1,8.254,7.905,7.658,8.289,7.732,8.008,8.397,4.831,-4.458,-7.709,1.931,-1.801,7.698,4.828,-4.566,-7.568,236.7,206.8,-7.828,231.3,222.3,222.5,213.7,226.3,36,203.4,3,5,prime,10,0,66,norm,36,-5.002,down,norm,223.376601717,231.0,224.6,234.6,233.4,1,215.6,224.7,223.5,10,6,8.466,4.711,1.813,-2.029,-5.029,-7.688,231.4,6,289.4,-7.59,-7.65,30,-8.329,-7.874,-4.824,-4.317,-4.494,-5.014,5.051,8.467,19,-1.762,1.784,4.482,8.113,-8.146,-8.471,-2.001,1.554,222.3,222.5,208.0,220.9,240.9,231.8,218.0,221.5,230.0,229.1,4,norm,1.883,1.424,-1.249,-1.812,-4.381,-5.235,-1.992,-1.127,-1.812,-1.588,1.886,-1.485,,210.8,-4.879,-7.72,1.827,-1.603,7.907,5.104,-4.388,-7.756,26,4.857,5.14,4.85,4.909,1.115,1.663,1.716,2.028,26,5.126,4.425,30,75.2780058668,norm,0,94,94,94,568.014,568.024,568.030424345,568.031,568.032,568.035,down,1,0.970713315277,9.02928668472,001,012,1920_1080,Intel(R) Core(TM) i5-3570 CPU @ 3.40GHz,orientation_search,LEPPC096,Intel(R) HD Graphics 2500,2018_Nov_17_1512,testMonitor,
238.8,240.6,243.4,222.0,36,30,218.5,230.0,216.0,225.6,8.305,8.008,7.757,7.858,7.597,8.1,7.809,4.952,-4.521,-7.992,1.301,-1.295,8.341,4.76,-4.577,-8.244,221.2,225.0,-7.604,215.5,226.9,236.4,226.0,218.0,36,212.9,1,5,prime,10,0,82,norm,36,-4.438,down,norm,223.376601717,216.3,224.1,206.0,238.0,0,211.2,203.4,238.9,10,6,7.753,5.299,1.468,-1.896,-5.004,-8.155,241.9,6,305.4,-7.808,-7.58,30,-7.791,-8.237,-4.796,-5.078,-4.387,-5.222,5.2,7.513,6,-2.052,1.83,4.892,7.972,-7.824,-8.022,-1.193,1.729,229.0,224.9,224.9,221.7,208.2,222.0,205.4,,219.9,227.5,5,norm,1.152,1.189,-1.427,-1.289,-4.896,-5.294,-1.631,-1.394,-1.991,-1.98,1.631,-1.226,223.4,229.9,-5.131,-7.771,1.27,-1.372,7.921,4.661,-5.05,-8.296,26,4.705,4.536,4.858,4.977,1.571,1.105,2.014,1.106,26,4.804,4.359,30,75.2780058668,norm,0,95,95,95,569.022,569.032,569.042453242,569.043,569.044,569.047,down,1,0.985931223002,9.014068777,001,012,1920_1080,Intel(R) Core(TM) i5-3570 CPU @ 3.40GHz,orientation_search,LEPPC096,Intel(R) HD Graphics 2500,2018_Nov_17_1512,testMonitor,
