d_ori_22,d_ori_23,d_ori_20,d_ori_21,set_size,ctpd,d_ori_24,d_ori_25,d_ori_28,d_ori_29,stim_pos_x_30,stim_pos_x_31,stim_pos_x_32,stim_pos_x_33,stim_pos_x_34,stim_pos_x_35,stim_pos_y_11,stim_pos_y_10,stim_pos_y_13,stim_pos_y_12,stim_pos_y_15,stim_pos_y_14,stim_pos_y_17,stim_pos_y_16,stim_pos_y_19,stim_pos_y_18,d_ori_35,d_ori_34,stim_pos_x_3,d_ori_31,d_ori_30,d_ori_33,d_ori_32,d_ori_26,test_set_size,d_ori_27,targetCol,dsd_test,seq_type,dsd,blockRepN,targetDist,dtype_test,prime_set_size,stim_pos_y_25,correctResponse,dtype,distrMean,d_ori_17,d_ori_16,stim_pos_y_3,d_ori_14,targetRow,d_ori_11,d_ori_13,d_ori_12,dsd_prime,streak_length_prime,stim_pos_y_35,stim_pos_y_34,stim_pos_y_33,stim_pos_y_32,stim_pos_y_31,stim_pos_y_30,d_ori_10,nextProbe,targetOri,stim_pos_x_1,stim_pos_x_2,ctpd_prime,stim_pos_x_4,stim_pos_x_5,stim_pos_x_6,stim_pos_x_7,stim_pos_x_8,stim_pos_x_9,stim_pos_y_28,stim_pos_y_29,targetPos,stim_pos_y_20,stim_pos_y_21,stim_pos_y_22,stim_pos_y_23,stim_pos_y_24,stim_pos_x_0,stim_pos_y_26,stim_pos_y_27,d_ori_9,d_ori_8,d_ori_3,d_ori_2,d_ori_1,d_ori_0,d_ori_7,d_ori_6,d_ori_5,d_ori_4,trialN,dtype_prime,stim_pos_x_18,stim_pos_x_19,stim_pos_x_12,stim_pos_x_13,stim_pos_x_10,stim_pos_x_11,stim_pos_x_16,stim_pos_x_17,stim_pos_x_14,stim_pos_x_15,stim_pos_y_9,stim_pos_y_8,d_ori_19,d_ori_18,stim_pos_y_1,stim_pos_y_0,d_ori_15,stim_pos_y_2,stim_pos_y_5,stim_pos_y_4,stim_pos_y_7,stim_pos_y_6,totBlockN,stim_pos_x_27,stim_pos_x_26,stim_pos_x_25,stim_pos_x_24,stim_pos_x_23,stim_pos_x_22,stim_pos_x_21,stim_pos_x_20,blockN,stim_pos_x_29,stim_pos_x_28,prevDistrCTPD,prevDistrMean,prevDistrType,trials.thisRepN,trials.thisTrialN,trials.thisN,trials.thisIndex,timeStart,timeBeforeDraw,timeDraw,timeAfterSaving,timeAfterWritingToTemp,timeAfterPreparingNext,answer,correct,rt,trialScore,session,participant,resolution,cpu_info,expName,pc_name,graphic_card,date,monitorName,
161.7,142.5,151.5,147.9,36,-20,126.6,124.3,128.5,124.4,7.819,8.271,8.143,7.892,7.992,7.624,7.963,4.918,-4.48,-8.331,2.092,-2.03,8.407,4.846,-5.126,-7.553,150.4,135.3,-8.141,153.7,148.3,142.1,147.8,152.6,36,123.6,2,5,prime,10,0,99,norm,36,-5.209,up,norm,143.590411736,149.7,155.8,2.035,148.5,3,148.8,125.8,146.3,10,5,7.966,5.022,1.297,-1.364,-4.305,-7.867,146.4,5,242.6,-7.773,-8.008,-20,-8.453,-8.193,-4.545,-5.186,-4.619,-5.238,5.165,7.679,15,-1.177,1.189,5.014,7.507,-7.571,-7.811,-1.355,1.207,142.9,148.7,137.0,143.9,141.8,155.0,154.5,139.1,163.6,154.1,0,norm,1.806,1.101,-1.291,-1.472,-5.23,-4.993,-2.061,-1.902,-1.373,-1.378,1.108,-1.728,158.9,152.0,-4.933,-7.572,,-1.601,8.361,4.351,-4.983,-7.986,0,4.415,5.05,4.936,5.09,1.219,1.231,1.483,1.531,0,4.629,4.919,,,,0,0,0,0,53.212,53.234,53.2411119777,53.241,53.242,53.245,up,1,1.02171854985,8.97828145015,001,309,1366_768,Intel(R) Core(TM) i5-3320M CPU @ 2.60GHz,orientation_search,GRVLAPTOP6,Intel(R) HD Graphics 4000,2018_nov_08_1323,testMonitor,
138.9,142.1,157.2,148.8,36,-20,134.7,148.3,136.7,134.4,7.99,8.257,7.725,8.051,8.132,7.532,7.524,4.65,-5.014,-8.077,1.598,-2.063,7.88,5.049,-4.564,-7.577,152.7,153.6,-7.597,135.2,142.6,141.5,140.1,137.2,36,151.1,2,5,prime,10,0,117,norm,36,-4.582,down,norm,143.590411736,123.6,148.7,1.991,152.5,1,123.8,,132.0,10,5,7.513,5.021,1.647,-1.785,-4.56,-7.527,149.8,5,260.6,-7.507,-7.673,-20,-8.426,-7.945,-4.438,-5.119,-4.354,-4.877,4.993,8.208,13,-1.994,1.336,4.347,7.504,-8.122,-7.611,-1.645,1.468,157.9,145.9,163.6,138.7,148.4,141.7,149.1,128.9,126.0,158.2,1,norm,1.503,2.027,-2.089,-1.635,-5.273,-4.938,-1.842,-1.592,-1.81,-1.195,1.451,-1.864,135.6,140.4,-4.984,-8.227,152.0,-1.205,7.86,4.576,-4.928,-7.569,0,5.109,4.354,5.017,4.511,1.632,1.669,1.58,1.269,0,4.398,5.279,,,,0,1,1,1,54.286,54.293,54.3019936164,54.302,54.304,54.307,down,1,0.801551477392,9.19844852261,001,309,1366_768,Intel(R) Core(TM) i5-3320M CPU @ 2.60GHz,orientation_search,GRVLAPTOP6,Intel(R) HD Graphics 4000,2018_nov_08_1323,testMonitor,
142.0,135.0,149.9,142.6,36,-20,146.1,142.5,139.1,158.1,8.045,7.793,8.396,8.349,7.606,8.294,8.456,5.204,-5.222,-8.342,1.478,-1.102,8.005,4.978,-4.922,-7.69,143.2,141.9,-8.274,142.2,144.1,135.2,,135.1,36,141.8,5,5,prime,10,0,93,norm,36,-5.155,down,norm,143.590411736,139.6,123.6,1.78,149.8,2,132.4,143.0,136.6,10,5,8.115,4.581,1.954,-1.809,-5.266,-8.274,135.4,5,236.6,-8.084,-8.479,-20,-8.042,-8.452,-4.617,-4.982,-5.117,-4.925,4.807,8.368,32,-2.065,1.885,4.823,7.576,-7.797,-8.027,-1.431,1.434,159.2,160.7,163.6,156.0,138.0,150.8,155.1,143.9,134.4,144.0,2,norm,1.919,2.025,-1.139,-1.502,-4.977,-4.997,-2.02,-1.915,-1.522,-2.09,1.371,-1.862,138.4,136.3,-4.462,-7.809,146.9,-1.449,8.388,5.117,-5.082,-7.784,0,5.184,4.818,4.769,4.488,1.947,1.366,1.405,1.262,0,5.036,5.033,,,,0,2,2,2,55.129,55.135,55.1444546122,55.145,55.147,55.15,down,1,1.00250229367,8.99749770633,001,309,1366_768,Intel(R) Core(TM) i5-3320M CPU @ 2.60GHz,orientation_search,GRVLAPTOP6,Intel(R) HD Graphics 4000,2018_nov_08_1323,testMonitor,
,160.8,127.2,136.7,36,-20,139.9,141.1,163.6,136.7,7.523,7.801,8.005,7.974,7.767,8.024,7.899,4.495,-4.714,-8.325,1.639,-1.946,8.131,4.552,-4.313,-8.174,144.4,142.7,-8.424,148.1,132.3,151.4,154.7,139.0,36,154.4,3,5,prime,10,0,93,norm,36,-4.606,up,norm,143.590411736,136.3,138.4,1.157,144.9,4,124.6,144.6,144.5,10,5,7.911,5.294,1.141,-1.306,-5.292,-8.277,145.7,5,236.6,-8.257,-7.81,-20,-8.451,-7.923,-5.224,-5.241,-4.623,-4.972,4.927,7.992,22,-1.386,1.348,5.002,8.323,-7.549,-8.037,-1.188,1.971,146.6,148.0,147.3,141.6,146.4,129.9,136.5,141.6,154.4,155.9,3,norm,1.342,1.108,-1.628,-1.58,-4.609,-5.02,-2.061,-1.353,-1.947,-1.228,1.29,-1.838,123.6,154.6,-4.449,-7.797,147.0,-1.309,7.89,5.081,-4.927,-7.731,0,4.307,4.762,4.517,4.499,1.181,1.227,1.496,1.384,0,5.25,5.226,,,,0,3,3,3,56.174,56.18,56.189564254,56.19,56.192,56.195,up,1,0.701915698821,9.29808430118,001,309,1366_768,Intel(R) Core(TM) i5-3320M CPU @ 2.60GHz,orientation_search,GRVLAPTOP6,Intel(R) HD Graphics 4000,2018_nov_08_1323,testMonitor,
136.8,148.3,140.2,149.4,36,-20,158.6,154.2,133.7,156.0,7.557,8.153,8.115,7.632,7.806,8.061,7.821,4.769,-5.058,-7.511,1.381,-1.185,8.125,5.111,-4.877,-8.343,152.6,137.8,-8.118,163.6,124.1,142.5,149.2,136.8,36,128.8,1,5,prime,10,0,74,norm,36,-4.728,up,norm,143.590411736,141.7,125.8,1.437,143.0,3,151.1,137.9,143.3,10,5,7.869,4.75,1.229,-1.727,-5.019,-8.156,152.9,5,217.6,-7.662,-7.754,-20,-8.161,-8.148,-4.617,-5.131,-4.687,-4.9,5.184,8.0,9,-1.645,1.688,5.136,7.679,-7.572,-8.321,-1.39,2.018,,138.9,132.6,139.8,146.6,143.9,130.4,128.5,123.6,148.7,4,norm,1.486,2.013,-2.084,-1.163,-4.621,-4.626,-1.471,-1.126,-1.196,-1.201,1.465,-1.484,142.5,134.0,-4.437,-8.373,128.7,-1.868,8.089,5.228,-4.969,-7.805,0,5.246,4.663,5.044,5.171,1.276,2.049,1.831,1.877,0,4.503,4.435,,,,0,4,4,4,56.929,56.936,56.9530830803,56.953,56.956,56.959,up,1,0.869998869957,9.13000113004,001,309,1366_768,Intel(R) Core(TM) i5-3320M CPU @ 2.60GHz,orientation_search,GRVLAPTOP6,Intel(R) HD Graphics 4000,2018_nov_08_1323,testMonitor,
195.0,196.4,201.8,202.0,36,80,194.8,191.7,186.7,192.9,8.139,8.262,8.289,7.577,8.46,7.768,7.754,5.2,-4.581,-8.095,1.786,-1.758,7.67,4.743,-4.602,-8.332,185.6,191.5,-8.113,,202.8,191.5,190.6,197.0,36,187.0,5,5,probe,5,0,75,norm,36,-4.826,down,norm,195.602317604,196.6,196.8,1.701,190.7,1,188.5,205.6,197.0,10,5,8.261,5.225,1.217,-1.903,-4.637,-7.666,198.6,1,120.6,-8.228,-7.729,-20,-8.294,-7.521,-5.264,-4.949,-4.33,-4.337,4.757,8.267,31,-1.965,2.017,4.822,8.205,-8.402,-8.145,-2.026,1.31,189.2,195.1,197.2,200.0,199.3,193.9,186.7,192.2,195.2,189.4,0,norm,1.435,1.101,-1.379,-1.954,-4.549,-4.64,-1.588,-1.812,-1.139,-1.877,1.364,-1.737,194.4,191.7,-4.821,-8.477,189.0,-1.45,7.504,4.892,-5.29,-8.293,1,5.168,4.677,4.596,4.558,1.667,1.533,1.2,1.329,1,4.879,4.679,-20,143.590411736,norm,0,5,5,5,57.862,57.875,57.893344128,57.894,57.9,57.908,down,1,0.608509774078,9.39149022592,001,309,1366_768,Intel(R) Core(TM) i5-3320M CPU @ 2.60GHz,orientation_search,GRVLAPTOP6,Intel(R) HD Graphics 4000,2018_nov_08_1323,testMonitor,
268.7,282.9,,270.9,36,-30,293.8,262.5,278.3,280.1,7.841,8.115,7.874,7.593,7.829,8.071,7.526,4.368,-5.035,-8.324,1.804,-1.838,8.432,5.077,-5.092,-8.387,272.9,268.6,-8.246,269.1,264.6,281.4,253.8,265.1,36,266.5,3,5,prime,10,0,82,norm,36,-4.641,down,norm,273.83098566,279.0,265.3,1.824,279.4,2,270.8,259.4,266.6,10,5,7.561,4.352,1.153,-1.345,-4.632,-7.535,267.1,5,355.8,-8.297,-8.144,-30,-7.783,-8.113,-4.636,-4.782,-4.472,-4.824,4.339,7.662,20,-1.899,1.15,4.399,7.837,-7.786,-8.002,-1.277,1.327,277.9,281.6,276.9,268.8,273.8,280.9,258.9,269.9,273.1,277.5,0,norm,1.725,2.043,-1.464,-1.855,-4.508,-5.04,-1.452,-1.397,-1.489,-1.661,1.92,-1.689,263.3,267.0,-4.83,-8.421,281.4,-1.921,8.405,4.818,-5.061,-8.355,2,4.367,4.825,4.863,4.531,1.714,1.539,1.791,1.244,2,4.529,4.733,80,143.590411736,norm,0,6,6,6,58.55,58.561,58.5912276293,58.592,58.598,58.605,down,1,1.36490459042,8.63509540958,001,309,1366_768,Intel(R) Core(TM) i5-3320M CPU @ 2.60GHz,orientation_search,GRVLAPTOP6,Intel(R) HD Graphics 4000,2018_nov_08_1323,testMonitor,
253.8,278.9,264.7,279.6,36,-30,282.9,271.5,284.5,267.7,8.271,7.89,7.739,7.595,8.328,7.901,8.094,4.813,-4.696,-8.216,1.533,-1.247,8.136,4.897,-4.719,-8.293,264.8,260.2,-8.343,286.6,268.0,273.8,274.4,277.0,36,267.3,2,5,prime,10,0,90,norm,36,-5.014,down,norm,273.83098566,268.2,293.8,1.317,,2,262.4,271.7,273.6,10,5,8.005,4.66,2.095,-2.099,-4.782,-8.441,270.1,5,363.8,-8.394,-7.84,-30,-8.209,-7.506,-4.337,-4.354,-4.803,-4.365,5.208,8.489,14,-1.746,1.428,4.336,8.077,-8.408,-7.794,-1.431,2.06,286.7,276.8,267.3,265.4,273.3,267.2,270.0,278.7,285.1,269.0,1,norm,1.85,1.243,-1.82,-1.459,-4.403,-4.765,-1.702,-1.344,-1.621,-1.633,1.309,-1.612,269.2,277.6,-4.737,-8.439,281.6,-1.784,7.989,4.374,-4.585,-7.88,2,5.099,5.149,4.974,4.62,1.272,1.159,1.529,2.021,2,4.652,4.968,80,143.590411736,norm,0,7,7,7,60.002,60.009,60.0262525495,60.027,60.03,60.034,up,0,1.11927718365,-10,001,309,1366_768,Intel(R) Core(TM) i5-3320M CPU @ 2.60GHz,orientation_search,GRVLAPTOP6,Intel(R) HD Graphics 4000,2018_nov_08_1323,testMonitor,
265.4,273.4,270.6,267.1,36,-30,263.6,270.7,262.6,279.8,7.787,7.682,7.912,7.517,8.05,8.061,7.963,4.386,-4.884,-7.88,1.947,-1.75,7.847,4.949,-4.386,-8.123,253.8,279.3,-8.108,277.1,270.9,269.6,271.5,268.9,36,273.2,2,5,prime,10,0,112,norm,36,-5.054,down,norm,273.83098566,272.8,274.2,1.759,260.7,1,270.2,,277.2,10,5,7.78,4.519,1.565,-1.193,-4.573,-7.799,277.7,5,385.8,-7.637,-8.107,-30,-8.393,-7.958,-4.89,-4.611,-5.193,-5.282,4.769,8.083,13,-1.595,1.37,4.801,7.966,-8.388,-8.103,-2.036,1.443,267.8,254.4,273.2,276.1,260.6,260.0,293.8,271.2,273.7,288.8,2,norm,1.616,1.561,-1.964,-1.446,-4.512,-4.355,-1.156,-1.388,-1.968,-1.158,1.555,-2.002,274.3,273.0,-5.106,-7.555,261.5,-2.034,7.971,4.84,-4.361,-8.266,2,4.893,5.239,4.766,4.437,1.725,1.124,1.535,1.415,2,4.341,5.236,80,143.590411736,norm,0,8,8,8,62.219,62.224,62.241215104,62.241,62.244,62.247,down,1,0.938013211226,9.06198678877,001,309,1366_768,Intel(R) Core(TM) i5-3320M CPU @ 2.60GHz,orientation_search,GRVLAPTOP6,Intel(R) HD Graphics 4000,2018_nov_08_1323,testMonitor,
268.5,271.5,263.7,273.8,36,-30,273.0,,272.8,285.5,8.288,7.589,8.218,8.11,7.856,8.348,8.341,5.253,-4.54,-7.782,1.668,-1.384,8.343,4.514,-5.02,-8.286,275.7,281.8,-7.611,260.7,273.1,287.3,272.5,275.7,36,268.8,4,5,prime,10,0,112,norm,36,-4.632,down,norm,273.83098566,286.8,271.2,1.372,276.6,1,272.5,287.7,281.4,10,5,7.631,4.546,1.597,-1.72,-5.051,-8.214,272.6,5,385.8,-7.968,-7.804,-30,-8.151,-7.526,-5.087,-5.187,-4.959,-4.619,4.743,8.162,25,-1.931,1.428,4.601,7.741,-7.947,-7.539,-1.359,1.604,276.6,273.1,280.7,293.8,273.1,257.7,253.8,278.6,286.7,278.0,3,norm,1.248,1.279,-1.36,-1.245,-4.752,-4.666,-1.156,-1.729,-1.807,-1.891,1.937,-1.87,287.1,281.5,-5.153,-8.308,268.9,-1.266,7.622,4.902,-5.042,-8.471,2,4.685,4.703,4.726,5.067,1.717,1.377,1.333,1.558,2,5.18,4.328,80,143.590411736,norm,0,9,9,9,63.217,63.224,63.2397642241,63.24,63.243,63.248,down,1,0.847512207227,9.15248779277,001,309,1366_768,Intel(R) Core(TM) i5-3320M CPU @ 2.60GHz,orientation_search,GRVLAPTOP6,Intel(R) HD Graphics 4000,2018_nov_08_1323,testMonitor,
283.6,281.9,284.5,260.7,36,-30,278.2,277.2,265.1,273.0,7.994,8.132,8.232,7.547,7.736,8.367,7.73,4.314,-5.065,-7.688,1.494,-1.333,8.41,4.749,-5.011,-7.561,272.6,284.1,-7.963,264.5,281.2,283.0,285.3,272.3,36,253.8,3,5,prime,10,0,68,norm,36,-4.882,down,norm,273.83098566,280.5,270.4,1.629,274.7,0,279.7,284.1,278.4,10,5,7.676,5.116,1.509,-1.761,-4.366,-7.511,281.2,5,341.8,-7.525,-7.652,-30,-7.687,-7.758,-4.912,-4.469,-5.221,-4.605,4.953,7.831,18,-1.175,2.062,4.586,7.753,-7.664,-7.695,-1.562,2.025,278.8,293.8,289.5,281.2,271.2,256.1,274.3,272.5,271.1,282.4,4,norm,2.007,1.276,-2.018,-1.763,-5.146,-5.248,-1.682,-1.291,-1.298,-1.512,1.104,-1.65,264.1,,-4.418,-7.601,266.7,-1.702,8.299,4.519,-4.786,-7.532,2,5.101,5.091,4.345,4.694,1.468,1.997,1.32,1.155,2,5.095,4.646,80,143.590411736,norm,0,10,10,10,64.114,64.119,64.1298719259,64.13,64.133,64.136,down,1,1.69165601819,8.30834398181,001,309,1366_768,Intel(R) Core(TM) i5-3320M CPU @ 2.60GHz,orientation_search,GRVLAPTOP6,Intel(R) HD Graphics 4000,2018_nov_08_1323,testMonitor,
348.1,346.6,351.6,343.4,36,-20,345.2,355.1,353.9,,8.336,7.951,8.423,8.431,7.58,8.148,7.542,4.303,-4.743,-7.74,1.308,-1.604,8.418,4.859,-5.043,-7.978,341.2,347.9,-8.201,342.9,339.2,345.1,359.2,348.2,36,347.4,4,5,probe,5,0,108,norm,36,-4.594,up,norm,349.153459703,344.2,349.6,1.879,347.5,5,348.1,349.0,354.0,10,5,7.511,4.406,1.14,-1.591,-4.948,-7.699,351.4,1,241.2,-7.891,-8.135,-30,-7.55,-8.464,-5.2,-4.418,-4.696,-4.511,4.457,7.778,29,-1.311,1.121,4.836,8.212,-8.372,-8.008,-1.452,1.256,344.6,350.9,357.2,352.9,345.4,348.8,350.9,349.6,353.9,352.9,0,norm,1.812,1.656,-1.227,-1.177,-4.317,-4.356,-1.13,-1.555,-1.211,-1.179,1.136,-1.635,354.0,355.3,-5.074,-8.228,348.1,-1.181,7.637,5.121,-4.968,-8.337,3,5.251,4.422,4.718,4.589,1.308,1.348,1.115,1.424,3,4.613,4.433,-30,273.83098566,norm,0,11,11,11,65.846,65.85,65.8614611214,65.862,65.864,65.867,up,1,0.869047026368,9.13095297363,001,309,1366_768,Intel(R) Core(TM) i5-3320M CPU @ 2.60GHz,orientation_search,GRVLAPTOP6,Intel(R) HD Graphics 4000,2018_nov_08_1323,testMonitor,
115.7,98.2,110.8,114.8,36,80,120.9,117.6,98.6,112.8,8.131,7.742,7.811,7.874,7.643,7.731,7.817,4.875,-5.121,-7.978,1.731,-1.266,8.172,4.955,-4.475,-7.804,103.3,107.8,-7.628,112.1,128.5,119.2,91.6,113.1,36,109.0,3,5,prime,10,0,94,norm,36,-5.019,down,norm,111.573817017,105.5,98.5,1.873,107.8,0,131.6,113.5,108.3,10,5,8.087,4.627,1.194,-1.879,-5.244,-8.347,119.2,5,205.6,-7.757,-7.629,80,-7.56,-7.526,-5.048,-4.327,-4.473,-4.578,4.732,7.813,18,-1.906,1.243,5.045,7.786,-7.527,-8.459,-1.552,1.287,108.5,120.1,112.1,119.2,106.3,110.4,102.5,113.7,107.7,118.3,0,norm,1.955,1.924,-1.116,-1.456,-4.875,-5.23,-1.383,-1.131,-1.659,-1.124,1.335,-1.234,97.9,,-4.6,-7.919,123.4,-1.581,7.559,5.239,-4.585,-7.554,4,4.478,4.525,5.032,4.593,2.097,1.15,1.632,1.545,4,4.55,5.294,-20,273.83098566,norm,0,12,12,12,66.753,66.758,66.7685755694,66.769,66.771,66.774,down,1,1.0405171644,8.9594828356,001,309,1366_768,Intel(R) Core(TM) i5-3320M CPU @ 2.60GHz,orientation_search,GRVLAPTOP6,Intel(R) HD Graphics 4000,2018_nov_08_1323,testMonitor,
131.5,118.0,131.6,101.0,36,80,124.1,108.9,103.1,116.8,7.787,8.493,7.577,8.493,7.682,8.106,8.431,4.502,-4.452,-7.624,1.793,-1.363,8.072,5.04,-5.061,-7.924,113.5,106.6,-8.316,,126.6,109.6,118.7,104.7,36,117.0,5,5,prime,10,0,108,norm,36,-4.738,down,norm,111.573817017,118.4,113.9,1.426,109.1,1,103.3,110.2,100.0,10,5,8.09,4.841,1.205,-1.172,-5.093,-7.622,107.9,5,219.6,-8.105,-7.981,80,-7.827,-7.825,-4.635,-4.955,-5.289,-5.224,4.836,7.999,31,-1.132,1.838,4.919,7.666,-8.492,-7.521,-1.447,1.707,122.4,128.2,122.5,101.9,116.5,106.9,121.7,109.9,123.0,111.2,1,norm,2.014,1.388,-1.546,-1.198,-4.686,-4.617,-1.758,-1.825,-1.31,-1.16,1.107,-1.758,101.8,91.6,-4.515,-7.593,94.0,-2.027,7.566,4.314,-4.545,-7.518,4,5.183,4.669,5.191,4.493,2.038,1.836,1.932,1.763,4,4.392,4.98,-20,273.83098566,norm,0,13,13,13,67.847,67.855,67.8729302637,67.873,67.875,67.879,down,1,0.90352557492,9.09647442508,001,309,1366_768,Intel(R) Core(TM) i5-3320M CPU @ 2.60GHz,orientation_search,GRVLAPTOP6,Intel(R) HD Graphics 4000,2018_nov_08_1323,testMonitor,
125.2,99.4,108.8,102.7,36,80,124.1,,114.6,100.9,8.413,7.755,8.118,7.929,7.919,7.579,8.089,4.694,-4.825,-8.357,1.314,-1.213,7.825,4.823,-5.256,-8.166,114.6,96.8,-7.953,113.6,113.2,113.6,99.8,121.1,36,104.7,4,5,prime,10,0,100,norm,36,-4.855,down,norm,111.573817017,104.4,121.5,1.353,120.1,1,117.8,97.5,91.6,10,5,8.055,4.441,1.491,-1.945,-5.004,-8.117,124.4,5,211.6,-8.004,-8.139,80,-7.722,-7.747,-5.22,-4.706,-4.938,-4.859,4.303,7.509,25,-1.865,2.008,4.485,7.807,-7.757,-7.796,-1.719,1.17,108.0,95.5,100.2,99.4,131.6,114.2,118.8,97.7,124.5,111.9,2,norm,1.771,1.323,-1.834,-1.414,-4.638,-5.175,-1.271,-1.526,-1.649,-1.283,1.631,-1.192,105.2,107.0,-4.471,-8.385,126.8,-1.581,8.027,4.361,-5.032,-7.664,4,4.728,4.39,4.522,5.14,1.666,1.135,1.228,2.064,4,4.357,5.061,-20,273.83098566,norm,0,14,14,14,68.814,68.822,68.8401843155,68.841,68.844,68.849,down,1,1.31951757453,8.68048242547,001,309,1366_768,Intel(R) Core(TM) i5-3320M CPU @ 2.60GHz,orientation_search,GRVLAPTOP6,Intel(R) HD Graphics 4000,2018_nov_08_1323,testMonitor,
115.8,109.8,106.2,91.6,36,80,124.0,110.9,110.4,110.2,7.883,8.373,7.906,7.72,7.934,7.737,7.753,5.082,-5.09,-7.779,2.047,-1.423,8.073,4.934,-4.334,-8.261,103.4,114.3,-7.966,123.9,113.0,,113.8,113.5,36,110.0,5,5,prime,10,0,80,norm,36,-4.809,up,norm,111.573817017,105.1,123.0,1.326,103.3,3,119.1,102.6,120.5,10,5,8.15,5.18,1.82,-1.377,-4.667,-7.92,113.8,5,191.6,-8.211,-8.335,80,-7.865,-7.95,-5.013,-4.988,-4.322,-5.254,5.142,8.216,33,-1.713,1.266,4.829,7.878,-8.076,-7.645,-1.634,1.634,120.2,112.4,131.6,120.7,128.4,116.8,109.7,108.3,116.9,106.5,3,norm,1.612,1.831,-1.805,-1.229,-4.676,-4.854,-1.857,-1.625,-1.15,-2.055,1.473,-1.312,117.2,111.1,-4.504,-8.477,105.9,-1.364,8.417,5.232,-4.486,-7.824,4,4.453,4.436,4.727,4.695,1.696,1.109,1.441,1.886,4,5.185,4.497,-20,273.83098566,norm,0,15,15,15,70.203,70.216,70.2337951494,70.234,70.24,70.249,up,1,1.19413025835,8.80586974165,001,309,1366_768,Intel(R) Core(TM) i5-3320M CPU @ 2.60GHz,orientation_search,GRVLAPTOP6,Intel(R) HD Graphics 4000,2018_nov_08_1323,testMonitor,
123.1,98.1,97.6,127.2,36,80,103.8,110.2,116.1,115.5,7.75,7.557,8.158,8.09,8.366,7.577,7.574,4.66,-4.82,-7.706,1.748,-1.267,8.208,4.429,-4.916,-8.44,120.6,112.3,-7.779,98.2,109.3,113.5,131.6,124.8,36,121.6,2,5,prime,10,0,68,norm,36,-4.37,up,norm,111.573817017,,119.1,1.425,111.2,5,91.6,113.3,111.2,10,5,7.507,5.229,1.154,-1.168,-5.219,-8.192,107.2,5,179.6,-8.242,-7.702,80,-7.507,-8.268,-5.147,-4.694,-4.955,-4.694,4.937,7.854,17,-1.672,1.377,4.834,8.223,-7.821,-8.006,-1.316,1.41,100.1,106.1,122.2,111.8,119.2,122.7,117.5,93.7,107.4,110.5,4,norm,1.315,1.406,-1.473,-1.707,-4.593,-4.757,-1.411,-1.742,-1.307,-1.109,1.644,-2.048,109.7,115.0,-4.618,-7.518,95.4,-1.597,7.649,4.366,-4.842,-7.921,4,4.351,4.767,4.756,5.191,1.241,1.667,1.836,1.296,4,4.488,4.332,-20,273.83098566,norm,0,16,16,16,71.461,71.466,71.4773691185,71.478,71.48,71.483,up,1,0.783722091701,9.2162779083,001,309,1366_768,Intel(R) Core(TM) i5-3320M CPU @ 2.60GHz,orientation_search,GRVLAPTOP6,Intel(R) HD Graphics 4000,2018_nov_08_1323,testMonitor,
295.7,291.7,300.7,298.1,36,30,290.8,293.6,298.3,286.0,8.039,7.686,8.095,7.577,8.46,8.458,8.08,4.37,-5.013,-7.828,1.566,-2.079,7.835,4.733,-4.536,-8.159,295.4,295.8,-8.052,290.1,295.9,295.8,297.4,302.6,36,285.3,1,5,probe,5,0,95,norm,36,-4.804,up,norm,295.345731918,297.9,294.6,1.525,296.2,5,,293.1,291.5,10,5,8.475,4.892,1.513,-1.638,-4.498,-8.045,292.3,1,200.3,-7.696,-8.271,80,-8.422,-7.517,-4.985,-5.18,-4.703,-4.954,4.925,7.543,11,-1.91,1.572,4.526,8.078,-7.879,-7.613,-1.746,1.968,299.9,303.4,294.8,289.5,305.3,301.1,296.6,293.8,293.9,300.0,0,norm,1.113,1.409,-2.024,-1.634,-4.761,-4.606,-1.325,-1.708,-1.323,-1.72,1.798,-1.312,290.0,292.5,-4.744,-7.553,295.5,-1.654,8.492,5.084,-4.384,-7.523,5,4.922,4.584,4.375,4.491,1.662,1.312,1.982,1.575,5,5.298,4.852,80,111.573817017,norm,0,17,17,17,72.288,72.293,72.3041975947,72.304,72.307,72.31,up,1,0.800586594851,9.19941340515,001,309,1366_768,Intel(R) Core(TM) i5-3320M CPU @ 2.60GHz,orientation_search,GRVLAPTOP6,Intel(R) HD Graphics 4000,2018_nov_08_1323,testMonitor,
146.2,170.5,161.5,155.6,36,40,153.4,172.2,161.0,180.6,7.759,7.611,8.363,8.056,8.468,8.249,8.252,5.229,-4.712,-8.097,1.338,-1.154,7.706,5.009,-4.801,-8.46,153.9,161.6,-7.761,147.9,155.9,162.2,165.0,155.2,36,171.5,1,5,prime,10,0,79,norm,36,-4.557,up,norm,163.598930969,158.3,172.8,1.889,147.4,4,150.0,143.6,147.1,10,5,7.661,4.766,1.635,-1.664,-5.237,-7.711,,5,242.6,-7.618,-8.257,40,-7.806,-7.538,-4.46,-4.665,-4.365,-4.552,5.152,7.677,10,-1.201,2.079,4.331,8.252,-8.404,-8.5,-1.89,1.78,153.8,147.3,183.6,172.6,170.3,161.3,168.8,149.7,166.6,157.9,0,norm,1.153,1.193,-1.19,-1.569,-4.953,-4.601,-1.826,-1.328,-1.925,-2.0,1.692,-1.908,179.9,157.3,-5.151,-7.557,147.0,-1.148,7.507,4.649,-4.638,-7.675,6,4.905,5.28,4.399,4.53,1.103,1.909,2.016,1.449,6,4.829,4.924,30,111.573817017,norm,0,18,18,18,73.131,73.136,73.1464807865,73.147,73.149,73.153,up,1,0.985547703207,9.01445229679,001,309,1366_768,Intel(R) Core(TM) i5-3320M CPU @ 2.60GHz,orientation_search,GRVLAPTOP6,Intel(R) HD Graphics 4000,2018_nov_08_1323,testMonitor,
149.2,153.8,181.7,149.4,36,40,183.6,143.6,169.6,157.4,8.073,8.039,7.819,8.054,7.989,8.447,7.984,4.989,-4.92,-8.177,1.674,-1.149,8.499,4.913,-4.861,-8.33,,163.9,-8.292,161.8,164.2,160.5,158.1,177.3,36,152.7,5,5,prime,10,0,113,norm,36,-4.392,up,norm,163.598930969,157.0,183.6,1.785,160.8,5,155.6,160.7,170.9,10,5,8.402,4.428,1.243,-1.223,-4.634,-7.914,161.6,5,276.6,-7.552,-8.128,40,-8.216,-7.724,-4.47,-4.986,-4.597,-4.479,4.585,8.289,35,-1.487,2.033,4.988,7.818,-7.887,-7.791,-1.392,1.44,156.7,144.2,174.8,143.9,174.4,174.2,171.5,159.9,168.9,160.1,1,norm,1.969,1.181,-1.727,-1.981,-4.65,-4.94,-1.642,-1.769,-1.932,-2.091,1.215,-1.788,153.4,170.1,-5.213,-7.699,159.9,-1.598,7.679,4.601,-4.95,-7.753,6,4.863,4.629,5.021,4.376,1.626,1.395,1.442,1.595,6,5.28,4.307,30,111.573817017,norm,0,19,19,19,74.16,74.166,74.1762514827,74.176,74.179,74.182,down,0,1.47255695454,-10,001,309,1366_768,Intel(R) Core(TM) i5-3320M CPU @ 2.60GHz,orientation_search,GRVLAPTOP6,Intel(R) HD Graphics 4000,2018_nov_08_1323,testMonitor,
146.2,159.5,182.0,160.2,36,40,,159.2,162.8,163.8,8.048,7.751,8.175,7.695,7.943,8.097,7.861,4.908,-4.912,-7.88,1.326,-1.826,7.617,4.606,-4.502,-8.302,163.9,171.1,-7.619,178.1,151.9,143.6,166.8,159.1,36,183.6,4,5,prime,10,0,115,norm,36,-4.318,down,norm,163.598930969,169.8,152.7,1.663,167.9,0,161.4,165.8,159.1,10,5,7.678,4.718,1.25,-1.727,-4.528,-8.381,159.2,5,278.6,-7.603,-8.431,40,-7.746,-8.213,-4.854,-5.148,-5.106,-4.315,5.133,7.949,24,-1.448,1.83,4.421,7.802,-7.847,-8.121,-1.948,1.612,165.0,145.8,164.0,168.4,153.1,173.9,159.2,150.9,171.0,162.4,2,norm,1.106,1.995,-1.632,-1.533,-4.398,-4.461,-1.251,-1.309,-1.809,-1.632,1.735,-1.634,156.6,153.5,-4.387,-8.411,161.3,-1.123,7.889,4.816,-5.11,-7.571,6,4.418,5.282,4.806,4.327,1.859,1.737,1.379,1.438,6,4.617,4.884,30,111.573817017,norm,0,20,20,20,76.707,76.712,76.7231411392,76.723,76.726,76.729,down,1,0.635084741343,9.36491525866,001,309,1366_768,Intel(R) Core(TM) i5-3320M CPU @ 2.60GHz,orientation_search,GRVLAPTOP6,Intel(R) HD Graphics 4000,2018_nov_08_1323,testMonitor,
170.9,,183.6,161.6,36,40,161.4,161.7,152.4,157.4,8.14,7.972,7.606,7.763,8.114,8.122,7.558,4.956,-4.388,-7.636,1.122,-1.819,7.601,4.515,-4.928,-8.043,164.9,162.1,-7.678,175.6,165.6,143.6,158.6,149.7,36,151.9,3,5,prime,10,0,106,norm,36,-4.872,up,norm,163.598930969,161.2,174.4,1.585,150.7,5,169.3,162.1,165.6,10,5,8.23,5.046,1.177,-1.754,-4.605,-7.782,158.6,5,269.6,-7.611,-8.016,40,-8.411,-8.334,-4.974,-4.312,-4.892,-5.3,4.466,7.734,23,-1.714,1.162,4.451,8.384,-8.242,-8.322,-1.736,1.221,161.0,168.5,183.0,154.9,170.9,181.1,150.9,164.5,175.3,162.3,3,norm,2.077,2.083,-1.819,-1.189,-4.516,-5.112,-1.549,-2.094,-1.299,-1.449,1.742,-1.805,162.4,175.3,-4.358,-8.305,163.9,-1.282,7.678,5.035,-4.371,-7.7,6,4.411,4.997,4.378,5.145,1.149,2.042,1.853,1.7,6,4.556,5.046,30,111.573817017,norm,0,21,21,21,77.396,77.403,77.4200174801,77.42,77.424,77.429,up,1,0.731878818338,9.26812118166,001,309,1366_768,Intel(R) Core(TM) i5-3320M CPU @ 2.60GHz,orientation_search,GRVLAPTOP6,Intel(R) HD Graphics 4000,2018_nov_08_1323,testMonitor,
165.5,150.0,171.3,156.8,36,40,169.5,169.8,161.9,166.0,7.67,8.183,7.99,7.959,8.093,7.945,7.661,5.3,-4.373,-8.023,1.506,-2.092,8.365,4.53,-4.997,-7.699,163.4,168.6,-8.12,152.7,161.2,159.9,159.2,155.3,36,155.9,1,5,prime,10,0,65,norm,36,-4.488,up,norm,163.598930969,177.1,172.5,1.884,170.1,4,158.3,160.9,183.6,10,5,7.556,5.193,1.617,-1.758,-5.002,-8.107,,5,228.6,-8.259,-7.601,40,-7.758,-7.628,-4.312,-4.332,-4.38,-4.364,4.757,7.519,10,-1.731,1.124,4.574,7.698,-8.399,-8.272,-1.203,1.45,162.1,168.3,170.5,170.0,173.7,161.9,148.9,162.3,173.8,162.6,4,norm,1.499,1.97,-1.626,-1.597,-5.187,-4.64,-1.74,-1.427,-1.856,-1.372,1.479,-1.309,143.6,166.6,-4.984,-8.253,161.5,-1.947,7.535,4.752,-5.202,-8.11,6,4.675,4.876,4.608,5.096,1.421,2.008,1.972,1.829,6,4.63,4.557,30,111.573817017,norm,0,22,22,22,78.201,78.209,78.2166955499,78.217,78.221,78.226,up,1,0.730993749994,9.26900625001,001,309,1366_768,Intel(R) Core(TM) i5-3320M CPU @ 2.60GHz,orientation_search,GRVLAPTOP6,Intel(R) HD Graphics 4000,2018_nov_08_1323,testMonitor,
330.5,337.0,328.8,331.8,36,10,326.0,338.4,330.8,331.7,8.375,8.047,8.087,7.636,8.469,7.941,7.774,4.398,-4.982,-7.582,1.919,-1.387,7.858,4.725,-4.901,-8.396,327.4,325.3,-7.588,329.0,318.8,326.6,324.5,338.8,36,325.1,1,5,probe,5,0,118,norm,36,-4.614,up,norm,328.834697041,329.1,331.2,1.856,333.0,3,334.4,333.9,327.7,10,5,8.072,5.257,1.751,-1.98,-4.772,-7.741,329.6,2,210.8,-8.465,-7.67,40,-8.441,-8.264,-4.638,-4.507,-4.988,-5.128,5.22,8.152,9,-1.663,1.501,4.676,7.894,-7.657,-8.312,-1.633,1.568,,334.1,332.1,320.3,324.5,324.9,332.8,325.0,333.7,327.9,0,norm,1.352,1.822,-1.398,-1.945,-4.395,-4.582,-1.973,-1.957,-2.029,-1.148,1.735,-1.192,323.5,332.3,-4.484,-8.162,324.2,-1.709,8.313,4.511,-4.406,-7.693,7,4.465,5.011,4.688,4.937,1.974,1.141,1.409,1.348,7,4.665,5.114,40,163.598930969,norm,0,23,23,23,78.989,78.996,79.0112968701,79.012,79.015,79.019,up,1,0.816110456528,9.18388954347,001,309,1366_768,Intel(R) Core(TM) i5-3320M CPU @ 2.60GHz,orientation_search,GRVLAPTOP6,Intel(R) HD Graphics 4000,2018_nov_08_1323,testMonitor,
,284.1,295.7,289.3,36,10,283.4,284.5,300.8,291.5,8.346,7.837,8.22,8.076,7.56,7.881,7.666,4.341,-4.937,-7.984,1.123,-1.84,7.66,4.969,-4.6,-7.743,293.1,280.8,-7.823,286.9,292.7,295.7,294.3,289.5,36,294.8,3,5,probe,5,0,80,norm,36,-4.957,up,norm,290.834697041,290.4,291.8,1.602,291.2,4,283.1,294.6,288.2,10,5,8.275,5.034,1.716,-1.872,-4.847,-7.733,292.7,2,210.8,-8.159,-7.501,40,-8.397,-7.637,-4.959,-4.335,-4.626,-4.392,5.047,8.299,22,-1.215,1.433,4.51,8.183,-7.697,-7.576,-1.128,1.452,288.1,287.5,289.8,289.0,299.7,286.1,286.7,292.4,297.9,284.1,1,norm,1.681,1.76,-1.955,-2.012,-4.587,-4.417,-1.659,-1.411,-1.496,-1.69,1.369,-1.699,290.6,291.5,-5.219,-7.61,295.2,-1.818,8.417,4.316,-5.041,-8.42,7,4.937,4.372,4.867,4.744,1.604,1.288,1.254,1.919,7,5.197,4.787,40,163.598930969,norm,0,24,24,24,79.854,79.859,79.8700826354,79.87,79.873,79.876,up,1,0.785322326876,9.21467767312,001,309,1366_768,Intel(R) Core(TM) i5-3320M CPU @ 2.60GHz,orientation_search,GRVLAPTOP6,Intel(R) HD Graphics 4000,2018_nov_08_1323,testMonitor,
125.8,101.3,121.0,139.1,36,40,121.8,127.4,139.1,122.5,8.329,8.361,7.66,7.778,8.089,7.967,7.872,5.159,-5.079,-8.237,1.469,-1.997,8.216,4.605,-5.209,-8.285,133.9,133.3,-8.005,128.2,,121.2,114.5,105.0,36,131.1,5,5,prime,10,0,80,norm,36,-5.045,down,norm,121.26019616,106.8,126.6,1.789,114.9,0,113.9,111.9,103.8,10,6,7.924,4.487,2.019,-1.912,-4.813,-7.95,104.0,6,201.3,-7.532,-8.203,40,-8.019,-8.049,-5.125,-5.252,-5.156,-4.612,4.417,7.537,30,-1.298,1.26,5.22,8.315,-7.517,-7.725,-1.103,1.892,141.3,118.3,129.5,117.1,126.9,139.5,118.5,111.8,134.7,120.6,0,norm,1.392,1.974,-1.355,-1.241,-4.527,-4.683,-1.367,-1.425,-1.688,-1.856,1.751,-1.134,136.5,126.3,-4.486,-7.573,109.8,-1.919,7.643,4.858,-4.847,-7.689,8,5.139,4.52,5.11,4.371,1.776,1.713,1.627,1.515,8,4.379,4.867,10,163.598930969,norm,0,25,25,25,80.681,80.688,80.6969545747,80.697,80.701,80.705,down,1,0.715653223901,9.2843467761,001,309,1366_768,Intel(R) Core(TM) i5-3320M CPU @ 2.60GHz,orientation_search,GRVLAPTOP6,Intel(R) HD Graphics 4000,2018_nov_08_1323,testMonitor,
110.0,115.0,129.0,128.9,36,40,125.1,120.5,134.6,101.3,8.209,8.158,8.136,8.411,7.783,8.304,8.348,5.292,-4.441,-8.133,1.149,-1.473,8.193,4.903,-4.685,-8.228,128.7,130.7,-8.237,117.8,127.4,126.4,119.8,110.0,36,111.2,2,5,prime,10,0,88,norm,36,-4.492,up,norm,121.26019616,,115.5,1.54,118.0,5,115.7,127.2,133.6,10,6,8.338,4.597,2.065,-1.345,-5.25,-7.82,141.3,6,209.3,-8.086,-7.586,40,-8.161,-8.176,-5.101,-5.184,-4.306,-5.099,4.912,8.393,17,-1.899,1.931,4.601,8.244,-8.172,-7.512,-1.571,1.973,116.1,127.3,115.1,116.1,134.1,123.5,120.4,116.1,117.2,115.4,1,norm,1.276,2.099,-1.646,-1.967,-4.656,-4.481,-1.976,-1.287,-1.274,-1.174,1.732,-1.822,139.9,110.0,-5.218,-8.419,117.9,-1.346,8.049,4.542,-5.034,-7.511,8,4.334,5.18,4.808,4.711,1.369,1.982,1.708,1.238,8,4.522,4.71,10,163.598930969,norm,0,26,26,26,81.453,81.46,81.4759253508,81.476,81.48,81.484,up,1,0.732535902562,9.26746409744,001,309,1366_768,Intel(R) Core(TM) i5-3320M CPU @ 2.60GHz,orientation_search,GRVLAPTOP6,Intel(R) HD Graphics 4000,2018_nov_08_1323,testMonitor,
110.5,124.4,107.9,131.5,36,40,129.6,120.9,133.3,101.3,8.286,7.561,7.801,8.125,8.421,7.559,7.659,4.886,-5.176,-7.866,1.222,-1.303,7.92,4.452,-5.13,-7.635,111.4,121.5,-7.791,106.1,131.6,,109.2,119.5,36,133.8,5,5,prime,10,0,84,norm,36,-5.013,up,norm,121.26019616,111.5,127.2,1.203,120.8,3,116.8,106.8,120.7,10,6,8.139,4.909,1.985,-1.927,-4.557,-7.906,115.1,6,205.3,-7.543,-8.231,40,-8.304,-8.294,-4.478,-5.201,-4.938,-4.36,5.177,7.978,33,-1.309,1.593,5.069,8.014,-7.831,-7.638,-2.016,1.678,136.3,124.7,122.5,127.2,126.0,141.3,123.1,124.4,130.0,106.0,2,norm,1.984,1.701,-1.325,-2.096,-4.806,-4.671,-1.593,-2.054,-1.759,-1.223,1.954,-1.155,120.8,118.5,-5.254,-8.355,121.4,-1.17,7.964,5.165,-5.033,-8.328,8,4.864,4.371,4.631,4.457,1.436,1.308,1.332,1.262,8,4.362,5.14,10,163.598930969,norm,0,27,27,27,82.241,82.249,82.2570060667,82.257,82.261,82.265,up,1,0.732187011779,9.26781298822,001,309,1366_768,Intel(R) Core(TM) i5-3320M CPU @ 2.60GHz,orientation_search,GRVLAPTOP6,Intel(R) HD Graphics 4000,2018_nov_08_1323,testMonitor,
125.2,122.4,141.3,133.2,36,40,118.3,115.4,,124.1,7.882,7.793,8.206,7.709,8.027,7.774,8.456,5.067,-4.779,-7.832,1.469,-1.914,8.349,4.54,-4.309,-8.438,118.1,114.6,-8.443,116.7,115.5,126.1,101.3,136.4,36,130.3,4,5,prime,10,0,93,norm,36,-5.091,up,norm,121.26019616,112.1,107.2,1.287,127.3,4,120.4,127.8,128.9,10,6,7.949,4.502,1.819,-1.928,-4.476,-7.708,115.4,6,214.3,-8.48,-8.494,40,-8.097,-8.37,-5.148,-5.161,-5.288,-4.492,4.436,7.67,28,-1.999,1.91,4.669,8.495,-7.869,-8.226,-1.195,1.769,121.6,122.2,114.9,109.5,125.9,129.7,121.4,135.8,109.9,106.7,3,norm,1.127,2.059,-1.493,-2.06,-4.765,-4.939,-1.933,-1.15,-2.04,-1.636,1.201,-1.259,111.5,126.3,-4.99,-7.929,124.4,-1.142,7.872,4.338,-4.369,-7.996,8,5.12,4.522,4.486,5.233,1.425,1.995,1.834,1.105,8,4.997,4.885,10,163.598930969,norm,0,28,28,28,83.031,83.039,83.0515058411,83.052,83.055,83.059,up,1,0.751273668662,9.24872633134,001,309,1366_768,Intel(R) Core(TM) i5-3320M CPU @ 2.60GHz,orientation_search,GRVLAPTOP6,Intel(R) HD Graphics 4000,2018_nov_08_1323,testMonitor,
126.9,103.5,125.3,122.5,36,40,114.4,109.9,121.1,135.1,7.901,8.116,8.386,8.14,8.422,8.459,8.278,4.747,-4.492,-7.998,1.145,-1.999,8.246,4.78,-4.95,-8.03,111.6,117.7,-7.743,138.7,117.2,141.3,131.3,115.4,36,118.0,2,5,prime,10,0,77,norm,36,-5.094,down,norm,121.26019616,128.8,131.3,1.376,,2,116.0,119.5,133.9,10,6,7.62,4.478,1.354,-1.877,-4.813,-7.66,126.1,6,198.3,-7.713,-8.331,40,-7.953,-8.24,-4.415,-4.443,-4.591,-4.37,4.608,8.475,14,-1.873,1.494,4.666,7.518,-7.516,-7.781,-1.168,2.095,127.4,139.0,118.0,110.0,114.0,122.4,124.4,122.6,117.1,117.2,4,norm,1.632,1.59,-1.253,-1.206,-4.441,-4.502,-2.008,-2.099,-1.693,-1.365,1.87,-1.523,122.0,135.6,-5.056,-8.377,101.3,-1.554,7.5,4.368,-5.245,-8.179,8,4.707,5.149,5.155,4.748,1.195,1.841,1.256,1.432,8,5.122,5.118,10,163.598930969,norm,0,29,29,29,83.832,83.839,83.847917205,83.848,83.851,83.856,down,1,1.04969658751,8.95030341249,001,309,1366_768,Intel(R) Core(TM) i5-3320M CPU @ 2.60GHz,orientation_search,GRVLAPTOP6,Intel(R) HD Graphics 4000,2018_nov_08_1323,testMonitor,
123.0,118.4,141.3,125.5,36,40,134.5,120.5,108.5,109.6,7.502,8.17,7.98,7.637,8.277,7.767,7.711,4.376,-4.592,-8.423,1.515,-1.187,7.932,4.898,-5.136,-8.416,117.7,122.2,-8.409,125.1,124.9,139.7,119.5,126.0,36,126.7,1,5,prime,10,0,85,norm,36,-4.46,down,norm,121.26019616,122.0,121.5,1.168,108.5,0,117.3,132.9,114.7,10,6,8.121,5.235,1.742,-1.607,-4.721,-8.488,126.2,6,206.3,-8.485,-8.034,40,-7.877,-7.824,-4.426,-4.516,-4.985,-4.935,4.545,7.545,6,-1.117,1.766,4.817,7.954,-8.141,-8.231,-1.559,1.469,125.3,101.3,119.4,112.7,139.7,109.5,112.3,,108.5,112.9,5,norm,1.301,1.198,-1.489,-1.864,-4.905,-4.351,-1.885,-1.476,-1.785,-1.729,1.599,-2.099,112.9,119.9,-4.915,-8.38,119.3,-1.138,8.124,4.373,-4.636,-7.759,8,4.62,4.48,4.336,4.7,1.97,1.196,1.747,1.792,8,5.27,4.672,10,163.598930969,norm,0,30,30,30,84.924,84.929,84.9399248008,84.94,84.943,84.946,down,1,1.25402251709,8.74597748291,001,309,1366_768,Intel(R) Core(TM) i5-3320M CPU @ 2.60GHz,orientation_search,GRVLAPTOP6,Intel(R) HD Graphics 4000,2018_nov_08_1323,testMonitor,
273.6,271.3,265.1,262.1,36,-40,263.0,268.2,267.7,261.2,8.483,7.697,7.769,8.056,7.926,7.748,8.029,5.061,-4.349,-7.615,1.744,-1.131,8.456,4.997,-5.184,-8.009,254.9,256.4,-7.929,265.6,265.0,272.2,260.0,,36,260.9,4,5,probe,5,0,93,norm,36,-4.448,down,norm,263.562119444,263.0,266.3,1.179,265.7,2,260.2,253.6,265.0,10,6,8.488,4.591,1.172,-1.981,-5.168,-7.979,254.3,1,170.6,-8.434,-8.022,40,-8.421,-7.747,-4.401,-4.956,-4.758,-4.996,4.987,8.426,26,-1.978,1.819,5.294,8.115,-8.491,-7.514,-1.102,1.57,261.1,256.3,271.8,270.8,265.9,265.3,263.3,257.3,263.7,254.7,0,norm,1.43,1.387,-1.897,-1.116,-4.778,-5.049,-1.589,-1.628,-1.178,-1.277,1.747,-1.108,255.7,263.3,-4.558,-7.713,253.8,-1.441,8.007,4.83,-4.775,-8.036,9,5.117,5.031,5.17,4.881,1.177,1.833,1.984,2.007,9,5.199,4.811,40,121.26019616,norm,0,31,31,31,86.219,86.224,86.2349619381,86.235,86.237,86.24,down,1,1.07048779119,8.92951220881,001,309,1366_768,Intel(R) Core(TM) i5-3320M CPU @ 2.60GHz,orientation_search,GRVLAPTOP6,Intel(R) HD Graphics 4000,2018_nov_08_1323,testMonitor,
191.5,151.5,,176.0,36,60,156.3,167.4,180.5,166.1,8.063,7.576,7.972,7.725,7.697,8.036,8.455,4.533,-5.121,-8.308,1.247,-1.75,7.808,5.136,-5.152,-7.674,163.8,167.1,-8.439,181.1,174.6,162.5,177.7,170.7,36,170.5,3,5,prime,10,0,114,norm,36,-5.179,down,norm,171.468586655,179.9,176.2,1.406,166.3,2,160.0,181.9,177.1,10,5,8.195,5.109,1.879,-1.891,-4.492,-7.727,161.5,5,285.5,-7.897,-8.397,60,-7.643,-8.321,-4.501,-5.277,-4.414,-4.668,4.692,8.29,20,-1.142,1.901,5.283,7.902,-7.689,-7.803,-1.178,2.068,161.7,166.9,182.0,169.4,166.9,175.4,174.8,180.1,159.4,179.4,0,norm,1.142,1.197,-1.624,-1.256,-4.316,-4.839,-1.166,-1.849,-1.232,-1.381,1.411,-1.211,168.0,169.4,-5.086,-8.342,170.7,-1.912,7.678,4.487,-4.52,-7.531,10,4.958,4.622,5.292,4.855,1.697,1.695,1.276,2.059,10,4.617,5.005,-40,121.26019616,norm,0,32,32,32,87.328,87.332,87.3432460988,87.344,87.346,87.349,up,0,0.985764623976,-10,001,309,1366_768,Intel(R) Core(TM) i5-3320M CPU @ 2.60GHz,orientation_search,GRVLAPTOP6,Intel(R) HD Graphics 4000,2018_nov_08_1323,testMonitor,
164.6,176.5,177.8,,36,60,171.1,158.8,175.7,183.5,8.337,8.171,7.572,8.091,8.37,7.766,7.599,5.241,-5.27,-8.457,1.604,-1.544,7.708,5.08,-5.299,-7.736,161.6,183.7,-8.204,155.5,160.6,189.0,174.8,176.8,36,162.3,3,5,prime,10,0,96,norm,36,-4.727,up,norm,171.468586655,166.2,167.3,1.257,163.6,3,181.5,172.4,174.6,10,5,8.437,4.638,1.121,-1.753,-5.142,-8.398,174.0,5,267.5,-8.023,-8.141,60,-8.339,-8.37,-4.583,-5.051,-5.057,-4.851,4.604,7.619,21,-1.399,1.756,4.957,7.906,-8.125,-7.842,-1.313,1.793,177.1,155.3,183.0,178.5,173.8,186.6,181.2,151.5,183.1,174.3,1,norm,2.048,1.189,-1.637,-1.234,-4.863,-5.134,-1.181,-1.217,-1.293,-1.898,1.985,-1.881,174.5,187.3,-4.479,-7.945,191.5,-1.855,8.196,4.658,-4.64,-8.382,10,4.374,5.089,5.067,5.135,1.16,1.721,1.999,1.121,10,4.537,4.997,-40,121.26019616,norm,0,33,33,33,89.389,89.394,89.4053348285,89.406,89.408,89.411,down,0,0.617934566581,-10,001,309,1366_768,Intel(R) Core(TM) i5-3320M CPU @ 2.60GHz,orientation_search,GRVLAPTOP6,Intel(R) HD Graphics 4000,2018_nov_08_1323,testMonitor,
158.1,177.0,157.5,157.5,36,60,191.5,176.1,154.8,176.3,7.602,7.636,7.717,8.384,8.492,8.151,8.318,4.414,-4.907,-7.95,1.916,-1.518,8.202,5.126,-4.708,-7.836,154.8,174.3,-7.723,172.9,168.1,172.5,151.5,173.3,36,172.8,2,5,prime,10,0,72,norm,36,-5.002,up,norm,171.468586655,,166.3,2.013,170.3,5,172.2,160.0,178.8,10,5,8.456,5.017,1.263,-1.665,-5.052,-8.055,161.8,5,243.5,-8.056,-7.63,60,-7.732,-7.967,-4.388,-4.523,-4.968,-4.648,5.294,8.384,17,-2.073,1.142,5.026,7.548,-8.312,-7.824,-1.895,1.816,162.4,183.3,155.2,163.7,168.5,172.2,162.6,180.2,178.8,180.8,2,norm,1.918,1.113,-1.965,-1.474,-4.547,-4.701,-1.534,-1.686,-2.0,-2.043,2.033,-1.896,155.0,183.9,-4.524,-8.5,171.8,-1.482,7.88,4.594,-5.033,-7.677,10,5.049,4.489,4.849,4.617,2.019,1.35,1.106,1.995,10,4.589,4.943,-40,121.26019616,norm,0,34,34,34,91.094,91.099,91.1164303455,91.117,91.119,91.122,up,1,0.448568046348,9.55143195365,001,309,1366_768,Intel(R) Core(TM) i5-3320M CPU @ 2.60GHz,orientation_search,GRVLAPTOP6,Intel(R) HD Graphics 4000,2018_nov_08_1323,testMonitor,
169.4,164.3,169.7,169.4,36,60,,168.7,191.5,171.9,8.015,7.684,7.52,8.38,7.954,7.6,8.054,4.931,-5.184,-7.679,1.431,-1.397,7.866,5.004,-4.813,-7.986,166.6,182.8,-8.162,162.1,170.5,164.3,174.1,167.6,36,180.6,4,5,prime,10,0,60,norm,36,-4.687,down,norm,171.468586655,162.9,151.5,1.738,183.7,0,175.3,171.1,153.7,10,5,8.005,4.965,1.254,-1.173,-5.123,-8.168,183.5,5,231.5,-7.791,-8.328,60,-7.57,-7.747,-4.589,-5.272,-4.665,-5.179,5.253,8.278,24,-1.221,1.13,4.825,7.81,-7.745,-7.749,-1.133,1.21,174.5,167.7,171.1,177.3,159.4,179.6,169.9,156.3,179.7,182.5,3,norm,1.879,1.62,-1.988,-1.519,-5.255,-4.306,-1.311,-2.081,-1.57,-1.275,1.976,-2.006,171.9,167.4,-4.755,-8.128,173.8,-1.549,8.046,4.31,-4.733,-8.255,10,4.334,4.341,4.561,5.232,1.415,1.721,1.686,1.801,10,4.558,5.285,-40,121.26019616,norm,0,35,35,35,91.587,91.592,91.603275227,91.604,91.606,91.609,up,0,1.59210953669,-10,001,309,1366_768,Intel(R) Core(TM) i5-3320M CPU @ 2.60GHz,orientation_search,GRVLAPTOP6,Intel(R) HD Graphics 4000,2018_nov_08_1323,testMonitor,
158.0,165.8,166.0,160.1,36,60,167.5,176.9,169.3,169.1,8.251,8.057,8.171,7.552,8.346,8.446,7.567,5.057,-4.699,-8.176,2.065,-1.65,7.923,4.306,-4.762,-8.22,152.2,151.5,-7.826,152.8,177.6,168.9,164.9,159.4,36,165.8,2,5,prime,10,0,83,norm,36,-4.782,down,norm,171.468586655,176.5,164.3,1.832,,2,185.3,169.9,165.8,10,5,8.105,5.009,1.23,-1.73,-5.28,-7.741,168.8,5,254.5,-8.429,-8.196,60,-8.324,-8.223,-4.643,-4.406,-5.123,-4.728,4.887,8.217,14,-1.193,1.195,4.563,8.13,-7.648,-7.679,-1.824,1.298,159.3,162.8,153.3,179.6,155.0,169.7,153.4,153.1,178.2,184.6,4,norm,2.087,1.889,-1.699,-1.508,-4.994,-4.94,-1.716,-1.603,-1.128,-1.365,1.929,-1.774,168.3,152.7,-5.116,-7.746,184.2,-2.007,7.745,4.869,-5.029,-8.348,10,4.693,4.615,5.018,4.75,1.397,1.3,1.428,2.054,10,4.685,5.272,-40,121.26019616,norm,0,36,36,36,94.257,94.262,94.2724540653,94.273,94.275,94.278,down,1,2.01157266372,7.98842733628,001,309,1366_768,Intel(R) Core(TM) i5-3320M CPU @ 2.60GHz,orientation_search,GRVLAPTOP6,Intel(R) HD Graphics 4000,2018_nov_08_1323,testMonitor,
320.3,314.4,315.8,314.6,36,-10,305.4,307.9,305.0,307.3,7.61,7.668,8.044,8.182,7.709,8.007,7.648,4.765,-4.608,-8.27,1.527,-1.694,8.078,4.412,-4.87,-7.96,312.1,308.8,-8.375,316.5,305.3,309.6,316.2,305.3,36,310.3,0,5,probe,5,0,70,norm,36,-5.038,up,norm,310.3391694,308.7,309.0,1.251,308.2,5,315.8,311.6,313.7,10,5,8.457,5.247,1.84,-2.097,-5.137,-7.724,308.5,2,240.3,-7.794,-7.973,60,-7.929,-7.859,-4.826,-5.089,-4.742,-4.321,4.638,7.593,5,-1.609,1.716,4.432,7.527,-8.235,-8.036,-1.469,1.802,310.1,303.3,307.6,305.0,308.1,302.1,313.5,303.7,,309.9,0,norm,1.316,1.823,-1.678,-1.417,-5.16,-4.909,-2.057,-1.514,-1.144,-2.022,1.403,-1.371,318.4,300.3,-4.706,-7.829,307.8,-2.078,7.599,4.357,-4.442,-8.225,11,4.712,5.048,5.135,5.093,1.791,1.76,1.701,1.802,11,5.094,4.889,60,171.468586655,norm,0,37,37,37,96.323,96.336,96.3543770186,96.355,96.358,96.361,up,1,0.668584578159,9.33141542184,001,309,1366_768,Intel(R) Core(TM) i5-3320M CPU @ 2.60GHz,orientation_search,GRVLAPTOP6,Intel(R) HD Graphics 4000,2018_nov_08_1323,testMonitor,
351.9,350.5,355.3,345.4,36,-10,354.3,343.4,341.5,350.9,8.123,8.004,7.966,7.734,7.882,7.764,7.733,4.724,-4.824,-8.383,1.802,-1.893,8.247,4.637,-5.233,-7.778,354.4,340.3,-8.263,346.0,346.7,358.8,351.5,347.6,36,355.2,2,5,probe,5,0,110,norm,36,-4.559,down,norm,350.3391694,346.1,350.6,1.349,355.4,1,360.3,,348.0,10,5,7.932,4.608,1.569,-1.888,-5.275,-8.462,349.6,2,240.3,-7.73,-7.56,60,-7.601,-7.537,-4.94,-4.982,-5.143,-4.509,4.93,8.155,13,-1.166,2.053,4.598,8.356,-8.313,-8.215,-1.984,1.399,357.4,353.4,349.7,352.3,350.9,348.5,356.8,350.0,355.6,350.9,1,norm,1.843,1.804,-1.73,-1.572,-5.151,-4.928,-1.625,-1.367,-1.92,-1.686,1.396,-1.523,345.1,348.1,-5.003,-8.125,348.7,-1.626,8.074,4.786,-4.654,-8.119,11,5.169,4.414,5.029,4.631,1.681,1.294,1.937,1.768,11,5.047,5.197,60,171.468586655,norm,0,38,38,38,97.046,97.051,97.061901838,97.062,97.065,97.068,down,1,0.734685749374,9.26531425063,001,309,1366_768,Intel(R) Core(TM) i5-3320M CPU @ 2.60GHz,orientation_search,GRVLAPTOP6,Intel(R) HD Graphics 4000,2018_nov_08_1323,testMonitor,
47.3,44.1,36.3,29.3,36,20,32.5,46.9,28.9,50.4,7.716,8.314,7.769,7.751,8.416,7.548,7.639,5.17,-4.949,-8.05,1.881,-1.199,7.974,5.178,-5.021,-8.068,45.1,42.7,-7.714,46.6,,45.0,35.9,19.0,36,57.9,5,5,prime,10,0,112,norm,36,-4.635,down,norm,37.8655355261,28.5,48.1,1.307,51.5,0,39.7,37.4,30.4,10,5,7.719,5.115,1.927,-1.91,-4.657,-7.763,49.1,5,149.9,-7.629,-8.492,20,-7.959,-8.037,-4.793,-4.579,-5.18,-5.192,4.577,8.098,30,-1.207,1.949,5.235,7.737,-7.66,-7.632,-1.601,1.352,20.8,36.4,44.8,46.2,51.7,17.9,44.2,32.9,43.2,27.7,0,norm,1.975,2.052,-1.104,-1.62,-4.836,-5.284,-1.477,-1.234,-1.531,-1.947,1.242,-1.64,34.8,28.5,-4.827,-8.276,47.4,-1.367,8.183,4.44,-5.177,-8.108,12,5.23,4.315,4.472,4.341,1.7,1.918,2.082,1.825,12,4.676,4.893,-10,171.468586655,norm,0,39,39,39,97.835,97.841,97.8557073869,97.856,97.858,97.861,down,1,1.22208261323,8.77791738677,001,309,1366_768,Intel(R) Core(TM) i5-3320M CPU @ 2.60GHz,orientation_search,GRVLAPTOP6,Intel(R) HD Graphics 4000,2018_nov_08_1323,testMonitor,
34.4,46.0,39.0,17.9,36,20,32.0,19.0,39.9,53.5,7.825,8.016,8.191,7.985,7.754,8.2,7.835,5.173,-5.071,-7.528,2.092,-1.993,7.657,4.495,-4.78,-8.348,37.7,57.9,-8.02,32.6,29.5,56.6,40.1,34.2,36,28.0,3,5,prime,10,0,94,norm,36,-4.994,down,norm,37.8655355261,30.9,32.1,1.233,36.9,0,38.3,26.9,36.5,10,5,7.946,5.004,1.625,-1.695,-4.376,-8.003,39.4,5,131.9,-7.639,-8.237,20,-8.041,-7.578,-5.076,-4.727,-4.414,-4.325,4.894,8.433,18,-1.497,1.467,4.886,8.015,-8.184,-7.904,-1.714,1.976,32.7,32.7,25.8,35.6,31.6,34.5,26.0,55.0,55.2,51.6,1,norm,2.08,1.655,-1.108,-1.544,-4.71,-4.968,-1.833,-1.178,-1.249,-1.469,1.46,-1.692,43.8,,-4.9,-7.9,38.4,-1.838,8.478,4.597,-4.987,-8.172,12,4.357,4.997,5.205,5.07,1.946,1.29,1.324,2.055,12,4.309,4.788,-10,171.468586655,norm,0,40,40,40,99.105,99.111,99.1203297828,99.121,99.124,99.128,down,1,0.613545971004,9.386454029,001,309,1366_768,Intel(R) Core(TM) i5-3320M CPU @ 2.60GHz,orientation_search,GRVLAPTOP6,Intel(R) HD Graphics 4000,2018_nov_08_1323,testMonitor,
21.4,35.9,36.8,41.1,36,20,42.1,35.3,43.4,,8.256,7.808,7.821,8.322,8.132,8.49,8.476,4.364,-4.516,-7.936,1.111,-1.444,7.663,4.446,-5.09,-8.327,33.9,43.4,-7.949,17.9,32.3,26.6,32.9,18.0,36,41.6,4,5,prime,10,0,80,norm,36,-4.936,up,norm,37.8655355261,35.6,40.6,1.606,43.9,5,26.8,24.3,35.3,10,5,8.082,4.437,1.676,-1.166,-4.815,-7.849,38.9,5,117.9,-7.706,-8.233,20,-8.014,-8.091,-5.107,-4.79,-4.444,-5.227,4.932,8.258,29,-1.381,1.827,4.728,8.011,-8.419,-7.811,-1.331,1.119,25.7,30.1,44.6,22.9,54.2,57.9,45.7,38.8,51.3,39.8,2,norm,1.497,1.536,-1.977,-1.913,-5.257,-4.977,-1.777,-1.227,-1.49,-1.746,1.854,-1.275,39.3,38.0,-4.395,-8.392,53.0,-1.395,8.401,4.643,-5.152,-8.374,12,5.143,4.524,4.558,5.168,1.129,1.913,1.53,1.904,12,4.584,4.383,-10,171.468586655,norm,0,41,41,41,99.76,99.765,99.775467644,99.776,99.778,99.781,up,1,0.702049644431,9.29795035557,001,309,1366_768,Intel(R) Core(TM) i5-3320M CPU @ 2.60GHz,orientation_search,GRVLAPTOP6,Intel(R) HD Graphics 4000,2018_nov_08_1323,testMonitor,
34.7,33.7,41.0,29.5,36,20,36.6,19.3,55.3,52.0,7.705,7.896,8.35,8.31,8.156,7.733,8.362,4.634,-4.85,-7.974,1.41,-1.356,8.177,5.19,-4.454,-7.693,53.0,25.1,-7.534,46.1,39.3,36.6,23.5,52.9,36,,4,5,prime,10,0,105,norm,36,-4.864,up,norm,37.8655355261,44.4,36.5,1.632,42.8,3,37.8,32.7,23.5,10,5,7.847,4.404,1.86,-1.784,-4.472,-8.005,19.2,5,142.9,-7.798,-7.905,20,-8.416,-8.101,-4.589,-4.866,-4.716,-4.514,4.842,8.435,27,-1.284,1.404,5.221,7.558,-8.03,-7.97,-1.443,1.207,52.2,28.5,50.8,45.0,57.9,33.1,36.2,42.0,35.3,44.6,3,norm,1.659,1.561,-1.269,-1.547,-4.883,-4.94,-1.755,-1.444,-1.856,-1.914,1.589,-1.739,22.5,35.1,-4.948,-8.389,37.1,-1.979,7.894,4.653,-4.92,-7.993,12,4.313,5.296,4.454,4.374,1.252,1.704,1.967,1.953,12,4.414,4.556,-10,171.468586655,norm,0,42,42,42,100.498,100.505,100.523336961,100.524,100.527,100.532,up,1,0.647059241892,9.35294075811,001,309,1366_768,Intel(R) Core(TM) i5-3320M CPU @ 2.60GHz,orientation_search,GRVLAPTOP6,Intel(R) HD Graphics 4000,2018_nov_08_1323,testMonitor,
55.0,46.7,53.1,28.1,36,20,27.7,53.3,38.8,34.7,8.344,7.983,7.815,8.466,7.516,8.429,8.261,5.118,-5.012,-7.512,1.3,-1.446,8.07,4.915,-4.926,-7.533,32.8,34.8,-8.215,35.2,53.6,,43.7,27.8,36,35.0,5,5,prime,10,0,78,norm,36,-5.276,up,norm,37.8655355261,36.5,40.9,1.831,47.8,3,31.7,18.7,34.5,10,5,7.528,5.05,1.103,-1.389,-4.807,-8.122,35.5,5,115.9,-7.852,-7.5,20,-8.49,-7.88,-4.39,-4.532,-4.902,-4.59,4.608,7.796,33,-1.961,1.678,4.976,8.463,-7.865,-7.788,-1.102,1.289,27.6,31.1,57.9,25.4,45.8,37.3,37.8,44.1,40.3,48.3,4,norm,1.104,1.901,-1.352,-1.774,-4.861,-5.111,-1.762,-1.837,-1.811,-1.436,1.109,-1.651,32.8,17.9,-5.202,-8.276,20.3,-1.325,7.945,4.471,-5.293,-8.219,12,4.803,5.219,4.42,4.654,1.297,2.015,1.275,1.313,12,4.784,4.402,-10,171.468586655,norm,0,43,43,43,101.196,101.201,101.211319945,101.212,101.214,101.217,up,1,0.852186869537,9.14781313046,001,309,1366_768,Intel(R) Core(TM) i5-3320M CPU @ 2.60GHz,orientation_search,GRVLAPTOP6,Intel(R) HD Graphics 4000,2018_nov_08_1323,testMonitor,
132.4,132.5,,139.8,36,-10,135.5,135.1,130.4,144.8,8.366,8.145,8.278,7.639,8.498,7.585,8.485,4.783,-4.739,-8.403,1.135,-2.095,8.058,5.146,-4.905,-8.412,145.6,135.1,-7.773,132.7,143.8,142.3,132.1,139.3,36,130.6,3,5,probe,5,0,75,norm,36,-4.664,down,norm,135.587830398,130.7,125.6,1.281,137.6,2,137.1,137.1,132.5,10,5,7.866,4.692,1.604,-2.031,-5.086,-7.837,142.5,1,60.6,-7.73,-8.451,20,-8.065,-7.984,-4.819,-4.32,-5.132,-5.294,5.021,7.981,20,-1.998,1.954,5.054,8.436,-7.77,-7.527,-2.003,1.556,138.3,139.8,132.5,135.5,145.4,136.1,129.1,141.8,132.7,134.4,0,norm,1.157,1.759,-1.786,-1.119,-4.703,-4.372,-1.563,-1.429,-1.934,-1.822,1.796,-1.333,136.8,142.7,-5.021,-8.073,129.9,-1.601,8.094,4.383,-4.406,-8.393,13,4.656,4.868,4.744,4.544,1.353,1.257,2.05,1.684,13,4.337,4.661,20,37.8655355261,norm,0,44,44,44,102.086,102.091,102.101946834,102.102,102.104,102.108,down,1,0.767341610303,9.2326583897,001,309,1366_768,Intel(R) Core(TM) i5-3320M CPU @ 2.60GHz,orientation_search,GRVLAPTOP6,Intel(R) HD Graphics 4000,2018_nov_08_1323,testMonitor,
269.9,260.6,265.5,294.1,36,-60,269.6,287.3,281.5,289.7,8.142,7.906,7.78,7.825,7.76,7.601,8.456,4.746,-5.077,-7.522,1.358,-1.988,8.273,5.026,-5.197,-7.591,291.6,277.7,-7.786,298.9,294.8,274.9,270.5,270.3,36,267.7,2,5,prime,10,0,64,norm,36,-4.88,down,norm,278.880621127,290.5,269.0,1.507,272.3,0,281.6,276.1,,10,6,7.631,4.764,1.973,-1.197,-4.909,-7.828,272.4,6,342.9,-7.824,-7.966,-60,-8.497,-7.531,-4.802,-4.629,-4.694,-4.325,4.835,7.925,12,-1.146,1.547,4.603,7.872,-7.705,-7.796,-1.452,1.882,273.2,274.7,286.4,287.9,279.7,272.0,270.7,290.9,258.9,287.0,0,norm,1.849,1.55,-1.473,-1.22,-4.426,-5.158,-1.716,-1.665,-1.116,-1.943,1.984,-1.441,266.4,259.7,-5.03,-7.765,280.4,-1.296,7.721,4.731,-4.541,-8.457,14,5.221,4.655,4.359,5.03,1.983,1.805,1.771,1.502,14,4.43,5.285,-10,37.8655355261,norm,0,45,45,45,102.895,102.9,102.910975559,102.911,102.913,102.917,up,0,0.986974085672,-10,001,309,1366_768,Intel(R) Core(TM) i5-3320M CPU @ 2.60GHz,orientation_search,GRVLAPTOP6,Intel(R) HD Graphics 4000,2018_nov_08_1323,testMonitor,
277.2,280.1,286.2,281.4,36,-60,275.5,286.1,273.0,293.2,7.807,8.337,8.272,7.903,8.143,7.643,7.703,4.565,-4.354,-7.789,1.53,-2.077,8.386,4.536,-4.697,-7.702,271.0,273.2,-7.545,272.3,263.2,282.4,286.4,258.9,36,272.8,2,5,prime,10,0,101,norm,36,-5.248,down,norm,278.880621127,281.8,269.0,1.323,,2,288.1,281.7,283.2,10,6,7.885,4.727,1.719,-1.763,-4.475,-7.882,278.9,6,379.9,-8.331,-7.598,-60,-8.096,-7.689,-4.891,-4.483,-4.876,-4.782,5.165,8.298,14,-1.754,1.803,4.362,8.425,-7.565,-8.101,-1.951,1.626,273.1,285.8,286.2,277.8,278.9,262.0,280.5,274.2,276.1,277.9,1,norm,1.565,1.744,-1.149,-1.463,-4.718,-4.527,-1.641,-1.242,-1.57,-1.384,1.114,-2.062,280.4,274.0,-5.056,-8.445,298.9,-1.901,7.935,4.833,-4.583,-8.176,14,5.047,4.887,4.756,4.549,1.843,1.364,2.082,1.273,14,4.456,4.988,-10,37.8655355261,norm,0,46,46,46,104.958,104.964,104.973927625,104.974,104.976,104.979,down,1,0.362839299247,9.63716070075,001,309,1366_768,Intel(R) Core(TM) i5-3320M CPU @ 2.60GHz,orientation_search,GRVLAPTOP6,Intel(R) HD Graphics 4000,2018_nov_08_1323,testMonitor,
270.2,285.5,286.2,286.1,36,-60,270.7,273.1,278.1,298.9,8.277,7.933,8.425,7.692,7.894,8.251,8.09,4.352,-4.486,-8.028,1.616,-2.031,8.0,4.642,-5.009,-8.187,,294.3,-8.218,289.2,285.1,287.5,272.4,268.9,36,274.8,5,5,prime,10,0,110,norm,36,-4.942,up,norm,278.880621127,275.2,285.6,1.902,268.9,5,280.4,288.3,282.8,10,6,8.236,5.187,1.686,-1.919,-4.321,-7.916,274.0,6,388.9,-7.791,-7.51,-60,-7.542,-8.271,-5.248,-4.526,-5.095,-4.935,4.736,7.672,35,-1.671,1.828,4.39,7.52,-8.479,-7.621,-2.053,1.838,279.2,273.2,274.0,284.0,285.8,263.9,280.0,278.8,295.3,278.0,2,norm,1.707,1.973,-2.008,-1.817,-4.93,-4.386,-1.899,-1.914,-1.366,-2.004,1.706,-1.769,274.9,271.2,-4.352,-8.257,258.9,-1.527,8.318,4.551,-4.497,-7.892,14,5.296,4.343,4.894,4.488,1.593,1.624,2.037,1.639,14,4.505,4.701,-10,37.8655355261,norm,0,47,47,47,105.36,105.365,105.375723761,105.376,105.378,105.381,up,1,1.77927580863,8.22072419137,001,309,1366_768,Intel(R) Core(TM) i5-3320M CPU @ 2.60GHz,orientation_search,GRVLAPTOP6,Intel(R) HD Graphics 4000,2018_nov_08_1323,testMonitor,
273.7,258.9,287.4,274.8,36,-60,278.6,282.6,270.0,278.3,7.701,7.562,8.165,8.209,7.55,8.093,7.842,5.085,-4.657,-8.428,2.098,-1.372,7.741,4.476,-5.125,-8.256,283.5,265.6,-8.097,284.7,276.4,286.0,270.3,289.8,36,276.4,2,5,prime,10,0,72,norm,36,-5.172,down,norm,278.880621127,293.4,262.7,1.273,,2,285.4,275.3,285.1,10,6,8.384,5.037,1.624,-1.317,-4.404,-7.987,273.3,6,350.9,-7.529,-7.689,-60,-7.618,-8.155,-4.425,-4.329,-4.798,-4.464,5.21,7.609,14,-1.973,1.911,4.399,8.112,-8.39,-7.874,-1.97,1.342,271.1,286.5,287.7,277.2,285.2,271.4,284.6,284.2,273.3,298.9,3,norm,1.457,1.873,-1.943,-1.893,-4.79,-4.448,-1.363,-1.282,-2.084,-1.299,1.88,-1.288,286.7,287.1,-5.097,-8.137,275.4,-2.035,8.498,5.064,-4.728,-7.513,14,4.546,5.268,4.932,4.519,1.353,1.854,1.714,1.349,14,5.155,4.904,-10,37.8655355261,norm,0,48,48,48,107.194,107.206,107.225200108,107.226,107.229,107.233,down,1,1.30637035843,8.69362964157,001,309,1366_768,Intel(R) Core(TM) i5-3320M CPU @ 2.60GHz,orientation_search,GRVLAPTOP6,Intel(R) HD Graphics 4000,2018_nov_08_1323,testMonitor,
284.6,276.8,271.6,287.1,36,-60,258.9,277.2,290.6,274.8,7.836,8.39,7.663,8.199,8.183,8.208,8.405,4.992,-4.99,-8.368,1.218,-1.796,7.561,4.868,-4.346,-8.274,268.1,271.9,-7.788,267.1,268.5,275.7,283.9,298.9,36,290.0,0,5,prime,10,0,113,norm,36,-4.396,up,norm,278.880621127,269.6,286.9,1.946,293.1,5,287.2,260.9,287.8,10,6,8.032,4.595,1.277,-1.125,-5.072,-7.68,266.0,6,391.9,-7.533,-7.745,-60,-8.43,-7.624,-4.342,-5.251,-4.499,-4.713,4.575,8.149,5,-1.331,1.411,5.203,8.122,-7.87,-8.005,-1.15,1.662,282.6,294.6,295.9,270.6,266.6,273.2,279.0,272.2,,288.2,4,norm,1.362,1.381,-1.89,-1.104,-4.958,-5.253,-1.793,-1.552,-1.462,-1.445,1.435,-1.789,286.2,287.7,-4.802,-8.137,276.2,-1.617,8.421,4.726,-4.942,-8.193,14,4.317,5.094,4.524,5.103,1.551,1.114,1.988,1.888,14,4.514,5.126,-10,37.8655355261,norm,0,49,49,49,108.558,108.563,108.573747925,108.574,108.576,108.579,up,1,0.785137015693,9.21486298431,001,309,1366_768,Intel(R) Core(TM) i5-3320M CPU @ 2.60GHz,orientation_search,GRVLAPTOP6,Intel(R) HD Graphics 4000,2018_nov_08_1323,testMonitor,
280.5,261.1,271.9,284.9,36,-60,294.7,270.5,264.4,283.9,7.89,7.771,8.384,8.11,7.894,7.567,8.25,4.901,-5.096,-7.815,1.78,-1.521,7.65,5.0,-4.422,-8.224,277.7,260.1,-8.206,292.0,282.3,260.0,285.2,271.6,36,258.9,0,5,prime,10,0,102,norm,36,-5.033,up,norm,278.880621127,285.3,259.7,1.942,275.3,3,269.3,280.8,285.0,10,6,8.25,5.283,1.869,-1.995,-4.409,-8.044,287.5,6,380.9,-8.031,-7.804,-60,-7.908,-7.901,-4.651,-4.748,-5.048,-4.813,4.958,7.805,3,-1.393,1.795,5.215,8.268,-8.146,-8.199,-1.426,1.16,281.8,298.9,,264.6,287.4,280.5,285.1,294.0,271.3,273.1,5,norm,1.592,1.798,-1.287,-1.914,-4.942,-4.605,-1.148,-1.967,-1.539,-1.427,1.553,-1.533,273.2,291.8,-4.653,-8.337,262.5,-1.626,7.947,5.086,-5.026,-7.686,14,4.321,5.084,4.563,4.776,1.88,2.063,1.93,1.714,14,4.958,4.723,-10,37.8655355261,norm,0,50,50,50,109.385,109.391,109.400392275,109.401,109.404,109.408,down,0,3.91334193114,-10,001,309,1366_768,Intel(R) Core(TM) i5-3320M CPU @ 2.60GHz,orientation_search,GRVLAPTOP6,Intel(R) HD Graphics 4000,2018_nov_08_1323,testMonitor,
295.0,291.5,285.2,289.4,36,-40,285.3,294.8,282.9,278.0,7.665,7.943,8.446,8.457,8.221,8.321,8.473,4.961,-4.586,-8.187,1.402,-1.396,7.512,4.732,-4.302,-8.039,283.4,276.3,-8.322,291.9,279.4,277.5,,283.4,36,283.6,5,5,probe,5,0,61,norm,36,-5.131,down,norm,285.03388148,293.9,286.3,1.734,285.0,2,288.9,287.4,288.8,10,6,8.049,4.435,2.041,-1.334,-4.557,-7.703,293.1,1,224.0,-8.085,-7.687,-60,-8.024,-7.712,-5.146,-4.811,-4.79,-4.617,4.844,8.401,32,-2.041,1.661,4.954,8.257,-8.406,-7.847,-1.2,1.572,281.3,286.2,292.3,281.4,288.6,289.5,284.4,292.8,282.4,281.7,0,norm,1.753,1.862,-1.182,-1.285,-4.928,-4.899,-1.233,-1.888,-1.423,-2.07,1.231,-1.759,281.2,292.1,-4.97,-7.879,278.9,-1.102,7.526,4.88,-5.209,-8.392,15,5.051,4.605,5.174,4.496,1.715,1.717,1.579,2.039,15,4.697,4.371,-60,278.880621127,norm,0,51,51,51,114.37,114.375,114.391430168,114.392,114.394,114.397,down,1,0.887119805855,9.11288019414,001,309,1366_768,Intel(R) Core(TM) i5-3320M CPU @ 2.60GHz,orientation_search,GRVLAPTOP6,Intel(R) HD Graphics 4000,2018_nov_08_1323,testMonitor,
19.1,2.5,-3.5,1.4,36,-80,12.4,22.4,-3.3,27.6,8.117,8.2,8.399,8.444,7.599,8.054,7.811,5.204,-4.426,-8.347,1.701,-1.953,7.831,5.147,-4.905,-8.415,26.4,20.4,-8.415,6.7,16.6,11.9,5.6,7.0,36,-6.0,0,5,prime,10,0,105,norm,36,-4.301,down,norm,7.57535393816,-4.0,2.1,1.921,-3.7,2,-1.9,4.6,3.3,10,5,7.779,4.587,1.542,-1.95,-5.005,-8.496,6.1,5,112.6,-8.22,-8.121,-80,-7.851,-7.621,-5.265,-4.773,-5.233,-4.664,4.833,8.19,2,-1.706,1.574,5.115,7.55,-8.278,-7.509,-1.689,1.964,-12.4,2.2,12.0,,12.0,27.4,-1.0,9.8,1.8,3.5,0,norm,1.464,1.792,-1.285,-1.908,-4.659,-4.913,-1.625,-2.084,-2.085,-1.479,1.517,-1.902,-1.1,-6.9,-4.728,-7.861,5.1,-1.513,7.55,4.78,-5.032,-7.657,16,5.13,4.668,4.934,5.259,1.692,2.017,1.144,1.558,16,4.911,4.916,-40,278.880621127,norm,0,52,52,52,115.317,115.33,115.348483807,115.349,115.352,115.357,down,1,0.992768517486,9.00723148251,001,309,1366_768,Intel(R) Core(TM) i5-3320M CPU @ 2.60GHz,orientation_search,GRVLAPTOP6,Intel(R) HD Graphics 4000,2018_nov_08_1323,testMonitor,
10.6,13.5,-6.2,,36,-80,6.0,16.4,-12.4,-0.5,7.744,8.35,8.06,8.137,8.465,7.92,8.218,4.318,-4.799,-8.283,1.622,-1.934,7.71,4.55,-5.065,-7.732,4.3,4.6,-7.793,-9.7,27.6,-1.9,7.0,2.9,36,9.9,3,5,prime,10,0,80,norm,36,-4.399,up,norm,7.57535393816,3.1,15.2,2.056,14.2,3,-7.5,5.9,16.8,10,5,8.025,5.265,2.039,-2.049,-4.839,-7.915,-7.1,5,87.6,-8.428,-8.093,-80,-8.49,-8.472,-5.007,-4.387,-4.99,-4.518,4.36,7.523,21,-1.611,1.347,4.974,8.279,-7.634,-8.458,-1.671,1.166,7.7,-6.2,13.2,23.3,-5.6,20.8,20.1,-2.1,4.9,1.9,1,norm,1.627,1.385,-1.807,-1.559,-5.159,-4.866,-1.601,-1.786,-1.699,-1.468,1.879,-1.306,16.8,1.9,-4.761,-7.912,9.0,-1.471,8.058,5.188,-4.881,-8.212,16,4.989,4.782,4.467,4.567,1.583,1.127,2.039,1.15,16,4.502,4.661,-40,278.880621127,norm,0,53,53,53,116.374,116.38,116.389000971,116.389,116.393,116.397,up,1,0.765942095984,9.23405790402,001,309,1366_768,Intel(R) Core(TM) i5-3320M CPU @ 2.60GHz,orientation_search,GRVLAPTOP6,Intel(R) HD Graphics 4000,2018_nov_08_1323,testMonitor,
4.3,-3.7,17.8,3.6,36,-80,9.4,2.7,19.2,8.8,8.271,7.609,7.585,7.947,8.482,8.483,7.809,4.338,-4.863,-8.33,1.742,-1.813,7.545,4.768,-4.626,-8.376,2.4,10.2,-8.057,-0.6,27.6,9.7,-6.4,14.0,36,6.1,1,5,prime,10,0,87,norm,36,-5.068,down,norm,7.57535393816,4.9,10.5,1.145,13.8,0,1.9,0.2,6.9,10,5,7.7,4.83,1.247,-1.176,-5.277,-7.781,10.7,5,94.6,-8.458,-7.712,-80,-7.872,-7.716,-4.713,-4.782,-4.713,-4.971,4.452,7.925,6,-1.397,1.384,4.493,7.647,-7.925,-7.939,-1.987,1.891,-12.4,5.9,8.9,14.0,1.0,19.6,15.0,,12.2,6.3,2,norm,1.114,1.698,-1.839,-1.594,-4.684,-5.168,-1.595,-2.098,-1.14,-1.722,1.533,-1.853,-0.1,14.0,-4.739,-7.952,-7.1,-1.525,7.918,4.647,-4.347,-7.685,16,4.501,4.332,4.726,4.888,1.947,1.47,1.682,2.087,16,5.064,4.673,-40,278.880621127,norm,0,54,54,54,117.185,117.192,117.200554906,117.201,117.204,117.208,down,1,1.37252091962,8.62747908038,001,309,1366_768,Intel(R) Core(TM) i5-3320M CPU @ 2.60GHz,orientation_search,GRVLAPTOP6,Intel(R) HD Graphics 4000,2018_nov_08_1323,testMonitor,
13.4,-7.5,0.2,22.2,36,-80,11.0,16.4,27.3,2.8,8.224,8.438,8.422,7.933,7.501,8.427,8.058,5.126,-4.913,-7.935,1.954,-1.161,8.144,4.649,-4.768,-7.638,-8.4,2.0,-8.062,-2.5,6.7,4.9,2.7,14.7,36,8.2,0,5,prime,10,0,102,norm,36,-5.207,up,norm,7.57535393816,19.5,26.6,1.539,18.7,3,19.8,27.6,26.5,10,5,7.757,5.247,1.65,-1.155,-5.246,-8.2,4.6,5,109.6,-8.343,-8.419,-80,-8.379,-8.209,-5.155,-5.144,-4.746,-4.958,4.515,8.055,3,-1.225,1.198,5.209,8.382,-7.501,-7.702,-1.474,1.451,11.4,-2.2,,13.8,4.9,0.7,15.6,-12.4,8.9,-4.8,3,norm,1.934,1.37,-2.006,-1.339,-5.163,-5.189,-1.772,-1.308,-1.881,-1.826,1.879,-1.865,5.8,4.1,-4.85,-8.136,1.8,-1.49,7.622,5.3,-4.685,-8.484,16,4.881,5.147,4.708,5.012,1.293,1.474,1.861,2.057,16,4.855,4.583,-40,278.880621127,norm,0,55,55,55,118.604,118.613,118.620147237,118.62,118.624,118.629,up,1,0.734434848302,9.2655651517,001,309,1366_768,Intel(R) Core(TM) i5-3320M CPU @ 2.60GHz,orientation_search,GRVLAPTOP6,Intel(R) HD Graphics 4000,2018_nov_08_1323,testMonitor,
-10.7,25.3,11.1,16.1,36,-80,8.2,14.2,1.2,10.2,7.987,7.576,7.951,7.77,7.883,7.588,7.884,4.825,-4.464,-7.501,1.838,-1.955,7.962,4.716,-4.579,-8.151,-1.0,6.0,-7.975,27.6,7.0,7.0,13.6,-0.1,36,16.2,3,5,prime,10,0,63,norm,36,-5.253,down,norm,7.57535393816,1.9,0.1,1.402,15.7,1,6.4,5.6,17.9,10,5,7.533,4.995,1.518,-2.008,-4.707,-8.324,-8.3,5,70.6,-7.604,-7.501,-80,-7.752,-7.563,-4.94,-5.189,-4.529,-5.133,4.991,7.605,19,-1.292,1.99,5.287,7.738,-8.324,-8.006,-1.255,1.581,0.4,13.9,16.0,-0.5,19.1,3.9,4.3,10.6,-12.4,-0.4,4,norm,1.133,2.083,-1.52,-1.517,-5.139,-4.913,-1.74,-1.99,-1.737,-1.116,1.702,-1.395,,1.1,-4.738,-8.078,-7.5,-1.799,8.307,4.578,-5.046,-7.523,16,4.853,4.363,4.42,4.475,1.464,1.673,1.928,1.749,16,4.367,5.149,-40,278.880621127,norm,0,56,56,56,119.384,119.39,119.399982931,119.4,119.403,119.407,down,1,0.92001471426,9.07998528574,001,309,1366_768,Intel(R) Core(TM) i5-3320M CPU @ 2.60GHz,orientation_search,GRVLAPTOP6,Intel(R) HD Graphics 4000,2018_nov_08_1323,testMonitor,
,-4.5,4.1,-1.7,36,10,-10.1,-3.5,-3.7,-7.2,7.896,8.23,7.693,8.407,8.461,8.472,7.736,4.318,-4.94,-7.523,1.343,-1.705,8.363,4.651,-4.671,-8.252,1.7,-0.4,-7.769,-0.0,-7.2,1.6,-0.0,-2.6,36,-3.2,3,5,probe,5,0,72,norm,36,-4.818,up,norm,-4.72887666792,-7.6,-1.6,1.354,1.7,4,5.3,-12.5,-0.7,10,5,8.466,4.323,1.688,-1.601,-5.265,-7.727,-1.5,1,-76.7,-8.302,-7.744,-80,-8.439,-7.999,-4.698,-4.46,-4.832,-4.682,4.843,7.87,22,-1.573,1.53,4.468,8.19,-7.672,-8.118,-1.282,1.143,-5.1,-7.3,-7.8,1.3,-0.3,-2.0,5.1,-5.1,-7.4,-11.5,0,norm,1.351,1.181,-1.509,-1.203,-4.312,-5.171,-1.322,-1.749,-1.612,-2.081,1.38,-2.031,-1.1,-7.8,-4.554,-8.012,-9.0,-1.512,7.683,4.782,-4.316,-7.905,17,4.808,4.4,5.203,4.69,1.713,1.188,1.802,1.972,17,5.085,4.336,-80,7.57535393816,norm,0,57,57,57,120.36,120.373,120.391403695,120.392,120.395,120.399,up,1,0.634775362543,9.36522463746,001,309,1366_768,Intel(R) Core(TM) i5-3320M CPU @ 2.60GHz,orientation_search,GRVLAPTOP6,Intel(R) HD Graphics 4000,2018_nov_08_1323,testMonitor,
33.7,30.7,23.5,33.0,36,0,47.0,22.6,39.5,33.2,8.301,7.627,8.071,8.324,7.994,8.318,7.924,5.209,-4.939,-7.635,1.393,-1.376,7.988,4.646,-4.814,-7.655,30.4,35.4,-8.373,39.4,34.6,38.3,18.6,,36,25.4,4,5,prime,10,0,82,norm,36,-4.548,down,norm,33.4942483667,34.7,40.1,1.964,34.7,2,53.5,42.9,35.1,10,6,8.089,5.117,2.079,-2.015,-4.527,-7.911,39.6,6,115.5,-8.095,-7.548,0,-8.122,-8.271,-5.283,-5.101,-5.05,-5.08,4.776,8.123,26,-1.622,1.245,5.128,8.435,-8.486,-8.397,-1.355,1.47,29.4,42.5,32.0,46.0,20.9,13.5,44.3,43.1,42.7,14.5,0,norm,1.513,1.312,-1.832,-1.47,-4.366,-4.908,-1.744,-1.71,-1.62,-2.015,1.566,-1.137,32.8,30.1,-4.539,-8.367,45.3,-1.927,8.068,5.163,-5.243,-7.789,18,5.042,4.623,4.86,5.244,1.791,1.876,1.894,1.327,18,4.909,4.839,10,7.57535393816,norm,0,58,58,58,121.053,124.741,124.753179727,124.753,124.756,124.759,up,0,1.82674313025,-10,001,309,1366_768,Intel(R) Core(TM) i5-3320M CPU @ 2.60GHz,orientation_search,GRVLAPTOP6,Intel(R) HD Graphics 4000,2018_nov_08_1323,testMonitor,
40.1,44.1,31.7,43.3,36,0,40.3,,21.2,13.5,8.478,8.467,8.234,7.533,8.152,8.311,7.75,5.251,-5.153,-8.07,1.608,-1.618,7.514,4.673,-5.071,-8.367,36.7,44.8,-8.371,29.0,41.6,44.1,17.6,22.4,36,30.4,4,5,prime,10,0,69,norm,36,-4.926,down,norm,33.4942483667,13.9,20.9,2.084,50.0,1,28.3,29.4,20.4,10,6,8.186,4.665,1.34,-1.676,-4.435,-7.727,41.0,6,102.5,-7.71,-8.411,0,-7.829,-8.41,-5.129,-4.771,-5.087,-5.271,4.559,8.163,25,-1.55,2.023,5.034,8.495,-7.592,-7.72,-1.346,1.663,36.3,32.9,41.2,34.9,44.7,20.5,43.7,37.9,28.0,30.1,1,norm,1.202,1.871,-1.421,-1.313,-5.034,-4.321,-1.543,-1.551,-1.412,-1.191,1.722,-2.047,53.5,44.3,-4.644,-8.034,41.0,-1.617,7.683,4.387,-4.734,-7.516,18,5.19,4.999,5.004,4.792,1.99,1.286,1.279,1.855,18,4.88,5.104,10,7.57535393816,norm,0,59,59,59,127.64,127.645,127.656038339,127.656,127.659,127.662,down,1,0.701327760564,9.29867223944,001,309,1366_768,Intel(R) Core(TM) i5-3320M CPU @ 2.60GHz,orientation_search,GRVLAPTOP6,Intel(R) HD Graphics 4000,2018_nov_08_1323,testMonitor,
44.4,36.3,42.3,38.0,36,0,42.4,18.5,28.9,41.4,7.947,8.294,7.619,7.851,8.372,7.639,8.268,5.144,-5.133,-7.609,1.228,-2.083,7.942,4.887,-4.616,-8.046,45.0,17.0,-8.247,33.9,43.9,26.2,36.8,25.4,36,40.9,0,5,prime,10,0,73,norm,36,-4.581,up,norm,33.4942483667,13.5,23.3,1.818,22.7,3,28.3,44.4,26.6,10,6,7.742,5.046,1.879,-1.881,-5.295,-8.041,37.7,6,106.5,-8.225,-7.835,0,-8.385,-7.53,-5.077,-4.738,-4.418,-4.452,5.091,7.583,3,-1.956,1.131,4.712,8.39,-7.653,-7.661,-1.143,1.795,35.1,53.5,,25.7,38.6,22.6,48.1,26.5,26.1,30.6,2,norm,1.958,1.355,-1.782,-1.633,-4.413,-5.182,-1.971,-1.585,-1.218,-1.735,1.996,-1.832,43.8,22.5,-4.44,-8.475,47.1,-1.127,7.55,4.467,-5.28,-7.633,18,4.367,4.303,4.36,5.125,2.068,1.305,1.366,1.466,18,5.193,5.037,10,7.57535393816,norm,0,60,60,60,128.385,128.392,128.400990091,128.401,128.405,128.409,up,1,0.596244860479,9.40375513952,001,309,1366_768,Intel(R) Core(TM) i5-3320M CPU @ 2.60GHz,orientation_search,GRVLAPTOP6,Intel(R) HD Graphics 4000,2018_nov_08_1323,testMonitor,
29.2,32.0,37.5,31.9,36,0,43.9,53.5,37.2,20.4,8.076,7.739,8.019,8.198,8.041,7.845,8.17,5.195,-4.837,-7.648,1.607,-1.313,7.758,5.131,-4.706,-8.398,25.9,35.7,-8.245,27.6,33.6,25.0,43.8,29.3,36,37.8,1,5,prime,10,0,115,norm,36,-4.991,up,norm,33.4942483667,34.7,43.3,1.628,27.7,3,27.1,26.1,28.0,10,6,7.518,4.835,1.701,-1.828,-4.816,-8.412,29.0,6,148.5,-7.641,-7.682,0,-8.135,-8.421,-4.687,-4.487,-4.713,-5.237,4.985,7.873,9,-1.835,2.034,4.623,8.384,-8.149,-7.93,-1.404,2.061,,27.3,38.1,41.3,25.2,17.4,33.6,42.9,33.0,22.6,3,norm,1.983,1.31,-1.993,-1.849,-4.879,-5.012,-1.611,-1.839,-1.973,-1.897,1.483,-2.013,13.5,30.1,-5.057,-8.141,28.4,-1.458,7.694,4.492,-5.017,-7.52,18,5.18,4.683,5.172,4.593,1.523,1.779,1.81,1.65,18,5.109,4.565,10,7.57535393816,norm,0,61,61,61,129.025,129.03,129.040727368,129.041,129.043,129.046,up,1,0.599276614677,9.40072338532,001,309,1366_768,Intel(R) Core(TM) i5-3320M CPU @ 2.60GHz,orientation_search,GRVLAPTOP6,Intel(R) HD Graphics 4000,2018_nov_08_1323,testMonitor,
38.2,18.0,44.9,26.6,36,0,21.6,25.7,49.3,22.3,8.433,8.034,7.903,8.346,8.111,8.368,8.346,4.67,-5.004,-8.217,1.944,-1.322,8.044,4.527,-5.051,-7.988,27.8,25.1,-7.644,53.5,18.6,21.6,15.2,18.5,36,20.4,0,5,prime,10,0,60,norm,36,-4.604,up,norm,33.4942483667,13.5,30.2,1.426,48.1,5,23.9,49.9,16.1,10,6,8.096,4.71,1.776,-1.714,-5.168,-8.236,38.9,6,93.5,-7.93,-8.386,0,-8.204,-7.961,-5.048,-5.104,-5.127,-4.584,5.138,7.6,5,-1.923,1.38,4.543,8.464,-8.162,-8.22,-1.277,1.523,19.6,35.3,47.9,49.9,28.1,46.5,28.5,24.4,,41.9,4,norm,1.372,1.28,-1.332,-1.318,-5.22,-5.22,-1.207,-1.876,-1.8,-1.551,1.793,-1.939,40.5,43.3,-4.449,-8.067,22.7,-1.932,8.261,4.919,-4.375,-7.568,18,4.863,4.464,5.069,4.952,1.136,1.226,1.189,1.322,18,5.226,4.495,10,7.57535393816,norm,0,62,62,62,129.664,129.669,129.680010652,129.68,129.683,129.686,up,1,0.566260009371,9.43373999063,001,309,1366_768,Intel(R) Core(TM) i5-3320M CPU @ 2.60GHz,orientation_search,GRVLAPTOP6,Intel(R) HD Graphics 4000,2018_nov_08_1323,testMonitor,
38.2,32.3,24.9,35.4,36,0,,41.3,52.3,32.2,8.271,7.777,8.06,7.658,7.783,7.768,7.596,4.799,-4.752,-7.613,1.245,-1.267,8.304,4.786,-5.264,-8.101,35.8,43.7,-8.118,40.8,49.0,44.4,34.5,36.1,36,39.2,4,5,prime,10,0,75,norm,36,-4.746,down,norm,33.4942483667,26.9,42.5,1.386,30.5,0,53.5,41.2,45.3,10,6,8.189,5.132,1.754,-1.291,-4.55,-7.755,42.6,6,108.5,-7.572,-7.627,0,-8.026,-7.738,-4.593,-4.985,-4.936,-5.081,4.715,7.527,24,-1.461,1.855,4.343,8.195,-7.935,-7.699,-1.119,1.844,39.4,31.3,45.4,34.2,29.1,38.6,30.1,30.6,31.5,26.5,5,norm,1.659,1.621,-2.096,-1.991,-4.542,-4.753,-1.427,-1.555,-1.206,-1.353,1.509,-1.724,34.2,13.5,-4.67,-7.565,44.4,-1.408,7.909,5.092,-4.399,-7.628,18,4.567,5.177,4.434,5.045,1.707,1.843,1.683,2.087,18,4.861,4.64,10,7.57535393816,norm,0,63,63,63,130.273,130.278,130.288733791,130.289,130.291,130.294,down,1,0.651791591694,9.34820840831,001,309,1366_768,Intel(R) Core(TM) i5-3320M CPU @ 2.60GHz,orientation_search,GRVLAPTOP6,Intel(R) HD Graphics 4000,2018_nov_08_1323,testMonitor,
143.6,149.3,148.0,135.9,36,-60,137.2,141.6,141.2,132.5,7.852,8.236,7.967,7.988,8.477,8.066,7.734,4.349,-4.375,-8.187,1.423,-1.53,7.502,5.175,-5.036,-7.898,129.9,144.8,-7.873,146.1,141.7,133.5,135.7,135.4,36,149.2,2,5,probe,5,0,103,norm,36,-4.715,up,norm,139.319927409,146.5,134.3,1.308,135.6,3,142.5,136.7,141.9,10,6,7.77,5.029,1.554,-1.912,-5.139,-7.91,129.3,2,36.3,-7.788,-7.87,0,-8.2,-7.799,-4.795,-4.32,-5.168,-4.99,5.169,8.46,15,-1.751,1.579,4.932,8.005,-7.948,-8.235,-1.122,1.954,139.3,138.7,136.9,138.5,143.5,147.5,138.2,142.3,143.8,138.1,0,norm,1.704,1.297,-1.601,-1.269,-4.411,-4.585,-1.338,-1.421,-1.382,-1.97,1.341,-1.951,145.2,137.7,-4.972,-7.941,,-1.763,7.965,4.311,-5.07,-8.49,19,4.316,4.545,5.214,4.395,1.237,1.469,1.919,2.069,19,4.674,5.107,0,33.4942483667,norm,0,64,64,64,130.979,130.991,131.010633859,131.011,131.014,131.019,up,1,0.857057906385,9.14294209361,001,309,1366_768,Intel(R) Core(TM) i5-3320M CPU @ 2.60GHz,orientation_search,GRVLAPTOP6,Intel(R) HD Graphics 4000,2018_nov_08_1323,testMonitor,
113.6,112.6,108.8,121.1,36,-60,111.1,122.5,109.1,110.0,7.962,8.332,7.834,7.785,7.668,7.892,7.708,4.553,-4.569,-8.099,1.397,-1.603,8.241,4.482,-5.185,-8.403,106.5,116.1,-8.293,116.3,116.4,117.6,118.3,,36,125.3,4,5,probe,5,0,79,norm,36,-4.681,down,norm,115.319927409,115.0,112.6,1.862,117.4,2,120.1,115.4,119.2,10,6,8.213,4.554,1.53,-1.608,-5.056,-7.725,114.4,2,36.3,-7.705,-7.866,0,-8.136,-7.956,-4.309,-4.798,-5.054,-5.222,4.634,8.025,26,-1.226,2.096,4.682,7.826,-7.942,-8.231,-1.811,1.799,121.9,111.7,110.9,113.8,112.2,118.4,118.2,113.5,106.9,117.0,1,norm,1.466,1.534,-1.965,-1.992,-4.682,-4.886,-1.529,-1.69,-2.092,-1.447,1.677,-1.892,122.5,105.3,-5.285,-7.956,123.4,-1.22,7.852,4.992,-4.538,-8.213,19,4.543,4.815,4.736,4.459,1.525,1.791,1.324,1.969,19,4.551,4.496,0,33.4942483667,norm,0,65,65,65,131.895,131.901,131.911167982,131.911,131.914,131.917,down,1,0.615142254979,9.38485774502,001,309,1366_768,Intel(R) Core(TM) i5-3320M CPU @ 2.60GHz,orientation_search,GRVLAPTOP6,Intel(R) HD Graphics 4000,2018_nov_08_1323,testMonitor,
196.3,224.0,220.3,211.2,36,-30,210.3,217.1,224.6,212.8,7.83,8.412,8.063,7.776,7.825,8.418,7.637,4.971,-5.067,-8.015,2.091,-1.353,8.105,5.222,-4.947,-8.229,222.4,202.0,-8.329,204.2,202.3,221.2,223.3,222.2,36,210.3,0,5,prime,10,0,96,norm,36,-4.806,up,norm,210.089148071,230.1,194.9,1.389,209.8,4,226.8,193.3,190.1,10,6,8.054,4.513,1.879,-2.018,-4.786,-8.138,207.2,6,306.1,-8.168,-8.335,-30,-8.478,-8.401,-4.819,-4.805,-5.037,-4.998,4.549,7.88,4,-1.676,1.822,5.182,7.881,-7.687,-7.826,-1.356,1.625,215.7,222.9,207.0,204.6,213.8,218.1,226.5,200.5,203.9,,0,norm,2.079,1.348,-1.298,-1.33,-4.794,-4.474,-1.946,-1.298,-1.731,-1.823,1.702,-1.167,219.8,204.4,-4.481,-8.329,202.2,-1.25,7.745,4.414,-5.158,-7.957,20,5.005,4.36,4.979,4.602,1.54,1.176,1.492,1.953,20,4.596,4.53,-60,33.4942483667,norm,0,66,66,66,132.55,132.556,132.56636037,132.567,132.569,132.572,up,1,0.851473283185,9.14852671682,001,309,1366_768,Intel(R) Core(TM) i5-3320M CPU @ 2.60GHz,orientation_search,GRVLAPTOP6,Intel(R) HD Graphics 4000,2018_nov_08_1323,testMonitor,
194.8,219.3,,199.7,36,-30,202.1,203.1,201.1,204.6,8.301,7.558,7.967,7.587,8.427,8.478,8.242,4.662,-4.646,-8.246,1.807,-1.603,8.354,4.304,-4.433,-8.092,190.1,211.7,-7.924,199.4,194.4,212.6,192.4,190.4,36,205.3,3,5,prime,10,0,91,norm,36,-4.609,down,norm,210.089148071,208.1,219.1,1.581,230.1,2,206.9,222.6,212.9,10,6,7.997,4.881,1.586,-1.407,-4.338,-8.387,211.0,6,301.1,-8.364,-7.559,-30,-7.584,-8.098,-4.995,-4.993,-5.125,-4.655,4.883,8.464,20,-1.268,1.529,4.692,8.176,-8.094,-7.645,-1.155,1.234,201.9,207.2,205.8,207.3,210.9,222.1,208.6,206.6,213.5,207.7,1,norm,1.684,1.274,-1.938,-1.592,-4.674,-5.221,-1.763,-1.597,-1.234,-1.596,2.067,-1.881,212.8,218.4,-4.983,-7.519,211.5,-1.201,8.47,5.153,-4.768,-8.195,20,4.448,5.165,4.522,4.727,1.126,1.972,1.578,1.942,20,4.404,4.597,-60,33.4942483667,norm,0,67,67,67,133.441,133.445,133.456391023,133.457,133.459,133.462,down,1,0.718791660443,9.28120833956,001,309,1366_768,Intel(R) Core(TM) i5-3320M CPU @ 2.60GHz,orientation_search,GRVLAPTOP6,Intel(R) HD Graphics 4000,2018_nov_08_1323,testMonitor,
222.4,213.2,211.4,211.3,36,-30,205.4,221.5,211.4,195.7,8.404,7.955,7.717,7.855,8.366,8.398,7.877,5.247,-4.975,-8.255,1.859,-2.007,8.019,4.943,-4.75,-8.372,217.3,201.4,-8.384,200.6,202.4,211.6,190.2,211.2,36,194.5,1,5,prime,10,0,67,norm,36,-4.532,up,norm,210.089148071,223.6,222.2,1.145,202.3,3,223.3,198.8,230.1,10,6,7.583,5.117,1.213,-1.91,-4.519,-8.467,226.2,6,277.1,-8.361,-8.213,-30,-7.516,-8.478,-4.335,-4.463,-4.396,-4.492,4.605,7.739,9,-1.195,1.31,5.287,7.927,-7.731,-8.432,-1.503,2.051,,190.1,203.9,226.4,205.8,219.3,199.4,210.0,211.2,215.2,2,norm,1.403,1.672,-1.594,-1.321,-5.202,-4.698,-1.361,-1.698,-1.844,-1.862,2.076,-1.357,214.4,205.4,-4.371,-8.0,197.3,-1.325,7.601,4.668,-4.896,-8.298,20,4.813,4.868,4.349,4.627,1.787,1.815,1.447,1.794,20,4.61,4.679,-60,33.4942483667,norm,0,68,68,68,134.214,134.222,134.234476336,134.235,134.238,134.242,up,1,0.733892348822,9.26610765118,001,309,1366_768,Intel(R) Core(TM) i5-3320M CPU @ 2.60GHz,orientation_search,GRVLAPTOP6,Intel(R) HD Graphics 4000,2018_nov_08_1323,testMonitor,
213.3,195.1,213.4,223.3,36,-30,218.3,207.8,190.1,194.4,7.532,7.695,7.601,8.06,7.914,8.162,8.079,5.193,-5.296,-7.825,1.351,-1.954,7.549,4.682,-4.548,-8.256,209.3,230.1,-8.308,218.5,215.3,208.3,214.0,209.3,36,197.2,1,5,prime,10,0,106,norm,36,-5.051,up,norm,210.089148071,204.0,213.4,1.844,200.0,5,,195.3,207.4,10,6,7.93,4.651,1.27,-1.176,-4.999,-8.326,222.4,6,316.1,-7.873,-7.734,-30,-8.235,-8.245,-4.676,-4.852,-5.266,-4.77,4.667,8.119,11,-1.456,1.235,4.902,7.849,-7.932,-8.393,-1.57,1.957,223.5,216.1,194.8,220.1,205.6,215.4,203.9,213.4,194.1,218.1,3,norm,1.707,1.718,-1.109,-1.872,-4.681,-5.073,-1.577,-1.237,-2.013,-2.093,2.092,-1.413,198.8,226.5,-4.847,-7.735,214.8,-1.177,8.324,4.857,-5.073,-7.863,20,4.783,4.821,5.126,4.737,2.035,1.258,1.28,1.216,20,4.308,4.619,-60,33.4942483667,norm,0,69,69,69,135.008,135.015,135.03012986,135.03,135.034,135.039,up,1,0.595168159034,9.40483184097,001,309,1366_768,Intel(R) Core(TM) i5-3320M CPU @ 2.60GHz,orientation_search,GRVLAPTOP6,Intel(R) HD Graphics 4000,2018_nov_08_1323,testMonitor,
215.7,,216.6,203.3,36,-30,214.7,207.0,208.1,198.6,7.61,7.86,8.028,7.824,8.314,7.597,8.298,5.157,-5.025,-7.813,1.548,-1.959,7.964,4.692,-4.952,-8.295,190.1,213.4,-8.09,214.5,212.2,204.5,202.9,212.5,36,201.5,3,5,prime,10,0,102,norm,36,-5.114,up,norm,210.089148071,202.6,200.7,2.009,199.7,5,208.5,229.5,206.9,10,6,8.357,4.457,2.06,-2.053,-4.583,-8.245,194.8,6,312.1,-8.309,-7.991,-30,-8.204,-7.982,-4.823,-4.838,-4.716,-5.2,4.427,8.387,23,-1.884,1.699,4.389,8.07,-8.147,-8.044,-1.278,1.416,223.8,191.4,209.6,215.9,230.1,213.2,198.8,214.4,222.1,212.2,4,norm,2.1,1.443,-1.688,-1.97,-4.485,-4.926,-1.299,-1.753,-1.145,-1.131,1.348,-1.395,218.2,214.6,-4.763,-8.244,191.4,-2.071,7.861,5.297,-4.907,-7.847,20,4.881,4.89,4.685,4.471,1.37,1.324,2.096,1.633,20,4.669,4.658,-60,33.4942483667,norm,0,70,70,70,135.655,135.661,135.670613518,135.671,135.673,135.676,up,1,0.550504607492,9.44949539251,001,309,1366_768,Intel(R) Core(TM) i5-3320M CPU @ 2.60GHz,orientation_search,GRVLAPTOP6,Intel(R) HD Graphics 4000,2018_nov_08_1323,testMonitor,
207.3,214.0,216.0,211.9,36,-30,197.2,217.4,220.0,208.5,8.445,8.363,7.72,8.027,8.315,8.156,7.672,5.217,-4.779,-8.383,1.524,-1.61,8.407,4.884,-5.092,-7.59,211.9,204.6,-7.603,199.0,198.0,202.9,211.7,202.3,36,213.1,0,5,prime,10,0,62,norm,36,-4.507,down,norm,210.089148071,197.3,215.2,1.703,223.0,0,220.4,209.0,217.6,10,6,7.764,4.621,1.683,-1.736,-4.732,-7.546,215.7,6,272.1,-7.737,-7.846,-30,-7.714,-7.88,-4.798,-4.728,-4.425,-5.175,4.781,7.504,0,-1.744,1.741,4.563,8.498,-8.362,-7.731,-1.417,1.418,196.9,207.1,207.7,223.0,208.9,,221.1,208.6,218.6,210.2,5,norm,1.506,1.399,-1.984,-1.815,-4.311,-5.135,-1.39,-1.357,-1.452,-1.879,1.212,-1.725,190.1,213.7,-4.87,-8.121,230.1,-1.742,7.52,4.997,-4.798,-8.283,20,5.141,4.749,4.849,5.173,2.071,1.479,1.653,1.639,20,5.185,4.469,-60,33.4942483667,norm,0,71,71,71,136.259,136.264,136.2781106,136.278,136.281,136.284,down,1,0.953336747169,9.04666325283,001,309,1366_768,Intel(R) Core(TM) i5-3320M CPU @ 2.60GHz,orientation_search,GRVLAPTOP6,Intel(R) HD Graphics 4000,2018_nov_08_1323,testMonitor,
247.8,237.3,251.5,253.2,36,30,243.6,241.9,245.0,250.6,8.394,8.058,8.429,7.659,8.142,7.897,8.342,4.564,-5.055,-7.932,1.615,-1.898,8.407,4.46,-4.847,-8.145,244.9,242.8,-7.933,244.4,246.2,245.3,237.2,253.2,36,236.3,1,5,probe,5,0,65,norm,36,-4.838,down,norm,243.219765219,238.2,241.8,1.181,242.8,1,245.1,251.9,243.5,10,6,8.289,5.206,1.283,-1.853,-5.267,-8.173,242.0,1,178.2,-7.504,-8.094,-30,-7.803,-8.196,-4.69,-4.33,-4.667,-4.671,4.993,7.971,7,-1.832,1.923,4.716,7.654,-8.472,-8.301,-1.925,1.624,244.7,248.1,241.4,246.6,244.9,248.1,,233.2,237.8,241.6,0,norm,1.819,1.933,-1.898,-1.779,-4.79,-4.738,-1.611,-2.064,-1.13,-1.693,1.296,-1.158,240.6,247.4,-4.757,-7.641,244.0,-1.8,8.235,4.971,-5.058,-8.131,21,4.408,4.752,4.81,4.502,1.31,1.779,1.328,1.854,21,5.208,4.888,-30,210.089148071,norm,0,72,72,72,137.253,137.26,137.276397756,137.277,137.28,137.285,down,1,0.631405385799,9.3685946142,001,309,1366_768,Intel(R) Core(TM) i5-3320M CPU @ 2.60GHz,orientation_search,GRVLAPTOP6,Intel(R) HD Graphics 4000,2018_nov_08_1323,testMonitor,
74.6,71.9,74.2,65.4,36,60,68.4,56.3,72.8,61.0,8.367,8.071,7.829,8.181,8.259,8.226,8.066,5.216,-4.669,-8.136,1.168,-1.497,7.589,4.78,-4.318,-7.666,54.1,61.0,-8.491,52.1,59.0,51.1,72.8,62.2,36,47.7,2,5,prime,10,0,99,norm,36,-4.411,up,norm,62.3491277784,,68.3,1.32,74.6,5,77.2,81.1,65.5,10,6,8.347,5.208,1.957,-1.101,-5.126,-7.723,82.3,6,161.3,-8.034,-8.261,60,-8.425,-8.32,-4.307,-5.113,-4.758,-4.897,4.336,7.638,17,-1.107,1.724,5.1,8.159,-8.371,-8.049,-1.791,1.146,42.3,64.2,66.9,65.5,74.0,65.7,50.2,66.4,62.6,56.7,0,norm,1.422,1.451,-1.683,-1.16,-4.881,-4.853,-1.691,-2.02,-1.184,-1.815,1.543,-2.027,56.1,74.8,-5.176,-7.641,72.5,-2.054,7.875,5.054,-4.629,-7.575,22,5.072,4.668,4.408,4.819,1.691,1.902,1.551,1.116,22,5.25,4.522,30,210.089148071,norm,0,73,73,73,137.933,137.939,137.949099087,137.949,137.952,137.955,up,1,0.582245766094,9.41775423391,001,309,1366_768,Intel(R) Core(TM) i5-3320M CPU @ 2.60GHz,orientation_search,GRVLAPTOP6,Intel(R) HD Graphics 4000,2018_nov_08_1323,testMonitor,
59.2,42.3,66.5,82.3,36,60,76.9,51.8,55.8,70.6,7.579,8.353,7.841,8.113,8.042,7.976,7.928,5.236,-5.192,-8.442,1.409,-2.032,8.434,4.691,-4.352,-7.725,76.4,53.5,-8.263,69.9,69.9,70.2,54.5,67.4,36,68.8,0,5,prime,10,0,96,norm,36,-4.87,down,norm,62.3491277784,66.4,65.3,1.271,51.7,0,67.4,47.2,64.5,10,6,7.933,4.846,1.587,-1.532,-4.791,-8.454,74.7,6,158.3,-7.668,-7.982,60,-8.378,-8.087,-5.194,-4.311,-4.744,-4.901,4.789,7.53,0,-1.229,1.101,4.958,7.645,-7.765,-7.603,-1.74,1.384,66.7,51.2,64.1,56.8,71.1,,58.1,64.9,53.8,50.2,1,norm,1.682,1.884,-1.935,-1.37,-5.115,-4.324,-1.69,-1.969,-1.852,-1.469,1.762,-2.034,50.1,50.8,-4.68,-7.886,66.6,-1.855,8.018,4.356,-4.405,-7.681,22,5.004,4.474,4.344,4.854,1.471,1.651,1.886,1.554,22,5.275,4.407,30,210.089148071,norm,0,74,74,74,138.556,138.561,138.572169816,138.572,138.575,138.578,down,1,0.599082215736,9.40091778426,001,309,1366_768,Intel(R) Core(TM) i5-3320M CPU @ 2.60GHz,orientation_search,GRVLAPTOP6,Intel(R) HD Graphics 4000,2018_nov_08_1323,testMonitor,
51.6,64.6,74.9,63.4,36,60,42.3,69.2,59.8,61.3,8.015,7.916,7.9,7.512,7.504,8.493,8.244,5.033,-5.164,-7.722,1.369,-1.21,7.549,4.938,-4.61,-7.711,58.7,74.1,-7.55,58.3,70.7,68.4,71.4,59.7,36,79.2,1,5,prime,10,0,92,norm,36,-5.044,down,norm,62.3491277784,62.0,51.8,1.704,75.6,2,53.9,58.2,62.9,10,6,8.256,5.219,1.69,-1.52,-5.032,-7.601,58.6,6,154.3,-8.275,-7.726,60,-8.019,-7.97,-4.675,-4.947,-4.842,-4.836,4.771,7.923,8,-1.349,1.641,4.886,7.593,-8.131,-7.544,-1.847,1.231,74.3,,60.4,61.1,68.8,62.8,65.0,82.3,61.8,73.9,2,norm,1.147,1.509,-1.83,-1.199,-4.695,-4.318,-1.494,-1.824,-1.367,-1.312,1.317,-1.922,77.8,61.9,-4.942,-8.091,66.7,-1.208,7.836,4.693,-4.49,-8.33,22,5.209,4.935,5.06,4.774,1.26,1.11,1.582,1.355,22,5.227,4.825,30,210.089148071,norm,0,75,75,75,139.196,139.201,139.211686616,139.212,139.215,139.218,up,0,0.833624141504,-10,001,309,1366_768,Intel(R) Core(TM) i5-3320M CPU @ 2.60GHz,orientation_search,GRVLAPTOP6,Intel(R) HD Graphics 4000,2018_nov_08_1323,testMonitor,
62.6,74.7,58.5,50.0,36,60,63.3,63.5,56.4,63.9,7.712,7.632,7.752,7.72,7.698,8.087,7.856,4.346,-4.826,-7.803,1.769,-1.227,7.861,4.711,-4.395,-7.978,67.9,55.1,-7.996,42.3,63.1,59.9,77.6,67.2,36,45.4,1,5,prime,10,0,100,norm,36,-4.897,up,norm,62.3491277784,76.5,64.3,1.744,61.7,4,73.6,55.5,74.3,10,6,7.983,5.227,1.195,-1.387,-4.66,-8.056,,6,162.3,-7.739,-7.881,60,-7.78,-7.934,-5.194,-4.968,-4.758,-5.209,4.628,7.74,10,-1.63,1.848,4.44,7.586,-8.346,-8.286,-1.402,1.973,69.4,72.4,54.8,60.3,69.4,82.3,64.9,55.0,59.4,76.4,3,norm,1.488,1.292,-1.401,-1.774,-4.438,-5.154,-1.652,-1.71,-1.851,-1.703,1.233,-1.423,61.6,76.7,-4.419,-7.642,74.1,-1.662,8.313,4.563,-4.64,-8.217,22,4.886,4.521,5.192,5.14,1.47,1.539,1.312,1.757,22,4.375,5.251,30,210.089148071,norm,0,76,76,76,141.103,141.108,141.119387027,141.12,141.122,141.125,up,1,0.836855826319,9.16314417368,001,309,1366_768,Intel(R) Core(TM) i5-3320M CPU @ 2.60GHz,orientation_search,GRVLAPTOP6,Intel(R) HD Graphics 4000,2018_nov_08_1323,testMonitor,
62.2,57.2,68.6,59.7,36,60,66.3,69.9,57.6,,8.258,8.405,7.627,7.572,7.541,7.848,8.31,4.995,-4.731,-8.36,2.099,-1.19,8.418,5.186,-4.593,-7.67,72.1,59.6,-8.131,67.6,70.2,56.1,55.1,56.0,36,62.7,4,5,prime,10,0,80,norm,36,-5.158,up,norm,62.3491277784,82.3,42.3,1.711,68.9,5,48.4,67.0,74.0,10,6,7.642,5.253,1.509,-1.981,-4.442,-8.049,68.5,6,142.3,-8.407,-7.708,60,-8.038,-7.979,-4.766,-4.332,-5.271,-5.12,4.864,8.249,29,-1.612,1.832,4.328,8.313,-8.075,-8.173,-1.475,1.169,70.0,55.2,73.9,63.1,67.9,60.7,56.7,57.4,78.1,76.4,4,norm,1.701,1.191,-1.742,-1.865,-4.599,-4.954,-1.105,-1.668,-1.465,-1.111,1.812,-2.016,66.7,44.2,-4.424,-7.829,48.2,-1.573,7.878,4.374,-5.1,-7.703,22,4.831,4.979,4.63,4.934,1.218,1.551,1.807,1.133,22,4.447,5.086,30,210.089148071,norm,0,77,77,77,141.994,142.001,142.018847609,142.019,142.023,142.028,up,1,0.681633409435,9.31836659057,001,309,1366_768,Intel(R) Core(TM) i5-3320M CPU @ 2.60GHz,orientation_search,GRVLAPTOP6,Intel(R) HD Graphics 4000,2018_nov_08_1323,testMonitor,
76.7,58.6,57.6,,36,60,54.6,61.7,61.0,58.1,7.593,7.795,7.908,8.18,8.181,7.769,8.076,4.804,-4.792,-8.134,1.946,-1.838,7.999,4.564,-4.307,-8.389,59.6,47.8,-8.191,42.3,64.8,50.7,66.0,46.3,36,49.8,3,5,prime,10,0,110,norm,36,-5.205,up,norm,62.3491277784,55.9,69.9,1.819,72.9,3,75.4,63.8,70.8,10,6,8.286,4.564,1.136,-1.323,-5.145,-7.952,66.4,6,172.3,-8.441,-7.934,60,-8.45,-8.346,-4.655,-5.144,-5.132,-4.898,4.517,8.074,21,-1.569,1.453,4.533,8.472,-8.424,-7.608,-1.176,1.775,63.8,68.7,58.1,75.7,57.9,53.5,82.3,66.6,60.9,56.7,5,norm,2.08,2.099,-1.232,-1.155,-4.734,-4.801,-2.092,-1.258,-2.089,-1.272,1.862,-1.873,66.7,74.3,-4.415,-8.123,79.0,-1.933,8.143,4.582,-4.56,-7.503,22,4.895,4.663,4.986,4.991,1.336,1.952,2.08,1.147,22,4.4,4.516,30,210.089148071,norm,0,78,78,78,142.743,142.755,142.773955916,142.774,142.777,142.781,up,1,1.01008819864,8.98991180136,001,309,1366_768,Intel(R) Core(TM) i5-3320M CPU @ 2.60GHz,orientation_search,GRVLAPTOP6,Intel(R) HD Graphics 4000,2018_nov_08_1323,testMonitor,
201.3,218.9,212.4,210.5,36,20,211.2,210.3,215.8,209.0,8.356,7.663,8.258,7.829,7.561,7.537,8.293,4.751,-5.197,-8.333,1.961,-1.297,8.363,4.692,-4.658,-8.361,216.1,205.3,-8.025,209.1,208.6,207.8,208.1,198.9,36,213.5,1,5,probe,5,0,83,norm,36,-5.206,down,norm,208.910679251,201.6,209.6,1.588,212.0,1,204.0,212.8,208.7,10,6,7.529,4.486,1.332,-1.814,-4.604,-7.727,212.4,2,125.9,-7.618,-7.844,60,-8.465,-8.007,-4.789,-5.057,-5.201,-5.048,5.113,7.601,7,-1.934,1.353,4.9,8.499,-8.176,-8.008,-1.252,1.643,207.8,205.3,215.4,209.2,206.7,210.9,,208.9,209.7,212.8,0,norm,1.213,2.074,-1.992,-1.205,-4.813,-4.696,-1.814,-1.988,-1.233,-2.049,1.879,-1.296,212.1,211.1,-5.027,-8.387,215.5,-1.258,7.597,4.831,-4.331,-7.663,23,4.36,5.174,4.92,4.329,1.406,1.173,1.716,1.741,23,4.466,4.434,60,62.3491277784,norm,0,79,79,79,143.824,143.831,143.844028831,143.844,143.848,143.853,down,1,0.628427367894,9.37157263211,001,309,1366_768,Intel(R) Core(TM) i5-3320M CPU @ 2.60GHz,orientation_search,GRVLAPTOP6,Intel(R) HD Graphics 4000,2018_nov_08_1323,testMonitor,
202.0,204.3,198.8,200.8,36,20,191.1,199.7,188.8,198.8,7.79,8.12,8.194,7.665,8.222,7.513,7.688,4.827,-4.769,-7.81,1.519,-1.935,7.676,4.394,-4.985,-8.283,198.6,193.9,-8.013,199.8,192.7,197.7,193.3,188.2,36,202.0,3,5,probe,5,0,70,norm,36,-4.364,down,norm,195.910679251,190.3,201.6,2.046,188.7,1,192.4,197.2,185.9,10,6,8.454,5.004,1.914,-1.957,-5.026,-7.719,205.9,2,125.9,-7.818,-8.056,60,-8.208,-7.995,-4.516,-4.74,-5.283,-4.829,4.809,8.131,19,-1.437,1.918,4.93,8.439,-7.938,-7.551,-1.536,2.052,196.3,201.6,189.4,192.1,196.8,191.4,199.0,199.4,204.9,201.2,1,norm,1.888,2.028,-2.086,-1.658,-5.196,-4.759,-1.234,-1.138,-1.96,-1.953,1.536,-1.793,,203.4,-4.391,-7.831,195.9,-1.339,8.341,5.227,-4.954,-7.537,23,4.871,4.602,5.217,4.786,1.407,1.787,2.084,1.446,23,4.821,4.437,60,62.3491277784,norm,0,80,80,80,144.5,144.505,144.515678749,144.516,144.518,144.521,down,1,0.633878835724,9.36612116428,001,309,1366_768,Intel(R) Core(TM) i5-3320M CPU @ 2.60GHz,orientation_search,GRVLAPTOP6,Intel(R) HD Graphics 4000,2018_nov_08_1323,testMonitor,
34.6,38.9,20.2,14.2,36,-80,35.7,22.5,22.0,22.6,7.55,7.901,8.41,8.424,7.872,8.444,8.251,4.625,-4.7,-7.581,1.588,-1.65,8.227,5.006,-5.2,-8.063,45.2,35.0,-7.816,21.3,27.0,30.4,20.6,35.1,36,26.1,1,5,prime,10,0,85,norm,36,-5.095,down,norm,25.1912182127,30.0,20.9,1.32,22.1,1,8.8,24.3,27.8,10,6,8.43,4.756,1.956,-1.313,-4.76,-8.138,38.4,6,110.2,-8.466,-7.764,-80,-7.799,-8.077,-4.413,-5.248,-4.344,-4.919,5.242,7.824,7,-1.138,1.755,4.465,8.145,-7.622,-7.651,-1.464,1.676,25.8,36.5,37.1,29.9,18.9,15.2,,33.8,34.1,16.4,0,norm,1.416,2.047,-1.393,-2.063,-4.583,-4.898,-1.723,-2.097,-1.596,-1.52,1.934,-1.816,5.2,20.7,-4.458,-7.728,38.7,-1.382,8.113,5.185,-4.615,-7.967,24,5.104,5.002,4.981,5.247,2.097,1.164,2.052,1.252,24,4.333,4.985,20,62.3491277784,norm,0,81,81,81,145.172,145.177,145.187596557,145.188,145.19,145.193,down,1,0.752104210476,9.24789578952,001,309,1366_768,Intel(R) Core(TM) i5-3320M CPU @ 2.60GHz,orientation_search,GRVLAPTOP6,Intel(R) HD Graphics 4000,2018_nov_08_1323,testMonitor,
33.9,26.5,18.1,23.3,36,-80,27.0,22.8,45.2,,7.754,7.826,8.184,8.24,8.15,7.965,8.385,5.248,-4.951,-8.081,1.533,-1.592,7.884,5.098,-4.404,-7.673,29.6,37.9,-7.921,14.9,21.5,33.0,16.1,23.1,36,35.4,4,5,prime,10,0,110,norm,36,-4.779,up,norm,25.1912182127,26.6,5.2,1.924,31.1,5,22.2,20.0,24.8,10,6,7.852,4.315,1.916,-1.271,-4.545,-8.34,17.9,6,135.2,-7.65,-7.95,-80,-8.299,-7.8,-4.756,-4.336,-4.454,-4.355,5.255,7.85,29,-1.737,2.096,4.886,8.197,-8.056,-7.823,-1.229,1.432,22.2,35.1,7.5,17.2,39.5,17.0,30.1,28.6,27.6,29.9,1,norm,1.202,1.366,-1.594,-1.135,-5.157,-4.949,-1.862,-1.978,-1.738,-1.943,1.425,-1.916,8.6,21.6,-5.169,-7.65,8.4,-1.471,8.313,5.033,-4.541,-7.877,24,4.686,4.838,5.243,4.75,1.831,1.858,1.678,1.926,24,4.922,4.585,20,62.3491277784,norm,0,82,82,82,145.966,145.972,145.981946581,145.982,145.985,145.989,up,1,0.666836173059,9.33316382694,001,309,1366_768,Intel(R) Core(TM) i5-3320M CPU @ 2.60GHz,orientation_search,GRVLAPTOP6,Intel(R) HD Graphics 4000,2018_nov_08_1323,testMonitor,
31.1,18.3,38.6,18.9,36,-80,,43.0,43.4,16.3,7.957,7.965,8.087,8.139,8.017,8.307,7.738,4.637,-4.9,-8.045,1.623,-1.853,7.862,5.084,-4.954,-7.647,18.9,28.6,-8.028,23.8,17.0,37.3,19.8,20.4,36,26.7,4,5,prime,10,0,62,norm,36,-5.15,down,norm,25.1912182127,35.9,28.5,1.664,40.6,0,41.8,36.8,37.0,10,6,7.902,4.451,1.356,-1.362,-5.18,-8.248,32.3,6,87.2,-8.079,-8.214,-80,-7.899,-8.069,-4.628,-4.874,-5.254,-4.39,4.352,8.141,24,-1.925,1.401,5.16,8.119,-7.736,-7.791,-1.59,1.356,29.5,25.4,45.2,31.6,40.1,23.0,9.8,20.0,28.1,21.3,2,norm,1.747,1.155,-1.554,-1.303,-4.413,-4.566,-1.381,-1.215,-1.695,-1.118,1.945,-1.375,27.2,29.2,-4.966,-8.054,5.2,-1.356,7.581,4.659,-4.665,-7.557,24,4.88,4.529,4.388,4.915,1.494,1.893,1.239,1.532,24,4.722,5.173,20,62.3491277784,norm,0,83,83,83,146.701,146.713,146.732237587,146.733,146.739,146.745,down,1,1.34343536117,8.65656463883,001,309,1366_768,Intel(R) Core(TM) i5-3320M CPU @ 2.60GHz,orientation_search,GRVLAPTOP6,Intel(R) HD Graphics 4000,2018_nov_08_1323,testMonitor,
33.5,31.7,18.0,25.6,36,-80,18.3,25.7,45.2,23.1,7.65,7.61,8.259,8.147,8.116,7.884,7.583,4.75,-4.305,-8.08,1.866,-1.423,7.877,4.418,-4.693,-8.424,8.4,41.6,-7.988,33.0,15.5,15.4,25.6,18.7,36,34.6,1,5,prime,10,0,76,norm,36,-4.973,up,norm,25.1912182127,22.9,26.1,1.778,9.3,4,35.1,16.2,33.4,10,6,7.628,5.281,1.335,-1.911,-4.483,-8.145,,6,101.2,-7.557,-7.61,-80,-8.232,-8.129,-4.869,-4.633,-4.596,-4.594,4.933,7.936,10,-1.17,1.135,4.753,8.084,-7.821,-7.782,-1.329,1.264,27.5,5.2,20.3,31.3,28.5,6.1,39.9,24.8,30.2,36.5,3,norm,1.669,1.718,-1.101,-2.05,-4.639,-4.621,-1.523,-2.012,-1.783,-1.893,1.243,-1.508,20.0,17.6,-4.453,-7.626,42.3,-1.631,8.167,4.904,-4.419,-7.574,24,4.669,4.516,4.965,5.047,2.079,1.13,1.593,1.372,24,5.236,4.702,20,62.3491277784,norm,0,84,84,84,148.105,148.11,148.121417548,148.122,148.124,148.127,up,1,1.03712861703,8.96287138297,001,309,1366_768,Intel(R) Core(TM) i5-3320M CPU @ 2.60GHz,orientation_search,GRVLAPTOP6,Intel(R) HD Graphics 4000,2018_nov_08_1323,testMonitor,
21.2,40.2,25.6,17.2,36,-80,25.2,19.3,29.2,31.4,8.487,7.537,7.65,8.045,7.831,8.14,7.745,5.089,-4.909,-8.484,1.601,-1.989,7.691,5.116,-4.37,-7.665,19.6,15.1,-8.158,37.1,25.8,19.3,29.7,10.8,36,17.3,1,5,prime,10,0,96,norm,36,-5.241,up,norm,25.1912182127,40.6,35.7,1.829,31.1,4,6.8,5.2,23.4,10,6,7.549,5.177,1.351,-1.362,-4.398,-7.954,,6,121.2,-8.067,-7.875,-80,-7.75,-8.163,-5.102,-4.393,-4.736,-4.947,5.107,8.201,10,-1.345,1.974,5.236,7.718,-8.402,-8.111,-1.284,1.448,15.2,7.3,33.0,37.2,31.7,29.4,28.3,45.2,19.4,6.2,4,norm,1.709,1.999,-2.028,-1.426,-4.459,-4.77,-1.578,-1.541,-1.321,-1.244,1.111,-1.14,7.1,10.0,-5.154,-7.994,32.5,-1.809,8.492,4.933,-5.267,-8.365,24,4.762,4.628,4.843,4.976,1.728,1.969,2.025,1.86,24,5.182,5.249,20,62.3491277784,norm,0,85,85,85,149.181,149.186,149.196683918,149.197,149.199,149.202,up,1,1.65934667732,8.34065332268,001,309,1366_768,Intel(R) Core(TM) i5-3320M CPU @ 2.60GHz,orientation_search,GRVLAPTOP6,Intel(R) HD Graphics 4000,2018_nov_08_1323,testMonitor,
11.5,7.7,42.5,37.4,36,-80,14.4,38.7,19.1,23.0,7.932,8.373,8.069,7.615,7.714,8.379,8.15,4.527,-4.414,-8.082,1.934,-1.917,7.535,4.86,-5.019,-7.514,5.2,26.7,-7.679,20.5,21.4,33.8,17.9,6.4,36,37.8,0,5,prime,10,0,72,norm,36,-4.995,down,norm,25.1912182127,30.5,28.0,1.714,13.6,2,17.8,45.2,30.2,10,6,7.621,4.829,1.909,-1.613,-4.673,-8.078,32.5,6,97.2,-7.968,-7.539,-80,-7.766,-7.57,-4.395,-4.498,-4.5,-5.139,4.997,7.517,2,-1.98,2.001,4.537,8.189,-7.648,-7.87,-1.225,1.917,27.3,13.4,22.0,,25.5,11.1,29.3,15.9,27.5,32.2,5,norm,1.199,1.498,-1.378,-1.371,-4.694,-5.218,-1.282,-1.997,-2.009,-1.553,1.403,-1.388,13.5,18.5,-4.924,-7.998,30.0,-1.105,7.893,4.56,-4.811,-7.837,24,5.147,4.825,4.658,4.775,1.306,1.9,1.683,1.437,24,5.027,4.415,20,62.3491277784,norm,0,86,86,86,150.88,150.885,150.895780832,150.896,150.898,150.902,up,0,1.59280336705,-10,001,309,1366_768,Intel(R) Core(TM) i5-3320M CPU @ 2.60GHz,orientation_search,GRVLAPTOP6,Intel(R) HD Graphics 4000,2018_nov_08_1323,testMonitor,
-0.0,6.8,3.5,-3.9,36,0,7.5,,2.1,5.9,8.344,7.644,8.285,8.474,8.19,8.085,7.683,4.328,-4.58,-8.352,2.013,-2.064,7.965,4.369,-4.589,-7.593,2.6,5.6,-7.675,4.0,13.1,-3.5,5.8,14.5,36,3.0,4,5,probe,5,0,65,norm,36,-5.199,down,norm,4.49737191998,11.0,-2.5,1.572,5.7,1,-0.2,5.6,1.7,10,6,7.767,5.247,1.989,-1.54,-5.029,-7.534,13.1,2,-60.5,-7.805,-7.784,-80,-8.142,-7.755,-4.587,-4.87,-4.423,-5.259,4.458,8.477,25,-1.168,1.383,4.996,8.402,-7.909,-7.705,-1.482,1.219,6.6,2.1,-1.5,7.7,-1.5,0.7,4.0,6.9,-5.5,2.7,0,norm,1.568,1.16,-1.159,-1.671,-4.937,-4.918,-1.381,-1.483,-1.513,-1.649,1.348,-1.227,7.9,13.7,-4.344,-7.619,-1.3,-2.083,7.889,5.088,-5.19,-7.713,25,4.319,5.002,4.488,4.836,1.184,1.691,1.531,1.476,25,5.197,5.101,-80,25.1912182127,norm,0,87,87,87,153.559,153.564,153.578048408,153.578,153.58,153.583,down,1,0.768835953371,9.23116404663,001,309,1366_768,Intel(R) Core(TM) i5-3320M CPU @ 2.60GHz,orientation_search,GRVLAPTOP6,Intel(R) HD Graphics 4000,2018_nov_08_1323,testMonitor,
27.2,23.1,28.7,39.5,36,0,26.7,33.4,29.6,30.0,7.831,7.673,7.756,7.621,7.562,7.927,8.291,4.675,-5.295,-8.277,1.784,-1.191,8.201,5.022,-4.368,-8.116,33.9,27.8,-8.458,38.3,30.0,28.2,22.6,19.5,36,28.3,2,5,probe,5,0,90,norm,36,-4.411,up,norm,29.49737192,,30.8,1.244,27.1,5,30.7,25.9,32.1,10,6,7.911,5.128,1.817,-1.464,-5.253,-8.464,34.8,2,-60.5,-8.029,-7.771,-80,-7.587,-8.007,-5.074,-4.988,-4.885,-4.577,5.254,7.897,17,-1.583,2.082,4.462,8.099,-7.856,-7.977,-1.544,1.879,29.1,31.9,31.5,27.8,32.4,20.7,33.7,24.1,28.2,33.3,1,norm,1.963,1.956,-1.605,-1.429,-4.524,-4.86,-1.499,-1.796,-1.318,-1.876,1.808,-1.972,35.0,27.9,-4.659,-8.194,22.4,-1.866,7.893,4.818,-4.874,-7.794,25,4.458,4.756,4.401,4.586,1.672,1.936,1.412,1.718,25,4.768,4.815,-80,25.1912182127,norm,0,88,88,88,154.384,154.39,154.404873724,154.405,154.408,154.412,up,1,0.717088299001,9.282911701,001,309,1366_768,Intel(R) Core(TM) i5-3320M CPU @ 2.60GHz,orientation_search,GRVLAPTOP6,Intel(R) HD Graphics 4000,2018_nov_08_1323,testMonitor,
298.5,298.3,293.5,275.1,36,0,302.5,295.7,288.5,303.3,8.375,7.744,7.913,7.764,8.161,8.25,7.576,4.715,-5.115,-7.599,1.83,-1.4,7.646,4.56,-4.388,-8.075,289.1,285.6,-8.196,279.4,315.1,,294.5,285.1,36,301.8,5,5,prime,10,0,91,norm,36,-5.296,up,norm,295.114346983,294.9,292.9,1.75,281.4,3,281.1,305.9,300.4,10,5,7.916,4.453,1.365,-1.199,-5.089,-7.552,312.4,5,386.1,-7.712,-7.945,0,-8.472,-7.59,-4.651,-4.859,-5.001,-4.646,4.437,7.964,33,-1.248,1.765,5.294,8.258,-7.867,-7.837,-1.662,1.485,296.2,286.8,301.1,313.6,308.9,291.7,298.1,295.6,289.4,289.0,0,norm,1.597,1.428,-1.63,-1.202,-4.604,-4.871,-1.823,-2.004,-1.582,-1.384,1.113,-1.419,302.6,297.9,-4.609,-7.608,306.1,-1.653,7.948,4.806,-4.731,-7.852,26,5.06,5.106,5.272,4.341,1.48,1.603,1.79,1.367,26,4.768,4.675,0,25.1912182127,norm,0,89,89,89,155.161,155.169,155.185006547,155.185,155.189,155.193,up,1,1.11901205827,8.88098794173,001,309,1366_768,Intel(R) Core(TM) i5-3320M CPU @ 2.60GHz,orientation_search,GRVLAPTOP6,Intel(R) HD Graphics 4000,2018_nov_08_1323,testMonitor,
293.0,301.4,295.3,310.7,36,0,287.9,,293.4,284.4,8.228,8.071,7.547,8.299,8.416,8.357,8.212,5.031,-4.44,-7.889,1.783,-1.612,7.816,4.499,-5.046,-8.209,315.1,299.3,-8.166,280.0,302.6,298.3,299.6,314.7,36,276.7,4,5,prime,10,0,118,norm,36,-5.242,down,norm,295.114346983,288.5,284.5,1.364,297.4,1,309.0,299.5,285.9,10,5,7.961,4.789,1.98,-1.111,-5.245,-8.19,295.2,5,413.1,-7.54,-8.012,0,-8.454,-8.016,-5.277,-5.109,-4.593,-5.092,4.429,8.326,25,-1.62,1.668,4.541,7.994,-7.529,-7.796,-1.477,1.724,286.7,304.5,298.4,292.4,292.0,294.8,275.9,286.0,285.0,287.2,1,norm,1.382,1.488,-1.297,-1.744,-4.441,-4.583,-1.993,-1.962,-1.842,-1.957,1.79,-1.632,299.1,275.1,-4.489,-8.365,280.5,-2.057,8.142,4.682,-4.827,-7.702,26,4.544,5.297,4.785,4.881,1.842,2.027,2.083,1.111,26,4.666,4.916,0,25.1912182127,norm,0,90,90,90,156.346,156.356,156.386239874,156.387,156.39,156.396,down,1,0.611506757734,9.38849324227,001,309,1366_768,Intel(R) Core(TM) i5-3320M CPU @ 2.60GHz,orientation_search,GRVLAPTOP6,Intel(R) HD Graphics 4000,2018_nov_08_1323,testMonitor,
288.2,285.3,291.4,308.0,36,0,277.7,,295.3,313.3,8.176,8.435,7.532,7.61,7.651,7.996,7.591,4.316,-4.882,-8.491,1.247,-1.514,8.278,5.078,-4.714,-8.468,313.6,312.8,-8.36,293.9,290.9,286.7,281.0,296.8,36,297.6,4,5,prime,10,0,87,norm,36,-4.853,down,norm,295.114346983,298.5,315.1,1.965,312.3,1,284.1,288.5,297.1,10,5,8.403,5.284,1.253,-1.938,-4.996,-7.671,289.9,5,382.1,-7.994,-8.33,0,-7.805,-7.53,-5.223,-4.315,-4.363,-5.023,4.429,8.384,25,-1.916,2.053,4.937,8.148,-7.766,-8.007,-1.883,1.438,279.9,288.6,287.0,288.9,275.1,305.9,289.9,303.9,284.3,292.0,2,norm,1.729,1.373,-1.122,-1.59,-4.831,-4.478,-1.248,-1.255,-1.262,-1.531,2.089,-1.838,284.5,297.0,-4.373,-8.378,285.0,-1.839,8.102,4.489,-4.823,-7.615,26,4.716,4.593,4.663,4.98,1.248,1.851,1.969,1.629,26,4.969,4.76,0,25.1912182127,norm,0,91,91,91,157.026,157.031,157.042314564,157.043,157.045,157.048,down,1,0.735242473165,9.26475752683,001,309,1366_768,Intel(R) Core(TM) i5-3320M CPU @ 2.60GHz,orientation_search,GRVLAPTOP6,Intel(R) HD Graphics 4000,2018_nov_08_1323,testMonitor,
293.2,300.0,296.8,285.0,36,0,284.6,292.3,308.9,290.6,8.067,8.147,8.318,8.297,8.131,8.402,8.408,4.582,-4.433,-8.101,1.548,-1.887,8.354,4.309,-4.348,-8.266,275.1,290.9,-7.873,,315.1,304.2,293.2,299.5,36,292.8,5,5,prime,10,0,75,norm,36,-4.867,down,norm,295.114346983,309.3,313.8,1.272,298.6,1,301.2,297.1,281.8,10,5,7.525,4.353,1.297,-1.724,-4.501,-7.581,310.6,5,370.1,-7.723,-8.274,0,-7.513,-7.508,-5.228,-5.173,-4.509,-4.887,4.535,7.762,31,-1.738,1.795,4.451,8.294,-8.133,-7.885,-2.029,1.382,282.4,303.8,304.7,294.4,298.7,294.2,297.6,288.9,306.7,288.9,3,norm,2.031,1.177,-1.78,-1.584,-4.778,-4.543,-1.698,-1.825,-1.106,-1.67,1.872,-1.706,291.1,299.3,-4.362,-7.97,291.0,-1.821,7.623,5.288,-4.97,-8.12,26,5.211,4.668,4.378,4.5,1.405,1.211,1.903,1.993,26,5.047,5.283,0,25.1912182127,norm,0,92,92,92,157.816,157.825,157.836993328,157.837,157.841,157.845,down,1,0.917518742506,9.08248125749,001,309,1366_768,Intel(R) Core(TM) i5-3320M CPU @ 2.60GHz,orientation_search,GRVLAPTOP6,Intel(R) HD Graphics 4000,2018_nov_08_1323,testMonitor,
302.1,299.1,278.3,292.4,36,0,294.7,290.7,277.2,295.7,7.785,7.591,7.88,8.142,7.566,7.547,7.681,5.088,-4.44,-8.054,1.947,-1.291,7.503,4.423,-4.351,-7.668,294.2,291.3,-7.911,287.0,305.1,307.8,,296.8,36,294.8,5,5,prime,10,0,69,norm,36,-5.206,down,norm,295.114346983,275.1,283.5,1.293,291.3,2,287.9,286.0,298.1,10,5,8.378,4.811,1.567,-2.056,-5.133,-8.324,307.8,5,364.1,-7.957,-7.641,0,-7.573,-7.609,-5.267,-5.018,-4.61,-4.396,5.029,7.954,32,-1.235,1.485,5.202,8.491,-7.568,-8.009,-2.032,1.124,284.4,275.2,298.1,312.5,299.3,280.3,291.1,287.8,300.8,301.5,4,norm,1.254,1.315,-1.641,-2.047,-4.834,-5.074,-1.476,-1.767,-1.706,-1.896,1.428,-1.52,300.7,315.1,-4.944,-7.74,282.9,-1.719,8.495,4.409,-4.409,-7.574,26,5.17,4.524,4.586,4.43,1.611,2.043,1.721,1.261,26,5.0,4.961,0,25.1912182127,norm,0,93,93,93,158.795,158.802,158.819840783,158.82,158.824,158.828,down,1,1.2869174255,8.7130825745,001,309,1366_768,Intel(R) Core(TM) i5-3320M CPU @ 2.60GHz,orientation_search,GRVLAPTOP6,Intel(R) HD Graphics 4000,2018_nov_08_1323,testMonitor,
395.8,400.0,401.2,,36,-80,397.1,401.0,403.0,406.2,7.977,7.567,7.735,8.288,7.527,7.923,7.586,4.469,-4.388,-7.857,1.534,-1.25,8.34,5.25,-4.97,-7.582,387.1,396.3,-7.671,396.4,393.7,397.1,393.8,399.6,36,394.9,3,5,probe,5,0,101,norm,36,-4.882,up,norm,397.063698597,400.3,394.0,1.746,390.9,3,399.8,393.5,395.8,10,5,7.971,4.93,1.351,-1.651,-4.78,-7.791,394.4,2,296.1,-8.448,-8.108,0,-7.808,-8.355,-5.232,-4.906,-5.151,-4.371,4.484,8.487,21,-1.577,1.247,4.69,8.474,-7.765,-8.24,-1.265,1.931,398.3,391.3,400.5,405.7,402.0,402.5,392.7,398.6,389.4,401.4,0,norm,1.682,1.165,-1.182,-1.285,-4.588,-5.1,-1.205,-1.172,-1.649,-1.985,1.19,-1.833,402.6,407.1,-4.537,-8.479,396.1,-1.805,8.01,4.316,-4.301,-8.445,27,4.982,4.826,5.242,5.177,1.195,1.806,2.1,1.214,27,4.584,4.403,0,295.114346983,norm,0,94,94,94,160.132,160.137,160.147871608,160.148,160.15,160.153,up,1,0.887211078527,9.11278892147,001,309,1366_768,Intel(R) Core(TM) i5-3320M CPU @ 2.60GHz,orientation_search,GRVLAPTOP6,Intel(R) HD Graphics 4000,2018_nov_08_1323,testMonitor,
393.0,382.2,387.5,388.6,36,-80,381.6,387.7,,396.7,7.705,8.002,7.995,8.32,8.281,7.97,8.26,4.604,-4.912,-8.294,1.518,-1.105,7.806,4.597,-4.764,-7.91,389.5,388.9,-8.199,389.9,390.5,385.9,385.8,381.1,36,395.0,4,5,probe,5,0,95,norm,36,-4.664,up,norm,391.063698597,394.3,392.7,1.845,398.5,4,385.8,390.4,401.1,10,5,7.956,4.491,1.406,-1.978,-4.756,-7.88,390.7,2,296.1,-7.847,-8.082,0,-8.257,-8.345,-4.671,-5.29,-4.868,-4.8,5.154,8.161,28,-2.071,1.454,4.556,8.312,-8.175,-8.0,-1.639,2.032,395.2,387.2,387.9,395.9,389.5,385.3,388.9,392.2,395.5,396.4,1,norm,1.73,1.229,-2.042,-1.31,-4.46,-4.988,-1.689,-2.088,-2.002,-1.612,1.781,-1.809,383.6,395.8,-4.702,-8.245,390.4,-1.827,8.417,4.845,-4.322,-8.398,27,4.819,5.207,5.18,4.763,2.024,1.692,1.496,1.172,27,5.135,4.58,0,295.114346983,norm,0,95,95,95,161.073,161.081,161.097412835,161.098,161.101,161.107,up,1,0.680880706221,9.31911929378,001,309,1366_768,Intel(R) Core(TM) i5-3320M CPU @ 2.60GHz,orientation_search,GRVLAPTOP6,Intel(R) HD Graphics 4000,2018_nov_08_1323,testMonitor,
258.1,272.2,266.4,242.6,36,20,278.1,256.3,245.0,251.6,7.662,8.06,8.321,7.699,7.565,8.321,8.058,4.507,-5.13,-7.72,1.187,-1.105,7.878,5.092,-5.061,-7.917,262.8,,-7.641,272.3,267.1,269.8,257.8,250.8,36,258.7,5,5,prime,10,0,65,norm,36,-5.132,up,norm,261.844123613,260.5,265.3,1.512,267.2,4,272.1,267.4,258.5,10,6,7.769,5.153,1.931,-1.48,-5.007,-7.622,263.6,6,326.8,-7.985,-7.83,20,-7.774,-7.916,-5.282,-5.135,-4.849,-4.991,4.8,7.526,34,-1.207,1.757,5.07,8.146,-7.53,-7.856,-2.075,1.327,255.4,259.5,281.8,268.6,241.8,269.5,257.3,262.1,272.0,257.9,0,norm,1.191,1.754,-1.276,-1.451,-4.818,-4.809,-1.65,-2.042,-1.433,-1.976,1.741,-1.364,261.9,261.8,-4.964,-8.489,256.3,-1.915,8.32,4.557,-4.75,-8.234,28,4.935,5.14,5.029,4.538,1.705,1.229,1.229,1.148,28,4.642,4.733,-80,295.114346983,norm,0,96,96,96,161.821,161.834,161.852391146,161.853,161.857,161.862,up,1,0.705986618083,9.29401338192,001,309,1366_768,Intel(R) Core(TM) i5-3320M CPU @ 2.60GHz,orientation_search,GRVLAPTOP6,Intel(R) HD Graphics 4000,2018_nov_08_1323,testMonitor,
