d_ori_22,d_ori_23,d_ori_20,d_ori_21,set_size,ctpd,d_ori_24,d_ori_25,d_ori_28,d_ori_29,stim_pos_x_30,stim_pos_x_31,stim_pos_x_32,stim_pos_x_33,stim_pos_x_34,stim_pos_x_35,stim_pos_y_11,stim_pos_y_10,stim_pos_y_13,stim_pos_y_12,stim_pos_y_15,stim_pos_y_14,stim_pos_y_17,stim_pos_y_16,stim_pos_y_19,stim_pos_y_18,d_ori_35,d_ori_34,stim_pos_x_3,d_ori_31,d_ori_30,d_ori_33,d_ori_32,d_ori_26,test_set_size,d_ori_27,targetCol,dsd_test,seq_type,dsd,blockRepN,targetDist,dtype_test,prime_set_size,stim_pos_y_25,correctResponse,dtype,distrMean,d_ori_17,d_ori_16,d_ori_15,d_ori_14,targetRow,d_ori_11,d_ori_13,d_ori_12,dsd_prime,streak_length_prime,stim_pos_y_35,stim_pos_y_34,stim_pos_y_33,stim_pos_y_32,stim_pos_y_31,stim_pos_y_30,d_ori_10,nextProbe,targetOri,stim_pos_x_1,stim_pos_x_2,ctpd_prime,stim_pos_x_4,stim_pos_x_5,stim_pos_x_6,stim_pos_x_7,stim_pos_x_8,stim_pos_x_9,stim_pos_y_28,stim_pos_y_29,targetPos,stim_pos_y_20,stim_pos_y_21,stim_pos_y_22,stim_pos_y_23,stim_pos_y_24,stim_pos_x_0,stim_pos_y_26,stim_pos_y_27,d_ori_9,d_ori_8,d_ori_3,d_ori_2,d_ori_1,d_ori_0,d_ori_7,d_ori_6,d_ori_5,d_ori_4,trialN,dtype_prime,stim_pos_x_18,stim_pos_x_19,stim_pos_x_12,stim_pos_x_13,stim_pos_x_10,stim_pos_x_11,stim_pos_x_16,stim_pos_x_17,stim_pos_x_14,stim_pos_x_15,stim_pos_y_9,stim_pos_y_8,d_ori_19,d_ori_18,stim_pos_y_1,stim_pos_y_0,stim_pos_y_3,stim_pos_y_2,stim_pos_y_5,stim_pos_y_4,stim_pos_y_7,stim_pos_y_6,totBlockN,stim_pos_x_27,stim_pos_x_26,stim_pos_x_25,stim_pos_x_24,stim_pos_x_23,stim_pos_x_22,stim_pos_x_21,stim_pos_x_20,blockN,stim_pos_x_29,stim_pos_x_28,prevDistrCTPD,prevDistrMean,prevDistrType,trials.thisRepN,trials.thisTrialN,trials.thisN,trials.thisIndex,timeStart,timeBeforeDraw,timeDraw,timeAfterSaving,timeAfterWritingToTemp,timeAfterPreparingNext,answer,correct,rt,trialScore,session,participant,resolution,cpu_info,expName,pc_name,graphic_card,date,monitorName,
129.8,122.0,146.2,127.9,36,10,136.3,145.5,133.0,124.5,7.634,8.359,7.578,7.516,8.354,7.896,8.037,4.944,-5.28,-8.048,1.864,-1.466,8.145,4.705,-5.208,-7.968,119.9,129.3,-7.533,146.2,154.9,114.9,127.5,121.8,36,133.7,2,5,prime,10,0,112,norm,36,-4.936,down,norm,134.890686357,143.0,145.0,134.3,144.3,0,149.6,128.3,,10,5,8.285,4.342,1.858,-1.331,-5.282,-7.537,131.7,5,246.9,-8.406,-8.011,10,-8.069,-8.11,-4.669,-4.65,-5.116,-4.537,4.462,7.641,12,-2.047,1.265,4.602,7.808,-7.832,-7.769,-1.39,1.28,122.3,136.6,139.6,128.1,151.0,125.0,132.4,146.0,135.3,136.7,0,norm,1.445,1.704,-1.321,-1.649,-5.271,-4.738,-1.333,-1.822,-1.839,-1.962,2.091,-1.308,137.7,146.5,-4.666,-8.097,1.877,-1.602,8.013,5.113,-4.654,-8.336,0,4.386,4.71,4.556,5.037,1.225,1.87,1.608,1.584,0,4.948,4.648,,,,0,0,0,0,2083.809,2083.833,2083.84984986,2083.85,2083.85,2083.854,down,1,0.935724527058,9.06427547294,001,308,1366_768,Intel(R) Core(TM) i5-4200U CPU @ 1.60GHz,orientation_search,PPW53677,Intel(R) HD Graphics 4400,2018_nov_08_1320,testMonitor,
133.2,154.9,124.6,119.9,36,10,118.3,148.2,138.7,122.7,8.009,7.729,7.553,7.882,8.319,8.5,7.547,4.691,-5.055,-8.043,1.66,-1.336,7.634,4.375,-4.999,-7.971,149.3,153.5,-8.039,136.9,129.6,127.9,131.6,124.4,36,144.2,1,5,prime,10,0,71,norm,36,-4.475,down,norm,134.890686357,150.4,114.9,137.9,135.3,1,143.2,137.1,127.2,10,5,7.534,5.258,1.272,-1.684,-4.733,-8.08,144.2,5,205.9,-7.896,-8.149,10,-7.785,-7.637,-4.922,-4.864,-4.881,-4.929,5.047,8.406,7,-1.986,1.19,4.32,8.076,-8.29,-8.27,-1.807,1.708,134.4,120.9,132.1,139.4,133.5,135.0,,116.9,142.4,145.9,1,norm,1.488,1.783,-2.003,-1.977,-4.399,-4.401,-1.755,-2.024,-1.694,-1.399,1.479,-1.952,140.7,133.1,-5.013,-7.761,1.737,-1.81,7.534,4.823,-5.15,-7.742,0,5.144,4.776,4.645,4.875,1.54,1.951,2.001,1.771,0,5.008,5.274,,,,0,1,1,1,2084.838,2084.861,2084.86966452,2084.87,2084.871,2084.874,up,0,1.79498972965,-10,001,308,1366_768,Intel(R) Core(TM) i5-4200U CPU @ 1.60GHz,orientation_search,PPW53677,Intel(R) HD Graphics 4400,2018_nov_08_1320,testMonitor,
129.7,133.2,114.9,138.1,36,10,148.1,132.1,141.5,132.9,8.002,7.573,8.03,8.047,7.687,7.566,8.379,4.881,-4.579,-7.809,1.583,-1.194,8.03,5.216,-5.012,-8.12,137.8,134.1,-7.634,,144.1,147.7,129.8,137.0,36,118.8,5,5,prime,10,0,86,norm,36,-4.545,down,norm,134.890686357,129.2,131.4,129.8,146.9,1,144.4,136.7,144.0,10,5,7.923,4.304,1.837,-1.171,-4.344,-8.048,126.7,5,220.9,-7.643,-8.349,10,-8.326,-8.088,-4.319,-5.208,-4.919,-4.67,5.237,8.343,31,-1.146,1.309,5.023,7.723,-7.626,-7.938,-1.474,1.556,139.4,122.8,147.0,149.2,119.4,139.7,127.4,154.9,128.5,132.7,2,norm,1.309,1.473,-1.329,-1.867,-4.351,-4.962,-1.917,-1.346,-1.572,-1.249,2.032,-1.38,153.8,126.7,-4.389,-7.915,1.282,-1.713,7.629,4.423,-4.315,-8.211,0,4.52,4.703,5.134,4.843,1.184,1.426,1.364,1.153,0,5.048,4.355,,,,0,2,2,2,2087.737,2087.75,2087.7527588,2087.753,2087.755,2087.759,down,1,0.355298299759,9.64470170024,001,308,1366_768,Intel(R) Core(TM) i5-4200U CPU @ 1.60GHz,orientation_search,PPW53677,Intel(R) HD Graphics 4400,2018_nov_08_1320,testMonitor,
143.3,144.4,146.7,135.5,36,10,154.9,134.5,138.5,,7.558,8.345,7.673,8.188,8.145,8.337,8.112,4.499,-5.096,-8.379,1.578,-1.986,8.329,4.609,-5.27,-7.97,132.1,142.5,-7.572,132.2,127.4,145.8,120.4,135.4,36,137.5,4,5,prime,10,0,92,norm,36,-4.743,up,norm,134.890686357,115.2,128.6,135.8,132.0,5,133.8,118.1,142.4,10,5,7.691,4.769,1.725,-1.9,-4.32,-7.68,114.9,5,226.9,-8.087,-8.043,10,-7.902,-8.271,-4.911,-5.044,-5.001,-4.772,5.114,8.268,29,-1.808,1.561,4.759,8.314,-7.846,-7.582,-1.244,1.855,147.0,117.7,152.9,133.2,144.2,143.7,128.3,139.7,134.6,135.4,3,norm,1.187,1.676,-1.945,-1.432,-5.244,-4.672,-1.555,-1.578,-1.386,-2.053,1.577,-1.253,145.2,131.3,-4.425,-8.083,1.934,-1.183,7.549,4.727,-4.735,-7.816,0,4.579,4.732,5.149,5.015,1.765,1.805,1.761,1.363,0,4.97,4.541,,,,0,3,3,3,2088.157,2088.174,2088.19628884,2088.197,2088.199,2088.204,up,1,1.45594861389,8.54405138611,001,308,1366_768,Intel(R) Core(TM) i5-4200U CPU @ 1.60GHz,orientation_search,PPW53677,Intel(R) HD Graphics 4400,2018_nov_08_1320,testMonitor,
145.1,135.6,134.4,130.7,36,10,128.2,131.4,134.7,132.6,7.576,7.901,8.307,8.151,8.244,8.087,7.884,4.39,-4.836,-8.477,2.068,-1.32,8.374,4.392,-4.586,-8.451,137.2,129.9,-7.902,138.6,122.0,129.1,148.3,136.9,36,126.7,3,5,prime,10,0,90,norm,36,-5.139,down,norm,134.890686357,143.5,130.8,139.9,140.4,1,142.1,145.8,114.9,10,5,7.734,4.814,1.726,-1.46,-4.884,-8.337,154.9,5,224.9,-7.751,-8.485,10,-8.066,-7.96,-4.685,-4.609,-4.608,-5.114,4.657,7.729,19,-1.996,2.001,4.716,7.874,-8.413,-7.673,-1.31,1.243,121.0,131.6,132.4,122.5,136.5,144.5,137.7,131.6,128.3,133.2,4,norm,1.91,1.792,-1.256,-2.062,-5.152,-5.297,-1.706,-1.657,-1.95,-2.023,1.493,-1.395,,135.5,-4.509,-7.797,1.688,-1.361,8.267,5.008,-4.839,-8.267,0,4.606,4.539,4.44,4.705,1.782,1.306,1.893,1.184,0,5.176,5.126,,,,0,4,4,4,2089.708,2089.723,2089.74065929,2089.741,2089.744,2089.749,down,1,1.39108365013,8.60891634987,001,308,1366_768,Intel(R) Core(TM) i5-4200U CPU @ 1.60GHz,orientation_search,PPW53677,Intel(R) HD Graphics 4400,2018_nov_08_1320,testMonitor,
231.0,237.6,234.6,235.3,36,-80,234.5,237.2,236.5,237.1,8.191,8.237,8.317,7.848,7.987,8.439,7.927,5.266,-4.793,-8.117,1.741,-1.844,8.114,4.393,-4.72,-7.762,233.2,234.1,-8.309,231.5,236.3,241.4,,236.6,36,230.9,5,5,probe,5,0,92,norm,36,-4.728,down,norm,236.138073196,236.8,234.2,237.1,237.6,2,236.4,242.0,226.3,10,5,7.8,4.519,1.907,-1.696,-5.213,-8.132,237.2,2,144.1,-7.676,-8.41,10,-8.211,-7.601,-4.965,-4.591,-4.859,-4.588,4.682,8.471,32,-1.204,1.561,4.376,8.391,-7.558,-7.602,-1.389,1.333,232.2,235.4,232.0,239.0,235.5,234.4,246.1,241.0,226.1,237.4,0,norm,1.233,1.243,-1.328,-1.299,-4.991,-4.316,-1.756,-1.178,-1.358,-1.743,1.117,-1.393,244.6,236.5,-4.816,-7.928,1.48,-1.842,7.846,4.413,-5.236,-8.069,1,4.809,5.23,4.848,4.501,1.675,1.879,1.947,2.066,1,4.68,5.264,10,134.890686357,norm,0,5,5,5,2091.188,2091.203,2091.22060969,2091.221,2091.224,2091.228,down,1,1.65271449143,8.34728550857,001,308,1366_768,Intel(R) Core(TM) i5-4200U CPU @ 1.60GHz,orientation_search,PPW53677,Intel(R) HD Graphics 4400,2018_nov_08_1320,testMonitor,
203.5,201.2,211.2,213.9,36,-80,214.5,206.2,206.5,209.4,7.83,8.389,7.857,7.972,7.594,7.542,8.412,4.392,-5.201,-7.703,1.125,-1.865,7.577,5.112,-4.649,-8.189,212.3,212.1,-8.142,208.7,209.0,216.5,210.9,208.9,36,213.0,0,5,probe,5,0,65,norm,36,-5.0,up,norm,209.138073196,216.3,202.5,219.0,212.3,3,213.6,210.4,203.4,10,5,7.578,5.151,1.879,-1.853,-4.685,-7.791,212.3,2,144.1,-8.123,-8.214,10,-7.686,-7.747,-5.238,-4.863,-4.731,-4.996,4.558,7.675,3,-2.055,2.065,4.932,7.906,-7.565,-7.588,-1.344,1.126,199.1,210.8,,213.8,208.8,213.7,207.1,205.0,207.7,215.1,1,norm,1.373,1.359,-1.82,-1.538,-4.322,-4.517,-2.097,-1.729,-1.532,-1.4,1.139,-1.752,218.6,211.5,-4.476,-8.034,1.502,-1.803,8.449,4.42,-4.603,-8.231,1,5.144,5.03,5.252,4.519,1.483,1.263,1.358,1.982,1,4.663,4.717,10,134.890686357,norm,0,6,6,6,2092.928,2092.942,2092.96063353,2092.961,2092.964,2092.968,down,0,1.07243641777,-10,001,308,1366_768,Intel(R) Core(TM) i5-4200U CPU @ 1.60GHz,orientation_search,PPW53677,Intel(R) HD Graphics 4400,2018_nov_08_1320,testMonitor,
317.7,320.3,324.5,334.5,36,60,321.5,314.2,328.6,,8.06,7.622,8.042,7.887,8.178,7.901,7.874,4.718,-4.466,-8.158,1.229,-2.001,8.289,4.571,-4.314,-8.092,303.8,322.9,-7.841,318.7,314.1,327.2,314.2,331.7,36,319.8,4,5,prime,10,0,94,norm,36,-4.898,up,norm,319.937385022,339.9,329.8,309.5,337.1,5,310.5,326.4,320.8,10,5,8.072,5.007,1.588,-1.435,-4.618,-8.352,325.4,5,413.9,-7.803,-7.869,60,-7.916,-7.692,-4.719,-5.287,-4.487,-4.964,4.735,8.065,29,-1.144,1.447,4.779,7.848,-7.694,-7.938,-1.985,1.168,304.2,308.8,310.9,318.2,323.0,319.5,318.9,299.9,300.1,311.8,0,norm,1.615,2.061,-1.61,-2.019,-4.791,-5.072,-2.047,-1.644,-2.08,-1.409,1.258,-1.926,301.6,305.4,-4.558,-8.408,1.534,-1.919,8.271,4.758,-4.327,-8.157,2,5.147,4.439,4.436,4.308,1.238,1.871,1.905,1.406,2,4.999,5.03,-80,134.890686357,norm,0,7,7,7,2095.128,2095.138,2095.14723125,2095.148,2095.15,2095.152,up,1,0.267602057551,9.73239794245,001,308,1366_768,Intel(R) Core(TM) i5-4200U CPU @ 1.60GHz,orientation_search,PPW53677,Intel(R) HD Graphics 4400,2018_nov_08_1320,testMonitor,
321.6,319.6,333.3,330.9,36,60,304.3,323.6,299.9,319.5,7.842,7.808,8.113,8.053,7.644,8.311,7.83,4.986,-4.867,-7.796,1.183,-1.134,8.491,4.401,-4.626,-8.361,326.3,316.9,-7.788,322.9,322.4,327.8,332.7,320.6,36,324.0,3,5,prime,10,0,81,norm,36,-5.12,down,norm,319.937385022,327.4,304.0,321.3,330.1,1,321.1,320.6,318.2,10,5,7.721,4.961,2.025,-1.817,-4.322,-7.985,304.1,5,400.9,-7.64,-7.824,60,-7.533,-7.85,-4.79,-4.497,-4.373,-5.247,4.951,8.449,19,-1.537,1.242,4.627,8.086,-8.296,-8.219,-1.717,1.427,328.9,321.7,315.6,327.1,306.0,339.9,321.6,305.2,302.9,323.8,1,norm,1.839,1.11,-1.923,-1.664,-5.214,-5.041,-1.356,-1.605,-1.557,-1.404,1.847,-2.015,,314.6,-5.212,-8.014,1.275,-1.942,8.047,5.15,-4.357,-7.565,2,4.847,4.87,5.058,5.215,1.704,1.528,1.922,1.66,2,4.603,5.209,-80,134.890686357,norm,0,8,8,8,2095.468,2095.483,2095.50060623,2095.501,2095.504,2095.508,down,1,1.09229792982,8.90770207018,001,308,1366_768,Intel(R) Core(TM) i5-4200U CPU @ 1.60GHz,orientation_search,PPW53677,Intel(R) HD Graphics 4400,2018_nov_08_1320,testMonitor,
328.4,325.5,317.9,333.7,36,60,305.6,310.7,322.7,332.6,8.325,8.151,7.86,8.169,7.897,7.663,7.774,5.013,-4.592,-7.634,1.782,-1.252,8.379,4.952,-5.167,-8.176,304.5,301.3,-8.067,317.5,319.1,326.4,322.4,322.0,36,316.5,1,5,prime,10,0,76,norm,36,-4.505,up,norm,319.937385022,320.5,317.6,328.2,315.3,5,,338.0,334.9,10,5,8.279,5.285,2.091,-1.99,-4.516,-8.29,310.0,5,395.9,-7.593,-7.715,60,-7.587,-8.4,-4.534,-5.018,-4.416,-4.944,5.109,8.153,11,-1.473,1.136,5.11,8.234,-8.061,-8.496,-1.942,1.108,309.4,323.6,328.4,312.8,339.9,306.3,320.7,326.0,316.1,299.9,2,norm,1.958,2.019,-1.525,-1.208,-5.029,-4.664,-1.529,-2.071,-1.946,-1.597,1.317,-1.524,311.8,314.7,-4.657,-7.573,1.246,-2.057,8.447,5.291,-4.533,-8.232,2,5.137,5.138,4.328,4.413,1.678,2.02,1.766,1.615,2,4.872,4.341,-80,134.890686357,norm,0,9,9,9,2096.648,2096.662,2096.68061869,2096.681,2096.683,2096.687,up,1,1.19306783785,8.80693216215,001,308,1366_768,Intel(R) Core(TM) i5-4200U CPU @ 1.60GHz,orientation_search,PPW53677,Intel(R) HD Graphics 4400,2018_nov_08_1320,testMonitor,
339.9,335.7,322.4,329.6,36,60,303.9,324.0,302.9,315.8,7.925,8.489,8.018,8.426,8.162,8.298,8.093,4.481,-4.547,-8.397,1.194,-1.408,8.438,5.095,-4.898,-8.268,325.7,315.0,-8.449,311.4,336.2,311.2,322.6,303.5,36,334.5,1,5,prime,10,0,110,norm,36,-5.207,up,norm,319.937385022,310.5,318.9,311.5,313.8,5,,332.7,324.3,10,5,8.352,4.507,1.791,-1.366,-4.488,-8.316,328.2,5,429.9,-8.438,-8.17,60,-8.113,-7.594,-4.584,-5.026,-5.144,-5.198,4.512,8.204,11,-1.384,1.497,5.011,7.657,-7.891,-8.182,-1.146,2.055,326.5,316.5,333.8,299.9,316.4,315.6,325.9,322.0,318.2,316.3,3,norm,1.765,1.142,-1.567,-1.833,-4.332,-4.575,-1.216,-1.83,-2.044,-1.66,1.874,-2.069,303.1,320.6,-4.324,-8.155,1.306,-1.371,8.177,4.318,-4.874,-8.232,2,4.901,4.555,4.401,4.855,1.944,1.836,1.984,1.232,2,5.107,4.726,-80,134.890686357,norm,0,10,10,10,2097.928,2097.942,2097.96050456,2097.961,2097.963,2097.966,down,0,1.41439330417,-10,001,308,1366_768,Intel(R) Core(TM) i5-4200U CPU @ 1.60GHz,orientation_search,PPW53677,Intel(R) HD Graphics 4400,2018_nov_08_1320,testMonitor,
320.9,309.1,328.4,324.4,36,60,333.8,329.7,326.8,324.9,8.235,8.145,7.557,8.105,7.836,8.06,7.5,4.588,-5.058,-8.101,1.767,-1.219,8.115,4.918,-4.859,-7.868,313.4,321.9,-7.931,320.7,307.7,320.5,319.0,322.9,36,314.1,2,5,prime,10,0,93,norm,36,-5.058,down,norm,319.937385022,322.3,310.0,339.9,,2,299.9,319.7,326.3,10,5,8.404,4.555,1.738,-1.351,-5.082,-8.436,314.2,5,412.9,-8.352,-7.855,60,-7.795,-8.422,-4.845,-5.129,-4.987,-4.479,4.974,8.217,14,-1.849,1.155,4.926,8.431,-8.311,-7.728,-1.876,1.335,324.2,307.0,331.9,308.8,328.3,320.7,302.3,317.4,322.0,323.0,4,norm,1.329,1.884,-1.13,-1.954,-5.091,-4.709,-2.003,-1.493,-1.967,-2.048,1.211,-1.948,319.4,311.7,-4.533,-7.839,1.271,-1.89,8.362,4.492,-4.711,-7.757,2,4.887,4.614,4.479,5.01,1.62,1.867,1.653,1.978,2,4.818,5.294,-80,134.890686357,norm,0,11,11,11,2100.468,2100.48,2100.48372742,2100.484,2100.486,2100.489,up,0,0.410794777317,-10,001,308,1366_768,Intel(R) Core(TM) i5-4200U CPU @ 1.60GHz,orientation_search,PPW53677,Intel(R) HD Graphics 4400,2018_nov_08_1320,testMonitor,
451.6,454.9,448.6,463.8,36,-20,453.0,451.2,453.6,452.9,8.24,7.794,7.566,8.123,8.068,8.194,7.685,4.743,-4.574,-8.459,1.779,-1.449,8.054,4.719,-4.477,-7.639,443.8,450.4,-8.058,455.1,451.2,451.8,452.5,448.8,36,446.5,0,5,probe,5,0,68,norm,36,-4.408,down,norm,453.796895102,456.5,459.1,453.3,454.3,1,457.3,448.0,452.9,10,5,8.048,4.905,1.801,-1.17,-4.894,-8.077,453.7,1,385.8,-7.847,-7.889,60,-8.38,-8.435,-5.146,-4.918,-5.293,-4.463,5.155,7.756,1,-2.048,1.492,4.871,7.671,-7.904,-8.483,-1.637,1.935,454.7,454.2,458.1,461.8,,447.9,457.6,455.0,458.4,452.7,0,norm,1.96,1.921,-1.675,-1.637,-4.919,-4.891,-1.172,-1.799,-1.924,-1.238,1.994,-1.268,457.9,460.5,-5.275,-7.602,1.688,-1.852,7.69,4.995,-4.836,-8.305,3,4.47,4.622,4.849,4.536,1.437,1.239,1.533,1.527,3,4.782,5.207,60,319.937385022,norm,0,12,12,12,2101.968,2101.979,2101.98720211,2101.987,2101.99,2101.993,down,1,0.927073604242,9.07292639576,001,308,1366_768,Intel(R) Core(TM) i5-4200U CPU @ 1.60GHz,orientation_search,PPW53677,Intel(R) HD Graphics 4400,2018_nov_08_1320,testMonitor,
302.3,312.0,297.3,313.9,36,0,310.3,314.4,321.0,307.5,7.76,7.611,8.289,8.315,8.383,8.425,8.434,4.468,-4.691,-8.151,1.165,-1.525,7.743,5.257,-4.312,-8.135,334.1,316.8,-8.448,306.2,317.7,314.0,314.4,309.6,36,309.0,3,5,prime,10,0,103,norm,36,-4.584,down,norm,314.076014936,310.3,325.6,306.3,324.7,0,315.7,322.3,314.4,10,5,8.023,4.657,1.451,-1.249,-5.268,-8.133,325.4,5,417.1,-8.348,-7.8,0,-8.24,-7.994,-5.144,-4.908,-5.229,-4.708,4.63,8.335,18,-1.921,1.885,4.763,8.311,-8.298,-7.548,-1.531,1.448,320.1,319.0,320.0,294.1,312.0,314.7,326.9,316.8,313.0,307.6,0,norm,1.102,2.027,-1.326,-1.143,-5.018,-4.999,-1.156,-1.126,-1.428,-1.152,1.207,-1.126,318.8,,-4.342,-8.122,1.376,-1.62,8.269,4.595,-5.036,-8.391,4,4.315,5.089,5.072,4.989,1.687,2.089,1.876,1.786,4,4.642,4.649,-20,319.937385022,norm,0,13,13,13,2102.968,2102.982,2103.00062028,2103.001,2103.003,2103.006,up,0,1.1546532067,-10,001,308,1366_768,Intel(R) Core(TM) i5-4200U CPU @ 1.60GHz,orientation_search,PPW53677,Intel(R) HD Graphics 4400,2018_nov_08_1320,testMonitor,
326.8,311.4,334.1,321.7,36,0,307.3,,305.7,296.1,8.057,8.347,7.694,7.547,8.09,8.304,8.403,5.149,-4.517,-8.386,1.353,-1.943,7.827,5.017,-5.051,-8.232,304.4,302.3,-8.253,319.9,312.2,319.7,298.9,314.3,36,317.3,4,5,prime,10,0,85,norm,36,-4.442,down,norm,314.076014936,310.6,308.1,322.5,314.0,1,318.6,321.1,322.3,10,5,7.822,4.765,1.923,-1.715,-4.772,-7.574,317.7,5,399.1,-7.606,-7.966,0,-7.569,-7.704,-4.5,-5.049,-5.07,-4.538,4.624,7.522,25,-1.233,1.963,4.364,7.864,-7.956,-8.44,-1.3,1.556,321.6,294.1,318.6,314.9,321.5,297.1,316.0,304.3,304.5,319.7,1,norm,1.467,1.223,-1.684,-1.184,-5.087,-4.843,-1.938,-1.463,-1.162,-2.091,1.862,-1.811,327.3,308.2,-4.808,-7.623,1.62,-1.709,8.08,5.104,-5.045,-8.332,4,4.381,4.679,4.461,4.49,1.87,1.582,1.968,1.75,4,5.252,4.878,-20,319.937385022,norm,0,14,14,14,2105.249,2105.262,2105.26472734,2105.265,2105.267,2105.27,down,1,0.751248261315,9.24875173869,001,308,1366_768,Intel(R) Core(TM) i5-4200U CPU @ 1.60GHz,orientation_search,PPW53677,Intel(R) HD Graphics 4400,2018_nov_08_1320,testMonitor,
310.0,313.8,332.9,323.4,36,0,315.3,317.9,334.1,321.6,8.194,8.115,8.169,8.157,8.147,7.951,7.56,4.423,-4.469,-8.006,1.366,-1.638,7.848,4.955,-4.751,-8.18,302.9,326.0,-7.846,300.0,316.3,333.1,297.0,303.1,36,313.7,1,5,prime,10,0,115,norm,36,-4.39,down,norm,314.076014936,303.8,331.5,307.9,318.9,2,315.6,302.8,324.6,10,5,8.296,5.053,1.739,-1.307,-5.256,-8.192,313.0,5,429.1,-7.764,-7.875,0,-8.274,-7.576,-4.572,-5.279,-4.387,-4.84,4.693,7.717,8,-1.657,1.662,5.152,8.098,-7.963,-7.712,-1.181,1.5,320.6,,318.2,331.4,318.7,309.4,319.7,309.8,334.0,294.1,2,norm,1.973,1.845,-1.614,-1.192,-5.164,-4.827,-1.595,-1.163,-1.882,-1.475,1.591,-1.222,332.7,302.2,-4.658,-8.311,1.812,-1.321,8.34,4.763,-4.892,-8.436,4,4.43,4.425,5.004,4.547,2.018,2.095,1.395,1.276,4,5.283,5.054,-20,319.937385022,norm,0,15,15,15,2106.069,2106.083,2106.10156735,2106.102,2106.105,2106.108,down,1,1.1525741471,8.8474258529,001,308,1366_768,Intel(R) Core(TM) i5-4200U CPU @ 1.60GHz,orientation_search,PPW53677,Intel(R) HD Graphics 4400,2018_nov_08_1320,testMonitor,
334.1,321.9,329.4,310.4,36,0,312.9,305.7,305.0,329.6,7.688,7.5,7.664,8.148,8.452,7.785,8.175,4.332,-5.069,-8.174,1.251,-2.06,7.981,5.114,-5.187,-7.795,318.4,300.0,-7.679,332.2,313.7,321.5,310.0,313.1,36,305.8,0,5,prime,10,0,68,norm,36,-4.349,down,norm,314.076014936,294.1,298.0,322.4,314.7,2,303.6,302.7,322.6,10,5,7.869,4.324,1.688,-1.677,-4.307,-8.06,294.6,5,382.1,-8.116,-7.841,0,-8.175,-7.62,-5.291,-5.033,-5.13,-4.484,4.677,8.423,2,-1.696,1.944,4.811,7.683,-8.067,-7.821,-1.535,1.853,323.5,314.0,311.5,,306.9,294.2,310.0,321.0,305.3,301.0,3,norm,1.729,1.673,-1.783,-1.324,-4.935,-5.157,-2.07,-1.103,-1.379,-1.367,1.309,-1.951,319.1,294.4,-4.989,-7.536,1.523,-1.337,7.94,4.859,-5.212,-8.24,4,5.221,4.615,5.191,5.109,1.924,2.054,1.897,1.38,4,4.508,4.493,-20,319.937385022,norm,0,16,16,16,2107.3,2107.315,2107.33157631,2107.332,2107.334,2107.337,down,1,1.13360512683,8.86639487317,001,308,1366_768,Intel(R) Core(TM) i5-4200U CPU @ 1.60GHz,orientation_search,PPW53677,Intel(R) HD Graphics 4400,2018_nov_08_1320,testMonitor,
315.2,318.6,314.5,316.2,36,0,302.9,,312.8,326.3,8.198,8.256,8.125,7.718,8.206,7.611,8.438,4.617,-4.696,-8.295,1.393,-1.688,8.289,4.796,-4.78,-8.049,321.0,316.2,-7.778,316.6,320.8,309.3,320.0,315.2,36,315.9,4,5,prime,10,0,61,norm,36,-5.277,down,norm,314.076014936,304.8,294.1,331.9,315.8,1,307.6,307.6,300.5,10,5,8.062,4.571,1.899,-1.615,-5.047,-8.116,307.3,5,375.1,-7.728,-8.107,0,-7.989,-8.211,-5.28,-4.378,-4.725,-4.98,5.168,8.372,25,-1.283,1.698,5.082,8.062,-7.515,-7.636,-2.064,1.323,306.9,319.6,313.1,323.9,328.4,334.1,307.0,309.3,310.7,310.2,4,norm,1.624,1.87,-1.616,-1.96,-4.751,-5.203,-1.702,-1.185,-1.873,-1.796,1.731,-2.013,307.5,313.3,-4.321,-8.157,1.723,-1.486,7.75,5.198,-4.464,-8.384,4,4.422,4.338,4.598,4.893,1.539,1.558,1.456,1.405,4,4.383,4.657,-20,319.937385022,norm,0,17,17,17,2108.519,2108.534,2108.55161882,2108.552,2108.554,2108.557,down,1,0.992939497535,9.00706050246,001,308,1366_768,Intel(R) Core(TM) i5-4200U CPU @ 1.60GHz,orientation_search,PPW53677,Intel(R) HD Graphics 4400,2018_nov_08_1320,testMonitor,
424.3,416.4,413.9,426.4,36,-80,421.1,421.4,418.5,419.6,7.791,7.871,8.077,7.754,8.071,8.284,8.101,5.226,-5.173,-8.233,1.929,-1.333,7.532,5.278,-5.218,-8.491,418.5,418.6,-7.69,416.6,408.1,411.0,408.0,420.7,36,421.6,1,5,probe,5,0,105,norm,36,-5.178,down,norm,417.390209684,422.1,419.3,418.7,407.4,2,420.8,409.2,423.9,10,5,8.062,4.37,1.236,-1.655,-4.98,-8.25,427.4,2,312.4,-8.185,-8.052,0,-8.116,-7.594,-4.384,-4.63,-5.055,-4.686,4.568,7.694,8,-1.142,1.543,4.987,7.645,-7.576,-8.035,-1.646,2.068,411.3,,423.4,415.5,421.9,416.4,410.9,418.6,423.6,417.0,0,norm,1.778,1.986,-1.717,-1.795,-5.092,-4.767,-1.832,-1.268,-1.149,-1.581,1.326,-1.885,416.9,419.0,-4.545,-8.363,1.898,-1.207,8.087,4.43,-5.119,-7.788,5,4.628,4.717,5.163,5.005,1.167,1.833,1.524,1.997,5,5.101,4.664,0,314.076014936,norm,0,18,18,18,2109.598,2109.612,2109.63054366,2109.631,2109.633,2109.637,down,1,1.19274073962,8.80725926038,001,308,1366_768,Intel(R) Core(TM) i5-4200U CPU @ 1.60GHz,orientation_search,PPW53677,Intel(R) HD Graphics 4400,2018_nov_08_1320,testMonitor,
388.8,385.4,390.5,,36,-80,384.9,388.8,384.6,396.4,8.488,8.279,7.953,7.896,7.892,8.317,7.802,4.834,-5.04,-7.611,1.587,-1.344,8.141,5.289,-4.719,-8.01,387.3,379.2,-7.61,391.9,394.7,384.4,381.7,381.7,36,390.0,3,5,probe,5,0,74,norm,36,-4.532,up,norm,386.390209684,388.1,387.3,388.2,393.7,3,388.9,385.6,378.3,10,5,8.222,4.668,1.309,-2.03,-4.515,-8.214,391.3,2,312.4,-8.221,-7.952,0,-7.929,-7.699,-4.779,-5.195,-4.432,-5.222,4.786,7.569,21,-2.004,1.309,4.332,7.631,-8.269,-8.093,-1.675,1.498,376.4,388.5,384.6,378.6,382.7,383.0,387.0,393.0,390.9,383.6,1,norm,1.295,1.275,-1.259,-1.396,-4.651,-5.117,-2.01,-1.841,-1.709,-1.62,1.191,-1.487,384.5,379.5,-4.461,-8.027,1.219,-2.023,7.891,4.847,-4.372,-8.255,5,4.759,4.847,4.689,4.356,1.568,1.421,1.58,1.636,5,5.18,4.829,0,314.076014936,norm,0,19,19,19,2110.869,2110.891,2110.90072769,2110.901,2110.905,2110.911,up,1,0.768750917594,9.23124908241,001,308,1366_768,Intel(R) Core(TM) i5-4200U CPU @ 1.60GHz,orientation_search,PPW53677,Intel(R) HD Graphics 4400,2018_nov_08_1320,testMonitor,
20.6,12.7,-6.0,17.1,36,40,16.0,-1.3,10.2,17.3,7.605,7.904,7.939,7.788,8.182,7.577,8.473,4.663,-4.847,-8.412,1.318,-1.185,7.976,4.616,-4.329,-7.997,7.9,25.8,-8.083,7.1,11.3,3.2,-1.4,6.2,36,-10.1,2,5,prime,10,0,100,norm,36,-4.623,up,norm,9.92318415576,6.9,,8.8,-2.4,4,22.4,4.1,-0.0,10,6,8.144,4.742,1.787,-1.34,-4.701,-7.624,-4.6,6,109.9,-8.455,-7.957,40,-8.445,-7.547,-4.635,-4.786,-4.531,-4.859,4.832,7.827,16,-1.128,1.957,4.985,8.176,-8.199,-7.738,-1.888,1.639,29.9,16.5,-9.1,7.7,7.2,14.6,19.4,17.1,8.0,17.4,0,norm,1.898,1.566,-1.961,-1.544,-5.266,-4.604,-1.802,-1.278,-1.272,-1.612,1.763,-1.466,4.4,4.4,-4.952,-8.075,1.423,-1.418,8.114,4.649,-4.727,-8.17,6,5.062,5.192,4.462,5.137,1.121,1.631,1.523,1.328,6,4.596,5.038,-80,314.076014936,norm,0,20,20,20,2111.728,2111.743,2111.76044182,2111.761,2111.763,2111.766,up,1,1.33435464143,8.66564535857,001,308,1366_768,Intel(R) Core(TM) i5-4200U CPU @ 1.60GHz,orientation_search,PPW53677,Intel(R) HD Graphics 4400,2018_nov_08_1320,testMonitor,
-1.1,-0.3,15.3,4.5,36,40,-2.6,11.6,27.6,3.9,8.212,7.748,8.083,8.085,8.102,7.569,8.151,5.182,-4.406,-8.475,1.851,-1.85,8.405,4.701,-4.781,-7.579,-10.1,24.7,-8.108,11.0,20.6,15.8,5.6,8.2,36,16.3,1,5,prime,10,0,117,norm,36,-4.889,up,norm,9.92318415576,16.1,6.6,17.1,17.0,4,9.6,18.0,23.3,10,6,8.153,4.925,1.261,-1.906,-5.12,-7.506,,6,126.9,-8.068,-7.599,40,-8.085,-7.833,-4.449,-5.184,-4.387,-4.481,4.437,8.013,10,-1.312,1.193,5.052,7.608,-7.901,-7.625,-1.946,1.342,10.3,16.0,15.8,10.7,-3.3,1.3,10.0,29.9,12.0,17.2,1,norm,1.368,1.809,-1.704,-1.645,-4.499,-5.007,-1.524,-1.594,-1.972,-2.047,1.13,-1.673,16.7,14.3,-4.896,-7.927,1.373,-1.968,8.236,4.583,-5.025,-8.447,6,5.014,4.542,5.14,4.769,1.365,1.804,1.898,1.194,6,4.898,5.023,-80,314.076014936,norm,0,21,21,21,2113.148,2113.163,2113.18057518,2113.181,2113.183,2113.187,up,1,0.972806221738,9.02719377826,001,308,1366_768,Intel(R) Core(TM) i5-4200U CPU @ 1.60GHz,orientation_search,PPW53677,Intel(R) HD Graphics 4400,2018_nov_08_1320,testMonitor,
2.8,-6.0,3.0,29.9,36,40,17.2,-4.3,2.8,-6.3,8.146,8.26,8.464,8.386,7.849,8.003,7.928,5.268,-4.407,-7.678,1.558,-1.642,8.016,4.578,-4.985,-7.579,27.0,13.8,-7.633,10.6,17.8,-10.1,8.5,17.1,36,21.3,2,5,prime,10,0,119,norm,36,-5.065,down,norm,9.92318415576,3.1,13.0,18.4,2.1,0,10.0,26.0,,10,6,7.52,4.712,2.016,-1.686,-4.757,-8.362,22.2,6,128.9,-8.046,-7.983,40,-7.573,-7.575,-5.123,-4.518,-4.956,-5.26,5.091,8.077,12,-1.804,1.116,4.41,7.84,-8.178,-7.755,-1.824,2.059,6.7,19.6,12.7,1.8,-2.4,24.3,23.9,-6.1,2.3,-5.0,2,norm,1.384,1.815,-1.986,-1.9,-4.58,-5.05,-1.48,-1.284,-2.036,-1.224,1.71,-1.236,16.3,9.6,-4.677,-8.183,1.9,-1.591,8.311,4.316,-4.678,-7.896,6,4.722,5.078,4.782,4.841,1.942,1.756,1.364,1.523,6,4.557,4.866,-80,314.076014936,norm,0,22,22,22,2114.209,2114.227,2114.2405899,2114.241,2114.243,2114.247,down,1,0.913372962943,9.08662703706,001,308,1366_768,Intel(R) Core(TM) i5-4200U CPU @ 1.60GHz,orientation_search,PPW53677,Intel(R) HD Graphics 4400,2018_nov_08_1320,testMonitor,
11.5,19.2,7.7,0.9,36,40,-10.1,-7.7,9.9,5.7,7.648,7.972,8.194,7.827,8.009,7.872,8.18,4.375,-4.669,-7.594,1.435,-1.705,7.822,4.834,-4.745,-8.399,,-0.2,-7.745,22.7,29.3,21.7,2.8,13.3,36,9.8,5,5,prime,10,0,86,norm,36,-5.136,up,norm,9.92318415576,1.5,-2.3,-5.9,4.5,5,8.2,0.1,16.7,10,6,7.562,4.314,1.983,-1.7,-4.35,-7.702,29.9,6,95.9,-8.115,-7.763,40,-7.826,-8.388,-5.281,-4.329,-5.26,-4.632,5.223,7.698,35,-1.35,1.591,4.699,7.659,-7.531,-8.036,-1.809,1.745,18.0,18.3,3.8,12.2,-5.2,18.7,-1.9,-0.7,5.4,3.3,3,norm,1.965,1.73,-1.366,-1.437,-4.721,-4.553,-1.379,-1.835,-1.825,-1.914,1.367,-1.374,0.4,10.7,-5.263,-8.068,1.452,-1.291,8.37,5.203,-4.94,-7.673,6,4.667,5.255,4.792,5.137,1.399,1.477,1.713,1.821,6,4.955,4.804,-80,314.076014936,norm,0,23,23,23,2115.208,2115.223,2115.24064702,2115.241,2115.243,2115.246,up,1,2.53372302499,7.46627697501,001,308,1366_768,Intel(R) Core(TM) i5-4200U CPU @ 1.60GHz,orientation_search,PPW53677,Intel(R) HD Graphics 4400,2018_nov_08_1320,testMonitor,
15.2,24.2,0.9,-5.1,36,40,-7.1,8.4,5.0,-1.4,7.587,8.131,8.074,7.632,7.707,8.422,7.841,5.114,-5.29,-8.066,1.789,-1.15,8.271,5.126,-4.927,-8.151,1.4,3.5,-7.564,7.2,20.7,7.9,-10.1,14.2,36,29.9,0,5,prime,10,0,104,norm,36,-4.603,down,norm,9.92318415576,-1.9,7.9,-0.4,13.5,1,6.8,1.4,12.6,10,6,8.282,4.888,1.409,-1.265,-4.76,-8.073,8.7,6,113.9,-8.288,-7.937,40,-8.027,-8.432,-5.187,-4.524,-5.025,-4.882,4.881,7.845,1,-1.798,2.087,5.052,8.325,-7.965,-7.574,-1.359,2.084,20.8,18.3,3.7,10.7,,9.4,16.2,17.4,8.5,6.7,4,norm,1.419,2.04,-1.786,-1.248,-5.002,-4.987,-1.174,-1.22,-1.335,-1.489,2.04,-1.322,5.4,-9.2,-4.76,-7.569,1.45,-1.896,7.971,4.942,-4.808,-8.115,6,4.475,5.21,4.808,4.32,1.227,1.97,1.958,1.333,6,4.55,4.809,-80,314.076014936,norm,0,24,24,24,2117.828,2117.842,2117.86053254,2117.861,2117.864,2117.868,down,1,0.812658835646,9.18734116435,001,308,1366_768,Intel(R) Core(TM) i5-4200U CPU @ 1.60GHz,orientation_search,PPW53677,Intel(R) HD Graphics 4400,2018_nov_08_1320,testMonitor,
29.9,1.2,16.0,10.6,36,40,23.1,10.0,6.2,15.1,8.452,7.751,7.527,8.464,7.54,8.289,7.598,4.469,-4.366,-7.608,1.742,-1.239,8.249,5.294,-4.548,-7.665,5.4,-8.6,-8.12,26.8,-2.2,10.0,2.2,11.5,36,0.3,1,5,prime,10,0,112,norm,36,-5.29,up,norm,9.92318415576,18.3,21.4,10.3,-10.1,5,,18.8,7.7,10,6,8.403,5.273,2.093,-1.308,-4.612,-7.977,6.6,6,121.9,-8.467,-8.39,40,-8.076,-8.149,-4.478,-4.957,-4.834,-5.179,4.835,7.837,11,-1.201,1.608,5.217,8.356,-8.102,-8.069,-1.887,1.267,-0.6,-7.0,12.3,17.8,3.4,8.0,20.0,21.7,7.7,7.9,5,norm,1.579,1.952,-1.841,-1.728,-4.382,-4.989,-1.894,-1.799,-1.415,-1.41,1.335,-1.752,21.0,-6.4,-4.898,-7.517,1.243,-1.363,8.16,5.039,-4.335,-7.759,6,4.757,4.76,5.157,4.602,1.482,1.651,1.665,1.562,6,5.247,5.086,-80,314.076014936,norm,0,25,25,25,2118.728,2118.831,2118.84399958,2118.844,2118.849,2118.853,up,1,0.796417716498,9.2035822835,001,308,1366_768,Intel(R) Core(TM) i5-4200U CPU @ 1.60GHz,orientation_search,PPW53677,Intel(R) HD Graphics 4400,2018_nov_08_1320,testMonitor,
171.3,173.1,167.8,172.8,36,0,172.6,176.0,170.0,171.0,8.064,8.06,7.648,8.265,8.477,8.195,7.521,5.037,-4.893,-7.576,1.48,-1.908,7.7,4.943,-5.065,-7.842,165.7,157.4,-8.079,173.1,169.2,168.7,175.4,165.4,36,170.9,3,5,probe,5,0,118,norm,36,-4.372,down,norm,166.029544907,164.3,164.2,169.2,160.8,1,174.6,169.5,169.7,10,6,7.523,5.034,1.556,-1.592,-5.009,-8.271,165.1,2,48.0,-7.633,-7.817,40,-7.892,-7.753,-4.66,-4.703,-4.984,-4.308,5.281,7.716,19,-1.502,1.562,4.415,7.819,-8.373,-8.493,-1.152,1.139,156.0,165.2,170.8,165.0,168.3,163.1,172.2,167.8,167.6,160.6,0,norm,1.937,1.453,-1.365,-1.568,-4.429,-4.816,-1.736,-1.906,-2.042,-1.505,1.763,-1.48,,163.5,-4.538,-7.839,2.09,-1.804,8.319,4.814,-4.939,-8.316,7,4.418,4.829,4.923,4.321,1.837,1.699,1.807,1.632,7,5.223,4.944,40,9.92318415576,norm,0,26,26,26,2119.699,2119.722,2119.73058128,2119.731,2119.733,2119.736,down,1,1.09409540827,8.90590459173,001,308,1366_768,Intel(R) Core(TM) i5-4200U CPU @ 1.60GHz,orientation_search,PPW53677,Intel(R) HD Graphics 4400,2018_nov_08_1320,testMonitor,
135.9,138.3,127.4,134.6,36,0,124.0,136.1,124.5,136.8,7.704,8.291,8.423,7.84,7.588,7.566,7.754,5.2,-4.421,-8.419,2.084,-1.421,7.634,4.934,-4.838,-7.724,131.0,127.5,-8.118,131.6,142.0,131.2,138.0,128.0,36,134.3,1,5,probe,5,0,84,norm,36,-4.467,up,norm,132.029544907,134.2,131.1,127.5,135.3,5,,124.2,122.0,10,6,7.915,5.036,1.332,-1.384,-4.752,-8.379,129.8,2,48.0,-7.665,-8.066,40,-7.884,-7.687,-5.187,-4.638,-4.613,-4.953,4.309,7.544,11,-1.61,1.155,4.322,8.115,-7.826,-8.467,-1.184,2.091,134.0,140.7,126.5,136.6,133.0,130.8,135.3,132.2,128.0,127.2,1,norm,1.268,1.645,-1.391,-1.858,-4.805,-5.202,-1.491,-1.98,-1.78,-1.597,1.891,-1.931,136.6,133.0,-5.08,-8.118,1.282,-1.52,7.944,4.701,-4.827,-8.259,7,5.06,5.156,5.116,5.272,2.07,1.731,1.744,1.426,7,5.013,4.796,40,9.92318415576,norm,0,27,27,27,2120.879,2120.898,2120.91059687,2120.911,2120.913,2120.917,up,1,0.752162172896,9.2478378271,001,308,1366_768,Intel(R) Core(TM) i5-4200U CPU @ 1.60GHz,orientation_search,PPW53677,Intel(R) HD Graphics 4400,2018_nov_08_1320,testMonitor,
202.5,216.6,218.6,201.7,36,-30,226.9,,203.1,211.2,7.778,7.515,8.103,8.179,7.521,8.49,8.062,5.094,-4.594,-8.004,1.48,-1.863,8.265,4.738,-4.673,-7.722,207.2,213.7,-8.357,217.3,210.7,196.8,219.3,225.7,36,205.0,4,5,prime,10,0,66,norm,36,-4.717,down,norm,206.921476871,204.9,207.3,214.4,202.1,1,206.8,212.3,206.5,10,6,7.556,4.615,1.253,-1.529,-4.678,-8.006,208.7,6,272.9,-7.654,-8.233,-30,-8.186,-7.523,-4.668,-4.772,-4.593,-4.852,4.495,8.248,25,-1.761,1.73,4.621,8.483,-8.031,-8.352,-1.566,1.443,199.8,213.2,208.5,208.6,208.4,209.3,194.6,202.6,186.9,200.0,0,norm,1.131,1.84,-1.927,-1.298,-4.423,-4.663,-1.613,-1.488,-1.412,-1.319,1.87,-1.305,213.3,195.9,-4.331,-7.997,1.621,-1.349,8.112,4.425,-5.028,-8.352,8,5.04,4.486,4.808,4.433,1.678,1.442,1.123,1.651,8,5.287,4.51,0,9.92318415576,norm,0,28,28,28,2121.718,2121.734,2121.75715477,2121.757,2121.76,2121.763,down,1,1.20754226953,8.79245773047,001,308,1366_768,Intel(R) Core(TM) i5-4200U CPU @ 1.60GHz,orientation_search,PPW53677,Intel(R) HD Graphics 4400,2018_nov_08_1320,testMonitor,
,202.8,192.7,189.4,36,-30,211.8,204.9,213.5,206.2,7.635,7.617,7.533,8.225,8.247,8.122,8.367,5.083,-4.825,-8.367,2.072,-1.476,8.11,5.26,-5.265,-8.363,195.3,206.5,-8.103,206.5,206.9,223.0,196.4,202.7,36,208.2,3,5,prime,10,0,103,norm,36,-4.743,up,norm,206.921476871,218.7,212.1,199.5,219.6,4,199.8,209.4,192.1,10,6,7.531,5.151,1.636,-1.13,-5.17,-7.915,196.5,6,309.9,-8.298,-7.535,-30,-7.603,-7.771,-4.704,-4.543,-4.996,-5.067,4.85,7.665,22,-1.647,1.295,5.115,7.883,-7.604,-7.892,-1.864,1.675,216.5,202.6,198.7,186.9,226.9,206.7,209.6,220.4,201.0,199.2,1,norm,1.125,1.633,-1.231,-2.02,-4.34,-5.266,-1.464,-1.426,-1.32,-1.915,2.066,-1.858,194.4,208.8,-4.663,-7.53,1.273,-1.278,8.279,4.513,-4.767,-7.764,8,4.368,4.36,4.782,5.128,1.442,1.573,1.435,1.703,8,5.295,4.695,0,9.92318415576,norm,0,29,29,29,2123.018,2123.033,2123.05058108,2123.051,2123.054,2123.057,up,1,0.712730101113,9.28726989889,001,308,1366_768,Intel(R) Core(TM) i5-4200U CPU @ 1.60GHz,orientation_search,PPW53677,Intel(R) HD Graphics 4400,2018_nov_08_1320,testMonitor,
209.8,204.2,223.6,200.3,36,-30,190.5,210.2,210.4,195.4,7.967,8.248,7.522,7.663,7.928,8.269,7.947,4.903,-5.001,-8.372,2.076,-1.919,8.395,5.258,-4.457,-8.407,190.2,,-8.032,211.0,202.0,208.1,208.1,186.9,36,204.7,5,5,prime,10,0,101,norm,36,-4.752,up,norm,206.921476871,198.9,197.3,211.5,221.7,4,209.3,204.6,221.2,10,6,8.495,4.847,1.133,-1.61,-4.876,-8.411,206.9,6,307.9,-7.932,-8.43,-30,-8.194,-7.688,-4.759,-4.32,-4.46,-4.322,5.075,8.059,34,-1.58,1.124,4.733,8.298,-8.423,-8.182,-1.581,1.144,197.8,198.0,196.7,200.1,212.1,211.5,205.4,211.5,222.6,226.4,2,norm,1.716,1.793,-1.965,-1.738,-4.446,-4.919,-1.498,-1.963,-1.205,-1.95,1.792,-1.982,219.0,209.5,-4.86,-7.889,1.943,-1.769,7.933,4.641,-4.695,-7.795,8,4.57,5.193,4.773,4.928,1.626,1.266,1.888,1.246,8,5.251,4.884,0,9.92318415576,norm,0,30,30,30,2123.818,2123.832,2123.85049959,2123.851,2123.854,2123.857,down,0,0.645911472848,-10,001,308,1366_768,Intel(R) Core(TM) i5-4200U CPU @ 1.60GHz,orientation_search,PPW53677,Intel(R) HD Graphics 4400,2018_nov_08_1320,testMonitor,
208.0,223.5,210.2,216.1,36,-30,207.2,223.8,213.7,188.4,8.101,8.341,8.12,8.317,8.105,7.904,7.897,4.768,-5.283,-7.797,1.766,-1.571,7.925,4.936,-5.092,-7.695,,225.4,-8.177,208.5,197.4,198.6,186.9,211.1,36,219.2,5,5,prime,10,0,102,norm,36,-4.648,up,norm,206.921476871,195.6,208.4,198.5,217.2,5,226.9,194.1,195.4,10,6,7.693,4.461,1.458,-1.516,-4.866,-8.402,206.8,6,308.9,-7.566,-7.754,-30,-7.906,-7.821,-4.755,-4.564,-5.094,-5.149,4.871,8.022,35,-1.168,1.471,4.826,7.882,-7.588,-8.491,-1.286,1.55,209.4,198.8,198.2,193.8,218.9,212.1,202.6,211.9,221.8,211.0,3,norm,1.605,1.97,-1.532,-1.707,-4.895,-5.053,-1.513,-1.666,-2.04,-1.758,1.443,-1.728,214.3,201.6,-4.384,-8.472,1.219,-1.979,8.256,4.477,-5.013,-7.747,8,5.115,5.186,4.322,4.961,2.005,1.702,2.039,1.53,8,4.872,4.68,0,9.92318415576,norm,0,31,31,31,2125.591,2125.602,2125.60999448,2125.61,2125.612,2125.615,up,1,0.687496234799,9.3125037652,001,308,1366_768,Intel(R) Core(TM) i5-4200U CPU @ 1.60GHz,orientation_search,PPW53677,Intel(R) HD Graphics 4400,2018_nov_08_1320,testMonitor,
214.6,212.5,210.0,205.6,36,-30,202.7,211.4,209.0,214.0,8.139,8.36,7.527,8.112,8.024,8.333,7.857,4.372,-4.593,-8.477,1.853,-1.311,8.091,4.5,-5.211,-7.742,209.8,201.6,-7.591,190.9,214.4,220.5,222.1,216.6,36,221.9,2,5,prime,10,0,119,norm,36,-4.585,down,norm,206.921476871,194.9,203.6,202.7,,2,197.9,197.7,196.5,10,6,8.407,4.515,1.699,-1.368,-5.004,-8.142,212.1,6,325.9,-8.382,-7.596,-30,-7.576,-7.78,-4.378,-4.718,-4.531,-4.787,4.779,7.701,14,-1.359,1.126,4.729,8.022,-8.204,-7.939,-1.125,2.042,186.9,218.7,199.4,209.8,213.2,194.1,209.0,226.9,196.8,192.5,4,norm,1.682,1.836,-1.964,-1.259,-4.479,-5.174,-1.329,-1.899,-1.862,-1.751,1.634,-1.826,215.8,217.4,-4.856,-8.489,1.359,-1.575,8.389,4.824,-4.912,-8.176,8,4.624,5.034,4.782,4.707,1.572,1.885,1.347,1.461,8,4.373,5.0,0,9.92318415576,norm,0,32,32,32,2126.351,2126.366,2126.3834698,2126.384,2126.386,2126.39,down,1,0.65291262461,9.34708737539,001,308,1366_768,Intel(R) Core(TM) i5-4200U CPU @ 1.60GHz,orientation_search,PPW53677,Intel(R) HD Graphics 4400,2018_nov_08_1320,testMonitor,
188.4,197.5,195.4,197.4,36,-30,204.9,207.4,200.0,226.9,7.908,7.621,8.306,7.629,8.232,8.387,8.416,4.836,-4.799,-7.564,1.612,-1.894,7.911,4.589,-4.877,-8.291,202.7,194.9,-7.811,210.4,,197.1,201.5,205.1,36,203.7,5,5,prime,10,0,100,norm,36,-4.556,down,norm,206.921476871,208.9,208.6,195.4,208.7,0,202.5,205.8,186.9,10,6,7.782,4.463,1.766,-1.655,-4.659,-7.706,205.4,6,306.9,-7.758,-7.753,-30,-8.373,-7.905,-4.502,-5.115,-5.158,-4.6,5.097,7.608,30,-1.463,1.617,4.339,8.431,-7.536,-8.255,-1.112,2.026,202.2,199.2,213.3,205.6,212.8,214.7,212.3,212.3,207.1,214.5,5,norm,1.766,1.272,-1.14,-2.013,-4.342,-5.278,-1.951,-1.632,-1.168,-2.02,1.83,-1.254,199.5,202.0,-4.791,-8.465,1.624,-1.664,7.967,4.658,-4.687,-8.123,8,5.102,4.492,4.866,5.137,1.691,1.89,1.551,1.37,8,4.566,4.844,0,9.92318415576,norm,0,33,33,33,2127.092,2127.111,2127.12348338,2127.124,2127.126,2127.13,down,1,0.892680987292,9.10731901271,001,308,1366_768,Intel(R) Core(TM) i5-4200U CPU @ 1.60GHz,orientation_search,PPW53677,Intel(R) HD Graphics 4400,2018_nov_08_1320,testMonitor,
288.5,286.8,288.7,291.9,36,30,284.2,286.4,279.8,288.3,8.102,8.267,7.832,8.422,7.536,8.02,8.368,5.271,-4.367,-7.759,1.713,-1.65,7.806,5.203,-5.126,-8.332,289.2,290.3,-7.772,295.0,294.7,282.3,280.8,287.2,36,,4,5,probe,5,0,110,norm,36,-4.658,up,norm,289.813896492,287.4,280.4,288.5,299.5,3,292.8,291.4,289.4,10,6,7.625,4.71,1.219,-1.376,-4.392,-7.643,299.8,2,179.8,-7.696,-7.907,-30,-7.75,-8.249,-5.022,-5.238,-4.419,-4.495,4.398,8.346,27,-1.701,1.276,4.829,8.254,-8.211,-7.979,-1.97,1.454,290.1,286.9,283.5,284.0,288.0,294.6,293.3,285.8,292.6,288.4,0,norm,1.864,1.322,-1.216,-1.649,-4.91,-4.486,-1.591,-1.428,-1.81,-1.278,1.992,-1.698,291.0,290.8,-5.171,-7.849,1.916,-1.188,7.613,4.306,-4.903,-8.418,9,5.224,5.056,4.806,4.548,1.533,1.848,1.834,1.472,9,4.514,5.025,-30,206.921476871,norm,0,34,34,34,2128.055,2128.072,2128.09000869,2128.09,2128.092,2128.095,up,1,1.01073578361,8.98926421639,001,308,1366_768,Intel(R) Core(TM) i5-4200U CPU @ 1.60GHz,orientation_search,PPW53677,Intel(R) HD Graphics 4400,2018_nov_08_1320,testMonitor,
256.7,260.9,270.2,268.9,36,30,254.8,261.4,273.3,260.7,8.249,7.931,8.015,8.025,8.316,7.922,8.104,5.281,-5.252,-7.604,1.474,-1.935,7.773,4.834,-4.422,-8.131,264.9,,-8.368,265.7,268.7,269.3,257.9,264.4,36,268.4,5,5,probe,5,0,85,norm,36,-4.602,up,norm,264.813896492,258.7,263.3,261.5,274.8,4,265.7,264.5,266.9,10,6,8.112,4.698,1.92,-1.629,-4.351,-8.055,268.2,2,179.8,-7.873,-7.784,-30,-7.528,-8.137,-4.362,-4.732,-4.323,-4.494,5.013,8.327,34,-2.04,2.049,5.212,7.75,-8.316,-7.572,-1.346,1.154,269.1,262.6,264.0,270.0,271.0,268.9,265.7,271.3,271.3,260.6,1,norm,1.56,2.015,-1.612,-1.426,-4.862,-5.004,-1.997,-2.03,-1.472,-1.968,1.909,-1.7,263.6,260.6,-4.834,-8.169,1.26,-1.682,7.794,4.561,-5.159,-7.615,9,4.682,4.915,4.549,4.703,1.846,1.8,1.481,2.012,9,5.147,4.401,-30,206.921476871,norm,0,35,35,35,2129.154,2129.17,2129.19312585,2129.193,2129.196,2129.199,down,0,0.787185781535,-10,001,308,1366_768,Intel(R) Core(TM) i5-4200U CPU @ 1.60GHz,orientation_search,PPW53677,Intel(R) HD Graphics 4400,2018_nov_08_1320,testMonitor,
226.8,,222.0,225.6,36,80,242.8,248.8,217.7,232.8,7.694,8.011,7.844,8.326,8.437,7.665,7.649,5.107,-4.645,-8.022,2.012,-1.973,7.734,4.382,-5.07,-7.629,237.2,224.3,-8.051,234.0,238.1,254.7,244.9,234.9,36,225.5,3,5,prime,10,0,109,norm,36,-4.838,up,norm,237.67249048,239.8,241.9,248.7,233.7,5,232.1,235.6,257.7,10,6,7.544,4.862,1.732,-1.603,-4.667,-7.867,253.2,6,346.7,-8.448,-8.063,80,-8.132,-7.644,-4.437,-5.21,-4.899,-5.039,4.694,8.235,23,-1.462,1.49,4.315,8.013,-7.68,-7.738,-1.275,1.338,241.4,235.1,253.1,238.5,253.7,243.2,229.1,244.3,248.8,241.0,0,norm,1.889,1.76,-1.892,-1.291,-4.865,-5.009,-1.731,-1.818,-1.863,-1.859,1.435,-1.949,223.1,245.6,-5.171,-7.798,1.669,-1.822,8.245,5.039,-4.854,-8.036,10,5.117,4.786,4.351,4.891,1.117,1.358,1.327,2.057,10,5.269,4.957,30,206.921476871,norm,0,36,36,36,2131.074,2131.085,2131.09300121,2131.093,2131.096,2131.099,up,1,0.587198008672,9.41280199133,001,308,1366_768,Intel(R) Core(TM) i5-4200U CPU @ 1.60GHz,orientation_search,PPW53677,Intel(R) HD Graphics 4400,2018_nov_08_1320,testMonitor,
222.1,247.3,225.0,232.5,36,80,,252.0,238.1,226.8,7.661,8.463,8.024,8.324,7.865,7.948,8.015,4.675,-4.588,-8.452,1.157,-1.578,7.973,4.538,-4.513,-8.141,226.3,219.1,-7.656,227.1,225.5,223.5,218.3,234.0,36,246.1,4,5,prime,10,0,87,norm,36,-4.36,down,norm,237.67249048,234.7,238.9,233.7,231.2,0,224.5,244.9,256.3,10,6,8.448,4.494,1.477,-1.118,-4.304,-7.618,251.4,6,324.7,-7.917,-7.875,80,-8.012,-8.469,-5.244,-4.383,-4.798,-5.113,4.424,7.802,24,-1.883,1.798,4.569,7.574,-7.901,-8.265,-1.904,1.644,257.7,233.8,245.8,246.6,224.7,231.2,237.1,231.4,238.2,246.6,1,norm,1.645,1.951,-1.823,-1.962,-4.607,-5.008,-1.48,-2.081,-1.57,-1.834,2.018,-2.052,247.8,225.6,-4.431,-8.337,1.734,-1.128,8.41,5.231,-4.83,-7.886,10,4.72,5.048,4.761,4.539,1.213,1.109,1.113,1.182,10,4.311,4.789,30,206.921476871,norm,0,37,37,37,2131.734,2131.75,2131.77313573,2131.773,2131.777,2131.782,down,1,0.894160738662,9.10583926134,001,308,1366_768,Intel(R) Core(TM) i5-4200U CPU @ 1.60GHz,orientation_search,PPW53677,Intel(R) HD Graphics 4400,2018_nov_08_1320,testMonitor,
221.5,245.2,239.2,236.1,36,80,236.4,225.7,234.2,231.4,7.522,8.205,7.848,7.683,8.092,7.531,8.132,4.348,-4.628,-7.845,1.436,-1.11,8.377,4.427,-5.194,-8.311,241.8,234.9,-8.276,233.9,238.8,233.2,217.7,,36,229.8,4,5,prime,10,0,112,norm,36,-5.04,down,norm,237.67249048,237.9,236.2,239.5,245.3,2,228.7,226.6,239.8,10,6,7.739,4.392,1.295,-1.593,-4.811,-7.794,234.3,6,349.7,-8.484,-8.017,80,-8.076,-8.071,-5.182,-4.327,-4.863,-5.057,4.803,7.779,26,-1.217,1.349,5.022,7.706,-8.269,-8.369,-1.14,1.98,233.0,238.2,234.5,235.9,237.0,257.7,230.9,231.3,227.2,222.1,2,norm,1.294,1.991,-1.999,-1.273,-4.692,-5.108,-1.38,-1.205,-1.213,-1.692,1.851,-1.934,233.5,244.1,-4.867,-8.263,1.408,-1.854,7.839,4.334,-5.182,-7.932,10,5.168,4.847,4.333,4.742,1.989,2.059,2.063,1.735,10,5.253,5.192,30,206.921476871,norm,0,38,38,38,2132.728,2132.828,2132.83983119,2132.84,2132.842,2132.845,up,0,0.750835037619,-10,001,308,1366_768,Intel(R) Core(TM) i5-4200U CPU @ 1.60GHz,orientation_search,PPW53677,Intel(R) HD Graphics 4400,2018_nov_08_1320,testMonitor,
241.4,233.5,224.9,248.9,36,80,246.0,235.4,226.1,240.7,7.69,7.607,7.935,8.061,8.389,7.573,8.02,5.134,-4.8,-7.805,1.249,-1.472,8.003,5.052,-4.781,-8.167,234.7,224.4,-8.12,242.8,240.3,257.7,234.1,217.7,36,238.4,2,5,prime,10,0,102,norm,36,-4.594,up,norm,237.67249048,230.2,219.2,,256.2,3,244.7,252.8,231.6,10,6,7.907,5.239,1.679,-1.856,-4.707,-7.904,250.3,6,339.7,-8.154,-8.484,80,-7.784,-8.32,-5.214,-4.63,-4.416,-5.214,4.464,8.332,15,-1.599,1.473,4.524,7.685,-7.934,-7.694,-1.192,1.296,230.4,242.3,255.5,230.9,224.4,229.0,217.7,237.4,233.5,243.4,3,norm,1.234,1.188,-1.297,-1.443,-5.007,-4.95,-1.411,-2.074,-1.319,-1.914,1.621,-1.278,251.5,229.1,-5.084,-8.348,1.415,-1.865,7.695,4.84,-5.07,-8.356,10,4.55,4.885,4.418,5.028,1.291,1.279,1.253,1.989,10,4.855,5.15,30,206.921476871,norm,0,39,39,39,2134.664,2134.675,2134.68294587,2134.683,2134.685,2134.688,down,0,0.58775403105,-10,001,308,1366_768,Intel(R) Core(TM) i5-4200U CPU @ 1.60GHz,orientation_search,PPW53677,Intel(R) HD Graphics 4400,2018_nov_08_1320,testMonitor,
,235.5,243.8,235.8,36,80,244.7,237.2,257.7,237.6,8.393,8.188,7.945,8.407,8.029,7.554,7.54,4.926,-4.301,-7.956,1.377,-1.138,7.818,5.178,-4.68,-8.021,245.7,222.1,-7.825,217.7,236.1,251.5,229.5,242.0,36,246.7,3,5,prime,10,0,114,norm,36,-4.856,up,norm,237.67249048,239.8,233.1,243.0,241.1,4,235.1,243.5,230.0,10,6,8.339,4.618,2.096,-1.387,-4.472,-7.569,245.9,6,351.7,-8.109,-7.692,80,-8.153,-8.191,-4.435,-4.925,-4.773,-4.339,5.228,7.677,22,-1.823,1.895,5.123,7.842,-7.846,-8.116,-1.44,1.983,233.2,238.1,225.1,242.9,237.7,244.0,230.3,242.8,235.9,236.4,4,norm,1.305,1.59,-1.418,-1.522,-4.598,-4.728,-1.818,-1.821,-1.929,-1.374,2.044,-1.541,238.2,239.0,-4.949,-7.708,1.856,-2.083,8.053,5.082,-5.046,-7.976,10,4.942,4.612,5.19,4.789,1.444,1.976,1.631,1.59,10,4.326,4.696,30,206.921476871,norm,0,40,40,40,2136.344,2136.356,2136.35962778,2136.36,2136.363,2136.366,up,1,0.790489786101,9.2095102139,001,308,1366_768,Intel(R) Core(TM) i5-4200U CPU @ 1.60GHz,orientation_search,PPW53677,Intel(R) HD Graphics 4400,2018_nov_08_1320,testMonitor,
257.7,254.3,253.5,241.8,36,80,253.2,237.7,227.7,239.8,7.7,8.326,8.123,7.587,7.943,8.34,8.213,5.226,-5.176,-7.628,1.292,-1.208,7.522,4.562,-4.338,-7.685,255.8,248.0,-8.166,240.1,230.3,218.1,223.9,230.9,36,243.5,1,5,prime,10,0,84,norm,36,-4.409,down,norm,237.67249048,237.8,254.6,235.0,243.9,2,232.2,222.0,241.3,10,6,7.563,4.843,1.809,-1.502,-4.986,-7.643,240.4,6,321.7,-8.251,-8.105,80,-7.836,-7.664,-4.607,-4.993,-5.287,-4.636,4.392,8.437,8,-2.009,1.63,4.602,8.171,-8.278,-8.13,-2.075,2.073,246.1,,235.9,242.3,237.2,240.3,238.0,231.5,247.3,236.7,5,norm,1.394,1.852,-2.027,-1.765,-5.271,-4.426,-1.631,-1.455,-1.671,-1.497,1.189,-2.014,253.2,217.7,-4.576,-7.998,1.804,-1.161,8.398,4.518,-4.304,-8.129,10,4.991,5.028,4.509,5.205,1.853,1.195,1.154,1.484,10,4.34,4.581,30,206.921476871,norm,0,41,41,41,2137.204,2137.219,2137.23646213,2137.237,2137.239,2137.243,down,1,0.61245641851,9.38754358149,001,308,1366_768,Intel(R) Core(TM) i5-4200U CPU @ 1.60GHz,orientation_search,PPW53677,Intel(R) HD Graphics 4400,2018_nov_08_1320,testMonitor,
423.7,425.5,424.6,422.5,36,60,434.2,424.6,424.7,434.4,8.346,7.892,8.039,7.993,8.217,8.057,7.968,4.709,-4.504,-7.686,1.45,-1.74,7.933,4.682,-5.175,-8.418,,435.8,-7.918,420.1,417.2,431.2,426.2,428.7,36,426.6,5,5,probe,5,0,102,norm,36,-4.472,up,norm,427.164513082,435.1,426.6,431.1,424.4,5,424.6,419.9,433.8,10,6,7.925,4.466,1.104,-2.002,-5.132,-8.041,431.2,1,325.2,-7.946,-7.586,80,-8.223,-8.372,-4.748,-5.231,-5.226,-4.447,4.923,8.2,35,-1.599,1.696,4.325,7.886,-7.909,-7.658,-1.263,1.742,426.1,437.0,435.6,424.9,432.2,426.8,424.3,433.4,437.2,431.7,0,norm,1.927,1.83,-1.845,-1.37,-4.605,-4.672,-1.177,-1.27,-1.586,-1.805,1.897,-1.719,436.1,429.5,-4.935,-7.917,1.883,-2.083,7.618,4.761,-4.966,-8.189,11,4.484,4.876,4.992,4.666,1.225,1.914,1.351,1.353,11,4.891,4.491,80,237.67249048,norm,0,42,42,42,2137.905,2137.925,2137.93650055,2137.937,2137.939,2137.942,up,1,0.5337658646,9.4662341354,001,308,1366_768,Intel(R) Core(TM) i5-4200U CPU @ 1.60GHz,orientation_search,PPW53677,Intel(R) HD Graphics 4400,2018_nov_08_1320,testMonitor,
273.3,272.2,256.7,258.1,36,-20,289.5,265.2,275.7,274.1,8.38,7.603,7.847,8.294,7.607,8.356,8.039,4.562,-4.48,-7.558,1.288,-1.748,7.533,4.31,-5.169,-7.624,273.1,278.9,-8.352,266.3,287.1,,262.3,272.4,36,251.1,5,5,prime,10,0,61,norm,36,-4.352,up,norm,269.527235363,259.5,268.1,260.7,255.6,3,271.2,271.2,270.0,10,5,8.156,5.036,2.068,-2.026,-4.997,-8.299,272.5,5,330.5,-7.635,-8.007,-20,-8.347,-8.341,-4.484,-4.88,-5.243,-4.754,4.333,7.699,33,-1.417,1.698,4.933,7.713,-7.785,-7.543,-1.391,1.547,276.0,269.0,267.7,273.0,273.1,268.6,285.7,249.5,270.1,264.8,0,norm,1.152,1.196,-1.636,-1.412,-4.949,-4.665,-1.343,-2.093,-1.19,-1.712,1.66,-1.93,256.3,258.7,-4.727,-7.655,1.208,-1.387,7.987,4.457,-4.575,-8.388,12,4.55,5.117,4.432,4.593,1.681,2.083,1.761,1.183,12,4.869,5.158,60,237.67249048,norm,0,43,43,43,2138.524,2138.54,2138.56309761,2138.563,2138.566,2138.571,down,0,0.89199421487,-10,001,308,1366_768,Intel(R) Core(TM) i5-4200U CPU @ 1.60GHz,orientation_search,PPW53677,Intel(R) HD Graphics 4400,2018_nov_08_1320,testMonitor,
265.7,285.2,268.6,258.3,36,-20,274.3,267.0,276.0,270.3,7.613,7.612,7.808,8.35,8.402,7.645,8.259,5.082,-4.8,-7.777,1.951,-1.823,8.266,5.153,-5.25,-8.009,286.5,255.9,-8.065,289.5,258.7,262.3,280.8,277.1,36,276.4,3,5,prime,10,0,79,norm,36,-4.512,down,norm,269.527235363,280.7,274.0,281.2,262.2,0,283.1,266.4,271.0,10,5,8.128,5.01,1.239,-1.978,-5.232,-7.702,264.5,5,348.5,-7.652,-7.648,-20,-7.731,-7.691,-4.946,-5.24,-5.158,-5.168,5.195,8.249,18,-1.53,1.438,4.633,8.053,-8.333,-8.222,-1.146,1.565,249.5,265.8,288.5,268.7,261.1,274.8,271.3,262.3,275.5,270.4,1,norm,1.589,1.408,-1.181,-1.607,-5.162,-5.167,-1.206,-1.838,-1.188,-1.875,1.8,-1.351,265.9,,-5.004,-7.942,1.244,-1.308,8.342,4.891,-4.732,-7.787,12,5.05,4.354,4.932,4.464,1.555,1.656,1.334,1.666,12,5.183,4.734,60,237.67249048,norm,0,44,44,44,2140.551,2140.562,2140.56997024,2140.57,2140.572,2140.575,down,1,1.06804000327,8.93195999673,001,308,1366_768,Intel(R) Core(TM) i5-4200U CPU @ 1.60GHz,orientation_search,PPW53677,Intel(R) HD Graphics 4400,2018_nov_08_1320,testMonitor,
282.7,283.2,267.0,249.5,36,-20,252.7,289.5,258.8,262.7,7.632,8.187,8.233,7.669,7.599,8.101,8.288,4.328,-4.896,-7.875,1.796,-1.766,8.443,4.645,-5.027,-8.386,269.8,277.2,-8.12,257.7,256.4,281.2,270.3,267.7,36,274.1,1,5,prime,10,0,94,norm,36,-5.074,up,norm,269.527235363,269.9,254.5,274.4,282.1,4,273.0,264.6,278.1,10,5,7.889,5.109,1.509,-1.352,-5.057,-8.114,,5,363.5,-8.224,-7.992,-20,-8.215,-7.749,-4.76,-4.394,-4.667,-4.791,5.22,8.324,10,-1.227,1.58,4.377,8.378,-8.312,-8.469,-2.098,1.475,267.6,256.4,256.7,265.9,260.4,276.6,268.4,263.9,259.7,261.8,2,norm,1.724,1.61,-1.509,-1.117,-4.302,-4.586,-1.324,-1.667,-1.605,-1.537,2.066,-1.699,268.6,260.5,-4.423,-8.045,1.676,-1.198,8.204,4.564,-5.28,-7.635,12,4.774,4.376,4.683,4.981,1.383,2.076,1.75,1.595,12,4.396,4.301,60,237.67249048,norm,0,45,45,45,2141.691,2141.71,2141.72361538,2141.724,2141.727,2141.732,up,1,0.85038937185,9.14961062815,001,308,1366_768,Intel(R) Core(TM) i5-4200U CPU @ 1.60GHz,orientation_search,PPW53677,Intel(R) HD Graphics 4400,2018_nov_08_1320,testMonitor,
258.4,276.9,270.1,263.2,36,-20,249.5,272.8,268.3,283.7,7.872,8.303,7.879,7.913,8.213,7.547,8.374,4.981,-4.919,-7.859,1.874,-1.983,7.682,4.32,-4.824,-7.565,269.6,282.8,-8.413,272.5,280.0,270.2,277.6,269.4,36,266.3,2,5,prime,10,0,63,norm,36,-4.968,down,norm,269.527235363,264.2,273.4,250.8,258.3,0,265.7,272.0,,10,5,8.238,4.624,1.855,-1.894,-4.363,-7.76,278.1,5,332.5,-7.827,-7.682,-20,-8.481,-7.731,-4.858,-4.735,-5.0,-4.516,5.136,8.216,12,-2.032,1.444,4.921,8.097,-8.364,-7.611,-1.961,1.746,284.8,266.3,266.1,272.6,269.7,267.0,281.9,275.2,273.5,277.9,3,norm,1.642,1.6,-1.717,-1.675,-4.845,-4.759,-1.62,-1.378,-1.876,-1.908,1.3,-1.166,288.9,268.4,-4.433,-8.117,1.73,-1.428,7.915,5.29,-4.695,-7.544,12,4.328,5.074,5.056,4.451,1.946,1.866,1.261,2.052,12,4.717,5.162,60,237.67249048,norm,0,46,46,46,2142.631,2142.646,2142.66339405,2142.664,2142.666,2142.67,down,1,0.813105974028,9.18689402597,001,308,1366_768,Intel(R) Core(TM) i5-4200U CPU @ 1.60GHz,orientation_search,PPW53677,Intel(R) HD Graphics 4400,2018_nov_08_1320,testMonitor,
265.7,278.4,271.2,263.8,36,-20,250.6,267.5,262.9,269.2,8.448,7.599,8.054,8.41,7.853,8.451,7.528,4.38,-4.389,-8.319,2.059,-1.494,8.403,4.76,-5.203,-8.415,275.3,268.2,-7.85,266.5,,274.6,270.0,265.4,36,266.5,5,5,prime,10,0,67,norm,36,-4.826,down,norm,269.527235363,263.5,262.9,274.5,265.3,0,269.8,263.0,267.7,10,5,7.656,5.2,2.091,-1.135,-4.534,-7.756,271.7,5,336.5,-7.795,-7.935,-20,-8.203,-7.63,-5.096,-4.963,-4.48,-4.425,4.968,8.376,30,-1.589,1.377,4.65,7.962,-7.995,-8.414,-1.156,1.195,267.1,264.3,266.1,257.4,257.4,270.0,281.1,249.5,256.6,260.6,4,norm,1.463,1.791,-1.804,-1.791,-4.672,-5.171,-2.072,-1.28,-1.344,-1.726,1.786,-1.827,289.5,273.0,-5.139,-8.204,1.901,-1.211,8.114,4.601,-5.216,-7.654,12,4.667,4.491,5.109,4.73,1.627,1.672,1.628,1.188,12,4.371,5.136,60,237.67249048,norm,0,47,47,47,2143.531,2143.544,2143.56343765,2143.564,2143.566,2143.569,down,1,1.3915209711,8.6084790289,001,308,1366_768,Intel(R) Core(TM) i5-4200U CPU @ 1.60GHz,orientation_search,PPW53677,Intel(R) HD Graphics 4400,2018_nov_08_1320,testMonitor,
347.1,338.4,340.9,339.3,36,-60,,345.3,343.8,334.8,7.787,8.407,7.571,8.081,7.59,8.305,8.055,5.085,-4.433,-7.995,1.733,-1.409,8.419,4.634,-4.977,-8.491,336.9,341.9,-8.455,345.2,342.3,337.7,348.4,341.7,36,342.2,4,5,probe,5,0,92,norm,36,-5.282,down,norm,342.813394332,351.4,336.1,336.6,344.2,0,335.3,352.8,351.2,10,5,7.714,5.299,1.93,-1.633,-5.048,-7.923,342.6,2,250.8,-8.276,-8.287,-20,-7.546,-7.558,-4.314,-5.255,-4.923,-5.201,4.968,7.52,24,-1.971,2.089,4.438,8.03,-8.131,-8.342,-1.845,1.39,344.7,350.1,347.2,344.0,336.8,347.2,332.8,345.7,349.0,344.5,0,norm,2.054,1.752,-1.823,-1.111,-4.639,-5.221,-1.511,-1.314,-1.491,-1.198,1.846,-1.811,347.5,339.2,-5.136,-8.4,1.934,-1.246,8.162,4.754,-4.477,-8.313,13,5.069,4.718,4.718,4.886,1.595,1.778,1.403,1.294,13,4.586,4.301,-20,269.527235363,norm,0,48,48,48,2145.009,2145.032,2145.0406298,2145.041,2145.046,2145.049,up,0,0.811030484396,-10,001,308,1366_768,Intel(R) Core(TM) i5-4200U CPU @ 1.60GHz,orientation_search,PPW53677,Intel(R) HD Graphics 4400,2018_nov_08_1320,testMonitor,
340.2,327.3,336.6,328.8,36,-60,342.6,327.6,335.1,333.4,8.378,7.998,8.395,8.194,8.107,8.211,7.809,4.951,-4.34,-8.101,1.876,-1.45,7.623,4.602,-5.187,-7.971,330.9,324.8,-7.541,,336.9,334.2,339.2,340.5,36,333.1,5,5,probe,5,0,84,norm,36,-4.868,down,norm,334.813394332,335.4,337.0,344.8,326.9,1,336.2,335.3,339.1,10,5,8.205,4.357,1.929,-1.708,-4.88,-7.61,340.3,2,250.8,-8.069,-7.633,-20,-7.87,-7.913,-4.965,-5.004,-4.36,-5.025,4.482,7.867,31,-1.374,1.674,4.873,7.648,-8.286,-8.08,-1.367,1.539,337.0,334.2,335.6,334.4,331.1,343.2,344.5,332.9,338.6,337.9,1,norm,1.138,2.099,-1.51,-2.097,-4.68,-5.219,-1.33,-1.987,-1.444,-1.84,1.785,-1.511,330.2,330.7,-4.575,-8.446,1.634,-1.713,7.665,4.563,-4.684,-7.813,13,5.181,4.526,5.203,5.212,1.15,1.728,1.367,1.744,13,5.242,4.424,-20,269.527235363,norm,0,49,49,49,2146.948,2146.959,2146.966943,2146.967,2146.969,2146.973,down,1,0.587198901163,9.41280109884,001,308,1366_768,Intel(R) Core(TM) i5-4200U CPU @ 1.60GHz,orientation_search,PPW53677,Intel(R) HD Graphics 4400,2018_nov_08_1320,testMonitor,
305.5,308.6,293.6,311.6,36,20,293.3,306.9,320.2,307.5,8.202,8.081,7.792,8.204,8.408,7.978,7.964,5.098,-4.59,-7.974,1.133,-1.66,8.0,4.332,-4.43,-7.853,312.7,314.6,-7.689,310.8,302.1,313.1,300.2,295.6,36,,4,5,prime,10,0,89,norm,36,-4.944,up,norm,303.358689845,304.1,311.8,300.9,323.4,3,300.6,303.8,313.4,10,6,8.077,4.903,1.88,-1.729,-4.681,-7.856,315.2,6,392.4,-7.7,-8.078,20,-8.303,-8.091,-5.195,-4.946,-5.061,-4.312,5.026,7.873,27,-1.127,1.437,4.975,7.555,-7.818,-7.713,-1.138,1.62,311.3,300.3,301.7,308.6,297.4,293.7,299.0,283.4,311.6,292.5,0,norm,1.289,1.104,-1.178,-1.513,-4.945,-4.381,-1.975,-1.209,-1.174,-1.762,1.293,-1.492,309.5,289.2,-5.028,-7.682,1.953,-1.528,8.473,5.14,-4.572,-7.914,14,5.005,4.711,4.801,4.37,1.273,1.695,1.303,1.442,14,4.384,4.935,-60,269.527235363,norm,0,50,50,50,2147.608,2147.622,2147.64039007,2147.641,2147.643,2147.646,up,1,1.01406165422,8.98593834578,001,308,1366_768,Intel(R) Core(TM) i5-4200U CPU @ 1.60GHz,orientation_search,PPW53677,Intel(R) HD Graphics 4400,2018_nov_08_1320,testMonitor,
306.7,304.1,291.0,298.1,36,20,285.3,321.3,294.8,313.2,8.199,8.079,8.001,7.836,7.603,7.719,7.918,5.047,-4.463,-7.949,1.869,-1.248,7.662,5.042,-4.782,-8.095,318.1,299.4,-7.859,318.1,308.3,293.0,314.7,313.9,36,323.4,0,5,prime,10,0,99,norm,36,-5.246,up,norm,303.358689845,319.8,307.3,297.2,293.5,5,307.7,291.0,295.8,10,6,7.679,5.128,1.903,-1.342,-4.903,-7.584,289.3,6,402.4,-7.789,-8.112,20,-7.982,-8.014,-5.298,-5.201,-4.386,-4.537,4.863,7.512,5,-1.901,1.956,4.504,7.944,-7.802,-8.023,-1.57,1.663,309.7,309.2,305.3,315.6,283.4,301.0,312.8,307.7,,296.9,1,norm,1.618,1.832,-1.859,-1.888,-4.962,-5.004,-1.161,-1.444,-1.491,-2.038,2.01,-2.002,286.8,303.1,-4.869,-7.819,1.259,-1.301,8.202,5.156,-4.907,-8.196,14,4.487,5.025,4.76,4.443,2.018,1.668,1.876,1.711,14,4.599,5.139,-60,269.527235363,norm,0,51,51,51,2148.692,2148.709,2148.72707289,2148.727,2148.729,2148.732,up,1,1.16659742418,8.83340257582,001,308,1366_768,Intel(R) Core(TM) i5-4200U CPU @ 1.60GHz,orientation_search,PPW53677,Intel(R) HD Graphics 4400,2018_nov_08_1320,testMonitor,
283.4,311.2,299.6,310.5,36,20,313.2,304.1,323.4,322.5,8.138,8.237,8.1,8.173,7.822,7.878,7.905,4.794,-4.869,-7.85,1.137,-1.538,7.937,5.238,-4.47,-7.619,312.4,287.3,-7.973,314.3,316.7,289.5,303.3,315.9,36,309.1,2,5,prime,10,0,117,norm,36,-5.295,up,norm,303.358689845,293.5,301.4,,294.4,3,289.2,285.8,310.9,10,6,8.15,4.562,1.48,-2.056,-4.522,-7.552,319.2,6,420.4,-8.319,-7.71,20,-8.308,-8.198,-4.593,-4.543,-4.802,-4.751,4.778,7.849,15,-1.412,1.412,4.391,8.188,-8.168,-8.009,-1.625,2.075,305.5,288.6,299.8,293.8,303.5,313.0,316.1,314.8,311.1,306.1,2,norm,2.087,1.124,-1.109,-1.104,-4.901,-4.303,-1.297,-1.311,-1.963,-1.871,1.158,-1.594,308.1,295.3,-4.477,-7.679,1.66,-1.878,8.256,5.086,-4.87,-7.944,14,4.665,4.681,4.735,4.439,1.678,1.658,1.485,1.885,14,4.461,4.949,-60,269.527235363,norm,0,52,52,52,2149.947,2149.962,2149.97935533,2149.98,2149.982,2149.986,up,1,0.932983684805,9.0670163152,001,308,1366_768,Intel(R) Core(TM) i5-4200U CPU @ 1.60GHz,orientation_search,PPW53677,Intel(R) HD Graphics 4400,2018_nov_08_1320,testMonitor,
296.6,311.5,,301.8,36,20,301.9,313.2,295.4,300.6,8.164,8.097,8.343,8.462,7.888,8.474,8.208,5.1,-5.014,-7.931,1.988,-1.72,7.673,4.635,-4.427,-8.448,323.4,307.9,-7.715,305.2,302.3,284.8,289.8,309.7,36,311.4,3,5,prime,10,0,80,norm,36,-4.675,down,norm,303.358689845,296.5,311.4,309.6,306.7,2,307.7,305.2,311.4,10,6,7.648,4.477,1.161,-1.962,-4.944,-8.162,283.4,6,383.4,-8.038,-8.286,20,-7.969,-8.295,-4.854,-5.283,-5.164,-4.597,4.464,8.003,20,-1.767,1.231,5.223,8.358,-8.379,-7.545,-1.296,1.989,293.7,306.3,306.4,305.5,298.7,301.7,305.5,296.5,285.0,292.3,3,norm,1.889,1.501,-1.694,-1.576,-4.354,-4.662,-2.039,-1.414,-1.55,-1.518,1.215,-1.229,294.8,316.0,-4.736,-8.462,1.175,-1.843,7.599,5.248,-4.786,-8.274,14,5.026,5.123,4.62,4.349,1.29,1.965,1.914,1.778,14,4.564,5.108,-60,269.527235363,norm,0,53,53,53,2150.967,2150.982,2150.99946406,2151.0,2151.002,2151.006,down,1,0.612712117405,9.3872878826,001,308,1366_768,Intel(R) Core(TM) i5-4200U CPU @ 1.60GHz,orientation_search,PPW53677,Intel(R) HD Graphics 4400,2018_nov_08_1320,testMonitor,
306.9,285.4,295.2,290.2,36,20,291.4,296.8,314.5,297.5,8.279,8.193,8.244,8.083,8.26,7.651,8.364,4.628,-4.873,-7.936,1.447,-1.806,8.35,5.162,-5.141,-8.066,297.8,296.0,-8.474,283.4,299.6,318.7,302.9,292.6,36,295.7,1,5,prime,10,0,90,norm,36,-4.861,down,norm,303.358689845,310.6,314.1,303.5,305.2,0,302.1,291.2,308.6,10,6,8.132,4.731,2.079,-1.935,-5.045,-7.914,317.0,6,393.4,-7.968,-7.599,20,-7.688,-8.055,-4.457,-4.895,-5.112,-4.402,4.764,8.466,6,-1.661,2.041,4.324,8.144,-8.342,-8.395,-1.542,1.969,299.2,291.6,315.0,305.9,296.6,303.1,289.4,,315.8,315.9,4,norm,1.321,1.407,-1.245,-1.345,-4.851,-4.672,-1.106,-1.294,-1.131,-1.548,1.759,-1.949,307.3,323.4,-4.738,-8.053,1.3,-2.06,7.647,4.781,-5.123,-7.879,14,4.705,5.125,4.585,5.101,2.064,1.134,1.199,1.379,14,4.725,4.607,-60,269.527235363,norm,0,54,54,54,2151.667,2151.682,2151.69949668,2151.7,2151.702,2151.706,down,1,1.09268170128,8.90731829872,001,308,1366_768,Intel(R) Core(TM) i5-4200U CPU @ 1.60GHz,orientation_search,PPW53677,Intel(R) HD Graphics 4400,2018_nov_08_1320,testMonitor,
313.3,310.0,283.4,286.5,36,20,311.7,303.1,305.9,313.3,7.704,7.967,7.622,7.982,7.839,7.779,7.634,4.376,-4.981,-8.059,1.287,-1.531,7.668,5.035,-4.48,-8.042,291.6,287.9,-8.022,317.3,307.1,300.5,308.9,312.9,36,293.7,2,5,prime,10,0,114,norm,36,-4.513,down,norm,303.358689845,297.6,299.9,303.0,292.9,1,304.6,,300.1,10,6,8.442,4.548,1.918,-1.314,-4.425,-7.988,303.1,6,417.4,-8.027,-8.049,20,-7.848,-7.949,-5.241,-4.468,-5.178,-4.747,5.261,7.539,13,-1.958,1.705,4.516,7.559,-7.921,-7.629,-1.883,1.685,300.4,287.6,308.5,301.6,286.7,302.5,298.4,296.3,306.7,319.0,5,norm,2.044,1.854,-1.469,-1.205,-4.487,-4.797,-1.526,-1.781,-1.131,-1.636,1.113,-1.706,323.4,298.0,-4.392,-8.256,1.405,-2.08,8.099,4.856,-5.154,-7.759,14,4.593,4.955,4.343,4.989,2.016,1.251,1.797,1.399,14,5.238,4.558,-60,269.527235363,norm,0,55,55,55,2152.848,2152.87,2152.87942481,2152.88,2152.882,2152.886,down,1,0.953055824915,9.04694417508,001,308,1366_768,Intel(R) Core(TM) i5-4200U CPU @ 1.60GHz,orientation_search,PPW53677,Intel(R) HD Graphics 4400,2018_nov_08_1320,testMonitor,
416.5,411.8,412.8,415.1,36,-10,402.9,406.5,409.0,405.9,8.219,8.207,7.919,7.778,8.011,8.17,8.261,4.764,-5.195,-8.426,1.199,-1.613,8.407,4.643,-4.647,-8.329,398.4,409.8,-7.553,410.3,412.0,413.1,404.1,,36,409.9,4,5,probe,5,0,80,norm,36,-5.176,down,norm,406.450762632,407.6,406.6,407.9,401.9,2,407.2,413.4,405.1,10,6,8.163,5.264,1.656,-1.495,-4.41,-8.316,406.9,1,326.5,-8.076,-8.388,20,-7.773,-7.543,-4.973,-4.525,-4.82,-5.279,4.853,7.849,26,-1.643,1.975,4.596,7.948,-8.119,-8.405,-1.837,1.979,404.0,401.0,414.0,403.7,398.5,403.9,401.6,396.5,405.5,397.9,0,norm,1.707,1.451,-1.704,-1.591,-4.669,-4.443,-1.662,-1.14,-1.949,-1.567,1.58,-1.331,405.2,402.9,-4.78,-8.335,2.084,-1.244,7.936,4.842,-4.841,-8.058,15,4.327,5.21,4.949,4.877,1.264,1.52,2.035,1.662,15,4.449,5.285,20,303.358689845,norm,0,56,56,56,2153.887,2153.902,2153.91939594,2153.92,2153.922,2153.927,up,0,1.33183826085,-10,001,308,1366_768,Intel(R) Core(TM) i5-4200U CPU @ 1.60GHz,orientation_search,PPW53677,Intel(R) HD Graphics 4400,2018_nov_08_1320,testMonitor,
,53.5,49.4,72.6,36,-40,47.8,65.2,52.4,56.1,8.02,7.816,8.201,8.459,8.134,8.128,7.832,4.721,-4.755,-7.759,1.771,-1.189,7.721,5.182,-4.359,-7.698,44.3,61.6,-7.942,70.6,37.8,62.3,49.1,32.6,36,57.3,3,5,prime,10,0,95,norm,36,-4.76,up,norm,52.5697064018,36.4,61.8,58.8,64.2,4,60.1,56.5,58.2,10,5,8.166,4.832,1.873,-1.318,-4.44,-7.61,37.5,5,147.6,-8.418,-7.692,-40,-8.255,-7.614,-4.314,-4.965,-4.948,-5.136,5.242,8.058,22,-1.599,1.135,5.193,7.573,-8.101,-8.101,-2.008,2.017,60.5,43.4,50.8,71.6,52.2,60.6,51.8,54.9,49.0,69.8,0,norm,1.185,1.675,-1.965,-1.673,-5.202,-5.129,-1.858,-1.14,-1.77,-1.615,1.644,-1.351,59.3,55.9,-4.654,-8.354,1.768,-1.312,8.24,4.965,-4.871,-7.862,16,4.767,4.529,4.952,4.599,1.447,1.29,1.692,1.766,16,4.472,4.899,-10,303.358689845,norm,0,57,57,57,2156.346,2156.357,2156.36527011,2156.366,2156.368,2156.371,down,0,0.546783303442,-10,001,308,1366_768,Intel(R) Core(TM) i5-4200U CPU @ 1.60GHz,orientation_search,PPW53677,Intel(R) HD Graphics 4400,2018_nov_08_1320,testMonitor,
37.5,48.1,36.4,47.8,36,-40,40.3,48.6,50.0,,8.072,8.253,8.467,8.258,8.217,8.054,8.347,4.977,-4.317,-7.717,1.383,-2.08,8.425,4.565,-4.603,-7.791,59.9,55.4,-8.102,60.9,72.5,59.4,44.4,72.6,36,55.1,4,5,prime,10,0,116,norm,36,-4.834,up,norm,52.5697064018,58.9,60.9,54.9,57.1,5,39.6,61.1,32.6,10,5,8.301,5.197,1.385,-1.524,-5.096,-8.343,42.4,5,168.6,-7.832,-7.594,-40,-8.109,-7.87,-4.314,-4.478,-5.274,-4.828,4.309,7.581,29,-1.928,1.652,5.237,8.402,-8.365,-7.79,-1.872,1.269,50.4,51.0,43.4,67.4,58.1,61.1,59.2,43.7,49.5,66.8,1,norm,1.755,1.484,-1.146,-1.879,-5.281,-4.401,-1.599,-1.577,-1.709,-1.662,1.227,-2.052,35.8,42.0,-5.202,-7.798,1.435,-1.335,8.033,4.519,-4.779,-8.035,16,4.566,4.985,4.364,4.746,1.599,2.032,1.437,1.342,16,4.607,4.949,-10,303.358689845,norm,0,58,58,58,2158.006,2158.018,2158.02156305,2158.022,2158.024,2158.027,up,1,1.23160563287,8.76839436713,001,308,1366_768,Intel(R) Core(TM) i5-4200U CPU @ 1.60GHz,orientation_search,PPW53677,Intel(R) HD Graphics 4400,2018_nov_08_1320,testMonitor,
44.5,57.6,32.6,67.8,36,-40,46.8,57.6,69.2,50.2,8.021,7.735,8.204,8.441,7.714,8.252,7.855,4.563,-4.783,-7.672,1.17,-1.522,7.939,4.466,-5.204,-8.207,43.6,59.6,-7.532,,40.8,64.5,66.3,48.7,36,44.7,5,5,prime,10,0,113,norm,36,-5.159,down,norm,52.5697064018,53.4,67.9,39.7,58.5,1,42.0,56.2,57.5,10,5,7.88,4.605,1.712,-2.029,-4.976,-8.433,37.7,5,165.6,-8.219,-7.658,-40,-8.164,-8.132,-4.418,-4.633,-5.237,-4.453,4.822,7.727,31,-1.614,1.466,4.85,7.819,-8.134,-7.758,-1.893,1.347,51.4,67.7,50.4,36.9,43.8,72.6,41.8,34.8,51.6,42.1,2,norm,1.763,1.63,-1.205,-1.226,-4.77,-5.203,-1.953,-1.759,-1.99,-1.947,1.336,-1.563,72.2,57.0,-5.025,-8.434,1.858,-1.317,7.569,4.518,-5.028,-7.969,16,5.051,4.97,4.3,4.333,2.044,1.894,1.893,1.397,16,4.339,4.542,-10,303.358689845,norm,0,59,59,59,2159.307,2159.32,2159.3394115,2159.34,2159.342,2159.346,down,1,0.91304764969,9.08695235031,001,308,1366_768,Intel(R) Core(TM) i5-4200U CPU @ 1.60GHz,orientation_search,PPW53677,Intel(R) HD Graphics 4400,2018_nov_08_1320,testMonitor,
42.2,68.6,60.7,68.8,36,-40,46.0,36.0,52.4,58.1,8.166,8.246,8.071,8.016,7.729,8.31,7.702,4.711,-4.868,-8.379,1.768,-1.881,7.664,4.305,-5.221,-7.983,52.0,44.6,-7.657,33.4,45.5,55.0,53.7,32.6,36,35.4,0,5,prime,10,0,79,norm,36,-4.784,down,norm,52.5697064018,52.2,48.0,50.5,60.6,1,48.9,63.1,65.4,10,5,8.159,4.575,1.153,-1.305,-4.651,-8.05,53.5,5,131.6,-7.811,-8.099,-40,-7.747,-8.121,-4.605,-4.908,-5.066,-4.976,4.317,8.186,1,-1.54,1.563,5.281,8.494,-7.653,-8.085,-1.949,1.454,45.4,67.3,72.6,38.0,,45.4,53.4,45.6,42.5,46.0,3,norm,1.931,1.517,-1.182,-1.369,-4.638,-4.654,-1.266,-1.371,-2.054,-1.113,1.311,-1.414,53.8,40.4,-4.332,-8.221,1.614,-1.159,8.098,4.727,-4.637,-7.508,16,5.292,5.271,4.626,4.999,1.451,1.534,1.51,1.834,16,4.664,5.126,-10,303.358689845,norm,0,60,60,60,2160.307,2160.321,2160.33937402,2160.34,2160.342,2160.346,down,1,1.07245292887,8.92754707113,001,308,1366_768,Intel(R) Core(TM) i5-4200U CPU @ 1.60GHz,orientation_search,PPW53677,Intel(R) HD Graphics 4400,2018_nov_08_1320,testMonitor,
62.0,37.2,58.0,42.6,36,-40,59.9,50.5,54.6,60.9,7.646,8.248,7.909,8.354,7.82,7.611,8.167,4.751,-4.741,-8.042,1.276,-1.916,8.31,4.663,-4.709,-8.177,52.3,45.4,-8.279,47.5,32.6,39.3,46.3,64.7,36,57.2,1,5,prime,10,0,106,norm,36,-5.018,down,norm,52.5697064018,60.9,44.4,48.8,47.1,0,72.6,45.4,49.6,10,5,8.447,4.386,1.608,-1.637,-4.765,-7.937,52.1,5,158.6,-8.191,-8.044,-40,-8.392,-7.774,-4.475,-4.458,-5.088,-5.092,4.807,7.889,6,-1.879,2.027,4.477,7.956,-7.55,-7.58,-1.734,1.931,57.8,64.5,55.5,44.5,63.5,59.0,60.7,,55.1,34.4,4,norm,1.979,1.836,-1.371,-1.344,-4.58,-4.656,-1.653,-1.738,-1.653,-1.953,1.261,-1.367,59.8,59.5,-4.926,-7.847,1.893,-1.924,7.775,4.353,-4.7,-8.058,16,5.102,5.166,4.578,4.842,1.936,1.371,1.92,1.77,16,5.24,4.518,-10,303.358689845,norm,0,61,61,61,2161.468,2161.487,2161.49943528,2161.5,2161.503,2161.507,down,1,0.672208743117,9.32779125688,001,308,1366_768,Intel(R) Core(TM) i5-4200U CPU @ 1.60GHz,orientation_search,PPW53677,Intel(R) HD Graphics 4400,2018_nov_08_1320,testMonitor,
87.1,87.2,82.4,89.6,36,-10,82.9,96.0,82.9,86.3,8.185,8.057,7.84,8.102,8.09,8.018,8.379,4.969,-5.037,-8.284,1.23,-2.098,8.273,5.02,-4.737,-7.636,78.8,91.8,-7.581,92.7,93.8,85.7,82.4,87.0,36,85.8,2,5,probe,5,0,80,norm,36,-5.215,up,norm,85.9701584613,78.9,87.7,,90.5,3,90.0,85.6,85.8,10,5,7.848,4.41,1.808,-1.823,-4.447,-7.942,80.0,1,6.0,-8.092,-8.255,-40,-7.682,-8.01,-4.852,-4.975,-5.003,-4.603,4.704,8.217,15,-1.649,1.908,5.08,8.098,-7.957,-7.589,-1.7,1.307,84.1,83.2,82.5,84.6,80.0,85.4,76.0,93.3,84.3,93.0,0,norm,1.384,1.688,-1.495,-1.653,-5.139,-4.379,-1.13,-1.278,-1.348,-1.478,1.338,-1.507,93.2,91.1,-4.403,-8.267,1.928,-1.67,7.738,4.32,-5.292,-8.374,17,5.195,4.984,5.297,4.628,1.797,1.152,1.376,1.527,17,4.312,4.466,-40,52.5697064018,norm,0,62,62,62,2162.227,2162.246,2162.25942639,2162.26,2162.263,2162.267,up,1,3.83462930577,6.16537069423,001,308,1366_768,Intel(R) Core(TM) i5-4200U CPU @ 1.60GHz,orientation_search,PPW53677,Intel(R) HD Graphics 4400,2018_nov_08_1320,testMonitor,
57.7,,38.7,65.8,36,40,45.3,46.5,52.9,48.2,7.631,7.507,7.823,8.379,8.331,7.96,7.841,4.824,-5.203,-8.407,1.924,-1.115,8.031,4.844,-4.819,-8.15,46.5,56.5,-8.149,44.6,51.7,52.0,54.7,57.3,36,64.2,3,5,prime,10,0,94,norm,36,-5.103,up,norm,54.0885326847,74.1,46.0,41.0,63.6,5,61.3,50.9,54.5,10,5,8.393,4.394,1.468,-1.457,-4.378,-7.574,42.1,5,148.1,-8.116,-7.647,40,-8.476,-8.423,-4.555,-4.623,-4.398,-4.897,5.249,8.047,23,-1.239,1.664,4.393,7.858,-7.948,-7.728,-1.58,1.477,49.5,52.0,73.2,54.6,34.1,47.2,56.8,46.0,60.8,44.5,0,norm,1.758,1.296,-1.547,-2.086,-4.442,-5.061,-1.576,-1.489,-1.858,-1.668,1.685,-1.551,59.0,39.7,-4.555,-8.359,1.356,-1.784,7.525,5.12,-4.5,-7.986,18,4.778,5.088,4.76,5.217,1.308,1.147,1.744,1.179,18,4.46,5.208,-10,52.5697064018,norm,0,63,63,63,2166.149,2175.544,2175.5518357,2175.552,2175.554,2175.558,up,1,0.807818852729,9.19218114727,001,308,1366_768,Intel(R) Core(TM) i5-4200U CPU @ 1.60GHz,orientation_search,PPW53677,Intel(R) HD Graphics 4400,2018_nov_08_1320,testMonitor,
51.0,57.7,49.7,49.4,36,40,42.0,55.2,52.0,57.8,7.944,8.303,8.269,7.827,7.593,7.598,7.929,4.432,-4.407,-7.943,1.871,-1.399,8.192,5.137,-4.751,-7.622,50.0,71.2,-8.015,51.8,,50.8,52.7,65.2,36,56.9,5,5,prime,10,0,116,norm,36,-4.75,down,norm,54.0885326847,50.3,74.1,45.7,34.1,0,51.2,50.3,52.8,10,5,7.893,5.246,1.614,-1.779,-4.667,-8.205,40.1,5,170.1,-7.746,-7.992,40,-7.643,-8.211,-5.005,-4.921,-4.417,-5.082,4.578,8.379,30,-1.811,1.375,4.335,7.662,-7.951,-8.304,-1.934,1.371,57.4,48.3,48.1,62.5,55.5,48.3,51.0,61.8,58.4,54.1,1,norm,1.722,1.484,-2.041,-1.212,-4.505,-5.169,-1.937,-1.19,-1.947,-1.875,1.65,-1.512,44.1,64.0,-5.19,-7.565,1.75,-1.686,8.267,5.121,-4.617,-7.536,18,4.448,4.511,4.826,4.755,1.758,1.84,1.999,1.381,18,4.683,4.338,-10,52.5697064018,norm,0,64,64,64,2176.413,2176.427,2176.44532841,2176.446,2176.448,2176.452,down,1,0.852589364087,9.14741063591,001,308,1366_768,Intel(R) Core(TM) i5-4200U CPU @ 1.60GHz,orientation_search,PPW53677,Intel(R) HD Graphics 4400,2018_nov_08_1320,testMonitor,
52.1,57.8,56.4,55.2,36,40,69.4,34.1,41.8,58.2,7.597,8.091,8.247,7.667,7.836,8.235,8.497,4.703,-4.744,-8.389,1.561,-1.628,8.388,5.09,-4.762,-8.428,50.1,55.5,-8.417,48.5,57.2,64.0,54.9,48.6,36,48.5,0,5,prime,10,0,119,norm,36,-4.823,up,norm,54.0885326847,51.8,38.0,56.5,61.3,5,51.6,51.0,62.1,10,5,8.248,4.351,1.145,-1.597,-4.424,-8.471,46.9,5,173.1,-8.06,-7.978,40,-7.787,-8.141,-5.15,-4.596,-5.137,-4.626,4.951,7.59,5,-1.767,2.008,5.218,7.851,-7.975,-8.196,-1.228,1.647,59.6,61.2,62.2,74.1,40.6,51.0,44.3,46.5,,54.9,2,norm,1.687,1.456,-1.936,-1.679,-5.231,-5.235,-1.762,-1.902,-1.141,-1.522,1.311,-1.305,48.5,55.0,-5.021,-7.957,1.434,-1.884,8.076,4.52,-4.587,-7.742,18,4.832,4.846,4.45,4.37,1.344,1.253,1.384,1.78,18,4.932,4.419,-10,52.5697064018,norm,0,65,65,65,2177.353,2177.368,2177.38532931,2177.386,2177.388,2177.392,up,1,0.592385170892,9.40761482911,001,308,1366_768,Intel(R) Core(TM) i5-4200U CPU @ 1.60GHz,orientation_search,PPW53677,Intel(R) HD Graphics 4400,2018_nov_08_1320,testMonitor,
56.4,43.4,56.3,41.2,36,40,36.6,51.3,51.5,63.2,7.698,7.741,7.558,7.88,8.177,8.284,7.785,4.518,-4.911,-8.254,1.751,-1.343,7.963,4.579,-4.896,-8.38,34.1,55.2,-7.837,44.3,67.3,55.9,42.9,58.7,36,42.9,1,5,prime,10,0,106,norm,36,-5.046,down,norm,54.0885326847,56.2,59.9,46.0,50.5,0,57.9,49.6,61.8,10,5,7.784,4.472,1.875,-2.079,-4.762,-7.629,52.7,5,160.1,-8.33,-8.322,40,-7.567,-7.857,-5.236,-4.617,-4.879,-5.177,4.718,8.225,6,-1.296,1.787,4.373,7.951,-8.349,-8.447,-1.692,1.747,52.0,71.4,41.2,45.8,46.8,74.1,60.4,,60.3,55.0,3,norm,1.21,1.634,-2.021,-1.418,-4.811,-5.253,-1.956,-1.531,-1.577,-1.922,1.448,-1.671,39.2,61.1,-4.625,-7.876,1.964,-1.224,7.52,4.945,-4.651,-7.725,18,4.584,5.062,4.851,4.384,1.199,1.165,1.982,2.017,18,5.051,5.007,-10,52.5697064018,norm,0,66,66,66,2178.033,2178.046,2178.0652291,2178.065,2178.068,2178.071,down,1,0.47461731068,9.52538268932,001,308,1366_768,Intel(R) Core(TM) i5-4200U CPU @ 1.60GHz,orientation_search,PPW53677,Intel(R) HD Graphics 4400,2018_nov_08_1320,testMonitor,
44.1,41.6,38.3,53.9,36,40,48.5,61.2,34.1,53.1,8.054,7.513,7.928,7.785,8.245,8.377,7.785,5.129,-4.466,-8.027,2.021,-1.627,7.587,4.841,-4.463,-7.911,74.1,53.3,-8.012,54.0,61.8,40.2,66.1,69.4,36,,4,5,prime,10,0,88,norm,36,-5.082,up,norm,54.0885326847,67.1,45.8,48.5,40.9,3,45.5,46.8,51.9,10,5,7.663,4.623,1.932,-1.516,-4.488,-7.827,72.4,5,142.1,-8.337,-8.24,40,-7.77,-7.804,-4.626,-4.514,-4.39,-5.254,4.44,8.37,27,-1.317,1.602,4.591,7.61,-8.297,-7.612,-1.747,1.956,60.7,47.9,60.1,64.0,58.2,58.1,58.1,58.4,53.9,49.6,4,norm,1.213,1.678,-1.917,-1.677,-4.684,-4.771,-1.579,-1.265,-1.371,-1.834,1.892,-2.06,46.7,55.3,-5.203,-7.872,1.276,-1.734,7.543,4.36,-4.35,-7.625,18,4.339,5.258,4.42,4.781,1.187,1.808,1.26,1.951,18,4.955,4.813,-10,52.5697064018,norm,0,67,67,67,2178.594,2178.612,2178.62538862,2178.626,2178.628,2178.631,up,1,1.03554125387,8.96445874613,001,308,1366_768,Intel(R) Core(TM) i5-4200U CPU @ 1.60GHz,orientation_search,PPW53677,Intel(R) HD Graphics 4400,2018_nov_08_1320,testMonitor,
180.9,189.2,192.7,184.6,36,20,181.9,175.8,184.1,176.0,7.824,8.422,7.581,7.849,7.729,8.072,7.643,4.611,-4.417,-7.831,1.881,-1.698,7.744,5.205,-4.793,-7.816,185.4,190.1,-8.24,185.5,180.0,182.2,185.2,181.9,36,186.2,2,5,probe,5,0,95,norm,36,-5.017,down,norm,185.803653627,188.1,177.6,189.6,188.8,1,191.3,,190.0,10,5,7.808,5.098,1.567,-2.007,-4.302,-7.733,180.1,1,90.8,-7.966,-8.177,40,-7.669,-8.25,-5.176,-5.049,-5.09,-5.182,4.991,8.198,13,-1.628,1.348,4.32,7.561,-7.624,-8.295,-1.347,1.421,185.9,195.8,190.8,193.1,180.9,190.2,185.8,182.8,193.4,184.7,0,norm,1.796,1.358,-1.292,-2.047,-4.862,-4.949,-1.774,-1.202,-1.497,-1.725,1.546,-1.742,189.8,185.9,-4.34,-7.807,1.729,-1.249,7.814,5.155,-5.053,-7.613,19,4.672,4.486,5.077,4.93,1.125,1.863,1.514,1.459,19,4.503,5.219,40,54.0885326847,norm,0,68,68,68,2179.715,2179.73,2179.7473503,2179.748,2179.75,2179.754,down,1,0.852999910305,9.1470000897,001,308,1366_768,Intel(R) Core(TM) i5-4200U CPU @ 1.60GHz,orientation_search,PPW53677,Intel(R) HD Graphics 4400,2018_nov_08_1320,testMonitor,
303.1,287.3,285.6,308.2,36,-40,306.6,285.4,307.7,,7.734,8.08,8.145,7.594,8.429,8.421,8.426,5.227,-4.759,-8.012,1.254,-1.761,7.926,4.327,-5.296,-7.562,285.6,281.4,-8.221,289.2,297.7,302.0,299.1,299.5,36,293.9,4,5,prime,10,0,114,norm,36,-4.826,up,norm,292.884384876,298.0,302.7,305.0,278.7,5,291.5,279.6,278.0,10,6,7.517,4.383,1.295,-1.399,-4.353,-7.696,295.1,6,406.9,-8.362,-8.384,-40,-7.973,-8.215,-4.621,-4.513,-4.325,-5.213,5.238,8.325,29,-1.49,1.756,4.544,7.733,-8.283,-8.479,-1.992,1.712,284.2,272.9,277.7,288.1,312.9,299.8,294.7,294.0,289.4,300.5,0,norm,1.773,1.833,-1.441,-1.413,-4.796,-4.404,-1.824,-1.691,-2.076,-2.072,1.391,-1.603,291.7,292.2,-4.939,-8.406,1.229,-2.064,7.762,4.695,-4.673,-8.271,20,4.694,4.87,4.812,4.609,1.856,1.295,1.894,1.202,20,5.06,4.426,20,54.0885326847,norm,0,69,69,69,2180.656,2180.678,2180.68734005,2180.688,2180.69,2180.694,up,1,0.533364243298,9.4666357567,001,308,1366_768,Intel(R) Core(TM) i5-4200U CPU @ 1.60GHz,orientation_search,PPW53677,Intel(R) HD Graphics 4400,2018_nov_08_1320,testMonitor,
296.5,285.7,293.1,291.6,36,-40,282.6,272.9,312.9,298.0,7.756,8.486,7.765,8.348,7.962,8.263,8.034,4.893,-4.675,-7.55,1.885,-1.533,8.337,4.582,-4.7,-7.586,293.4,294.6,-7.808,304.9,286.7,288.7,285.9,285.6,36,291.1,0,5,prime,10,0,114,norm,36,-4.677,down,norm,292.884384876,287.4,292.4,294.4,282.2,0,300.9,287.8,305.6,10,6,8.469,4.585,1.558,-1.49,-4.952,-7.697,295.4,6,406.9,-8.451,-7.61,-40,-7.614,-8.122,-4.488,-5.183,-4.501,-4.504,4.66,8.094,0,-1.779,1.993,4.411,8.285,-7.607,-8.198,-2.07,1.786,292.0,282.5,283.8,273.9,292.6,,290.8,291.2,289.2,299.9,1,norm,1.644,1.552,-1.472,-1.737,-4.721,-4.394,-1.681,-1.19,-1.229,-1.53,2.038,-1.292,280.8,304.4,-5.159,-8.433,1.117,-1.632,7.594,4.428,-4.613,-8.129,20,4.783,5.192,5.254,4.602,1.757,1.576,1.719,1.314,20,4.747,4.338,20,54.0885326847,norm,0,70,70,70,2181.275,2181.289,2181.30731214,2181.308,2181.31,2181.314,down,1,0.532979579342,9.46702042066,001,308,1366_768,Intel(R) Core(TM) i5-4200U CPU @ 1.60GHz,orientation_search,PPW53677,Intel(R) HD Graphics 4400,2018_nov_08_1320,testMonitor,
289.1,293.8,289.1,283.0,36,-40,290.2,298.5,282.0,300.8,8.334,7.526,8.055,7.508,7.687,8.454,7.802,4.799,-4.408,-7.631,1.907,-1.776,7.933,5.282,-4.947,-7.831,282.6,284.3,-8.493,280.8,272.9,287.1,311.7,303.0,36,296.5,0,5,prime,10,0,94,norm,36,-4.568,down,norm,292.884384876,290.0,301.3,303.7,294.2,1,291.6,293.3,289.0,10,6,7.987,4.705,1.533,-1.258,-5.168,-7.631,292.1,6,386.9,-7.616,-7.777,-40,-7.966,-8.257,-4.924,-4.555,-5.202,-5.156,4.987,8.172,1,-1.956,1.317,4.944,7.887,-7.807,-7.879,-1.535,1.973,283.1,291.0,294.0,285.2,,282.1,312.6,293.3,293.7,290.4,2,norm,1.783,1.79,-1.326,-1.178,-4.543,-5.08,-1.863,-1.151,-1.912,-1.146,1.962,-2.031,312.9,303.4,-4.611,-7.508,1.421,-1.428,8.085,5.142,-4.722,-7.842,20,4.452,4.741,4.537,4.333,1.408,1.546,1.996,1.397,20,4.499,5.028,20,54.0885326847,norm,0,71,71,71,2181.895,2181.91,2181.92732886,2181.928,2181.93,2181.934,up,0,0.772985791085,-10,001,308,1366_768,Intel(R) Core(TM) i5-4200U CPU @ 1.60GHz,orientation_search,PPW53677,Intel(R) HD Graphics 4400,2018_nov_08_1320,testMonitor,
289.3,288.4,308.4,299.8,36,-40,294.1,,280.5,298.8,8.228,7.504,7.673,7.945,7.939,8.16,7.956,4.695,-5.294,-8.35,1.562,-2.024,7.834,4.751,-5.001,-8.428,272.9,306.6,-7.904,290.1,299.6,293.9,283.7,299.3,36,300.4,4,5,prime,10,0,96,norm,36,-4.542,down,norm,292.884384876,309.2,299.5,290.8,290.1,1,284.6,275.6,279.7,10,6,7.531,5.285,1.387,-1.96,-4.697,-7.512,312.9,6,388.9,-8.283,-7.723,-40,-8.173,-7.798,-5.025,-4.673,-5.214,-4.514,4.332,8.13,25,-1.647,1.97,4.497,8.094,-8.241,-7.975,-1.242,1.314,284.8,305.1,303.1,299.3,286.8,297.6,297.3,287.6,285.4,286.3,3,norm,1.958,1.435,-1.242,-1.184,-5.057,-4.868,-1.226,-1.3,-2.031,-1.674,2.039,-2.028,305.1,283.8,-4.665,-8.285,1.874,-1.949,7.647,4.518,-4.498,-8.456,20,5.092,4.308,4.759,4.8,1.319,2.031,1.379,1.884,20,4.808,4.501,20,54.0885326847,norm,0,72,72,72,2183.795,2183.806,2183.81388155,2183.814,2183.816,2183.819,down,1,0.508483357482,9.49151664252,001,308,1366_768,Intel(R) Core(TM) i5-4200U CPU @ 1.60GHz,orientation_search,PPW53677,Intel(R) HD Graphics 4400,2018_nov_08_1320,testMonitor,
297.3,276.9,290.4,,36,-40,288.9,299.7,296.9,297.7,8.33,7.791,7.573,7.527,8.374,8.247,7.585,4.349,-4.659,-8.119,1.411,-1.106,8.138,4.699,-4.364,-8.386,299.7,280.3,-7.618,289.6,301.1,298.1,289.6,300.2,36,287.7,3,5,prime,10,0,99,norm,36,-5.038,up,norm,292.884384876,299.8,278.5,293.5,299.0,3,287.0,292.7,284.8,10,6,8.255,5.101,1.423,-1.856,-4.435,-7.983,272.9,6,391.9,-7.988,-8.314,-40,-7.858,-7.501,-5.195,-5.03,-4.609,-4.673,4.985,7.914,21,-2.084,1.55,5.015,8.474,-8.198,-7.699,-1.645,1.636,294.3,285.3,310.5,296.5,302.9,307.5,308.4,304.2,312.9,288.7,4,norm,1.889,1.59,-1.218,-1.7,-4.31,-4.301,-1.57,-1.218,-1.574,-1.469,1.456,-1.392,285.7,284.8,-4.678,-7.828,1.759,-1.708,8.01,4.647,-4.869,-8.415,20,5.26,4.438,5.2,5.244,1.786,1.269,2.026,1.539,20,4.477,4.881,20,54.0885326847,norm,0,73,73,73,2184.36,2184.378,2184.39170259,2184.392,2184.394,2184.397,up,1,1.8308594205,8.1691405795,001,308,1366_768,Intel(R) Core(TM) i5-4200U CPU @ 1.60GHz,orientation_search,PPW53677,Intel(R) HD Graphics 4400,2018_nov_08_1320,testMonitor,
305.3,311.9,293.1,299.8,36,-40,283.7,304.9,290.4,283.6,8.221,8.114,7.572,7.741,7.662,7.841,8.365,4.315,-4.373,-8.048,1.997,-1.776,8.078,5.23,-4.575,-7.676,304.7,273.5,-8.428,286.8,283.0,305.7,298.7,310.2,36,298.4,3,5,prime,10,0,61,norm,36,-4.411,down,norm,292.884384876,288.8,299.8,284.7,281.2,1,308.5,286.2,289.4,10,6,7.71,5.057,2.093,-1.653,-5.003,-7.86,302.5,6,353.9,-8.354,-7.686,-40,-7.751,-7.603,-4.729,-4.831,-4.458,-4.517,4.392,7.605,19,-1.892,1.775,4.373,8.09,-7.755,-8.376,-1.992,1.143,289.8,302.2,285.9,287.2,312.9,287.1,282.4,293.6,292.4,292.6,5,norm,1.938,1.478,-1.335,-1.741,-4.321,-4.438,-2.047,-1.196,-1.835,-1.138,1.9,-2.013,,272.9,-4.932,-8.423,2.053,-1.166,7.651,4.703,-4.493,-8.272,20,4.914,5.0,4.596,4.561,1.568,1.784,1.287,1.399,20,5.289,4.713,20,54.0885326847,norm,0,74,74,74,2186.276,2186.291,2186.30825104,2186.309,2186.311,2186.315,down,1,0.792706289434,9.20729371057,001,308,1366_768,Intel(R) Core(TM) i5-4200U CPU @ 1.60GHz,orientation_search,PPW53677,Intel(R) HD Graphics 4400,2018_nov_08_1320,testMonitor,
354.4,361.1,366.2,349.7,36,-30,361.8,359.1,359.9,367.5,7.814,7.582,7.733,8.004,7.668,7.619,7.971,4.483,-4.808,-7.512,1.264,-1.739,8.044,4.588,-4.832,-8.008,352.7,357.0,-7.548,362.6,351.0,362.8,349.9,362.6,36,360.7,1,5,probe,5,0,109,norm,36,-4.354,up,norm,357.514755334,360.3,357.8,351.2,359.2,5,,347.5,352.8,10,6,8.216,4.9,1.123,-1.359,-4.46,-8.074,348.2,2,248.5,-8.103,-8.438,-40,-8.021,-7.865,-5.006,-4.924,-4.518,-4.742,5.182,8.102,11,-1.412,1.794,5.215,7.634,-8.014,-7.933,-1.973,1.422,362.3,357.5,354.7,360.0,359.8,351.7,360.0,357.0,355.3,366.4,0,norm,1.625,1.887,-1.513,-1.797,-4.8,-5.09,-1.267,-1.702,-2.1,-1.197,1.454,-2.05,348.9,366.7,-4.733,-7.978,1.144,-1.316,8.056,4.794,-4.517,-8.136,21,4.535,5.09,4.983,4.807,1.283,1.561,1.156,1.712,21,4.529,4.532,-40,292.884384876,norm,0,75,75,75,2187.156,2187.17,2187.18828676,2187.189,2187.191,2187.195,up,1,0.452351872023,9.54764812798,001,308,1366_768,Intel(R) Core(TM) i5-4200U CPU @ 1.60GHz,orientation_search,PPW53677,Intel(R) HD Graphics 4400,2018_nov_08_1320,testMonitor,
329.5,341.9,334.3,335.4,36,-30,342.8,338.4,343.3,340.8,8.193,8.112,8.265,8.046,7.51,8.222,8.011,4.641,-4.821,-7.605,1.293,-1.376,7.856,4.75,-4.715,-7.988,336.6,343.6,-7.719,341.7,336.9,347.3,342.5,339.9,36,341.3,2,5,probe,5,0,91,norm,36,-4.767,up,norm,339.514755334,,331.1,336.0,345.4,5,339.9,333.4,340.3,10,6,8.163,5.083,1.338,-1.103,-4.639,-7.809,339.4,2,248.5,-7.925,-8.301,-40,-8.406,-8.089,-4.533,-5.11,-4.882,-4.796,5.087,8.281,17,-2.043,1.575,4.632,8.483,-7.609,-7.738,-2.009,2.032,342.6,342.2,336.2,339.1,333.8,340.4,339.4,334.6,336.2,349.5,1,norm,1.443,1.548,-1.827,-1.154,-4.482,-4.989,-1.89,-1.46,-1.448,-1.256,1.828,-2.028,339.8,341.9,-4.875,-7.692,1.427,-2.009,8.045,5.039,-4.465,-8.393,21,4.318,4.469,4.487,4.704,1.936,1.376,1.301,1.476,21,4.976,4.987,-40,292.884384876,norm,0,76,76,76,2187.696,2187.71,2187.728338,2187.729,2187.731,2187.735,down,0,0.452821322699,-10,001,308,1366_768,Intel(R) Core(TM) i5-4200U CPU @ 1.60GHz,orientation_search,PPW53677,Intel(R) HD Graphics 4400,2018_nov_08_1320,testMonitor,
169.3,166.4,178.2,172.9,36,30,163.0,160.1,155.0,182.8,7.555,7.863,8.39,8.215,8.223,7.756,8.013,4.803,-4.674,-7.848,1.6,-1.313,7.817,4.677,-5.196,-7.738,163.7,,-7.608,161.4,159.6,167.0,146.7,152.0,36,184.9,5,5,prime,10,0,111,norm,36,-5.002,up,norm,164.882174195,167.0,169.0,152.3,146.1,4,156.0,149.7,166.8,10,5,7.771,4.315,1.782,-1.603,-4.892,-7.618,174.1,5,275.9,-8.126,-8.255,30,-8.146,-8.165,-5.257,-4.637,-4.814,-4.981,4.421,7.528,34,-1.648,1.339,4.348,8.102,-8.095,-8.309,-1.953,1.915,156.2,165.2,167.2,164.6,158.0,178.2,163.8,162.7,160.6,161.3,0,norm,1.715,1.223,-1.965,-1.357,-5.229,-4.869,-1.945,-1.771,-1.468,-2.1,1.821,-1.217,177.9,180.5,-5.006,-7.825,1.463,-1.542,7.762,4.89,-5.27,-8.303,22,4.766,4.868,4.495,4.516,1.979,2.006,1.56,1.182,22,4.411,4.365,-30,292.884384876,norm,0,77,77,77,2189.276,2189.288,2189.29146238,2189.292,2189.294,2189.297,up,1,0.952560045731,9.04743995427,001,308,1366_768,Intel(R) Core(TM) i5-4200U CPU @ 1.60GHz,orientation_search,PPW53677,Intel(R) HD Graphics 4400,2018_nov_08_1320,testMonitor,
178.1,184.9,156.5,167.5,36,30,161.4,170.4,151.6,159.4,7.779,7.728,7.676,8.198,7.505,8.252,7.907,4.789,-4.561,-7.612,1.981,-1.848,7.501,4.918,-5.123,-7.982,159.6,173.3,-8.473,152.7,171.9,160.7,162.9,154.8,36,,4,5,prime,10,0,90,norm,36,-4.632,up,norm,164.882174195,162.9,144.9,158.5,148.9,3,162.2,168.2,160.6,10,5,7.983,4.905,1.435,-1.799,-5.133,-7.841,181.3,5,254.9,-7.559,-8.305,30,-7.669,-8.459,-4.364,-4.891,-4.65,-4.436,4.867,8.035,27,-1.223,1.309,4.447,8.099,-7.694,-7.726,-1.901,1.719,172.0,156.6,173.0,155.6,182.8,159.2,156.3,166.6,173.4,157.9,1,norm,2.07,2.043,-1.255,-1.19,-4.606,-4.802,-1.186,-1.571,-2.014,-1.395,1.47,-1.993,159.5,166.3,-5.007,-7.953,1.519,-2.039,7.797,4.579,-4.686,-7.631,22,4.346,5.203,5.142,4.603,1.281,1.673,1.978,2.093,22,4.667,4.956,-30,292.884384876,norm,0,78,78,78,2190.298,2190.315,2190.33697455,2190.337,2190.34,2190.343,down,0,0.62772382913,-10,001,308,1366_768,Intel(R) Core(TM) i5-4200U CPU @ 1.60GHz,orientation_search,PPW53677,Intel(R) HD Graphics 4400,2018_nov_08_1320,testMonitor,
157.2,156.9,152.7,152.8,36,30,171.3,153.6,175.4,169.6,8.445,8.124,7.931,8.344,7.562,7.755,8.376,4.822,-4.661,-7.872,1.838,-1.245,7.945,4.55,-4.966,-7.581,184.9,165.5,-7.921,144.9,149.0,146.6,166.7,,36,148.4,4,5,prime,10,0,84,norm,36,-4.672,down,norm,164.882174195,162.0,172.6,153.3,146.7,2,182.6,148.5,156.1,10,5,7.997,5.298,1.201,-1.803,-5.04,-7.596,168.3,5,248.9,-8.491,-8.321,30,-7.847,-7.957,-4.429,-4.834,-4.445,-4.827,4.401,8.3,26,-1.937,1.257,4.774,7.615,-8.371,-8.161,-1.422,1.474,162.7,174.0,152.9,164.0,155.1,167.3,178.8,156.4,165.2,160.6,2,norm,1.734,2.053,-2.095,-1.415,-5.09,-5.211,-1.543,-1.16,-1.924,-1.695,1.655,-1.626,176.0,184.7,-4.534,-8.304,1.457,-1.789,8.473,4.624,-4.351,-8.324,22,4.325,4.357,4.872,4.646,2.096,1.484,1.459,2.066,22,4.704,5.297,-30,292.884384876,norm,0,79,79,79,2192.058,2192.069,2192.07692253,2192.077,2192.079,2192.083,up,0,0.327148216556,-10,001,308,1366_768,Intel(R) Core(TM) i5-4200U CPU @ 1.60GHz,orientation_search,PPW53677,Intel(R) HD Graphics 4400,2018_nov_08_1320,testMonitor,
161.1,170.1,153.6,148.5,36,30,167.4,166.5,168.6,158.6,7.92,7.709,7.614,8.412,8.413,8.29,7.956,5.286,-4.461,-8.112,1.715,-1.568,7.608,5.147,-4.667,-7.699,167.4,168.4,-7.51,158.0,168.5,157.4,167.9,169.5,36,159.1,2,5,prime,10,0,83,norm,36,-4.465,down,norm,164.882174195,169.3,158.8,172.2,177.5,0,169.7,164.8,,10,5,8.395,4.642,1.209,-1.427,-5.084,-7.917,169.4,5,247.9,-8.356,-7.915,30,-7.948,-7.552,-4.895,-4.743,-5.083,-4.707,4.341,8.0,12,-1.256,1.593,4.93,8.044,-7.562,-8.41,-1.797,1.323,183.0,151.3,144.9,158.5,171.9,172.5,163.3,146.7,184.9,179.4,3,norm,2.095,1.579,-1.327,-1.736,-4.713,-4.321,-1.567,-2.077,-1.88,-1.416,1.606,-1.801,165.7,160.0,-4.355,-7.674,1.765,-1.428,7.869,4.788,-4.372,-7.734,22,5.158,4.482,4.531,4.301,1.25,1.783,1.671,1.46,22,4.512,4.822,-30,292.884384876,norm,0,80,80,80,2193.498,2193.509,2193.51684199,2193.517,2193.519,2193.522,down,1,0.587307338916,9.41269266108,001,308,1366_768,Intel(R) Core(TM) i5-4200U CPU @ 1.60GHz,orientation_search,PPW53677,Intel(R) HD Graphics 4400,2018_nov_08_1320,testMonitor,
171.6,180.9,179.1,182.4,36,30,167.8,155.2,162.7,150.4,7.634,8.431,7.73,7.691,8.493,8.006,7.721,4.983,-5.01,-7.796,1.851,-1.774,8.147,4.493,-5.103,-8.392,174.5,154.9,-7.996,162.7,166.6,158.6,153.0,177.2,36,144.9,0,5,prime,10,0,97,norm,36,-5.276,up,norm,164.882174195,170.0,160.0,152.8,168.1,4,163.9,153.2,168.4,10,5,7.84,4.354,1.21,-2.042,-4.94,-7.704,180.0,5,261.9,-8.179,-7.765,30,-7.567,-7.824,-5.026,-4.472,-4.753,-4.558,5.141,7.734,4,-2.092,1.409,4.707,7.844,-8.202,-7.841,-1.146,1.352,163.5,168.5,163.3,184.9,145.6,163.3,180.6,171.8,175.6,,4,norm,1.608,2.064,-1.908,-1.767,-4.853,-4.828,-1.173,-1.996,-1.28,-1.554,1.67,-2.043,173.5,164.4,-5.086,-7.772,1.794,-1.15,7.975,5.017,-5.242,-7.79,22,4.613,4.968,4.463,4.705,1.58,1.445,1.917,1.112,22,4.924,5.152,-30,292.884384876,norm,0,81,81,81,2194.158,2194.181,2194.19027166,2194.191,2194.193,2194.197,up,1,0.57140224292,9.42859775708,001,308,1366_768,Intel(R) Core(TM) i5-4200U CPU @ 1.60GHz,orientation_search,PPW53677,Intel(R) HD Graphics 4400,2018_nov_08_1320,testMonitor,
292.0,284.9,283.1,285.1,36,-60,278.5,283.3,282.2,283.9,8.268,7.887,7.557,8.326,8.064,7.584,7.899,4.839,-4.753,-7.805,1.538,-1.661,8.419,5.105,-5.267,-7.538,275.6,282.3,-8.225,283.9,290.6,287.2,282.0,280.2,36,284.7,0,5,probe,5,0,87,norm,36,-5.012,down,norm,284.323877157,287.5,290.1,274.3,286.6,1,288.4,284.1,283.3,10,5,7.673,4.703,1.46,-1.454,-5.109,-7.849,288.7,1,197.3,-8.311,-8.037,30,-8.085,-7.916,-5.185,-4.429,-5.029,-4.574,5.004,8.278,1,-2.062,1.886,4.969,8.462,-8.439,-7.828,-1.526,1.354,277.9,286.8,281.4,288.1,,278.8,286.4,281.2,290.7,294.3,0,norm,1.442,1.633,-1.174,-1.861,-5.073,-4.414,-1.179,-1.523,-1.279,-1.115,1.865,-1.798,277.0,291.2,-4.381,-7.859,1.283,-1.228,7.853,4.821,-5.268,-8.37,23,4.402,4.956,5.013,4.333,1.122,1.831,1.307,1.412,23,5.077,4.652,30,164.882174195,norm,0,82,82,82,2194.801,2194.819,2194.83618403,2194.836,2194.839,2194.842,down,1,0.946950288653,9.05304971135,001,308,1366_768,Intel(R) Core(TM) i5-4200U CPU @ 1.60GHz,orientation_search,PPW53677,Intel(R) HD Graphics 4400,2018_nov_08_1320,testMonitor,
272.6,275.1,268.1,264.9,36,10,260.2,263.2,268.8,255.2,8.248,8.495,7.59,8.308,8.211,8.321,7.658,4.588,-4.765,-8.037,1.108,-2.013,7.52,4.728,-4.96,-7.803,254.0,260.3,-8.288,254.2,258.9,251.9,262.0,250.6,36,261.6,1,5,prime,10,0,86,norm,36,-5.097,down,norm,263.153860724,264.3,283.2,277.1,258.1,0,270.6,256.5,255.4,10,6,8.061,4.315,1.46,-1.937,-5.02,-8.49,263.4,6,349.2,-8.286,-8.03,10,-8.497,-8.441,-4.933,-4.843,-4.474,-4.909,4.348,8.464,6,-1.894,1.934,5.001,7.592,-7.839,-7.818,-1.316,1.922,267.3,269.3,254.0,254.0,277.1,254.5,255.7,,254.9,253.8,0,norm,1.808,1.639,-1.541,-1.458,-4.507,-5.002,-1.124,-1.806,-1.527,-1.595,1.347,-1.694,248.9,264.1,-4.609,-7.829,1.8,-1.83,8.024,4.608,-4.716,-7.862,24,5.046,4.345,4.678,4.437,1.781,1.11,1.214,2.0,24,4.662,4.366,-60,164.882174195,norm,0,83,83,83,2195.827,2195.842,2195.85931117,2195.86,2195.862,2195.865,down,1,1.07378497285,8.92621502715,001,308,1366_768,Intel(R) Core(TM) i5-4200U CPU @ 1.60GHz,orientation_search,PPW53677,Intel(R) HD Graphics 4400,2018_nov_08_1320,testMonitor,
254.2,259.8,279.3,280.6,36,10,264.6,268.6,259.6,263.9,8.455,8.355,7.758,8.237,8.143,8.372,7.822,4.66,-4.819,-8.206,2.026,-1.94,8.496,4.884,-4.784,-7.698,272.7,276.0,-8.421,275.2,263.6,274.0,259.8,274.4,36,258.5,2,5,prime,10,0,78,norm,36,-5.231,down,norm,263.153860724,266.3,245.0,256.2,261.7,1,247.2,,262.4,10,6,7.928,4.612,1.394,-1.13,-4.503,-8.266,257.4,6,341.2,-8.341,-8.298,10,-8.387,-7.593,-4.636,-5.178,-4.389,-4.594,4.449,8.487,13,-2.063,1.767,4.658,7.678,-8.307,-8.225,-1.689,1.753,273.7,266.3,275.5,272.6,250.4,268.1,270.7,243.2,257.9,267.3,1,norm,1.369,1.946,-1.463,-1.283,-5.075,-4.741,-1.119,-1.503,-1.956,-1.577,1.734,-1.706,283.2,259.0,-4.866,-7.634,1.132,-1.788,8.27,4.361,-5.11,-7.607,24,5.003,5.179,4.352,5.057,1.503,1.275,2.01,2.001,24,5.099,4.594,-60,164.882174195,norm,0,84,84,84,2196.987,2197.001,2197.01927336,2197.02,2197.022,2197.026,down,1,0.792392132327,9.20760786767,001,308,1366_768,Intel(R) Core(TM) i5-4200U CPU @ 1.60GHz,orientation_search,PPW53677,Intel(R) HD Graphics 4400,2018_nov_08_1320,testMonitor,
273.8,283.2,269.8,270.9,36,10,243.9,273.2,261.5,278.3,8.354,7.633,8.351,8.39,7.98,8.414,7.682,5.041,-5.202,-8.313,1.704,-1.525,8.485,4.524,-5.238,-8.074,270.1,265.7,-7.872,275.4,271.5,261.3,267.2,,36,262.0,4,5,prime,10,0,73,norm,36,-4.661,down,norm,263.153860724,268.1,266.8,253.6,271.5,2,259.7,274.0,274.2,10,6,8.118,4.823,1.762,-1.711,-4.47,-8.039,248.2,6,336.2,-7.546,-8.429,10,-7.948,-8.111,-5.178,-4.74,-5.024,-4.638,5.041,8.354,26,-2.021,1.289,4.782,8.053,-7.855,-7.969,-1.177,2.076,262.6,270.8,246.7,256.2,276.1,243.2,259.5,272.7,263.7,270.6,2,norm,1.534,1.66,-1.778,-1.363,-4.8,-5.089,-1.976,-1.668,-1.574,-1.305,1.564,-1.414,253.1,264.4,-4.463,-8.137,1.172,-1.247,7.824,4.342,-4.565,-8.221,24,5.107,4.655,4.303,4.633,1.474,1.317,1.724,1.66,24,4.419,5.015,-60,164.882174195,norm,0,85,85,85,2197.867,2197.881,2197.89926981,2197.9,2197.902,2197.906,down,1,1.05232545427,8.94767454573,001,308,1366_768,Intel(R) Core(TM) i5-4200U CPU @ 1.60GHz,orientation_search,PPW53677,Intel(R) HD Graphics 4400,2018_nov_08_1320,testMonitor,
266.8,273.9,283.2,273.0,36,10,267.7,271.3,268.1,268.4,8.233,8.075,8.235,8.242,7.923,8.405,7.99,4.764,-4.889,-8.288,1.945,-1.379,7.625,4.587,-4.94,-8.01,268.4,271.7,-7.702,255.2,257.8,252.2,274.6,245.3,36,253.7,1,5,prime,10,0,70,norm,36,-4.932,up,norm,263.153860724,272.6,261.7,259.0,255.2,5,,260.4,264.2,10,6,8.415,5.04,1.132,-2.082,-4.465,-7.726,279.3,6,333.2,-7.85,-8.312,10,-8.288,-7.936,-4.467,-4.648,-4.841,-4.945,4.918,7.949,11,-1.504,1.582,4.491,7.997,-8.306,-8.011,-1.49,1.686,274.9,263.1,267.0,270.3,243.2,268.4,244.6,271.6,248.1,274.9,3,norm,1.572,1.321,-1.988,-1.291,-5.142,-5.06,-1.668,-1.113,-1.451,-1.71,1.706,-1.618,266.4,243.7,-4.841,-7.687,1.678,-1.916,8.099,4.314,-4.728,-8.135,24,5.193,4.9,4.455,4.748,1.235,1.548,2.001,1.885,24,5.061,4.63,-60,164.882174195,norm,0,86,86,86,2199.007,2199.021,2199.03924822,2199.04,2199.042,2199.046,down,0,0.512823545005,-10,001,308,1366_768,Intel(R) Core(TM) i5-4200U CPU @ 1.60GHz,orientation_search,PPW53677,Intel(R) HD Graphics 4400,2018_nov_08_1320,testMonitor,
247.3,253.6,271.5,252.9,36,10,279.7,264.7,255.3,282.9,8.231,8.412,8.115,7.731,7.655,7.566,7.543,4.88,-4.373,-8.058,1.953,-1.627,7.965,4.478,-4.861,-8.479,269.8,265.4,-7.635,265.2,264.0,255.2,,261.5,36,262.5,5,5,prime,10,0,102,norm,36,-4.91,down,norm,263.153860724,264.3,267.7,255.9,283.2,2,276.1,268.2,255.8,10,6,8.355,5.237,1.171,-1.509,-5.129,-8.471,262.1,6,365.2,-8.342,-8.332,10,-8.075,-8.019,-4.47,-4.971,-4.523,-4.358,4.962,8.463,32,-1.619,1.89,5.081,8.064,-8.468,-7.97,-1.269,1.247,257.1,249.4,243.2,260.2,269.9,256.6,263.3,254.0,262.6,261.7,4,norm,1.229,1.22,-1.469,-1.46,-4.771,-4.889,-1.108,-1.829,-1.357,-1.373,1.74,-1.522,263.6,272.7,-5.029,-7.771,1.96,-1.361,7.835,4.827,-4.482,-8.217,24,4.495,5.154,5.039,4.92,2.011,1.129,1.211,1.917,24,5.026,4.711,-60,164.882174195,norm,0,87,87,87,2200.647,2200.659,2200.66244488,2200.663,2200.665,2200.668,up,0,0.450659707611,-10,001,308,1366_768,Intel(R) Core(TM) i5-4200U CPU @ 1.60GHz,orientation_search,PPW53677,Intel(R) HD Graphics 4400,2018_nov_08_1320,testMonitor,
272.7,252.5,271.7,283.2,36,10,263.6,262.3,264.8,269.7,7.78,8.284,7.593,7.861,7.52,7.925,8.175,5.15,-5.237,-7.663,1.587,-2.057,7.553,4.863,-4.533,-8.143,267.5,275.4,-8.104,266.7,256.4,269.8,257.3,254.1,36,255.3,0,5,prime,10,0,66,norm,36,-4.744,up,norm,263.153860724,273.2,262.4,267.9,260.3,4,250.3,250.7,266.5,10,6,7.968,5.295,1.473,-2.007,-4.392,-7.887,264.3,6,329.2,-8.006,-8.13,10,-7.676,-7.53,-4.514,-4.914,-4.834,-5.283,5.056,8.249,4,-1.412,2.08,5.219,8.032,-8.106,-8.332,-1.905,1.974,276.5,264.7,266.7,275.4,258.8,254.2,253.8,243.2,259.9,,5,norm,1.737,2.053,-1.153,-1.61,-4.37,-4.554,-1.565,-1.194,-1.22,-1.727,1.814,-1.946,243.9,252.4,-4.965,-8.4,1.939,-1.169,8.382,5.007,-4.842,-7.668,24,5.255,4.597,4.941,4.342,1.222,1.958,1.579,1.501,24,5.003,4.661,-60,164.882174195,norm,0,88,88,88,2202.207,2202.219,2202.22573884,2202.226,2202.228,2202.231,down,0,1.36753793202,-10,001,308,1366_768,Intel(R) Core(TM) i5-4200U CPU @ 1.60GHz,orientation_search,PPW53677,Intel(R) HD Graphics 4400,2018_nov_08_1320,testMonitor,
360.3,347.0,348.4,349.8,36,80,352.9,359.0,363.3,354.6,8.265,7.771,8.118,7.757,7.671,8.464,8.01,5.034,-4.593,-8.412,2.074,-1.194,8.325,4.706,-4.728,-7.934,350.4,346.6,-8.493,353.6,352.7,350.9,355.0,361.0,36,358.1,0,5,probe,5,0,81,norm,36,-5.286,up,norm,353.281011156,358.0,352.7,351.7,351.3,5,360.0,352.9,363.2,10,6,8.068,4.461,1.254,-1.528,-5.011,-8.415,353.2,2,272.3,-8.429,-8.096,10,-7.938,-8.116,-4.912,-4.463,-4.904,-4.668,5.023,8.037,5,-1.226,1.96,5.271,7.587,-7.939,-8.269,-1.356,1.789,359.3,351.6,347.3,352.8,357.7,348.5,358.9,347.3,,353.0,0,norm,1.998,1.773,-1.673,-1.688,-4.368,-4.303,-1.841,-1.435,-1.789,-1.632,1.581,-1.298,343.3,356.3,-4.733,-8.486,1.805,-1.589,8.227,5.051,-4.837,-8.491,25,4.798,5.12,4.773,4.52,1.867,1.398,1.957,1.72,25,4.822,5.063,10,263.153860724,norm,0,89,89,89,2204.687,2204.698,2204.70588781,2204.706,2204.709,2204.711,up,1,0.567308829377,9.43269117062,001,308,1366_768,Intel(R) Core(TM) i5-4200U CPU @ 1.60GHz,orientation_search,PPW53677,Intel(R) HD Graphics 4400,2018_nov_08_1320,testMonitor,
391.1,381.2,381.5,383.0,36,80,384.9,385.7,386.2,388.8,8.071,8.353,7.747,8.378,7.642,7.567,7.523,4.869,-5.25,-7.936,1.911,-1.97,7.657,4.77,-5.21,-8.064,386.0,388.3,-7.753,384.8,384.9,389.6,381.3,381.3,36,388.2,2,5,probe,5,0,112,norm,36,-4.703,up,norm,384.281011156,,380.6,380.4,387.7,5,388.3,374.5,387.8,10,6,8.275,4.892,1.872,-1.599,-5.155,-7.684,381.6,2,272.3,-7.542,-7.854,10,-8.449,-7.751,-5.005,-4.548,-5.013,-5.018,4.945,8.064,17,-1.178,1.53,4.7,8.059,-7.706,-7.837,-1.786,2.067,381.9,382.5,391.1,383.8,384.8,386.2,385.7,379.0,394.3,374.3,1,norm,1.42,1.381,-1.669,-1.337,-4.338,-4.955,-1.992,-1.529,-1.224,-1.999,1.182,-1.65,390.3,378.1,-5.087,-8.023,1.916,-1.958,8.078,5.206,-4.611,-8.371,25,5.186,4.892,5.021,4.407,1.791,1.488,1.658,1.369,25,4.803,5.107,10,263.153860724,norm,0,90,90,90,2205.327,2205.342,2205.35916279,2205.359,2205.362,2205.366,up,1,1.37320480857,8.62679519143,001,308,1366_768,Intel(R) Core(TM) i5-4200U CPU @ 1.60GHz,orientation_search,PPW53677,Intel(R) HD Graphics 4400,2018_nov_08_1320,testMonitor,
196.9,195.3,180.4,187.1,36,80,188.2,175.6,197.9,189.2,8.119,7.862,7.61,7.591,7.776,7.548,8.004,4.768,-4.681,-8.377,1.811,-1.55,7.976,4.753,-5.202,-7.986,,172.6,-7.714,200.5,190.6,175.6,185.2,188.2,36,178.4,5,5,prime,10,0,93,norm,36,-4.31,up,norm,192.589159573,189.9,183.8,189.4,183.5,5,195.1,180.5,189.7,10,5,8.189,5.07,2.061,-1.891,-5.294,-8.235,201.8,5,285.6,-8.337,-7.857,80,-8.081,-8.065,-5.244,-4.949,-5.063,-5.152,5.14,8.288,35,-1.946,1.315,4.617,7.839,-8.009,-8.184,-1.399,1.205,200.7,201.8,187.0,177.1,196.3,212.6,190.9,194.2,184.2,193.6,0,norm,1.674,1.15,-2.085,-1.33,-5.06,-4.539,-1.975,-1.84,-1.822,-1.463,1.157,-2.015,183.6,190.1,-4.947,-7.949,1.637,-1.132,8.338,4.606,-4.762,-7.557,26,5.28,4.842,4.702,5.241,1.634,1.317,1.931,1.518,26,4.776,5.122,80,263.153860724,norm,0,91,91,91,2206.788,2206.809,2206.81926417,2206.82,2206.822,2206.826,up,1,1.11283728938,8.88716271062,001,308,1366_768,Intel(R) Core(TM) i5-4200U CPU @ 1.60GHz,orientation_search,PPW53677,Intel(R) HD Graphics 4400,2018_nov_08_1320,testMonitor,
181.1,203.4,199.3,197.1,36,80,200.4,201.4,172.6,180.6,7.726,7.798,8.213,7.998,8.213,8.451,8.374,4.666,-4.487,-7.647,1.709,-1.231,8.445,4.995,-4.994,-8.409,,199.9,-8.438,212.6,186.6,189.6,204.8,190.0,36,174.3,5,5,prime,10,0,102,norm,36,-4.991,up,norm,192.589159573,195.1,211.9,200.4,198.6,5,185.0,176.1,199.9,10,5,7.685,5.239,1.882,-1.739,-5.115,-7.933,188.8,5,294.6,-7.573,-8.197,80,-7.77,-8.029,-4.66,-4.849,-5.227,-4.337,5.231,7.85,35,-1.899,1.762,4.49,8.359,-8.393,-8.248,-1.641,1.436,179.6,197.0,191.7,196.4,189.7,189.3,189.9,194.8,185.8,179.9,1,norm,1.451,1.204,-1.731,-1.397,-4.544,-5.272,-1.277,-1.823,-2.091,-1.4,1.783,-1.897,195.4,193.3,-4.505,-8.327,1.106,-1.666,7.575,4.481,-4.603,-8.488,26,4.84,4.965,4.612,4.768,1.602,1.275,1.198,1.481,26,4.914,5.291,80,263.153860724,norm,0,92,92,92,2207.987,2208.009,2208.01931665,2208.02,2208.024,2208.029,up,1,0.648969595928,9.35103040407,001,308,1366_768,Intel(R) Core(TM) i5-4200U CPU @ 1.60GHz,orientation_search,PPW53677,Intel(R) HD Graphics 4400,2018_nov_08_1320,testMonitor,
181.2,193.8,201.7,194.8,36,80,201.0,198.6,199.7,,8.377,8.017,7.862,8.115,8.159,7.593,7.952,5.24,-4.725,-7.797,1.488,-1.536,7.618,4.812,-5.158,-8.372,172.6,180.1,-7.939,198.4,186.7,211.0,192.6,212.6,36,193.6,4,5,prime,10,0,118,norm,36,-4.507,up,norm,192.589159573,195.5,190.9,178.0,203.0,5,192.8,182.6,190.6,10,5,8.371,5.102,1.219,-1.372,-4.557,-7.758,180.2,5,310.6,-7.667,-8.057,80,-7.961,-7.727,-4.339,-4.723,-4.5,-5.187,5.021,7.574,29,-1.621,1.17,5.233,7.968,-7.61,-7.634,-1.802,1.823,193.4,188.6,195.2,212.1,208.9,206.0,191.6,177.1,172.7,193.1,2,norm,1.865,1.923,-1.121,-1.1,-5.012,-4.873,-2.081,-1.631,-1.122,-1.591,1.442,-1.54,202.9,184.4,-4.58,-8.137,1.385,-1.327,7.877,4.832,-5.122,-8.456,26,4.479,4.766,4.778,4.666,1.338,1.756,1.882,1.806,26,4.368,5.246,80,263.153860724,norm,0,93,93,93,2208.727,2208.741,2208.75922268,2208.76,2208.762,2208.766,up,1,0.55216949133,9.44783050867,001,308,1366_768,Intel(R) Core(TM) i5-4200U CPU @ 1.60GHz,orientation_search,PPW53677,Intel(R) HD Graphics 4400,2018_nov_08_1320,testMonitor,
202.5,192.3,172.6,175.4,36,80,178.1,193.1,194.2,205.4,7.519,7.722,8.204,7.872,8.31,7.59,8.26,4.779,-4.627,-8.436,2.035,-1.177,7.573,4.673,-4.371,-8.169,182.4,188.0,-7.605,194.6,193.3,202.2,187.4,,36,194.7,4,5,prime,10,0,111,norm,36,-4.764,down,norm,192.589159573,178.7,186.3,201.6,186.4,2,188.1,203.4,208.3,10,5,8.431,4.477,1.182,-1.977,-4.469,-7.541,195.4,5,303.6,-7.833,-8.082,80,-8.235,-8.171,-4.927,-4.911,-4.398,-4.685,4.633,7.959,26,-1.518,1.841,4.454,8.194,-8.205,-7.686,-1.747,1.574,198.1,192.1,207.3,184.4,212.6,191.4,179.5,200.5,198.0,194.8,3,norm,1.842,1.239,-1.885,-1.862,-4.906,-4.603,-1.186,-1.153,-1.461,-2.003,2.002,-1.927,183.4,212.1,-4.434,-7.592,1.753,-1.918,7.913,4.622,-5.061,-8.045,26,4.996,4.635,4.733,4.739,1.75,1.272,1.629,1.402,26,4.541,4.789,80,263.153860724,norm,0,94,94,94,2209.368,2209.39,2209.39939409,2209.4,2209.404,2209.409,up,0,0.591139252369,-10,001,308,1366_768,Intel(R) Core(TM) i5-4200U CPU @ 1.60GHz,orientation_search,PPW53677,Intel(R) HD Graphics 4400,2018_nov_08_1320,testMonitor,
191.9,192.7,197.0,201.4,36,80,196.3,187.3,193.9,194.8,8.01,8.31,7.917,8.378,7.902,8.023,7.905,5.17,-5.229,-7.644,1.642,-2.053,7.86,4.986,-4.697,-8.404,180.5,183.5,-7.527,204.0,199.8,195.8,189.9,187.8,36,176.5,0,5,prime,10,0,117,norm,36,-4.953,down,norm,192.589159573,172.6,191.4,176.6,178.8,0,190.4,198.6,198.7,10,5,7.594,4.902,1.843,-1.974,-4.451,-7.72,193.5,5,309.6,-7.543,-8.229,80,-7.683,-8.003,-4.913,-5.289,-4.658,-4.418,4.863,8.393,0,-1.219,1.566,4.515,8.047,-7.875,-7.67,-1.647,1.812,198.5,186.0,191.8,209.8,203.6,,181.6,198.1,197.7,177.3,4,norm,1.883,1.837,-1.233,-1.483,-5.067,-4.665,-1.696,-1.663,-1.595,-1.913,1.672,-1.685,212.6,194.1,-4.516,-7.802,1.258,-1.77,8.386,4.808,-4.827,-8.485,26,4.538,4.546,5.237,4.508,1.477,1.275,1.677,1.833,26,5.027,5.272,80,263.153860724,norm,0,95,95,95,2211.089,2211.101,2211.10438807,2211.105,2211.107,2211.11,down,1,0.470635904856,9.52936409514,001,308,1366_768,Intel(R) Core(TM) i5-4200U CPU @ 1.60GHz,orientation_search,PPW53677,Intel(R) HD Graphics 4400,2018_nov_08_1320,testMonitor,
