d_ori_22,d_ori_23,d_ori_20,d_ori_21,set_size,ctpd,d_ori_24,d_ori_25,d_ori_28,d_ori_29,stim_pos_x_30,stim_pos_x_31,stim_pos_x_32,stim_pos_x_33,stim_pos_x_34,stim_pos_x_35,stim_pos_y_11,stim_pos_y_10,stim_pos_y_13,stim_pos_y_12,stim_pos_y_15,stim_pos_y_14,stim_pos_y_17,stim_pos_y_16,stim_pos_y_19,stim_pos_y_18,d_ori_35,d_ori_34,stim_pos_x_3,d_ori_31,d_ori_30,d_ori_33,d_ori_32,d_ori_26,test_set_size,d_ori_27,targetCol,dsd_test,seq_type,dsd,blockRepN,targetDist,dtype_test,prime_set_size,stim_pos_y_25,correctResponse,dtype,distrMean,d_ori_17,d_ori_16,d_ori_15,d_ori_14,targetRow,d_ori_11,d_ori_13,d_ori_12,dsd_prime,streak_length_prime,stim_pos_y_35,stim_pos_y_34,stim_pos_y_33,stim_pos_y_32,stim_pos_y_31,stim_pos_y_30,d_ori_10,nextProbe,targetOri,stim_pos_x_1,stim_pos_x_2,ctpd_prime,stim_pos_x_4,stim_pos_x_5,stim_pos_x_6,stim_pos_x_7,stim_pos_x_8,stim_pos_x_9,stim_pos_y_28,stim_pos_y_29,targetPos,stim_pos_y_20,stim_pos_y_21,stim_pos_y_22,stim_pos_y_23,stim_pos_y_24,stim_pos_x_0,stim_pos_y_26,stim_pos_y_27,d_ori_9,d_ori_8,d_ori_3,d_ori_2,d_ori_1,d_ori_0,d_ori_7,d_ori_6,d_ori_5,d_ori_4,trialN,dtype_prime,stim_pos_x_18,stim_pos_x_19,stim_pos_x_12,stim_pos_x_13,stim_pos_x_10,stim_pos_x_11,stim_pos_x_16,stim_pos_x_17,stim_pos_x_14,stim_pos_x_15,stim_pos_y_9,stim_pos_y_8,d_ori_19,d_ori_18,stim_pos_y_1,stim_pos_y_0,stim_pos_y_3,stim_pos_y_2,stim_pos_y_5,stim_pos_y_4,stim_pos_y_7,stim_pos_y_6,totBlockN,stim_pos_x_27,stim_pos_x_26,stim_pos_x_25,stim_pos_x_24,stim_pos_x_23,stim_pos_x_22,stim_pos_x_21,stim_pos_x_20,blockN,stim_pos_x_29,stim_pos_x_28,prevDistrCTPD,prevDistrMean,prevDistrType,trials.thisRepN,trials.thisTrialN,trials.thisN,trials.thisIndex,timeStart,timeBeforeDraw,timeDraw,timeAfterSaving,timeAfterWritingToTemp,timeAfterPreparingNext,answer,correct,rt,trialScore,session,participant,resolution,cpu_info,expName,pc_name,graphic_card,date,monitorName,
192.1,187.9,175.5,171.6,36,20,171.5,187.6,171.6,171.5,8.004,7.777,8.385,8.162,7.659,7.518,8.108,4.362,-4.405,-8.13,1.95,-2.063,7.722,4.735,-4.823,-8.123,157.3,187.2,-7.584,177.8,178.4,189.0,162.0,174.5,36,,4,5,prime,10,0,74,norm,36,-4.328,up,norm,175.881331667,183.7,169.3,185.2,171.3,3,183.5,163.9,185.1,10,5,8.106,4.939,2.024,-1.169,-5.114,-8.151,157.7,5,249.9,-8.443,-7.76,20,-8.412,-8.093,-4.696,-4.813,-5.139,-5.276,4.538,7.824,27,-1.521,1.35,4.977,8.246,-8.291,-8.322,-1.681,1.46,166.8,172.1,195.9,155.9,176.9,170.0,170.8,179.5,161.1,174.7,0,norm,1.866,1.675,-1.468,-2.029,-5.199,-4.418,-1.791,-1.127,-1.436,-1.894,1.124,-1.285,191.9,177.2,-5.188,-7.612,1.662,-1.293,7.814,4.841,-4.443,-8.228,0,4.407,4.63,4.37,4.867,1.139,1.409,1.573,1.868,0,5.07,4.32,,,,0,0,0,0,174.421,174.441,174.462195129,174.462,174.463,174.465,up,1,2.67109101446,7.32890898554,001,010,1920_1080,Intel(R) Core(TM) i5-3570 CPU @ 3.40GHz,orientation_search,LEPPC096,Intel(R) HD Graphics 2500,2018_Oct_25_1214,testMonitor,
172.8,166.6,185.1,168.8,36,20,165.7,167.6,179.7,176.2,7.975,7.824,8.186,8.482,8.07,8.227,7.531,4.321,-4.355,-8.48,1.644,-1.351,7.849,4.814,-4.589,-7.628,181.4,189.2,-7.946,185.0,173.9,163.2,171.5,166.9,36,170.5,0,5,prime,10,0,99,norm,36,-4.943,down,norm,175.881331667,178.6,172.2,179.1,186.3,0,172.3,183.1,176.0,10,5,8.022,5.282,1.707,-1.399,-5.082,-8.08,179.0,5,274.9,-7.956,-7.933,20,-7.808,-8.071,-5.125,-5.179,-4.951,-5.016,4.93,7.778,0,-1.955,1.598,4.851,8.173,-8.092,-7.768,-1.536,1.265,178.3,155.9,171.4,156.8,184.7,,172.0,184.3,195.9,175.9,1,norm,1.538,2.075,-1.871,-1.905,-4.308,-4.747,-2.055,-1.47,-1.469,-1.683,1.839,-1.433,164.2,167.9,-4.938,-7.803,2.067,-2.045,8.467,5.126,-4.381,-8.157,0,4.781,5.196,5.219,4.691,1.317,1.732,2.097,1.377,0,4.901,4.349,,,,0,1,1,1,177.169,177.178,177.186983833,177.187,177.188,177.191,up,0,2.51949723503,-10,001,010,1920_1080,Intel(R) Core(TM) i5-3570 CPU @ 3.40GHz,orientation_search,LEPPC096,Intel(R) HD Graphics 2500,2018_Oct_25_1214,testMonitor,
182.7,185.9,168.8,172.9,36,20,158.4,166.3,163.9,176.5,8.482,7.776,8.382,8.474,7.804,7.856,7.637,4.368,-4.315,-8.424,1.39,-1.964,7.735,4.681,-4.959,-7.811,163.1,173.8,-8.083,182.0,195.9,177.9,172.9,186.3,36,177.9,1,5,prime,10,0,99,norm,36,-4.493,down,norm,175.881331667,178.8,166.7,178.5,166.2,1,180.8,155.9,190.1,10,5,7.936,4.414,1.508,-1.887,-4.646,-7.943,184.1,5,274.9,-8.485,-8.388,20,-8.002,-8.061,-5.024,-5.059,-5.08,-4.349,4.474,8.205,7,-2.092,1.742,4.315,8.424,-8.006,-8.325,-1.763,1.918,177.1,170.5,164.1,180.3,182.0,178.2,,190.9,188.3,184.8,2,norm,2.078,1.959,-2.066,-1.2,-4.518,-4.352,-1.694,-1.693,-1.261,-1.188,1.463,-1.643,157.9,162.0,-4.67,-8.227,1.309,-1.579,7.702,4.49,-5.236,-8.416,0,5.07,5.048,5.043,4.794,1.934,2.057,1.926,1.375,0,5.101,5.001,,,,0,2,2,2,180.764,180.773,180.790717744,180.791,180.793,180.795,up,0,3.1259900751,-10,001,010,1920_1080,Intel(R) Core(TM) i5-3570 CPU @ 3.40GHz,orientation_search,LEPPC096,Intel(R) HD Graphics 2500,2018_Oct_25_1214,testMonitor,
,195.9,171.6,189.0,36,20,178.4,185.9,183.4,176.7,7.883,8.298,8.315,7.66,8.28,8.073,7.702,5.148,-4.33,-7.633,1.862,-1.313,8.285,4.83,-5.012,-7.625,186.1,179.6,-8.068,162.5,173.7,179.7,163.1,173.1,36,159.0,3,5,prime,10,0,113,norm,36,-4.622,up,norm,175.881331667,183.1,174.4,173.8,167.1,4,166.7,184.4,180.9,10,5,8.068,5.152,1.484,-1.835,-4.714,-8.295,170.4,5,288.9,-7.777,-7.735,20,-8.263,-8.217,-5.111,-4.374,-5.283,-4.336,4.838,7.86,22,-1.163,1.482,5.142,8.253,-8.209,-7.839,-1.589,2.056,170.4,171.4,171.8,160.4,173.8,176.6,180.3,155.9,171.4,179.2,3,norm,1.672,1.147,-1.875,-2.067,-4.937,-4.367,-1.742,-1.906,-1.625,-1.98,1.31,-1.967,178.1,171.8,-5.16,-7.883,1.834,-1.417,8.1,4.968,-4.718,-8.326,0,5.027,5.225,5.147,5.282,1.202,1.741,2.029,1.571,0,5.038,5.273,,,,0,3,3,3,184.988,184.996,185.003632489,185.004,185.005,185.008,up,1,2.36233398131,7.63766601869,001,010,1920_1080,Intel(R) Core(TM) i5-3570 CPU @ 3.40GHz,orientation_search,LEPPC096,Intel(R) HD Graphics 2500,2018_Oct_25_1214,testMonitor,
191.4,186.7,195.9,191.4,36,20,166.4,182.1,168.2,186.5,7.704,8.068,7.696,7.534,8.274,8.394,8.357,4.624,-4.652,-7.672,1.137,-1.86,8.283,4.309,-4.794,-7.571,172.3,178.3,-7.743,169.9,178.5,176.9,175.2,162.0,36,158.5,0,5,prime,10,0,84,norm,36,-4.428,up,norm,175.881331667,170.9,170.4,187.7,166.4,3,176.2,194.0,190.1,10,5,8.463,4.303,1.3,-1.552,-4.902,-7.996,165.2,5,259.9,-8.46,-7.536,20,-8.194,-7.601,-4.462,-5.142,-5.243,-4.967,4.85,7.627,3,-1.711,1.108,4.611,7.703,-7.88,-7.768,-1.591,1.726,178.4,180.2,,161.8,174.3,158.1,174.7,170.8,169.3,155.9,4,norm,1.999,1.317,-1.283,-1.458,-4.983,-4.361,-1.714,-1.831,-1.476,-2.05,1.358,-1.429,160.5,187.3,-4.902,-7.901,1.377,-1.343,8.412,4.336,-4.654,-7.861,0,4.698,4.995,5.292,4.427,1.608,1.15,1.643,1.574,0,4.982,4.776,,,,0,4,4,4,187.39,187.399,187.405889136,187.406,187.408,187.41,down,0,6.02306874985,-10,001,010,1920_1080,Intel(R) Core(TM) i5-3570 CPU @ 3.40GHz,orientation_search,LEPPC096,Intel(R) HD Graphics 2500,2018_Oct_25_1214,testMonitor,
281.7,280.0,292.0,289.8,36,10,291.9,288.8,281.7,285.7,7.648,7.697,8.396,8.152,8.19,7.714,7.608,5.19,-5.267,-7.6,1.933,-1.646,7.566,4.975,-4.72,-7.904,296.1,295.6,-8.491,291.2,277.5,278.5,286.8,291.5,36,290.3,0,5,probe,5,0,96,norm,36,-4.434,up,norm,287.524971061,285.7,282.8,293.6,291.5,3,289.2,284.0,287.0,10,5,7.621,5.076,1.387,-1.811,-4.73,-8.13,297.5,1,191.5,-7.502,-8.103,20,-7.896,-7.596,-5.09,-5.051,-4.994,-5.287,4.564,8.268,3,-1.991,2.003,5.235,8.163,-8.384,-8.215,-2.094,2.017,291.6,283.0,,293.7,283.9,286.7,293.1,295.7,287.8,288.6,0,norm,1.485,1.334,-1.711,-1.303,-4.883,-4.587,-1.804,-1.15,-2.0,-1.285,1.758,-1.497,288.0,291.8,-5.166,-7.73,1.507,-2.097,7.521,4.747,-4.554,-7.799,1,4.817,4.833,5.061,5.137,1.231,1.47,1.271,1.697,1,4.326,5.208,20,175.881331667,norm,0,5,5,5,194.507,194.518,194.523032528,194.523,194.525,194.527,up,1,1.24765641979,8.75234358021,001,010,1920_1080,Intel(R) Core(TM) i5-3570 CPU @ 3.40GHz,orientation_search,LEPPC096,Intel(R) HD Graphics 2500,2018_Oct_25_1214,testMonitor,
236.5,244.9,221.4,230.3,36,60,232.5,224.9,227.5,211.8,7.975,7.703,8.476,7.615,7.95,8.13,8.124,4.301,-4.856,-7.552,1.273,-1.796,7.936,4.689,-5.257,-7.815,241.2,245.9,-7.644,240.0,205.9,218.7,230.5,216.8,36,233.0,3,5,prime,10,0,97,norm,36,-4.569,down,norm,225.914379238,214.9,238.9,227.1,241.3,0,232.3,218.1,232.1,10,6,7.684,5.267,1.688,-1.333,-5.144,-8.38,215.2,6,322.9,-8.284,-7.542,60,-8.188,-7.592,-4.434,-5.24,-4.991,-5.249,4.398,8.277,18,-1.574,1.317,4.496,7.933,-8.199,-8.019,-1.365,1.441,231.9,216.7,223.5,226.8,220.2,220.3,236.4,225.1,223.6,229.5,0,norm,2.064,1.994,-2.017,-1.939,-5.118,-5.266,-1.766,-1.854,-1.184,-1.451,1.247,-1.928,245.5,,-4.706,-8.299,1.583,-1.965,8.106,5.219,-4.682,-7.586,2,4.301,5.086,4.625,5.198,1.395,2.009,1.615,1.605,2,4.726,4.866,10,175.881331667,norm,0,6,6,6,195.814,195.823,195.831546268,195.832,195.833,195.836,down,1,1.3472600879,8.6527399121,001,010,1920_1080,Intel(R) Core(TM) i5-3570 CPU @ 3.40GHz,orientation_search,LEPPC096,Intel(R) HD Graphics 2500,2018_Oct_25_1214,testMonitor,
222.9,231.5,210.4,232.9,36,60,231.3,227.2,228.2,227.5,8.178,8.294,8.481,8.141,8.452,8.343,7.699,4.515,-4.95,-8.342,1.456,-2.015,8.399,4.374,-5.048,-8.262,213.4,218.4,-8.079,242.3,245.1,216.6,229.4,224.8,36,221.1,0,5,prime,10,0,105,norm,36,-4.392,up,norm,225.914379238,217.5,245.9,223.4,211.3,5,229.2,227.1,219.3,10,6,8.441,4.647,2.068,-1.536,-4.792,-7.671,205.9,6,330.9,-8.224,-7.83,60,-8.21,-7.529,-4.504,-4.867,-4.882,-4.758,4.794,8.028,5,-1.859,1.79,4.947,7.774,-7.501,-8.064,-1.505,1.552,240.1,213.5,212.3,236.9,221.0,210.0,217.1,215.7,,235.0,1,norm,1.398,1.252,-1.493,-2.036,-4.882,-4.829,-2.038,-1.545,-1.446,-1.99,1.924,-1.88,229.0,218.1,-5.228,-7.784,1.372,-1.694,8.309,4.389,-4.772,-8.052,2,4.567,4.69,5.044,5.157,2.006,1.873,1.804,1.646,2,4.474,4.46,10,175.881331667,norm,0,7,7,7,197.218,197.228,197.233559018,197.234,197.235,197.238,up,1,0.908195286278,9.09180471372,001,010,1920_1080,Intel(R) Core(TM) i5-3570 CPU @ 3.40GHz,orientation_search,LEPPC096,Intel(R) HD Graphics 2500,2018_Oct_25_1214,testMonitor,
211.8,219.4,205.9,233.7,36,60,223.9,223.7,,221.5,7.926,8.027,7.77,8.163,8.033,7.961,7.616,5.065,-4.714,-8.058,1.323,-2.078,8.414,5.267,-4.538,-8.093,206.5,235.4,-8.442,236.7,223.3,233.9,219.8,222.9,36,234.0,4,5,prime,10,0,77,norm,36,-4.825,up,norm,225.914379238,238.5,231.0,240.4,232.7,4,225.3,219.9,212.2,10,6,7.729,4.566,1.559,-1.567,-4.795,-8.249,218.2,6,302.9,-7.724,-8.389,60,-7.953,-7.552,-4.474,-5.079,-5.112,-5.076,4.501,7.855,28,-2.043,1.33,4.935,7.862,-7.674,-7.744,-1.6,1.25,230.8,219.1,236.9,215.5,215.7,245.9,234.9,231.8,228.4,228.2,2,norm,1.418,1.419,-1.856,-1.951,-4.372,-4.435,-1.545,-1.13,-1.59,-1.652,1.856,-2.04,229.2,208.3,-4.503,-8.237,1.132,-1.291,7.596,4.859,-4.536,-7.908,2,5.267,4.666,5.195,4.447,1.365,1.725,1.572,1.727,2,4.595,4.94,10,175.881331667,norm,0,8,8,8,198.185,198.194,198.20091431,198.201,198.203,198.205,up,1,1.379461375,8.620538625,001,010,1920_1080,Intel(R) Core(TM) i5-3570 CPU @ 3.40GHz,orientation_search,LEPPC096,Intel(R) HD Graphics 2500,2018_Oct_25_1214,testMonitor,
221.7,243.9,222.1,238.6,36,60,217.7,221.4,214.8,245.9,8.035,8.448,7.832,7.801,8.124,8.489,7.537,4.407,-4.634,-8.156,1.382,-1.981,8.411,4.433,-4.976,-8.073,215.5,219.4,-8.078,,214.7,227.5,226.3,233.3,36,225.8,5,5,prime,10,0,98,norm,36,-4.53,down,norm,225.914379238,219.3,217.2,228.9,217.8,1,215.2,217.8,225.9,10,6,7.907,4.619,1.693,-1.609,-5.169,-7.576,205.9,6,323.9,-8.221,-7.529,60,-8.317,-8.473,-4.491,-4.781,-4.757,-4.89,4.928,7.828,31,-1.545,1.489,4.523,7.749,-7.943,-8.04,-1.144,1.328,207.7,227.9,210.8,209.5,237.2,216.8,206.0,229.8,213.3,233.4,3,norm,1.18,1.231,-1.77,-2.094,-4.56,-4.802,-1.145,-2.023,-1.407,-1.91,1.888,-1.213,217.0,227.6,-4.853,-7.925,1.156,-1.114,8.153,4.317,-4.642,-8.227,2,4.704,4.329,5.063,4.718,1.96,1.738,1.462,1.319,2,5.021,4.67,10,175.881331667,norm,0,9,9,9,199.604,199.615,199.620490329,199.621,199.623,199.625,down,1,1.28173734032,8.71826265968,001,010,1920_1080,Intel(R) Core(TM) i5-3570 CPU @ 3.40GHz,orientation_search,LEPPC096,Intel(R) HD Graphics 2500,2018_Oct_25_1214,testMonitor,
230.3,225.5,237.6,220.0,36,60,233.1,245.9,226.2,230.2,8.325,7.555,8.437,8.444,7.643,7.993,7.663,4.554,-4.953,-8.193,1.256,-1.486,7.612,4.686,-5.061,-7.898,222.7,212.2,-8.29,227.3,213.7,216.0,223.3,232.1,36,,4,5,prime,10,0,93,norm,36,-4.772,up,norm,225.914379238,215.4,228.6,219.7,213.3,3,230.4,231.2,236.5,10,6,8.14,4.654,1.136,-1.833,-5.114,-8.362,222.2,6,318.9,-7.691,-8.305,60,-8.127,-8.075,-4.975,-5.183,-4.773,-4.382,4.738,7.86,27,-1.738,1.613,4.663,7.812,-7.851,-8.268,-2.01,1.963,223.0,223.9,220.2,213.5,223.3,224.8,205.9,213.2,216.7,229.0,4,norm,1.622,1.608,-1.984,-1.928,-4.819,-4.974,-2.068,-1.257,-1.126,-1.825,1.34,-1.952,219.7,234.4,-4.889,-7.75,1.678,-1.312,7.872,4.473,-4.313,-7.686,2,4.303,4.518,4.684,5.02,1.288,1.614,1.548,1.153,2,4.318,4.636,10,175.881331667,norm,0,10,10,10,200.947,200.968,200.978671428,200.979,200.981,200.983,up,1,0.875933025041,9.12406697496,001,010,1920_1080,Intel(R) Core(TM) i5-3570 CPU @ 3.40GHz,orientation_search,LEPPC096,Intel(R) HD Graphics 2500,2018_Oct_25_1214,testMonitor,
,225.8,225.2,229.5,36,60,230.1,237.3,221.6,217.7,7.553,8.266,8.48,7.533,7.824,8.242,8.349,5.117,-4.317,-7.596,1.466,-1.371,8.127,4.514,-4.315,-8.405,222.4,210.3,-8.346,245.9,218.8,228.2,209.3,243.6,36,214.1,3,5,prime,10,0,101,norm,36,-5.291,up,norm,225.914379238,231.1,226.9,227.8,221.9,4,229.7,239.8,222.6,10,6,7.598,5.196,1.85,-2.07,-4.829,-7.958,219.3,6,326.9,-7.815,-7.888,60,-8.369,-7.909,-4.688,-4.421,-4.668,-5.203,4.879,7.695,22,-1.285,1.578,5.172,7.995,-7.84,-8.119,-1.322,1.953,217.9,220.5,241.2,205.9,232.2,234.4,226.5,214.0,231.4,222.3,5,norm,1.445,1.998,-1.425,-1.585,-4.867,-4.728,-1.172,-1.13,-1.5,-1.613,1.76,-1.608,238.8,228.7,-4.321,-7.828,1.467,-1.859,8.079,5.183,-5.065,-8.114,2,5.073,4.37,5.17,4.647,1.553,1.422,1.825,1.878,2,4.679,4.589,10,175.881331667,norm,0,11,11,11,201.897,201.907,201.915047029,201.915,201.917,201.92,up,1,0.704697725241,9.29530227476,001,010,1920_1080,Intel(R) Core(TM) i5-3570 CPU @ 3.40GHz,orientation_search,LEPPC096,Intel(R) HD Graphics 2500,2018_Oct_25_1214,testMonitor,
362.3,367.0,367.3,372.0,36,10,373.9,374.7,370.2,378.1,8.462,8.446,8.255,7.72,8.418,7.751,8.224,4.508,-5.082,-8.052,1.375,-1.239,8.421,5.109,-4.329,-8.106,373.1,371.6,-8.183,,369.7,374.1,376.1,368.5,36,366.8,5,5,probe,5,0,96,norm,36,-5.023,down,norm,372.267180151,372.0,374.6,371.5,379.1,1,368.9,373.6,370.8,10,6,8.016,5.018,1.994,-1.292,-4.904,-8.002,373.4,1,276.3,-7.564,-7.542,60,-7.967,-7.862,-4.503,-5.149,-5.05,-4.34,4.551,8.344,31,-1.32,1.778,4.916,7.587,-8.219,-8.059,-2.026,1.472,369.9,371.6,371.5,368.6,373.5,370.1,382.3,375.7,379.1,370.2,0,norm,1.228,1.579,-1.685,-1.996,-4.913,-5.144,-2.033,-1.609,-1.157,-1.51,1.704,-1.963,366.4,364.2,-4.745,-7.62,1.345,-1.92,7.775,4.735,-4.353,-8.308,3,4.639,4.565,4.315,5.0,1.546,1.748,2.064,1.501,3,5.08,4.923,60,225.914379238,norm,0,12,12,12,202.657,202.667,202.676942117,202.677,202.679,202.682,down,1,1.06246921108,8.93753078892,001,010,1920_1080,Intel(R) Core(TM) i5-3570 CPU @ 3.40GHz,orientation_search,LEPPC096,Intel(R) HD Graphics 2500,2018_Oct_25_1214,testMonitor,
221.8,213.3,205.7,218.3,36,-60,201.2,191.7,195.0,203.3,7.712,8.265,7.723,7.535,7.536,7.809,7.87,4.367,-4.972,-7.959,1.324,-1.118,7.502,4.769,-4.42,-8.361,197.3,194.9,-7.723,221.2,201.4,221.3,215.9,194.0,36,212.4,1,5,prime,10,0,99,norm,36,-5.187,up,norm,208.763089364,193.4,199.0,210.3,218.8,3,192.0,222.5,218.1,10,6,8.32,4.425,1.395,-1.19,-4.342,-7.654,205.0,6,307.8,-8.157,-8.404,-60,-7.865,-8.044,-4.383,-4.321,-5.19,-4.962,4.624,7.594,9,-1.35,1.777,5.104,7.701,-8.132,-7.52,-1.69,1.923,,220.3,203.2,204.5,208.0,210.2,209.3,213.4,228.8,188.8,0,norm,1.284,1.904,-1.779,-1.196,-4.863,-5.099,-1.573,-1.677,-1.821,-1.21,1.526,-1.922,207.9,203.2,-5.191,-7.579,1.892,-1.228,8.463,4.331,-4.94,-7.677,4,4.979,4.436,5.249,4.647,1.936,1.804,1.365,1.821,4,4.873,4.433,10,225.914379238,norm,0,13,13,13,203.777,203.787,203.800124665,203.8,203.802,203.805,up,1,0.687561577841,9.31243842216,001,010,1920_1080,Intel(R) Core(TM) i5-3570 CPU @ 3.40GHz,orientation_search,LEPPC096,Intel(R) HD Graphics 2500,2018_Oct_25_1214,testMonitor,
203.9,220.1,190.5,217.8,36,-60,212.8,222.5,213.5,207.0,8.301,8.295,7.772,7.615,7.939,7.916,8.09,5.11,-4.402,-7.702,1.231,-1.501,8.241,4.445,-4.7,-8.446,218.9,220.8,-8.087,228.8,204.6,190.7,201.2,198.5,36,212.7,1,5,prime,10,0,84,norm,36,-4.902,down,norm,208.763089364,206.0,192.5,206.1,200.1,2,214.2,194.5,218.6,10,6,7.612,5.207,1.312,-1.711,-4.979,-7.975,203.6,6,292.8,-8.126,-8.159,-60,-7.703,-8.249,-4.393,-4.554,-5.28,-4.495,4.855,8.213,8,-1.399,1.214,4.975,8.385,-8.401,-7.74,-1.508,1.669,198.7,,218.8,190.7,188.8,201.7,209.7,200.7,212.7,206.3,1,norm,1.711,1.851,-1.365,-1.724,-5.164,-4.45,-1.699,-1.147,-1.716,-1.681,1.456,-1.515,201.1,207.9,-4.986,-8.335,1.702,-2.094,8.435,4.685,-4.7,-8.413,4,4.435,4.38,5.069,4.726,1.861,1.506,1.477,1.238,4,5.28,4.461,10,225.914379238,norm,0,14,14,14,204.534,204.543,204.549765159,204.55,204.552,204.554,down,1,1.88789603004,8.11210396996,001,010,1920_1080,Intel(R) Core(TM) i5-3570 CPU @ 3.40GHz,orientation_search,LEPPC096,Intel(R) HD Graphics 2500,2018_Oct_25_1214,testMonitor,
211.2,216.0,207.8,212.6,36,-60,205.8,203.0,212.5,215.2,8.238,8.377,7.731,7.686,8.317,8.192,8.143,4.849,-4.579,-8.148,1.853,-1.243,8.086,4.669,-4.831,-8.066,218.1,213.4,-7.83,213.4,206.8,199.4,223.2,214.4,36,195.1,2,5,prime,10,0,94,norm,36,-5.112,down,norm,208.763089364,210.4,212.8,210.5,,2,211.9,204.9,209.2,10,6,8.262,5.286,1.757,-1.896,-4.516,-7.765,188.8,6,302.8,-8.292,-7.647,-60,-8.458,-8.167,-4.975,-4.358,-4.938,-4.475,4.553,7.582,14,-2.066,1.602,4.978,7.725,-8.076,-7.834,-1.599,1.678,226.7,209.4,208.2,202.5,204.3,191.8,227.6,223.3,228.8,219.5,2,norm,1.877,1.782,-1.152,-1.467,-4.52,-5.033,-1.451,-1.906,-1.382,-1.224,1.651,-1.195,216.7,194.5,-4.823,-8.217,1.646,-1.17,7.746,5.063,-4.508,-8.232,4,4.685,4.427,4.767,4.893,1.799,1.687,1.626,1.319,4,4.421,5.153,10,225.914379238,norm,0,15,15,15,206.474,206.484,206.498775989,206.499,206.501,206.503,up,0,0.738633153027,-10,001,010,1920_1080,Intel(R) Core(TM) i5-3570 CPU @ 3.40GHz,orientation_search,LEPPC096,Intel(R) HD Graphics 2500,2018_Oct_25_1214,testMonitor,
201.8,206.1,208.3,204.9,36,-60,199.2,222.0,211.5,202.1,7.727,7.87,7.864,8.484,8.055,7.73,7.76,4.971,-4.676,-7.945,1.715,-1.801,7.501,5.271,-4.422,-8.215,218.0,214.6,-8.017,195.8,223.0,228.8,195.3,201.7,36,213.2,0,5,prime,10,0,79,norm,36,-4.928,down,norm,208.763089364,188.8,203.6,209.1,204.4,0,212.0,212.4,213.0,10,6,7.67,4.428,1.266,-1.905,-4.703,-8.111,205.4,6,287.8,-7.95,-8.457,-60,-8.484,-8.396,-5.078,-4.853,-4.794,-4.492,4.312,7.518,0,-1.512,1.353,4.509,8.18,-7.928,-8.197,-2.081,1.117,210.5,219.5,202.3,216.9,201.9,,217.8,215.9,193.1,199.4,3,norm,1.814,1.987,-1.758,-1.744,-5.031,-4.427,-1.973,-1.439,-1.365,-1.293,1.445,-2.093,203.6,202.5,-5.187,-8.469,1.345,-1.842,8.4,4.336,-5.207,-7.601,4,5.131,5.203,5.029,5.241,1.13,1.932,2.008,1.819,4,4.854,4.918,10,225.914379238,norm,0,16,16,16,208.291,208.301,208.308360399,208.309,208.31,208.313,down,1,2.09359681003,7.90640318997,001,010,1920_1080,Intel(R) Core(TM) i5-3570 CPU @ 3.40GHz,orientation_search,LEPPC096,Intel(R) HD Graphics 2500,2018_Oct_25_1214,testMonitor,
219.1,218.3,228.8,197.0,36,-60,193.6,210.3,212.3,208.1,8.377,8.29,8.334,8.146,8.272,7.617,8.285,4.395,-4.356,-8.429,1.849,-2.031,8.349,4.382,-4.648,-8.467,222.9,195.2,-7.793,221.7,207.0,209.0,221.5,208.2,36,214.6,2,5,prime,10,0,119,norm,36,-4.67,down,norm,208.763089364,211.1,212.2,210.8,,2,210.4,219.7,215.2,10,6,7.971,4.509,1.314,-1.234,-4.335,-7.626,218.8,6,327.8,-8.192,-7.921,-60,-8.469,-8.372,-4.345,-5.23,-5.151,-5.224,4.835,8.086,14,-1.98,1.674,4.9,7.58,-7.626,-7.932,-1.812,1.651,188.8,210.3,208.0,196.1,221.3,205.4,204.1,211.6,215.8,210.6,4,norm,1.199,1.84,-1.719,-1.469,-4.559,-4.394,-2.091,-1.948,-1.431,-1.763,1.475,-2.054,192.5,205.6,-4.306,-8.302,1.186,-1.747,7.99,5.07,-4.986,-8.328,4,4.358,4.461,4.686,4.895,1.188,2.035,1.265,1.434,4,4.722,4.604,10,225.914379238,norm,0,17,17,17,210.446,210.456,210.464078083,210.464,210.466,210.468,down,1,0.955725833715,9.04427416628,001,010,1920_1080,Intel(R) Core(TM) i5-3570 CPU @ 3.40GHz,orientation_search,LEPPC096,Intel(R) HD Graphics 2500,2018_Oct_25_1214,testMonitor,
222.7,194.1,,224.0,36,-60,220.0,228.8,223.2,200.3,8.137,7.717,7.927,7.985,7.857,8.193,8.361,5.149,-4.483,-8.057,1.502,-1.633,8.481,4.892,-4.896,-8.425,217.1,209.7,-7.654,191.4,204.7,199.3,205.8,219.5,36,201.9,3,5,prime,10,0,116,norm,36,-4.352,down,norm,208.763089364,191.7,198.3,217.0,221.8,2,212.7,207.7,203.8,10,6,7.671,5.091,1.525,-1.664,-5.193,-7.742,201.9,6,324.8,-7.539,-8.105,-60,-7.704,-7.951,-4.435,-5.23,-4.859,-4.702,4.707,8.038,20,-1.227,1.609,4.339,7.981,-8.292,-8.053,-1.543,1.506,200.2,208.8,197.6,208.7,219.8,212.2,188.8,216.8,201.2,193.0,5,norm,1.942,1.42,-1.436,-1.166,-4.329,-4.939,-1.735,-1.137,-1.822,-1.447,1.795,-1.175,219.2,205.7,-4.915,-8.33,2.033,-1.581,7.758,4.94,-4.886,-7.94,4,4.554,5.173,5.127,5.051,1.478,1.553,1.305,1.896,4,5.094,4.527,10,225.914379238,norm,0,18,18,18,211.444,211.454,211.460422352,211.461,211.462,211.465,down,1,0.655216910965,9.34478308903,001,010,1920_1080,Intel(R) Core(TM) i5-3570 CPU @ 3.40GHz,orientation_search,LEPPC096,Intel(R) HD Graphics 2500,2018_Oct_25_1214,testMonitor,
220.4,216.0,228.0,222.7,36,0,226.5,,215.6,220.9,8.45,8.232,8.428,7.551,8.294,7.744,7.692,5.113,-4.325,-8.162,1.63,-1.677,7.627,4.731,-4.532,-7.856,224.0,214.6,-8.388,222.6,220.5,231.0,222.4,215.3,36,221.7,4,5,probe,5,0,73,norm,36,-4.986,down,norm,221.034202147,220.2,222.8,225.6,214.3,1,212.6,213.5,218.8,10,6,7.551,4.837,1.202,-1.504,-4.369,-8.479,218.0,2,148.0,-8.419,-8.376,-60,-8.391,-7.814,-5.176,-4.659,-4.39,-5.187,4.308,7.597,25,-1.768,1.318,5.101,7.793,-8.468,-8.387,-1.434,1.997,225.2,218.6,218.6,223.9,219.1,227.0,223.7,217.2,226.6,211.0,0,norm,1.146,1.723,-1.534,-1.594,-4.827,-4.657,-1.6,-1.931,-1.105,-1.23,1.103,-1.614,223.4,227.7,-4.814,-8.341,2.08,-1.357,8.198,5.006,-4.611,-7.74,5,4.937,5.076,5.175,4.935,2.057,1.766,2.055,1.37,5,5.233,4.892,-60,208.763089364,norm,0,19,19,19,212.153,212.162,212.177097269,212.177,212.179,212.182,down,1,0.771635253917,9.22836474608,001,010,1920_1080,Intel(R) Core(TM) i5-3570 CPU @ 3.40GHz,orientation_search,LEPPC096,Intel(R) HD Graphics 2500,2018_Oct_25_1214,testMonitor,
214.4,229.7,226.7,229.1,36,0,224.8,220.6,222.1,218.5,8.055,7.51,8.248,7.849,8.365,7.679,8.149,4.751,-5.079,-7.751,1.279,-1.214,8.045,4.494,-4.558,-8.018,218.3,210.0,-7.681,215.7,221.0,221.3,217.0,226.2,36,225.7,1,5,probe,5,0,72,norm,36,-4.638,up,norm,220.034202147,221.6,218.8,217.1,220.1,4,226.9,217.3,216.6,10,6,7.793,4.815,1.831,-1.136,-5.106,-8.232,,2,148.0,-7.804,-7.804,-60,-8.287,-7.544,-5.164,-5.208,-4.513,-4.911,4.699,8.117,10,-1.356,1.158,5.161,8.012,-7.895,-7.707,-1.915,1.741,224.0,222.9,216.0,225.1,214.9,214.3,228.1,216.4,223.2,228.1,1,norm,1.573,1.774,-1.285,-1.821,-5.01,-4.305,-2.034,-1.226,-1.956,-2.041,1.348,-1.394,230.0,219.4,-4.56,-8.335,1.995,-1.287,7.795,4.43,-4.762,-8.393,5,5.2,4.794,4.553,5.3,2.002,1.932,1.851,1.613,5,5.123,5.19,-60,208.763089364,norm,0,20,20,20,212.969,212.98,212.988282703,212.988,212.99,212.993,up,1,0.842588925647,9.15741107435,001,010,1920_1080,Intel(R) Core(TM) i5-3570 CPU @ 3.40GHz,orientation_search,LEPPC096,Intel(R) HD Graphics 2500,2018_Oct_25_1214,testMonitor,
63.0,70.7,86.4,71.6,36,40,71.5,72.2,69.2,48.1,7.729,8.079,7.735,8.085,8.353,8.243,7.548,4.775,-4.897,-8.002,1.898,-1.858,8.069,5.028,-4.569,-7.749,88.1,65.1,-7.523,73.1,52.1,53.1,80.4,72.8,36,67.5,2,5,prime,10,0,77,norm,36,-4.379,up,norm,68.0523917203,68.1,60.3,,63.3,3,63.7,56.6,62.3,10,6,7.908,4.403,1.205,-1.905,-4.75,-7.802,62.4,6,145.1,-7.54,-8.216,40,-7.75,-8.472,-4.5,-4.437,-4.644,-5.149,4.476,8.482,15,-1.608,1.713,4.904,8.377,-8.063,-7.749,-1.419,1.775,51.2,70.5,60.7,76.0,69.2,62.4,72.0,72.5,50.8,74.4,0,norm,1.582,1.169,-1.382,-1.294,-5.096,-4.51,-1.175,-2.091,-1.352,-1.948,1.828,-1.271,86.7,67.2,-5.06,-8.144,2.088,-1.876,7.669,4.396,-5.131,-8.324,6,4.75,4.507,4.649,4.787,1.594,1.367,1.816,1.611,6,4.684,5.01,0,208.763089364,norm,0,21,21,21,213.868,213.881,213.900460928,213.901,213.902,213.905,up,1,0.832119787014,9.16788021299,001,010,1920_1080,Intel(R) Core(TM) i5-3570 CPU @ 3.40GHz,orientation_search,LEPPC096,Intel(R) HD Graphics 2500,2018_Oct_25_1214,testMonitor,
65.2,69.3,67.4,60.1,36,40,77.1,70.0,74.6,75.5,8.252,8.382,8.268,7.983,7.803,8.324,7.886,4.424,-4.895,-7.846,1.987,-1.524,7.854,4.638,-4.993,-8.426,60.3,82.5,-7.783,73.4,67.8,80.1,88.1,69.2,36,84.5,2,5,prime,10,0,104,norm,36,-4.794,up,norm,68.0523917203,81.9,60.7,,74.9,3,48.1,76.5,71.0,10,6,8.428,5.251,1.218,-1.639,-4.449,-8.407,54.6,6,172.1,-7.731,-7.612,40,-8.473,-8.177,-5.102,-4.48,-4.394,-4.534,4.512,8.24,15,-1.607,1.856,5.151,8.478,-8.269,-8.311,-1.249,2.054,75.8,67.6,73.2,71.5,76.7,71.8,61.8,78.5,86.5,75.4,1,norm,1.166,2.058,-1.165,-1.941,-5.116,-5.171,-1.888,-1.605,-1.286,-1.471,1.829,-1.115,61.2,54.3,-5.263,-7.809,1.813,-1.554,8.06,5.12,-4.816,-7.639,6,4.729,4.471,4.331,4.803,1.873,1.323,1.54,1.619,6,4.424,4.972,0,208.763089364,norm,0,22,22,22,214.767,214.778,214.783170233,214.783,214.785,214.788,up,1,1.5509623047,8.4490376953,001,010,1920_1080,Intel(R) Core(TM) i5-3570 CPU @ 3.40GHz,orientation_search,LEPPC096,Intel(R) HD Graphics 2500,2018_Oct_25_1214,testMonitor,
56.5,83.3,71.5,68.5,36,40,48.3,88.1,64.4,67.5,7.924,7.615,7.512,7.653,7.837,8.075,8.234,5.103,-4.623,-7.807,1.634,-1.753,8.242,5.07,-5.042,-8.303,64.1,62.6,-8.054,64.3,61.4,66.8,62.2,58.3,36,72.7,1,5,prime,10,0,115,norm,36,-5.146,down,norm,68.0523917203,81.3,60.8,76.5,69.5,2,80.2,66.3,72.3,10,6,7.732,4.794,1.977,-1.55,-4.852,-8.223,48.1,6,183.1,-8.077,-7.849,40,-8.169,-7.852,-5.059,-5.128,-4.795,-5.281,5.051,7.653,8,-1.585,2.031,4.655,8.086,-7.886,-8.068,-1.125,1.542,68.8,,63.6,62.7,83.8,78.6,70.5,62.5,64.3,80.2,2,norm,2.013,1.41,-1.957,-1.829,-4.628,-4.924,-1.413,-2.062,-1.366,-1.301,2.077,-1.108,76.3,67.6,-5.285,-8.043,1.727,-1.78,8.116,4.956,-5.071,-7.785,6,5.22,4.961,4.448,4.719,1.665,1.889,2.057,1.131,6,4.919,4.321,0,208.763089364,norm,0,23,23,23,216.358,216.368,216.374294571,216.374,216.376,216.379,up,0,1.63698986984,-10,001,010,1920_1080,Intel(R) Core(TM) i5-3570 CPU @ 3.40GHz,orientation_search,LEPPC096,Intel(R) HD Graphics 2500,2018_Oct_25_1214,testMonitor,
64.3,62.7,61.4,72.5,36,40,65.0,88.1,85.3,62.6,8.2,8.264,7.888,7.894,8.288,7.713,8.198,4.74,-5.178,-7.595,1.468,-1.821,7.938,5.134,-5.125,-7.681,67.1,80.7,-7.826,77.2,75.0,59.1,48.8,67.9,36,49.3,0,5,prime,10,0,96,norm,36,-5.089,down,norm,68.0523917203,48.1,60.4,62.4,55.0,1,52.9,69.3,70.7,10,6,7.746,5.148,1.541,-1.268,-4.448,-8.268,59.0,6,164.1,-7.544,-8.138,40,-7.745,-8.052,-4.412,-5.091,-4.588,-5.244,4.56,7.544,1,-1.7,2.051,5.209,8.429,-8.496,-8.307,-1.405,1.328,70.7,56.7,50.4,63.6,,67.4,74.6,54.4,66.5,67.4,3,norm,1.759,2.065,-2.028,-1.569,-4.484,-4.673,-1.527,-1.378,-1.373,-2.001,1.206,-2.048,62.5,56.1,-4.316,-7.687,1.772,-1.805,8.216,4.788,-5.003,-8.179,6,4.939,5.283,4.941,4.378,1.233,1.103,1.927,1.482,6,5.134,4.43,0,208.763089364,norm,0,24,24,24,219.082,219.091,219.103343315,219.104,219.105,219.108,down,1,2.07702210765,7.92297789235,001,010,1920_1080,Intel(R) Core(TM) i5-3570 CPU @ 3.40GHz,orientation_search,LEPPC096,Intel(R) HD Graphics 2500,2018_Oct_25_1214,testMonitor,
68.3,58.5,65.7,70.5,36,40,48.1,85.0,,88.1,7.733,7.853,8.118,7.807,7.904,8.253,8.356,5.056,-4.505,-8.134,1.136,-1.562,8.087,4.719,-5.285,-8.166,74.4,78.8,-8.314,87.6,57.7,61.8,70.1,60.8,36,62.4,4,5,prime,10,0,113,norm,36,-4.804,up,norm,68.0523917203,71.7,63.5,74.6,53.7,4,64.4,68.1,54.5,10,6,8.19,4.332,1.517,-1.378,-4.316,-7.795,74.5,6,181.1,-7.873,-7.865,40,-7.87,-7.527,-4.463,-4.478,-4.473,-4.665,5.222,8.062,28,-1.434,1.197,5.149,7.688,-7.856,-8.386,-1.797,1.245,69.6,72.4,72.2,69.5,66.2,75.9,82.8,68.1,64.0,81.6,4,norm,1.385,1.667,-1.314,-1.648,-4.849,-4.482,-1.737,-1.462,-1.107,-1.932,1.561,-2.027,60.9,68.8,-5.221,-7.597,2.069,-1.924,8.098,4.492,-4.761,-8.399,6,4.815,4.606,4.332,5.274,1.696,1.998,1.134,1.974,6,5.25,5.165,0,208.763089364,norm,0,25,25,25,221.226,221.248,221.258042851,221.258,221.26,221.263,up,1,1.3143956316,8.6856043684,001,010,1920_1080,Intel(R) Core(TM) i5-3570 CPU @ 3.40GHz,orientation_search,LEPPC096,Intel(R) HD Graphics 2500,2018_Oct_25_1214,testMonitor,
63.7,81.6,75.4,78.0,36,40,66.9,70.7,61.2,73.6,8.375,8.24,8.183,8.312,8.339,8.135,7.742,4.831,-4.711,-8.1,1.222,-2.092,8.432,5.104,-4.801,-8.004,75.4,72.4,-8.137,,48.1,79.1,68.1,63.3,36,58.8,5,5,prime,10,0,67,norm,36,-5.291,down,norm,68.0523917203,81.3,70.7,53.3,68.1,1,74.3,64.0,66.2,10,6,7.611,4.485,1.18,-1.339,-5.237,-8.034,88.1,6,135.1,-8.145,-7.813,40,-7.738,-7.642,-4.544,-4.639,-5.155,-4.658,4.995,7.55,31,-1.665,1.661,4.826,8.016,-7.789,-7.818,-2.009,2.075,64.1,72.9,71.2,74.6,62.5,52.3,74.3,85.7,65.8,76.8,5,norm,1.628,1.589,-1.782,-1.293,-4.544,-5.273,-1.931,-1.487,-1.743,-1.932,1.522,-1.183,60.9,81.1,-4.647,-8.373,1.518,-1.397,8.394,4.874,-5.044,-7.622,6,4.882,4.321,4.921,4.635,1.102,1.696,1.474,2.08,6,4.815,4.484,0,208.763089364,norm,0,26,26,26,222.61,222.619,222.628752324,222.629,222.631,222.633,down,1,1.53539910893,8.46460089107,001,010,1920_1080,Intel(R) Core(TM) i5-3570 CPU @ 3.40GHz,orientation_search,LEPPC096,Intel(R) HD Graphics 2500,2018_Oct_25_1214,testMonitor,
217.5,224.5,228.1,217.2,36,0,212.7,226.4,228.2,222.2,7.889,7.886,7.815,8.361,7.927,8.142,8.333,4.679,-4.978,-8.306,1.317,-1.989,8.056,4.313,-5.157,-7.625,218.0,219.7,-8.111,212.1,222.7,219.4,218.8,222.7,36,209.5,3,5,probe,5,0,106,norm,36,-5.22,down,norm,219.501252813,218.1,218.7,222.8,215.1,0,218.1,217.1,210.3,10,6,8.107,5.261,1.326,-2.096,-4.943,-7.502,221.6,2,113.5,-7.834,-7.628,40,-8.338,-7.586,-4.684,-4.875,-5.029,-4.697,4.325,8.167,18,-1.309,1.152,4.368,7.961,-7.769,-7.615,-2.053,2.028,222.0,229.5,227.6,225.9,216.9,225.6,218.8,212.3,220.7,213.3,0,norm,1.876,1.493,-1.624,-2.06,-4.54,-4.956,-1.281,-1.651,-1.363,-1.427,1.434,-1.36,214.9,,-5.022,-8.282,2.039,-2.007,8.455,5.082,-4.543,-8.104,7,4.656,5.124,4.325,4.621,1.204,1.136,1.719,1.684,7,4.525,4.891,40,68.0523917203,norm,0,27,27,27,224.201,224.211,224.219855835,224.22,224.222,224.224,down,1,0.841541498636,9.15845850136,001,010,1920_1080,Intel(R) Core(TM) i5-3570 CPU @ 3.40GHz,orientation_search,LEPPC096,Intel(R) HD Graphics 2500,2018_Oct_25_1214,testMonitor,
186.7,183.1,185.2,179.5,36,0,181.4,188.2,188.9,180.3,8.443,8.365,8.071,8.118,7.834,8.484,7.784,5.181,-4.515,-8.207,1.935,-1.58,7.731,4.982,-4.725,-8.268,191.8,194.3,-8.096,189.7,192.6,183.1,186.2,182.5,36,,4,5,probe,5,0,74,norm,36,-4.948,up,norm,187.501252813,193.2,191.0,177.5,192.0,3,197.5,191.6,193.6,10,6,7.651,4.659,1.341,-1.745,-4.383,-8.45,191.2,2,113.5,-8.028,-7.583,40,-7.57,-8.115,-4.336,-5.097,-4.995,-4.972,4.355,8.185,27,-1.639,1.583,4.98,8.063,-8.164,-7.962,-1.122,1.806,195.7,188.5,184.5,186.6,185.9,186.1,182.0,187.0,185.9,190.3,1,norm,1.218,1.638,-1.574,-1.37,-4.71,-4.598,-1.765,-1.189,-1.428,-1.79,1.794,-1.808,185.8,193.4,-4.516,-8.403,1.998,-1.15,8.023,4.492,-5.249,-7.944,7,4.932,4.381,5.271,4.438,1.71,1.673,1.594,1.57,7,5.264,4.757,40,68.0523917203,norm,0,28,28,28,225.099,225.112,225.131071756,225.131,225.133,225.135,up,1,1.02853076477,8.97146923523,001,010,1920_1080,Intel(R) Core(TM) i5-3570 CPU @ 3.40GHz,orientation_search,LEPPC096,Intel(R) HD Graphics 2500,2018_Oct_25_1214,testMonitor,
146.1,166.6,161.3,163.0,36,-10,150.2,141.8,172.8,168.3,8.076,7.81,7.712,8.06,8.177,8.125,8.229,4.921,-4.483,-8.307,1.163,-1.197,7.767,4.829,-4.816,-8.039,167.4,156.2,-7.764,168.3,149.4,161.3,147.8,168.7,36,155.6,2,5,prime,10,0,72,norm,36,-4.55,up,norm,161.772971798,,161.6,168.8,169.2,5,170.0,154.7,167.5,10,5,8.052,5.201,2.094,-1.158,-4.366,-8.147,158.9,5,233.8,-8.276,-7.667,-10,-8.252,-7.616,-4.927,-5.294,-4.588,-5.057,4.814,7.948,17,-1.26,1.22,4.802,7.643,-7.656,-8.496,-1.539,1.421,151.5,150.1,162.6,178.8,156.8,169.3,169.7,181.8,163.0,169.7,0,norm,1.626,1.8,-1.731,-1.681,-4.458,-4.634,-1.58,-2.03,-1.333,-1.446,1.96,-2.086,163.1,162.1,-4.966,-8.106,1.241,-2.08,8.134,5.084,-4.752,-8.282,8,4.304,4.502,5.217,4.411,1.504,2.021,1.647,1.242,8,4.45,4.548,0,68.0523917203,norm,0,29,29,29,226.202,226.211,226.217594963,226.218,226.219,226.222,up,1,1.57086221052,8.42913778948,001,010,1920_1080,Intel(R) Core(TM) i5-3570 CPU @ 3.40GHz,orientation_search,LEPPC096,Intel(R) HD Graphics 2500,2018_Oct_25_1214,testMonitor,
154.9,169.8,162.7,163.3,36,-10,160.0,159.2,173.9,149.9,7.6,7.523,7.721,7.752,7.929,7.959,8.149,5.295,-4.519,-7.534,1.749,-1.431,8.043,5.203,-5.069,-7.66,168.4,164.7,-8.079,141.8,,151.7,175.2,164.8,36,142.3,5,5,prime,10,0,100,norm,36,-4.695,down,norm,161.772971798,155.5,158.5,166.5,151.8,0,161.1,163.5,160.1,10,5,8.104,4.67,2.014,-2.03,-4.659,-8.485,167.6,5,261.8,-7.837,-8.107,-10,-7.978,-7.881,-4.315,-5.184,-5.235,-4.971,5.116,7.506,30,-1.972,1.157,4.81,8.054,-8.473,-7.91,-1.674,1.908,153.9,173.1,153.6,181.8,147.7,167.2,152.5,166.9,157.2,150.9,1,norm,1.955,2.032,-1.286,-1.372,-5.176,-4.664,-1.817,-1.353,-1.445,-1.26,1.631,-2.076,148.0,146.6,-4.392,-7.998,1.295,-1.236,8.37,4.389,-4.916,-8.192,8,4.337,5.221,4.417,5.144,1.227,1.629,1.246,1.825,8,4.575,5.022,0,68.0523917203,norm,0,30,30,30,227.809,227.82,227.839045181,227.839,227.841,227.844,down,1,1.17733633576,8.82266366424,001,010,1920_1080,Intel(R) Core(TM) i5-3570 CPU @ 3.40GHz,orientation_search,LEPPC096,Intel(R) HD Graphics 2500,2018_Oct_25_1214,testMonitor,
,160.7,158.6,172.5,36,-10,163.9,149.9,173.4,164.9,7.59,8.02,7.976,7.57,7.764,7.635,7.689,5.236,-5.158,-7.77,1.125,-1.846,8.221,5.141,-5.217,-8.061,165.4,164.7,-7.829,156.0,162.6,156.4,162.1,159.8,36,150.9,3,5,prime,10,0,85,norm,36,-4.66,up,norm,161.772971798,147.0,158.0,156.7,181.8,4,150.6,170.9,157.2,10,5,7.541,5.028,1.5,-1.139,-4.764,-7.582,153.6,5,246.8,-8.082,-8.023,-10,-8.301,-7.849,-5.11,-5.062,-4.639,-4.409,4.558,8.462,22,-1.386,1.115,5.136,7.958,-8.231,-8.125,-1.925,1.922,156.6,166.2,160.2,156.9,167.7,173.4,156.9,150.5,166.2,158.4,2,norm,1.247,1.181,-1.465,-1.296,-4.996,-5.236,-1.865,-1.595,-1.995,-1.328,1.588,-1.915,157.4,141.8,-4.623,-8.145,1.181,-1.919,8.198,4.931,-4.565,-8.045,8,4.692,5.006,5.019,4.422,1.573,1.583,1.107,1.407,8,4.602,4.65,0,68.0523917203,norm,0,31,31,31,229.041,229.052,229.056724663,229.057,229.059,229.061,up,1,1.01213687184,8.98786312816,001,010,1920_1080,Intel(R) Core(TM) i5-3570 CPU @ 3.40GHz,orientation_search,LEPPC096,Intel(R) HD Graphics 2500,2018_Oct_25_1214,testMonitor,
155.8,149.5,168.3,179.0,36,-10,173.5,166.4,151.6,149.7,7.612,8.146,8.305,7.823,8.252,8.148,8.369,4.74,-4.643,-7.752,1.474,-1.102,7.797,4.618,-4.857,-7.582,148.1,171.1,-8.473,172.7,161.5,151.2,157.2,148.2,36,157.2,0,5,prime,10,0,107,norm,36,-4.342,down,norm,161.772971798,175.8,163.4,166.2,144.8,2,181.8,170.0,151.6,10,5,8.311,4.462,1.251,-1.948,-4.613,-7.749,150.8,5,268.8,-8.434,-8.039,-10,-8.394,-7.884,-5.283,-4.688,-5.101,-4.482,4.693,8.119,2,-1.213,1.724,5.234,7.548,-8.203,-8.411,-1.365,1.495,154.2,161.9,159.0,,171.2,167.6,161.1,166.6,141.8,158.6,3,norm,1.917,1.994,-1.622,-1.342,-4.715,-4.364,-1.832,-1.364,-1.844,-2.007,1.772,-1.687,165.8,162.0,-5.144,-7.977,1.17,-1.176,7.967,4.434,-5.038,-7.575,8,4.581,4.896,4.639,4.795,1.906,1.578,1.469,1.275,8,4.649,4.849,0,68.0523917203,norm,0,32,32,32,230.106,230.119,230.138545012,230.139,230.14,230.143,down,1,2.11855636184,7.88144363816,001,010,1920_1080,Intel(R) Core(TM) i5-3570 CPU @ 3.40GHz,orientation_search,LEPPC096,Intel(R) HD Graphics 2500,2018_Oct_25_1214,testMonitor,
159.3,152.4,176.6,160.2,36,-10,170.3,144.0,176.3,141.8,8.386,8.291,7.949,7.641,8.153,7.801,8.285,4.934,-4.899,-8.193,1.864,-1.508,7.545,4.313,-5.273,-8.016,166.4,148.0,-8.34,159.6,162.2,144.6,174.0,154.2,36,171.0,1,5,prime,10,0,65,norm,36,-4.381,down,norm,161.772971798,150.6,167.9,169.4,162.7,2,158.2,151.9,171.4,10,5,7.928,5.094,1.655,-1.2,-5.166,-8.257,161.1,5,226.8,-7.509,-8.311,-10,-7.803,-7.637,-4.596,-4.615,-5.022,-4.451,4.444,8.299,8,-1.972,1.196,4.902,8.11,-7.75,-8.102,-1.533,2.02,168.4,,163.2,149.8,174.3,152.7,151.4,179.9,162.9,160.6,4,norm,1.997,1.422,-2.003,-1.294,-4.66,-5.055,-1.117,-1.702,-1.374,-1.789,1.679,-1.369,169.4,181.8,-5.015,-7.7,1.81,-2.031,7.636,4.906,-4.717,-8.269,8,4.389,5.12,5.181,4.566,1.286,1.618,1.783,1.191,8,4.551,4.874,0,68.0523917203,norm,0,33,33,33,232.294,232.305,232.316153317,232.316,232.318,232.321,down,1,0.95492049214,9.04507950786,001,010,1920_1080,Intel(R) Core(TM) i5-3570 CPU @ 3.40GHz,orientation_search,LEPPC096,Intel(R) HD Graphics 2500,2018_Oct_25_1214,testMonitor,
218.5,217.6,223.7,216.5,36,-80,220.2,227.4,230.1,222.1,8.221,7.968,8.129,7.669,7.819,7.611,8.1,4.751,-4.736,-7.998,1.484,-1.495,8.037,4.545,-5.228,-8.461,210.3,215.7,-8.349,220.5,223.1,214.9,219.8,225.3,36,219.6,0,5,probe,5,0,68,norm,36,-4.634,down,norm,220.068114829,212.8,218.3,213.1,219.4,0,215.4,220.4,218.1,10,5,8.06,4.56,1.15,-1.348,-4.684,-7.516,210.1,1,152.1,-7.82,-7.581,-10,-8.063,-7.718,-4.843,-5.061,-4.574,-4.738,4.467,7.703,0,-2.03,1.769,4.519,7.992,-7.774,-7.714,-1.137,1.25,216.1,211.9,225.6,222.2,222.8,,219.6,228.3,223.2,213.3,0,norm,1.507,1.436,-1.597,-1.616,-4.489,-4.723,-2.016,-1.188,-1.818,-1.368,2.018,-1.217,219.6,215.1,-4.697,-7.747,1.198,-1.238,8.271,4.917,-4.639,-7.635,9,4.876,4.78,5.237,4.771,1.272,1.906,1.871,1.483,9,4.464,4.321,-10,161.772971798,norm,0,34,34,34,233.316,233.338,233.347961592,233.348,233.35,233.352,down,1,1.14838026128,8.85161973872,001,010,1920_1080,Intel(R) Core(TM) i5-3570 CPU @ 3.40GHz,orientation_search,LEPPC096,Intel(R) HD Graphics 2500,2018_Oct_25_1214,testMonitor,
196.8,185.1,190.0,197.2,36,-40,209.1,,225.1,207.0,7.62,7.698,8.467,8.237,8.3,8.032,7.559,4.95,-4.546,-7.527,1.882,-1.901,8.23,4.479,-5.143,-8.072,222.0,203.6,-7.93,206.1,192.5,195.5,205.5,201.6,36,193.8,4,5,prime,10,0,79,norm,36,-4.485,down,norm,205.051872091,208.6,200.1,216.7,196.4,1,213.7,199.7,204.3,10,5,7.843,4.797,1.73,-1.787,-4.818,-7.674,192.3,5,284.1,-8.363,-8.43,-40,-8.278,-7.611,-4.712,-4.807,-5.16,-5.224,4.478,8.19,25,-1.149,1.141,4.99,7.855,-7.887,-7.995,-1.877,2.069,190.5,214.7,191.3,216.8,212.1,204.0,192.3,197.1,200.0,202.5,0,norm,1.972,1.94,-1.643,-1.368,-4.939,-4.527,-1.122,-1.563,-1.518,-1.283,1.445,-1.234,211.1,219.4,-5.077,-7.724,1.189,-1.407,7.819,5.076,-4.483,-8.102,10,5.248,4.671,5.219,5.199,2.078,1.688,1.37,1.928,10,5.144,5.135,-80,161.772971798,norm,0,35,35,35,234.517,234.527,234.533373681,234.534,234.535,234.538,down,1,2.40148662191,7.59851337809,001,010,1920_1080,Intel(R) Core(TM) i5-3570 CPU @ 3.40GHz,orientation_search,LEPPC096,Intel(R) HD Graphics 2500,2018_Oct_25_1214,testMonitor,
212.3,214.0,192.9,189.8,36,-40,192.3,201.1,198.9,210.6,8.434,8.148,7.552,8.49,7.506,8.371,7.793,5.049,-4.517,-7.591,1.976,-1.173,7.668,4.444,-4.472,-7.967,220.0,191.6,-7.965,212.1,194.7,214.6,185.1,210.8,36,,4,5,prime,10,0,83,norm,36,-4.969,up,norm,205.051872091,209.5,210.3,207.5,206.6,3,206.0,225.1,205.8,10,5,7.626,5.017,1.998,-1.208,-4.436,-7.76,205.4,5,288.1,-7.678,-7.824,-40,-7.502,-8.067,-4.542,-4.439,-4.738,-4.644,5.075,7.887,27,-1.276,1.849,4.431,7.698,-7.746,-7.764,-1.862,1.31,201.8,217.9,213.9,217.6,216.9,211.6,188.8,211.8,197.1,199.8,1,norm,1.553,1.719,-2.015,-1.539,-4.612,-4.624,-1.613,-1.985,-1.993,-1.64,2.049,-1.38,198.9,198.9,-4.446,-8.295,1.175,-1.334,7.94,5.135,-4.971,-8.149,10,5.148,4.882,5.139,4.817,1.317,1.252,1.557,1.495,10,4.471,4.806,-80,161.772971798,norm,0,36,36,36,236.982,237.002,237.013734575,237.014,237.016,237.019,up,1,1.85484774577,8.14515225423,001,010,1920_1080,Intel(R) Core(TM) i5-3570 CPU @ 3.40GHz,orientation_search,LEPPC096,Intel(R) HD Graphics 2500,2018_Oct_25_1214,testMonitor,
214.0,207.7,207.1,199.2,36,-40,189.7,185.1,210.1,210.5,8.396,8.496,7.851,7.844,7.637,8.218,8.165,4.978,-4.386,-8.192,1.154,-1.973,8.473,4.686,-4.695,-8.084,206.0,210.3,-7.882,214.4,200.1,195.7,213.2,217.4,36,206.9,1,5,prime,10,0,74,norm,36,-4.579,down,norm,205.051872091,201.8,196.2,189.4,206.8,0,214.2,202.9,218.9,10,5,8.155,4.918,1.236,-1.52,-5.271,-8.482,206.0,5,279.1,-7.63,-7.96,-40,-7.844,-7.798,-5.185,-4.409,-4.902,-5.195,5.236,7.819,6,-1.673,1.31,4.685,7.872,-8.02,-8.331,-1.32,1.254,198.8,195.8,193.0,201.5,201.3,214.1,207.0,,196.3,216.6,2,norm,1.757,1.811,-1.898,-2.073,-5.29,-5.101,-1.172,-1.623,-1.615,-1.536,1.51,-1.735,193.0,186.3,-5.143,-7.65,1.526,-1.411,7.935,4.478,-5.052,-7.779,10,4.729,5.199,4.847,4.627,1.783,1.384,1.88,1.408,10,4.669,5.022,-80,161.772971798,norm,0,37,37,37,238.915,238.924,238.931539929,238.932,238.933,238.936,down,1,0.891316618772,9.10868338123,001,010,1920_1080,Intel(R) Core(TM) i5-3570 CPU @ 3.40GHz,orientation_search,LEPPC096,Intel(R) HD Graphics 2500,2018_Oct_25_1214,testMonitor,
199.5,196.9,185.1,213.8,36,-40,194.5,209.6,196.9,205.5,8.313,7.866,8.264,8.4,8.399,8.344,7.503,4.352,-5.157,-7.599,1.725,-1.386,8.431,5.263,-4.688,-7.726,197.4,209.7,-8.428,201.3,198.4,200.9,207.3,204.9,36,211.8,1,5,prime,10,0,96,norm,36,-4.851,up,norm,205.051872091,198.0,203.8,205.6,199.0,5,,205.7,204.7,10,5,8.18,4.726,1.74,-2.046,-4.836,-7.957,198.5,5,301.1,-7.946,-7.813,-40,-7.809,-8.086,-4.685,-5.238,-4.518,-4.961,4.326,7.869,11,-1.578,1.467,4.86,7.995,-8.064,-7.754,-2.096,1.404,216.8,206.9,197.8,218.3,214.2,221.8,203.3,203.7,222.3,202.2,3,norm,1.8,1.327,-1.739,-1.331,-4.731,-4.54,-1.248,-1.947,-1.366,-1.941,2.044,-1.728,207.1,201.0,-4.464,-8.11,1.999,-1.234,8.248,5.036,-4.736,-8.087,10,4.773,4.756,5.155,4.373,2.052,1.514,1.112,1.254,10,5.104,4.588,-80,161.772971798,norm,0,38,38,38,239.86,239.87,239.881927205,239.882,239.884,239.886,up,1,0.858284634516,9.14171536548,001,010,1920_1080,Intel(R) Core(TM) i5-3570 CPU @ 3.40GHz,orientation_search,LEPPC096,Intel(R) HD Graphics 2500,2018_Oct_25_1214,testMonitor,
195.2,217.4,201.1,185.1,36,-40,187.9,197.0,199.9,213.4,8.071,7.855,7.89,7.755,8.119,8.35,8.482,4.729,-5.248,-8.005,1.729,-1.732,7.549,4.787,-4.951,-8.391,195.4,222.8,-7.852,225.1,,194.5,193.1,195.3,36,196.9,5,5,prime,10,0,95,norm,36,-4.469,down,norm,205.051872091,212.2,216.3,215.1,192.7,0,189.5,203.4,209.0,10,5,7.529,4.954,2.02,-1.106,-4.713,-8.208,206.8,5,300.1,-8.167,-8.373,-40,-7.691,-8.133,-4.458,-5.043,-4.504,-4.32,5.076,8.067,30,-1.165,1.571,4.405,8.283,-8.279,-7.78,-1.272,1.852,215.8,194.0,206.4,212.7,207.8,198.3,214.4,219.8,199.3,215.0,4,norm,1.123,1.393,-1.341,-1.918,-5.037,-4.43,-2.035,-1.508,-1.417,-1.338,2.069,-1.378,212.5,213.0,-4.908,-8.033,1.574,-1.524,7.887,4.33,-4.434,-8.242,10,4.532,4.362,4.692,4.699,2.008,1.135,1.287,1.578,10,4.658,4.905,-80,161.772971798,norm,0,39,39,39,240.788,240.81,240.820029099,240.82,240.822,240.825,down,1,0.99476135568,9.00523864432,001,010,1920_1080,Intel(R) Core(TM) i5-3570 CPU @ 3.40GHz,orientation_search,LEPPC096,Intel(R) HD Graphics 2500,2018_Oct_25_1214,testMonitor,
263.5,265.9,269.7,263.8,36,40,269.0,259.2,272.9,279.2,7.639,8.387,8.164,7.523,7.654,8.236,7.923,5.122,-5.085,-8.439,1.154,-1.452,8.259,4.987,-4.492,-8.463,,272.4,-8.49,270.3,271.0,269.7,276.3,275.6,36,267.3,5,5,probe,5,0,109,norm,36,-4.642,up,norm,269.231694543,270.8,269.0,272.0,268.1,5,270.0,274.2,264.3,10,5,8.478,4.684,1.612,-2.034,-4.575,-8.08,265.4,2,160.2,-7.91,-7.631,-40,-8.323,-7.76,-4.82,-4.511,-4.978,-4.678,4.731,8.264,35,-1.601,1.155,4.645,7.751,-7.991,-7.622,-1.678,1.674,270.9,277.3,276.7,273.5,274.3,269.7,273.8,266.5,266.3,265.4,0,norm,1.126,1.205,-1.216,-1.216,-4.601,-4.767,-1.543,-1.6,-1.383,-1.883,1.864,-1.374,265.2,272.2,-4.94,-7.753,1.528,-2.029,8.041,4.369,-5.033,-8.06,11,4.633,5.088,4.749,5.047,2.098,1.129,1.377,1.248,11,5.13,4.423,-40,205.051872091,norm,0,40,40,40,241.852,241.862,241.878697689,241.879,241.881,241.883,up,1,2.3265832146,7.6734167854,001,010,1920_1080,Intel(R) Core(TM) i5-3570 CPU @ 3.40GHz,orientation_search,LEPPC096,Intel(R) HD Graphics 2500,2018_Oct_25_1214,testMonitor,
,221.6,225.5,223.4,36,40,219.3,232.2,221.8,221.0,8.229,8.483,8.131,7.51,7.723,8.046,7.617,5.189,-4.687,-7.565,1.476,-1.611,7.606,4.921,-5.267,-8.492,220.0,221.8,-8.397,223.1,218.4,218.4,225.5,221.9,36,222.7,3,5,probe,5,0,62,norm,36,-5.244,up,norm,222.231694543,221.5,221.7,221.2,226.2,4,218.8,227.0,227.5,10,5,8.395,4.36,1.425,-2.009,-5.074,-7.69,216.5,2,160.2,-7.548,-7.902,-40,-8.14,-8.077,-4.345,-5.181,-5.042,-4.556,4.563,8.494,22,-1.763,1.361,4.705,8.141,-7.571,-7.782,-2.029,1.525,220.0,218.6,215.9,218.7,229.4,215.7,215.8,224.6,223.4,225.6,1,norm,1.679,2.002,-1.721,-1.312,-4.964,-4.557,-1.282,-1.196,-2.026,-1.371,1.485,-1.457,223.0,212.2,-4.95,-7.606,1.959,-1.13,7.534,4.441,-4.397,-7.664,11,4.403,4.963,5.18,5.152,1.31,1.181,1.906,1.14,11,4.324,4.564,-40,205.051872091,norm,0,41,41,41,244.25,244.259,244.266411098,244.267,244.268,244.271,up,1,1.23243824105,8.76756175895,001,010,1920_1080,Intel(R) Core(TM) i5-3570 CPU @ 3.40GHz,orientation_search,LEPPC096,Intel(R) HD Graphics 2500,2018_Oct_25_1214,testMonitor,
53.9,64.6,80.5,74.3,36,80,78.0,47.0,60.0,74.8,8.222,8.038,7.87,8.438,8.393,8.232,7.536,5.157,-4.77,-8.424,1.488,-1.531,8.327,4.717,-4.575,-7.592,67.3,87.0,-8.167,,73.2,67.2,67.4,68.5,36,71.5,5,5,prime,10,0,83,norm,36,-4.914,down,norm,67.0263472431,51.6,48.2,61.4,69.6,1,66.6,70.1,67.8,10,5,8.178,5.123,1.74,-1.949,-5.026,-8.257,61.3,5,150.0,-7.624,-7.856,80,-8.094,-7.743,-5.067,-5.255,-5.072,-4.71,5.249,7.553,31,-1.112,1.283,4.519,8.048,-7.738,-7.998,-1.292,1.698,55.4,66.8,51.2,84.5,68.7,54.6,50.8,56.8,63.0,61.5,0,norm,1.667,1.514,-1.622,-1.404,-4.974,-4.915,-1.938,-1.222,-1.35,-1.51,1.574,-1.417,53.5,66.5,-5.195,-7.604,1.795,-1.466,8.461,4.69,-5.102,-7.937,12,4.864,4.615,5.077,5.178,1.496,1.191,1.177,1.98,12,4.307,4.456,40,205.051872091,norm,0,42,42,42,245.545,245.554,245.563121212,245.563,245.565,245.568,down,1,1.40016450943,8.59983549057,001,010,1920_1080,Intel(R) Core(TM) i5-3570 CPU @ 3.40GHz,orientation_search,LEPPC096,Intel(R) HD Graphics 2500,2018_Oct_25_1214,testMonitor,
66.8,74.2,66.8,66.7,36,80,54.0,68.7,66.8,59.5,7.709,8.41,7.864,7.894,7.583,7.687,8.286,4.379,-5.001,-7.598,1.221,-1.943,8.083,4.35,-4.427,-8.499,52.6,52.5,-8.46,65.5,,69.5,54.1,87.0,36,63.8,5,5,prime,10,0,85,norm,36,-5.001,down,norm,67.0263472431,66.8,73.8,76.9,76.8,0,69.4,67.3,54.1,10,5,7.555,4.319,1.395,-1.842,-5.264,-7.775,62.5,5,152.0,-7.952,-8.159,80,-8.389,-7.913,-5.201,-4.316,-4.785,-4.773,4.599,7.817,30,-1.874,1.12,4.617,8.492,-7.982,-7.669,-1.413,1.344,71.1,83.0,61.8,70.6,60.0,47.0,80.7,56.4,57.1,82.3,1,norm,1.166,1.467,-1.109,-1.967,-4.65,-5.077,-1.232,-1.751,-1.623,-1.56,1.114,-1.859,52.7,79.5,-5.293,-7.895,1.661,-1.874,8.257,4.769,-5.15,-8.182,12,4.94,4.739,5.269,4.501,2.016,1.262,1.924,2.009,12,4.796,4.519,40,205.051872091,norm,0,43,43,43,247.0,247.009,247.026530692,247.027,247.029,247.031,down,1,1.16241638695,8.83758361305,001,010,1920_1080,Intel(R) Core(TM) i5-3570 CPU @ 3.40GHz,orientation_search,LEPPC096,Intel(R) HD Graphics 2500,2018_Oct_25_1214,testMonitor,
72.7,73.7,64.2,75.1,36,80,71.4,60.2,58.4,57.6,8.198,8.343,7.706,8.358,7.675,8.415,8.486,4.79,-4.781,-7.517,1.194,-1.715,7.857,4.718,-4.523,-7.736,77.0,67.1,-8.263,86.6,78.1,80.4,74.7,80.9,36,68.9,0,5,prime,10,0,67,norm,36,-4.476,down,norm,67.0263472431,76.6,68.6,87.0,66.5,0,61.9,56.3,59.9,10,5,8.381,5.289,1.341,-1.431,-4.424,-7.868,70.6,5,134.0,-7.633,-7.542,80,-7.929,-7.829,-4.303,-4.751,-4.669,-4.988,5.288,7.966,0,-1.327,1.235,4.719,8.072,-7.823,-7.66,-2.099,1.269,66.8,70.5,68.9,69.6,57.4,,77.2,70.8,75.3,58.2,2,norm,1.337,1.438,-1.138,-1.618,-5.222,-4.338,-1.939,-1.469,-2.045,-1.885,2.031,-1.921,47.0,78.3,-4.686,-8.026,1.567,-1.66,7.533,5.28,-5.171,-8.228,12,5.036,4.442,5.049,4.502,1.176,1.467,1.419,1.146,12,5.093,4.497,40,205.051872091,norm,0,44,44,44,248.213,248.222,248.230503067,248.231,248.232,248.235,down,1,1.02572142667,8.97427857333,001,010,1920_1080,Intel(R) Core(TM) i5-3570 CPU @ 3.40GHz,orientation_search,LEPPC096,Intel(R) HD Graphics 2500,2018_Oct_25_1214,testMonitor,
51.9,75.9,54.5,82.5,36,80,64.8,56.6,73.7,56.8,7.765,8.018,7.505,8.474,7.931,7.683,8.241,4.562,-4.604,-7.882,1.253,-1.416,8.192,5.276,-4.817,-7.927,68.6,78.9,-7.762,74.7,55.7,71.6,63.8,79.1,36,47.0,2,5,prime,10,0,73,norm,36,-5.189,down,norm,67.0263472431,76.4,55.0,80.9,,2,60.2,65.7,78.7,10,5,8.018,4.602,1.707,-1.395,-4.393,-8.387,70.6,5,140.0,-7.759,-7.697,80,-7.808,-8.233,-5.264,-4.608,-4.622,-4.794,4.458,7.802,14,-1.626,1.315,5.127,8.074,-8.449,-7.595,-1.466,1.161,68.2,60.8,84.5,69.1,50.9,64.6,49.2,87.0,58.4,72.4,3,norm,2.095,1.607,-1.356,-1.476,-4.358,-4.764,-1.577,-2.043,-1.513,-1.171,1.345,-1.389,52.4,77.4,-4.883,-7.515,1.297,-1.634,7.747,4.595,-4.496,-8.488,12,4.686,5.138,4.628,4.694,1.127,1.564,1.967,1.515,12,4.426,4.853,40,205.051872091,norm,0,45,45,45,249.293,249.303,249.319628843,249.32,249.322,249.324,down,1,1.09536777668,8.90463222332,001,010,1920_1080,Intel(R) Core(TM) i5-3570 CPU @ 3.40GHz,orientation_search,LEPPC096,Intel(R) HD Graphics 2500,2018_Oct_25_1214,testMonitor,
66.5,74.7,58.0,67.0,36,80,78.2,53.3,52.4,60.9,7.887,7.619,8.29,7.806,7.541,8.107,8.435,4.719,-4.999,-7.683,1.623,-1.455,7.987,5.213,-5.129,-7.956,70.0,,-8.362,62.7,47.0,62.7,54.9,83.5,36,73.5,5,5,prime,10,0,75,norm,36,-4.589,up,norm,67.0263472431,62.3,65.3,80.7,59.8,4,50.1,50.6,47.6,10,5,7.819,5.033,1.552,-1.339,-4.751,-7.911,51.3,5,142.0,-7.73,-7.754,80,-8.164,-8.302,-4.98,-5.159,-4.544,-5.069,5.074,8.153,34,-1.432,1.773,4.953,7.982,-7.993,-8.269,-1.112,1.664,67.2,81.8,67.5,70.9,63.0,60.6,64.2,69.2,74.4,87.0,4,norm,2.087,2.067,-1.186,-1.885,-5.004,-4.795,-2.071,-1.815,-1.505,-1.284,1.864,-1.273,66.7,54.3,-4.72,-7.731,1.611,-1.287,7.893,4.442,-4.69,-8.108,12,4.759,4.959,4.916,4.446,1.959,1.263,1.802,1.453,12,4.662,4.393,40,205.051872091,norm,0,46,46,46,250.452,250.461,250.474086293,250.474,250.476,250.479,up,1,0.841392383665,9.15860761633,001,010,1920_1080,Intel(R) Core(TM) i5-3570 CPU @ 3.40GHz,orientation_search,LEPPC096,Intel(R) HD Graphics 2500,2018_Oct_25_1214,testMonitor,
237.6,245.4,242.0,237.2,36,-30,249.9,243.5,229.9,248.8,7.709,8.106,8.081,7.529,7.512,7.686,8.049,4.814,-4.967,-8.151,1.797,-1.74,7.775,5.147,-4.88,-7.715,244.5,231.3,-8.319,233.8,233.6,240.6,240.6,238.4,36,230.0,1,5,probe,5,0,102,norm,36,-4.949,up,norm,239.918643684,242.6,236.5,235.8,241.2,5,,237.9,242.7,10,5,7.94,4.321,1.982,-1.934,-4.627,-7.791,237.1,2,137.9,-8.116,-7.63,80,-7.667,-7.548,-5.251,-4.738,-5.246,-4.893,4.732,7.751,11,-1.206,1.316,4.957,7.964,-7.643,-7.93,-1.75,1.687,235.7,238.4,238.5,239.4,249.2,248.2,240.3,234.7,239.9,241.0,0,norm,1.815,1.807,-1.336,-1.723,-4.795,-4.736,-1.228,-1.836,-1.829,-1.725,1.477,-1.533,243.0,234.3,-4.819,-8.183,1.445,-1.747,8.23,4.991,-4.561,-7.895,13,4.465,5.147,4.914,5.215,1.103,1.995,1.421,1.954,13,4.439,5.101,80,67.0263472431,norm,0,47,47,47,251.352,251.362,251.378801828,251.379,251.381,251.383,up,1,0.807166875951,9.19283312405,001,010,1920_1080,Intel(R) Core(TM) i5-3570 CPU @ 3.40GHz,orientation_search,LEPPC096,Intel(R) HD Graphics 2500,2018_Oct_25_1214,testMonitor,
201.7,197.7,202.6,204.7,36,-30,205.8,208.3,203.9,214.9,8.282,8.115,7.958,7.882,7.5,8.016,7.569,5.103,-5.154,-8.033,1.125,-1.339,8.143,4.706,-4.377,-8.135,,207.8,-8.17,207.5,209.9,204.7,199.4,195.0,36,202.8,5,5,probe,5,0,67,norm,36,-4.399,up,norm,204.918643684,203.0,203.8,199.9,194.9,5,201.0,197.4,203.5,10,5,7.515,5.229,1.105,-2.015,-5.075,-8.425,206.0,2,137.9,-8.339,-7.743,80,-8.217,-8.281,-5.138,-4.555,-4.414,-5.08,4.806,7.858,35,-2.0,1.547,4.401,8.143,-7.797,-7.51,-1.106,1.241,200.6,207.2,206.2,197.5,197.5,211.1,214.0,198.2,206.1,199.3,1,norm,2.079,2.06,-1.335,-2.037,-5.208,-4.916,-1.684,-1.116,-1.148,-1.294,1.857,-2.039,203.5,202.8,-4.424,-8.043,1.645,-1.426,7.553,4.791,-4.496,-7.579,13,4.865,4.96,4.759,4.936,1.155,1.658,1.759,1.911,13,4.507,4.654,80,67.0263472431,norm,0,48,48,48,252.207,252.219,252.22332472,252.223,252.225,252.228,up,1,0.842535195963,9.15746480404,001,010,1920_1080,Intel(R) Core(TM) i5-3570 CPU @ 3.40GHz,orientation_search,LEPPC096,Intel(R) HD Graphics 2500,2018_Oct_25_1214,testMonitor,
118.4,134.1,139.6,144.3,36,30,132.6,138.1,128.7,,7.522,7.534,7.526,7.729,7.702,8.484,7.967,4.591,-4.6,-8.025,1.679,-1.342,7.567,4.83,-5.166,-8.405,124.0,140.2,-7.678,135.0,147.7,130.7,139.2,131.3,36,127.0,4,5,prime,10,0,95,norm,36,-5.269,up,norm,134.76529377,147.8,127.4,151.4,141.5,5,126.1,114.8,154.8,10,5,8.1,5.265,1.212,-1.405,-4.439,-8.352,119.7,5,229.8,-8.026,-8.142,30,-7.686,-8.481,-4.88,-5.233,-4.315,-4.311,5.1,7.679,29,-1.812,1.505,4.758,7.843,-7.926,-7.946,-1.69,1.164,127.1,129.3,141.1,141.8,131.9,142.2,130.0,127.5,129.3,144.4,0,norm,1.714,1.903,-1.7,-1.364,-5.001,-4.651,-1.974,-1.75,-2.075,-1.868,1.482,-1.992,142.7,135.8,-4.61,-7.825,1.559,-2.028,7.822,5.265,-5.237,-7.958,14,4.444,4.376,4.88,4.625,1.193,1.655,1.621,1.548,14,4.55,5.221,-30,67.0263472431,norm,0,49,49,49,253.111,253.12,253.128965734,253.129,253.131,253.133,up,1,1.26437601121,8.73562398879,001,010,1920_1080,Intel(R) Core(TM) i5-3570 CPU @ 3.40GHz,orientation_search,LEPPC096,Intel(R) HD Graphics 2500,2018_Oct_25_1214,testMonitor,
,144.2,121.4,125.9,36,30,134.1,121.8,147.2,142.6,8.371,8.128,8.4,8.104,7.724,8.1,7.586,5.086,-5.293,-7.525,1.28,-1.193,8.423,4.613,-5.117,-8.017,142.7,134.4,-8.208,137.8,152.5,122.9,140.9,142.6,36,145.1,3,5,prime,10,0,98,norm,36,-4.748,up,norm,134.76529377,130.0,133.7,124.6,132.5,4,154.8,134.0,133.7,10,5,8.121,4.681,1.676,-1.306,-5.219,-8.375,119.6,5,232.8,-8.434,-8.41,30,-8.344,-8.232,-4.625,-4.459,-4.313,-4.444,4.858,8.312,22,-1.249,1.425,4.8,8.402,-8.488,-8.31,-1.738,1.181,142.6,118.1,143.0,130.0,134.7,139.3,135.9,134.8,139.6,134.8,1,norm,1.217,1.536,-1.705,-1.502,-5.274,-5.024,-1.308,-1.682,-1.781,-1.572,1.683,-1.412,123.7,114.8,-5.167,-7.637,1.792,-1.248,8.169,4.847,-4.591,-8.253,14,4.957,4.748,4.959,4.64,1.677,1.292,1.515,1.743,14,4.934,4.69,-30,67.0263472431,norm,0,50,50,50,254.438,254.459,254.46966597,254.47,254.472,254.475,up,1,0.706388399218,9.29361160078,001,010,1920_1080,Intel(R) Core(TM) i5-3570 CPU @ 3.40GHz,orientation_search,LEPPC096,Intel(R) HD Graphics 2500,2018_Oct_25_1214,testMonitor,
132.6,144.6,118.1,139.2,36,30,152.1,128.4,136.3,133.5,8.062,8.318,8.243,7.812,7.774,8.227,7.94,4.75,-4.868,-7.781,1.664,-2.005,8.437,4.344,-4.641,-7.84,149.8,122.2,-7.534,150.1,128.1,114.8,,154.2,36,130.7,5,5,prime,10,0,115,norm,36,-4.364,down,norm,134.76529377,122.2,139.5,138.6,140.9,2,141.6,132.9,127.1,10,5,8.424,4.489,1.349,-1.211,-4.469,-7.535,134.1,5,249.8,-7.601,-8.233,30,-7.632,-7.683,-4.753,-4.791,-4.365,-5.121,4.856,8.034,32,-1.957,1.99,4.841,8.314,-7.526,-8.17,-1.764,1.914,130.0,129.6,138.0,151.7,133.8,137.9,137.5,144.2,144.1,132.4,2,norm,1.337,1.864,-1.658,-1.236,-5.286,-4.318,-1.777,-1.149,-2.088,-1.463,1.233,-2.023,154.8,145.2,-4.935,-8.498,1.885,-1.465,8.407,4.345,-4.558,-7.817,14,4.727,4.688,4.629,5.228,1.133,1.171,1.84,1.903,14,4.643,5.222,-30,67.0263472431,norm,0,51,51,51,255.213,255.223,255.232011724,255.232,255.234,255.236,down,1,0.92663271836,9.07336728164,001,010,1920_1080,Intel(R) Core(TM) i5-3570 CPU @ 3.40GHz,orientation_search,LEPPC096,Intel(R) HD Graphics 2500,2018_Oct_25_1214,testMonitor,
139.5,131.6,142.0,139.7,36,30,134.5,124.4,128.8,126.2,7.874,7.71,8.033,8.289,8.431,7.809,8.23,4.591,-4.474,-7.531,1.645,-1.702,7.892,4.854,-5.295,-8.484,130.7,136.9,-7.99,142.3,134.3,135.1,129.8,114.8,36,130.9,1,5,prime,10,0,71,norm,36,-5.179,down,norm,134.76529377,142.7,135.5,140.1,128.2,2,140.0,125.2,125.9,10,5,8.1,5.168,1.585,-1.21,-4.329,-7.797,137.9,5,205.8,-8.338,-7.668,30,-7.906,-7.945,-4.865,-4.377,-4.731,-4.651,4.57,7.824,8,-1.972,1.252,4.701,8.481,-7.735,-8.297,-2.058,1.762,131.0,,130.9,144.3,144.7,127.5,154.8,124.4,143.8,145.6,3,norm,2.078,1.127,-1.964,-1.257,-4.516,-4.746,-1.578,-1.895,-1.244,-1.418,1.279,-1.167,152.3,132.3,-4.773,-8.472,1.555,-1.299,7.989,4.709,-5.262,-8.262,14,4.688,5.155,4.708,5.24,1.588,1.773,1.683,1.208,14,4.494,5.255,-30,67.0263472431,norm,0,52,52,52,256.2,256.209,256.215639564,256.216,256.218,256.22,down,1,1.09657880756,8.90342119244,001,010,1920_1080,Intel(R) Core(TM) i5-3570 CPU @ 3.40GHz,orientation_search,LEPPC096,Intel(R) HD Graphics 2500,2018_Oct_25_1214,testMonitor,
115.7,117.5,125.3,129.7,36,30,135.8,144.9,143.6,142.7,7.55,8.469,8.39,7.63,8.299,8.358,8.287,4.541,-5.171,-8.27,1.41,-1.705,7.51,4.761,-4.714,-8.393,144.7,145.2,-8.029,152.1,145.7,114.8,149.3,138.9,36,154.8,2,5,prime,10,0,78,norm,36,-5.148,up,norm,134.76529377,,136.3,123.3,139.8,5,132.5,132.4,123.7,10,5,7.991,4.821,1.166,-1.116,-4.983,-8.338,129.1,5,212.8,-8.079,-7.836,30,-8.126,-8.176,-4.604,-4.46,-4.639,-4.829,4.786,7.542,17,-1.48,1.541,4.366,8.313,-8.336,-8.046,-1.472,1.634,146.9,125.4,130.9,134.9,136.7,136.8,142.5,143.2,132.3,128.8,4,norm,1.683,1.972,-1.596,-1.988,-4.704,-4.421,-1.854,-1.583,-1.544,-2.04,1.805,-1.135,149.2,145.9,-4.951,-7.788,1.639,-1.154,7.778,5.059,-4.795,-8.395,14,4.692,4.748,5.264,4.957,2.079,2.036,1.454,1.959,14,4.674,5.137,-30,67.0263472431,norm,0,53,53,53,257.349,257.361,257.384613086,257.385,257.387,257.39,up,1,1.1107634445,8.8892365555,001,010,1920_1080,Intel(R) Core(TM) i5-3570 CPU @ 3.40GHz,orientation_search,LEPPC096,Intel(R) HD Graphics 2500,2018_Oct_25_1214,testMonitor,
254.5,237.8,242.0,252.8,36,-20,243.1,244.2,243.5,249.6,8.103,8.282,8.109,7.774,7.625,7.539,7.891,4.71,-4.704,-7.945,1.712,-1.382,8.222,4.939,-4.549,-7.694,247.9,248.4,-8.462,247.0,253.5,245.0,246.1,254.6,36,254.6,1,5,probe,5,0,80,norm,36,-5.138,up,norm,247.812150773,243.6,247.0,250.7,248.3,5,,255.4,256.2,10,5,7.753,5.151,1.821,-1.526,-5.248,-7.597,248.4,1,167.8,-8.26,-8.062,30,-8.477,-8.457,-4.911,-4.854,-4.423,-4.767,4.342,7.6,11,-1.209,1.619,5.103,7.967,-7.808,-7.532,-1.629,1.784,251.9,244.2,249.3,245.6,250.2,240.1,245.5,241.1,254.2,243.4,0,norm,1.633,1.588,-1.229,-1.412,-5.26,-4.702,-2.028,-1.302,-1.487,-1.601,1.182,-2.023,257.8,255.7,-4.972,-8.439,1.29,-1.423,8.206,4.764,-4.948,-8.216,15,5.282,4.626,5.024,4.701,2.059,2.02,1.249,1.63,15,4.908,4.936,30,134.76529377,norm,0,54,54,54,258.54,258.549,258.555576417,258.556,258.557,258.56,up,1,0.958463029147,9.04153697085,001,010,1920_1080,Intel(R) Core(TM) i5-3570 CPU @ 3.40GHz,orientation_search,LEPPC096,Intel(R) HD Graphics 2500,2018_Oct_25_1214,testMonitor,
278.8,276.3,271.1,276.3,36,20,277.4,282.3,288.0,281.5,8.008,7.737,8.044,7.875,8.45,7.863,8.407,4.795,-5.249,-8.394,1.707,-1.29,8.33,5.225,-5.259,-7.526,267.2,272.6,-8.351,275.2,272.0,275.0,273.3,258.3,36,272.8,0,5,prime,10,0,67,norm,36,-5.246,up,norm,278.265322935,269.4,275.0,272.3,274.6,3,267.4,292.3,294.9,10,6,7.546,4.52,1.161,-1.533,-4.416,-7.968,287.8,6,345.3,-8.469,-7.682,20,-7.667,-7.564,-4.952,-4.879,-4.763,-4.691,4.421,8.129,3,-1.909,1.354,5.173,7.916,-8.463,-7.58,-1.26,1.493,278.6,266.8,,272.8,286.1,277.4,274.8,266.7,276.9,268.5,0,norm,1.857,1.638,-1.369,-2.074,-4.947,-4.881,-1.446,-1.985,-1.442,-2.07,2.02,-1.571,298.3,284.3,-5.09,-8.173,1.679,-1.47,8.052,4.613,-4.424,-7.585,16,4.505,4.538,4.719,4.555,1.843,1.634,1.97,1.839,16,4.874,4.655,-20,134.76529377,norm,0,55,55,55,259.538,259.547,259.553967847,259.554,259.556,259.558,down,0,2.46610773707,-10,001,010,1920_1080,Intel(R) Core(TM) i5-3570 CPU @ 3.40GHz,orientation_search,LEPPC096,Intel(R) HD Graphics 2500,2018_Oct_25_1214,testMonitor,
275.6,280.0,289.3,287.2,36,20,265.9,277.5,284.0,266.3,7.744,7.503,8.449,8.352,7.611,8.114,8.468,5.009,-4.316,-8.271,1.707,-2.079,7.783,4.913,-4.729,-7.709,268.6,287.4,-7.912,283.1,278.3,283.7,268.9,286.9,36,280.6,0,5,prime,10,0,79,norm,36,-4.538,down,norm,278.265322935,283.2,278.8,258.3,298.3,1,262.5,285.4,290.7,10,6,8.333,4.412,1.908,-2.092,-5.14,-8.482,276.8,6,357.3,-8.093,-7.612,20,-8.46,-8.4,-4.854,-4.306,-4.576,-4.36,4.565,7.993,1,-1.576,1.768,4.826,7.814,-7.569,-8.164,-1.591,1.728,264.1,274.3,273.9,282.2,,274.6,260.9,269.3,292.0,270.5,1,norm,1.183,1.648,-1.437,-1.435,-4.735,-4.404,-1.457,-1.669,-1.996,-1.331,1.494,-1.114,289.6,280.9,-5.274,-8.236,1.866,-1.262,7.746,5.035,-5.081,-8.245,16,4.845,4.622,5.091,4.434,1.2,1.771,1.952,1.178,16,4.89,4.981,-20,134.76529377,norm,0,56,56,56,263.09,263.1,263.109775181,263.11,263.112,263.114,up,0,1.26668819879,-10,001,010,1920_1080,Intel(R) Core(TM) i5-3570 CPU @ 3.40GHz,orientation_search,LEPPC096,Intel(R) HD Graphics 2500,2018_Oct_25_1214,testMonitor,
283.1,281.8,270.3,282.1,36,20,263.6,281.2,294.7,268.4,8.435,7.748,8.441,8.275,7.596,7.601,7.6,4.515,-5.148,-8.269,1.583,-1.809,8.367,4.4,-5.186,-7.531,275.4,275.3,-8.431,281.6,274.0,275.5,286.8,275.6,36,267.9,2,5,prime,10,0,95,norm,36,-4.698,up,norm,278.265322935,,288.1,279.9,283.4,5,289.3,270.7,278.7,10,6,8.361,5.068,1.373,-1.624,-5.175,-8.372,281.3,6,373.3,-7.846,-8.206,20,-7.989,-8.316,-5.269,-4.631,-4.932,-4.579,4.387,7.733,17,-1.432,1.733,4.704,8.109,-8.402,-7.64,-1.522,1.256,286.1,279.4,283.1,286.5,277.1,281.8,298.3,277.3,277.1,258.3,2,norm,1.679,1.365,-2.095,-1.117,-5.25,-4.392,-1.417,-1.56,-1.827,-1.262,1.839,-1.97,286.2,285.4,-5.222,-7.847,1.222,-1.413,8.28,4.398,-5.201,-8.363,16,4.75,4.95,4.491,5.085,1.767,2.039,1.845,1.124,16,4.498,4.575,-20,134.76529377,norm,0,57,57,57,265.454,265.464,265.480927169,265.481,265.483,265.485,up,1,2.01204450508,7.98795549492,001,010,1920_1080,Intel(R) Core(TM) i5-3570 CPU @ 3.40GHz,orientation_search,LEPPC096,Intel(R) HD Graphics 2500,2018_Oct_25_1214,testMonitor,
280.2,272.5,263.5,282.0,36,20,276.9,,275.9,281.1,8.433,7.713,8.25,7.806,8.022,7.979,8.364,4.83,-4.861,-7.509,1.206,-1.634,8.304,5.263,-4.509,-7.757,263.9,258.3,-8.445,283.7,283.9,280.9,268.0,266.7,36,277.9,4,5,prime,10,0,79,norm,36,-4.584,down,norm,278.265322935,281.7,285.2,275.0,285.7,1,280.4,284.5,283.1,10,6,7.701,4.529,2.069,-1.498,-4.372,-8.166,296.2,6,357.3,-8.384,-7.81,20,-8.042,-8.37,-4.691,-4.904,-4.674,-4.551,5.069,8.056,25,-1.787,1.237,4.726,8.261,-8.076,-8.166,-1.798,1.44,279.9,277.2,279.7,286.9,273.2,280.6,276.9,281.1,298.3,268.9,3,norm,1.399,1.966,-1.585,-1.396,-4.314,-4.603,-1.175,-1.357,-1.237,-2.032,1.252,-1.357,277.7,265.5,-4.389,-7.984,1.493,-1.66,8.248,4.841,-4.671,-8.167,16,4.633,4.449,4.669,4.695,1.812,1.191,2.099,1.148,16,4.328,5.181,-20,134.76529377,norm,0,58,58,58,267.529,267.538,267.555542006,267.556,267.557,267.56,down,1,1.23140107701,8.76859892299,001,010,1920_1080,Intel(R) Core(TM) i5-3570 CPU @ 3.40GHz,orientation_search,LEPPC096,Intel(R) HD Graphics 2500,2018_Oct_25_1214,testMonitor,
268.0,273.4,287.0,281.2,36,20,278.9,277.3,271.9,294.3,7.965,8.094,8.226,8.229,7.819,7.546,7.617,4.813,-4.393,-7.992,1.808,-1.467,7.581,4.422,-5.067,-8.498,262.2,278.3,-7.62,270.2,285.3,258.3,279.6,286.0,36,288.9,3,5,prime,10,0,79,norm,36,-4.827,down,norm,278.265322935,276.5,274.7,277.1,282.5,0,267.4,265.6,285.5,10,6,8.441,5.267,1.876,-1.634,-4.349,-7.746,283.9,6,357.3,-7.935,-7.953,20,-7.854,-7.525,-5.05,-4.671,-4.755,-5.017,5.072,7.847,18,-1.806,1.594,4.738,8.452,-7.961,-7.831,-1.703,1.346,292.5,286.4,283.0,288.6,290.7,298.3,292.2,268.6,283.1,273.2,4,norm,1.81,1.472,-1.508,-1.788,-4.685,-4.552,-1.222,-1.254,-1.178,-1.954,1.824,-2.016,265.7,,-4.636,-7.652,1.363,-1.817,8.183,5.229,-5.032,-7.943,16,4.889,4.858,5.209,5.277,2.059,1.422,1.736,1.932,16,5.031,4.86,-20,134.76529377,norm,0,59,59,59,268.825,268.838,268.85668995,268.857,268.859,268.861,down,1,1.4192696385,8.5807303615,001,010,1920_1080,Intel(R) Core(TM) i5-3570 CPU @ 3.40GHz,orientation_search,LEPPC096,Intel(R) HD Graphics 2500,2018_Oct_25_1214,testMonitor,
269.7,286.1,280.2,,36,20,270.1,258.8,265.2,273.6,7.7,8.342,7.828,7.58,8.024,7.531,7.682,4.573,-5.132,-7.533,1.878,-1.162,8.133,4.92,-5.142,-8.1,289.1,274.2,-8.274,283.0,281.2,281.0,265.2,284.6,36,284.6,3,5,prime,10,0,104,norm,36,-4.757,up,norm,278.265322935,275.4,275.6,287.7,267.3,3,282.8,262.4,271.6,10,6,7.838,4.571,1.328,-1.124,-5.279,-8.161,270.5,6,382.3,-8.067,-7.923,20,-8.451,-7.765,-4.524,-4.406,-5.006,-4.3,5.022,8.346,21,-1.284,1.439,4.641,8.186,-8.243,-7.93,-1.885,1.591,276.8,287.4,289.0,283.4,298.3,279.0,270.0,278.9,274.6,283.1,5,norm,2.031,1.27,-1.63,-1.958,-5.284,-4.401,-1.58,-1.855,-1.689,-1.249,2.089,-1.27,258.3,288.7,-4.984,-8.206,1.127,-1.109,8.042,4.866,-4.432,-8.368,16,5.106,4.312,4.678,4.331,1.838,1.747,1.48,1.991,16,4.71,4.548,-20,134.76529377,norm,0,60,60,60,270.312,270.322,270.332376361,270.333,270.334,270.337,down,0,2.2798589143,-10,001,010,1920_1080,Intel(R) Core(TM) i5-3570 CPU @ 3.40GHz,orientation_search,LEPPC096,Intel(R) HD Graphics 2500,2018_Oct_25_1214,testMonitor,
355.6,363.4,367.1,367.1,36,-10,361.2,363.5,362.0,360.6,7.789,7.946,8.395,7.927,7.513,7.768,8.395,4.75,-5.148,-8.446,1.692,-2.077,8.252,4.4,-4.541,-8.251,366.7,364.8,-8.325,363.9,368.9,367.7,,362.9,36,369.5,5,5,probe,5,0,65,norm,36,-4.54,down,norm,361.977600605,369.8,363.0,355.8,367.0,2,352.0,372.0,364.5,10,6,8.169,4.66,1.558,-1.632,-4.919,-7.749,362.5,1,297.0,-8.48,-8.272,20,-7.862,-7.737,-4.64,-4.537,-4.316,-4.653,4.373,7.644,32,-1.354,2.011,4.497,7.68,-7.811,-8.232,-1.231,1.19,362.3,363.3,368.1,355.8,359.4,364.4,368.7,367.2,359.0,364.8,0,norm,2.081,1.726,-1.397,-1.8,-4.393,-5.014,-1.783,-1.776,-2.013,-1.477,1.272,-1.806,358.5,355.1,-4.552,-8.407,1.864,-1.459,8.498,4.849,-5.192,-8.152,17,4.961,5.173,4.797,5.227,1.492,1.787,1.118,1.402,17,5.242,4.711,20,278.265322935,norm,0,61,61,61,273.683,273.692,273.701910422,273.702,273.704,273.706,down,1,1.12939979716,8.87060020284,001,010,1920_1080,Intel(R) Core(TM) i5-3570 CPU @ 3.40GHz,orientation_search,LEPPC096,Intel(R) HD Graphics 2500,2018_Oct_25_1214,testMonitor,
189.9,212.6,212.8,218.9,36,-60,197.6,207.9,214.7,192.7,7.522,8.418,7.992,8.411,7.923,8.15,7.859,4.868,-5.137,-8.394,1.994,-2.076,8.16,4.921,-4.927,-8.253,197.9,206.2,-8.339,194.4,211.8,196.0,225.2,185.2,36,200.2,1,5,prime,10,0,99,norm,36,-4.447,down,norm,205.244940726,213.4,209.1,209.3,223.7,0,211.0,210.4,196.8,10,5,7.585,5.263,1.494,-1.974,-4.609,-8.028,188.7,5,304.2,-8.029,-7.579,-60,-7.784,-7.799,-4.597,-5.168,-4.72,-5.047,4.328,7.88,6,-1.972,1.904,4.662,8.041,-7.982,-7.834,-1.959,1.954,214.1,195.2,205.8,202.4,202.1,195.8,189.5,,201.4,198.8,0,norm,1.973,1.318,-1.841,-1.979,-5.024,-5.09,-1.835,-1.249,-2.025,-1.298,1.86,-1.234,194.3,207.5,-5.088,-8.038,1.312,-1.661,8.296,4.303,-5.123,-8.364,18,4.764,5.273,4.921,4.494,1.904,2.085,1.477,1.818,18,5.054,4.53,-10,278.265322935,norm,0,62,62,62,274.857,304.149,304.167872969,304.168,304.17,304.173,down,1,0.909688548936,9.09031145106,001,010,1920_1080,Intel(R) Core(TM) i5-3570 CPU @ 3.40GHz,orientation_search,LEPPC096,Intel(R) HD Graphics 2500,2018_Oct_25_1214,testMonitor,
193.0,217.8,199.5,,36,-60,204.3,216.7,213.2,211.3,8.033,8.486,7.914,7.869,8.36,8.06,8.388,4.947,-4.644,-8.49,1.137,-1.714,8.456,5.114,-4.853,-8.412,208.0,200.4,-8.3,192.1,225.2,220.2,204.9,196.4,36,212.5,3,5,prime,10,0,107,norm,36,-4.602,up,norm,205.244940726,215.6,191.9,209.4,222.3,3,199.9,197.9,204.7,10,5,8.31,4.925,2.074,-1.901,-4.351,-7.839,207.6,5,312.2,-8.273,-8.196,-60,-7.805,-8.419,-4.703,-5.102,-4.951,-4.786,4.445,7.902,21,-1.106,1.447,4.844,7.607,-8.419,-7.508,-1.46,1.6,201.6,220.0,196.0,218.0,205.7,216.2,220.3,194.9,185.2,195.1,1,norm,1.878,1.913,-2.035,-2.04,-4.957,-4.722,-1.93,-1.425,-1.298,-1.158,1.413,-1.879,219.1,220.4,-4.481,-7.751,1.799,-1.845,8.337,5.097,-4.5,-8.484,18,4.438,4.994,4.318,5.248,1.113,1.59,1.425,1.219,18,4.37,5.276,-10,278.265322935,norm,0,63,63,63,305.12,305.129,305.135959648,305.136,305.138,305.141,up,1,0.69035129555,9.30964870445,001,010,1920_1080,Intel(R) Core(TM) i5-3570 CPU @ 3.40GHz,orientation_search,LEPPC096,Intel(R) HD Graphics 2500,2018_Oct_25_1214,testMonitor,
195.8,197.9,208.4,205.3,36,-60,209.3,202.6,185.2,208.1,8.394,8.493,7.723,8.437,7.558,7.749,8.471,5.031,-4.596,-7.616,1.823,-1.213,8.404,4.461,-4.301,-8.465,203.6,211.5,-8.461,213.8,185.3,208.7,193.9,211.4,36,207.6,1,5,prime,10,0,77,norm,36,-4.694,down,norm,205.244940726,217.1,202.8,199.8,211.5,1,208.1,220.3,212.7,10,5,8.121,5.242,1.326,-1.119,-5.147,-7.629,197.9,5,282.2,-8.13,-7.871,-60,-7.618,-8.19,-4.792,-5.08,-4.477,-4.764,5.267,7.86,7,-1.69,1.682,4.431,8.095,-8.307,-8.079,-2.064,1.327,225.2,197.8,210.4,194.7,212.9,214.7,,200.3,215.2,200.5,2,norm,1.176,1.27,-1.721,-1.575,-5.221,-4.344,-1.586,-1.968,-1.336,-1.937,1.364,-1.106,213.6,206.1,-5.175,-8.026,2.072,-1.922,7.767,4.726,-4.754,-8.457,18,5.286,5.023,4.93,4.491,1.101,1.299,1.134,1.699,18,4.892,4.859,-10,278.265322935,norm,0,64,64,64,305.869,305.878,305.884725979,305.885,305.887,305.889,up,0,1.16144140446,-10,001,010,1920_1080,Intel(R) Core(TM) i5-3570 CPU @ 3.40GHz,orientation_search,LEPPC096,Intel(R) HD Graphics 2500,2018_Oct_25_1214,testMonitor,
201.4,204.3,220.8,197.5,36,-60,211.7,205.2,225.2,213.5,8.314,7.964,8.077,8.004,8.441,8.404,7.899,5.295,-4.858,-7.893,2.032,-1.867,8.356,4.414,-5.252,-7.958,208.5,202.8,-7.834,207.4,205.9,198.2,197.2,215.2,36,195.3,1,5,prime,10,0,64,norm,36,-4.306,down,norm,205.244940726,205.1,204.7,205.4,196.5,2,215.2,209.1,211.7,10,5,8.116,4.857,1.333,-1.198,-5.207,-7.747,201.7,5,269.2,-7.818,-7.512,-60,-7.907,-7.7,-4.338,-4.351,-5.229,-4.978,5.101,8.252,8,-2.081,1.59,4.766,8.032,-7.825,-8.228,-1.522,1.936,202.7,,217.6,222.7,197.7,214.5,198.7,209.3,209.2,200.8,3,norm,1.712,1.381,-1.48,-1.408,-4.931,-5.136,-1.25,-1.137,-1.825,-1.244,2.037,-1.704,185.2,207.4,-4.776,-8.401,1.802,-1.295,8.427,4.361,-4.907,-7.712,18,4.313,4.356,4.98,5.024,1.106,1.752,1.32,1.404,18,4.747,4.548,-10,278.265322935,norm,0,65,65,65,308.103,308.113,308.130173746,308.13,308.132,308.135,down,1,0.787931648596,9.2120683514,001,010,1920_1080,Intel(R) Core(TM) i5-3570 CPU @ 3.40GHz,orientation_search,LEPPC096,Intel(R) HD Graphics 2500,2018_Oct_25_1214,testMonitor,
210.3,200.4,213.2,204.0,36,-60,188.6,196.2,,214.8,7.804,7.554,8.145,7.925,8.393,8.385,7.978,4.898,-5.126,-8.321,1.672,-1.435,8.183,4.635,-5.155,-8.324,193.8,194.8,-8.155,187.3,185.2,214.3,192.8,206.0,36,202.4,4,5,prime,10,0,108,norm,36,-4.959,up,norm,205.244940726,201.7,211.2,213.7,200.8,4,204.1,225.2,185.9,10,5,8.462,4.428,1.312,-1.775,-5.169,-8.049,207.6,5,313.2,-7.728,-8.01,-60,-7.811,-7.608,-4.647,-4.415,-4.742,-4.824,4.873,7.99,28,-1.147,1.334,5.165,8.379,-8.227,-7.757,-1.718,2.083,213.5,193.0,204.0,215.9,197.3,193.6,196.6,197.0,202.1,216.0,4,norm,2.033,1.139,-1.802,-1.633,-4.378,-5.073,-1.555,-1.631,-1.128,-1.929,1.601,-1.629,211.9,204.0,-5.071,-7.864,1.818,-1.228,7.959,4.842,-5.176,-8.027,18,4.329,4.658,5.076,4.924,1.856,1.864,1.529,1.281,18,4.938,4.837,-10,278.265322935,norm,0,66,66,66,308.958,308.966,308.973589747,308.974,308.976,308.978,up,1,0.656365156601,9.3436348434,001,010,1920_1080,Intel(R) Core(TM) i5-3570 CPU @ 3.40GHz,orientation_search,LEPPC096,Intel(R) HD Graphics 2500,2018_Oct_25_1214,testMonitor,
233.2,228.2,238.2,234.2,36,-80,221.2,236.8,226.2,229.1,8.465,8.013,8.207,7.56,8.237,8.037,8.282,4.561,-4.472,-8.351,1.293,-1.224,8.026,4.814,-4.618,-7.991,241.2,236.0,-8.357,,238.3,231.2,226.0,233.1,36,224.5,5,5,probe,5,0,80,norm,36,-4.323,down,norm,231.167199306,234.4,229.6,226.1,228.4,1,230.2,238.2,235.9,10,5,7.998,4.935,2.076,-1.467,-4.383,-8.4,233.5,1,151.2,-8.391,-7.521,-60,-7.895,-8.306,-4.921,-4.546,-5.033,-4.415,5.047,8.352,31,-1.702,1.209,5.214,7.904,-8.449,-8.342,-1.534,1.385,234.0,231.1,228.1,232.4,237.6,234.2,231.0,229.8,228.3,232.1,0,norm,1.391,1.91,-1.32,-2.097,-5.283,-5.049,-1.279,-1.406,-1.785,-1.392,1.766,-1.529,241.0,227.8,-4.413,-8.183,1.781,-1.62,8.264,4.558,-4.329,-8.115,19,5.265,4.547,4.5,4.632,1.771,1.258,1.749,1.827,19,4.724,4.342,-60,205.244940726,norm,0,67,67,67,309.667,309.68,309.699626005,309.7,309.702,309.704,down,1,0.793901982564,9.20609801744,001,010,1920_1080,Intel(R) Core(TM) i5-3570 CPU @ 3.40GHz,orientation_search,LEPPC096,Intel(R) HD Graphics 2500,2018_Oct_25_1214,testMonitor,
300.7,309.6,310.5,311.1,36,-20,306.3,311.1,295.5,310.4,7.825,7.944,8.085,7.503,8.216,8.356,8.442,4.548,-4.806,-7.791,1.846,-1.192,8.477,4.571,-4.422,-7.633,304.6,302.7,-7.849,310.6,328.7,324.4,318.8,296.7,36,295.2,2,5,prime,10,0,113,norm,36,-4.381,down,norm,308.660585124,297.4,313.6,314.7,318.7,0,297.2,298.7,,10,6,7.781,4.98,1.199,-1.219,-4.856,-7.909,292.5,6,421.7,-8.027,-8.242,-20,-7.79,-8.227,-5.219,-4.684,-4.996,-4.499,4.637,7.518,12,-1.391,1.304,4.469,7.688,-8.153,-8.331,-1.938,2.092,304.7,298.2,304.6,304.0,301.2,312.4,288.7,309.9,317.4,297.9,0,norm,1.212,1.709,-1.539,-1.167,-4.932,-5.158,-1.817,-1.522,-1.271,-1.78,1.93,-1.5,297.7,309.8,-4.962,-8.055,1.672,-1.22,8.353,4.301,-5.178,-7.533,20,4.369,5.076,4.955,4.491,1.523,1.818,1.921,2.002,20,5.111,4.435,-80,205.244940726,norm,0,68,68,68,310.517,310.527,310.533388472,310.534,310.535,310.538,down,1,1.36234967762,8.63765032238,001,010,1920_1080,Intel(R) Core(TM) i5-3570 CPU @ 3.40GHz,orientation_search,LEPPC096,Intel(R) HD Graphics 2500,2018_Oct_25_1214,testMonitor,
306.2,300.0,316.1,305.9,36,-20,315.6,301.1,322.1,319.9,8.118,8.073,7.718,7.548,7.681,7.982,8.174,5.279,-4.946,-8.368,1.528,-1.12,8.456,4.891,-4.744,-8.183,301.3,300.0,-7.76,316.8,311.4,308.1,313.7,301.6,36,328.7,1,5,prime,10,0,105,norm,36,-4.493,down,norm,308.660585124,301.0,307.4,308.0,322.8,2,307.4,307.4,320.3,10,6,7.875,4.694,1.42,-1.71,-4.494,-7.517,296.4,6,413.7,-7.736,-8.265,-20,-8.019,-7.587,-4.915,-4.963,-5.206,-4.731,4.463,7.978,8,-1.932,1.735,4.641,7.688,-7.718,-7.963,-1.957,1.151,288.7,,316.5,311.7,289.2,311.7,311.7,314.8,300.7,301.2,1,norm,1.548,1.878,-1.423,-1.14,-4.369,-5.289,-1.398,-1.654,-1.241,-1.188,1.692,-1.989,324.4,319.4,-5.181,-7.954,2.024,-1.458,8.254,4.979,-4.911,-7.823,20,4.59,4.36,5.166,4.832,1.873,1.229,1.847,1.278,20,4.473,4.521,-80,205.244940726,norm,0,69,69,69,311.933,311.942,311.952076139,311.952,311.954,311.956,down,1,0.959375528242,9.04062447176,001,010,1920_1080,Intel(R) Core(TM) i5-3570 CPU @ 3.40GHz,orientation_search,LEPPC096,Intel(R) HD Graphics 2500,2018_Oct_25_1214,testMonitor,
301.1,328.7,297.7,304.4,36,-20,297.8,324.2,319.1,315.4,7.857,7.556,7.555,8.441,7.839,7.739,8.175,4.311,-5.174,-8.497,1.316,-1.517,7.552,4.95,-4.546,-7.932,307.6,320.2,-7.626,304.7,303.6,319.5,303.8,317.9,36,306.7,2,5,prime,10,0,107,norm,36,-4.86,up,norm,308.660585124,308.0,314.6,,306.3,3,294.8,311.9,325.5,10,6,7.851,4.74,1.373,-1.398,-4.454,-8.426,309.8,6,415.7,-8.154,-8.369,-20,-7.651,-7.997,-4.523,-5.221,-4.332,-5.057,4.643,7.529,15,-1.921,1.766,4.906,7.543,-7.608,-7.532,-1.42,1.956,301.9,304.1,288.7,313.3,309.2,304.8,322.2,294.4,304.3,310.1,2,norm,1.678,1.294,-1.179,-1.448,-4.399,-5.242,-1.716,-2.087,-1.695,-1.363,1.168,-1.628,312.8,312.6,-4.866,-7.509,1.726,-1.133,7.552,4.462,-4.62,-8.123,20,4.881,4.831,4.877,5.01,1.291,1.213,1.379,1.87,20,4.639,4.633,-80,205.244940726,norm,0,70,70,70,312.935,312.945,312.951332074,312.952,312.953,312.956,up,1,0.775276798437,9.22472320156,001,010,1920_1080,Intel(R) Core(TM) i5-3570 CPU @ 3.40GHz,orientation_search,LEPPC096,Intel(R) HD Graphics 2500,2018_Oct_25_1214,testMonitor,
296.9,303.7,304.8,306.9,36,-20,304.8,297.9,307.7,309.9,7.59,7.731,7.739,8.432,7.919,7.696,8.171,4.78,-4.718,-7.72,1.342,-1.504,8.161,4.382,-5.089,-8.208,300.6,309.2,-8.462,314.7,305.5,315.9,303.4,303.2,36,298.7,0,5,prime,10,0,106,norm,36,-4.325,up,norm,308.660585124,288.7,320.6,311.2,328.7,3,297.9,316.6,293.7,10,6,7.867,5.058,1.268,-1.489,-5.235,-8.243,295.0,6,414.7,-8.126,-7.847,-20,-8.269,-7.869,-4.848,-5.03,-4.594,-5.188,4.391,7.836,3,-1.154,1.477,5.002,7.761,-7.685,-8.415,-1.491,1.375,313.8,303.8,,303.4,303.8,307.4,305.0,292.7,302.0,296.3,3,norm,1.805,1.831,-1.717,-1.193,-4.479,-4.514,-1.488,-1.882,-2.077,-1.27,1.322,-1.783,301.9,311.1,-4.698,-8.337,1.95,-1.853,8.034,4.591,-5.196,-8.125,20,4.533,5.189,4.533,4.903,1.451,1.628,1.616,1.163,20,4.723,4.76,-80,205.244940726,norm,0,71,71,71,313.748,313.757,313.763705899,313.764,313.766,313.768,up,1,0.655267622129,9.34473237787,001,010,1920_1080,Intel(R) Core(TM) i5-3570 CPU @ 3.40GHz,orientation_search,LEPPC096,Intel(R) HD Graphics 2500,2018_Oct_25_1214,testMonitor,
316.9,,324.6,298.1,36,-20,319.3,313.6,311.0,324.7,8.041,7.615,7.898,8.348,7.973,7.952,7.791,4.618,-4.649,-7.697,1.125,-1.325,7.853,5.085,-4.789,-8.072,305.7,302.1,-8.236,298.1,311.7,303.1,302.8,292.3,36,305.4,3,5,prime,10,0,88,norm,36,-4.434,up,norm,308.660585124,306.6,296.1,297.0,303.3,5,308.2,328.7,305.1,10,6,8.399,4.939,1.982,-1.799,-4.407,-7.868,316.3,6,396.7,-7.915,-7.865,-20,-8.059,-7.884,-4.991,-5.274,-4.594,-4.793,5.15,7.67,23,-1.55,1.726,5.283,7.584,-7.671,-7.702,-1.117,1.339,314.2,297.6,309.4,315.3,305.8,323.5,288.7,318.7,316.8,326.4,4,norm,1.616,1.851,-1.443,-1.471,-4.44,-5.093,-1.904,-1.649,-1.252,-1.318,1.363,-1.639,318.7,319.0,-5.015,-7.852,1.677,-1.302,7.816,4.542,-5.279,-7.892,20,5.213,4.386,5.202,5.027,1.423,1.268,1.321,1.255,20,4.352,5.164,-80,205.244940726,norm,0,72,72,72,314.457,314.468,314.472090145,314.472,314.474,314.477,up,1,0.896421844438,9.10357815556,001,010,1920_1080,Intel(R) Core(TM) i5-3570 CPU @ 3.40GHz,orientation_search,LEPPC096,Intel(R) HD Graphics 2500,2018_Oct_25_1214,testMonitor,
,299.6,328.7,322.8,36,-20,299.0,308.0,303.1,308.0,7.902,8.303,8.042,7.92,8.014,7.785,8.151,5.257,-4.919,-7.625,1.187,-1.797,7.865,4.375,-5.255,-8.483,323.3,305.1,-7.749,312.4,312.3,297.7,325.4,299.2,36,293.4,3,5,prime,10,0,78,norm,36,-4.558,up,norm,308.660585124,326.6,318.0,310.6,305.8,4,305.3,312.5,309.9,10,6,7.964,5.095,1.376,-1.949,-5.048,-7.915,298.4,6,386.7,-7.576,-7.982,-20,-7.634,-8.132,-4.681,-4.641,-4.929,-5.003,5.133,8.147,22,-2.059,1.709,4.968,8.167,-7.507,-8.291,-2.084,1.49,288.7,321.8,298.8,304.0,304.0,307.6,305.1,318.9,316.3,299.3,5,norm,1.107,1.396,-1.432,-1.125,-4.757,-4.412,-1.868,-1.194,-1.812,-1.756,2.095,-2.057,317.6,313.0,-4.79,-8.164,2.06,-1.59,7.661,4.357,-4.431,-8.012,20,4.995,4.354,5.224,5.071,1.429,1.711,2.05,1.588,20,4.667,4.346,-80,205.244940726,norm,0,73,73,73,315.416,315.425,315.431768733,315.432,315.434,315.436,up,1,0.942134336288,9.05786566371,001,010,1920_1080,Intel(R) Core(TM) i5-3570 CPU @ 3.40GHz,orientation_search,LEPPC096,Intel(R) HD Graphics 2500,2018_Oct_25_1214,testMonitor,
373.9,,373.8,374.1,36,-40,378.5,375.0,376.7,377.6,7.842,7.604,7.93,7.542,8.055,8.018,7.855,4.349,-4.479,-8.238,1.222,-1.766,7.763,4.626,-4.634,-7.77,368.7,382.3,-8.471,370.1,379.2,374.0,375.2,378.5,36,379.9,3,5,probe,5,0,87,norm,36,-4.938,up,norm,372.254137858,381.1,371.0,367.0,377.5,5,377.4,362.8,369.3,10,6,7.576,4.349,1.299,-1.976,-4.454,-7.867,362.3,2,285.3,-7.522,-8.063,-20,-7.627,-7.836,-4.98,-4.87,-5.286,-5.028,4.985,7.727,23,-2.02,1.866,4.995,8.472,-8.199,-7.561,-1.902,1.754,379.2,371.9,367.4,367.1,367.3,374.2,366.3,377.4,367.7,373.2,0,norm,1.844,1.216,-1.57,-1.4,-5.057,-4.366,-2.0,-1.511,-2.036,-1.328,1.507,-1.735,372.9,366.6,-4.609,-7.922,1.54,-1.527,7.581,4.545,-5.148,-7.886,21,4.95,4.566,4.585,5.244,1.44,2.077,1.204,1.698,21,4.725,5.168,-20,308.660585124,norm,0,74,74,74,316.398,316.408,316.414427024,316.415,316.416,316.419,up,1,1.16127840429,8.83872159571,001,010,1920_1080,Intel(R) Core(TM) i5-3570 CPU @ 3.40GHz,orientation_search,LEPPC096,Intel(R) HD Graphics 2500,2018_Oct_25_1214,testMonitor,
359.7,370.9,371.4,375.7,36,-40,365.0,369.8,361.4,362.0,7.648,8.29,8.364,8.329,8.095,7.741,7.558,5.263,-5.296,-7.687,1.386,-1.643,8.472,4.524,-5.291,-8.117,371.3,371.7,-8.338,366.2,367.2,364.8,367.1,378.3,36,362.9,2,5,probe,5,0,83,norm,36,-4.454,up,norm,368.254137858,371.3,366.0,,375.2,3,365.9,375.6,363.6,10,6,8.017,4.71,1.29,-1.295,-4.509,-7.85,365.5,2,285.3,-7.916,-7.92,-20,-7.571,-8.402,-4.482,-5.083,-5.16,-4.599,4.949,7.889,15,-1.63,1.237,4.929,7.712,-8.07,-8.023,-1.504,1.571,361.6,367.3,375.1,374.1,365.4,366.1,358.3,371.1,367.9,373.5,1,norm,1.17,2.029,-1.681,-1.454,-5.142,-4.835,-1.365,-1.889,-1.425,-1.212,1.923,-1.926,370.9,364.2,-4.734,-8.182,1.747,-1.91,8.176,5.233,-4.838,-7.994,21,4.628,4.518,5.276,4.978,1.896,1.761,1.726,1.31,21,5.054,4.949,-20,308.660585124,norm,0,75,75,75,317.6,317.61,317.630302335,317.63,317.632,317.635,up,1,0.873823078409,9.12617692159,001,010,1920_1080,Intel(R) Core(TM) i5-3570 CPU @ 3.40GHz,orientation_search,LEPPC096,Intel(R) HD Graphics 2500,2018_Oct_25_1214,testMonitor,
82.7,92.4,79.0,77.3,36,30,70.2,74.6,68.1,67.9,8.273,7.693,7.602,8.339,8.161,8.223,8.439,4.438,-4.971,-7.822,1.72,-1.401,8.393,4.741,-4.985,-8.143,80.6,56.8,-7.758,72.5,73.5,69.3,78.3,69.8,36,71.7,2,5,prime,10,0,117,norm,36,-5.208,down,norm,72.3636444339,74.7,59.7,65.1,52.4,1,53.2,,75.4,10,6,7.73,4.81,1.975,-1.788,-4.397,-8.45,67.8,6,189.4,-7.79,-8.115,30,-7.795,-7.724,-4.46,-5.255,-5.07,-4.618,4.794,8.317,13,-1.785,1.191,5.146,8.38,-7.953,-7.74,-1.392,1.974,66.9,91.3,74.3,66.1,62.7,69.2,75.5,73.6,77.7,68.2,0,norm,2.064,1.534,-1.737,-1.411,-4.335,-4.535,-1.92,-1.498,-1.568,-1.871,1.324,-1.228,64.2,84.6,-5.196,-8.433,1.871,-1.56,7.774,5.157,-4.427,-7.553,22,4.543,4.441,5.21,4.796,1.475,1.598,1.452,1.783,22,4.785,5.267,-40,308.660585124,norm,0,76,76,76,318.542,318.554,318.573737654,318.574,318.576,318.578,down,1,1.793537647,8.206462353,001,010,1920_1080,Intel(R) Core(TM) i5-3570 CPU @ 3.40GHz,orientation_search,LEPPC096,Intel(R) HD Graphics 2500,2018_Oct_25_1214,testMonitor,
70.4,,65.0,70.4,36,30,71.6,57.8,68.4,82.7,7.703,7.537,8.027,7.987,8.393,8.03,7.901,4.582,-4.741,-8.07,2.058,-1.201,8.301,4.356,-4.541,-7.719,75.3,52.4,-8.148,79.7,74.4,64.4,82.9,91.8,36,61.6,3,5,prime,10,0,86,norm,36,-4.501,up,norm,72.3636444339,70.8,77.9,85.0,78.9,5,72.6,64.1,53.0,10,6,7.6,5.05,1.357,-1.939,-4.999,-8.026,68.5,6,158.4,-7.955,-8.34,30,-7.832,-8.492,-4.79,-4.496,-4.527,-4.38,5.098,7.85,23,-1.379,1.875,4.637,8.162,-8.082,-8.26,-1.424,1.266,73.7,71.6,83.0,71.9,75.1,92.4,75.0,87.1,75.7,79.6,1,norm,1.228,1.937,-1.674,-1.808,-4.319,-4.397,-1.983,-1.85,-1.484,-1.674,1.641,-1.229,81.7,68.6,-5.104,-8.336,1.216,-1.791,7.846,4.82,-5.167,-8.175,22,5.023,4.698,4.399,4.321,1.691,1.651,1.542,1.182,22,4.613,4.745,-40,308.660585124,norm,0,77,77,77,320.392,320.401,320.410046546,320.41,320.412,320.414,up,1,0.993390041293,9.00660995871,001,010,1920_1080,Intel(R) Core(TM) i5-3570 CPU @ 3.40GHz,orientation_search,LEPPC096,Intel(R) HD Graphics 2500,2018_Oct_25_1214,testMonitor,
64.1,70.5,,62.5,36,30,63.5,72.2,65.8,71.5,7.647,8.464,8.331,8.018,8.385,8.314,8.386,4.766,-4.74,-7.983,1.647,-1.99,7.691,4.418,-4.462,-8.486,86.2,59.0,-7.987,75.6,63.2,52.4,68.8,68.0,36,85.6,3,5,prime,10,0,78,norm,36,-4.936,down,norm,72.3636444339,58.3,69.2,57.2,92.4,2,74.6,64.3,59.0,10,6,7.596,4.384,1.716,-1.742,-4.322,-8.272,76.9,6,150.4,-8.406,-7.817,30,-8.225,-7.895,-4.451,-5.207,-5.246,-4.877,5.259,8.134,20,-1.596,1.254,5.257,8.357,-8.039,-7.586,-1.719,1.454,86.9,76.1,83.6,71.7,65.0,74.3,76.3,75.8,77.6,65.9,2,norm,1.522,1.635,-1.698,-1.742,-5.265,-4.613,-1.141,-1.82,-1.887,-1.744,1.513,-1.475,72.1,72.9,-4.789,-8.238,1.159,-1.789,8.074,4.904,-4.707,-7.687,22,5.275,5.042,5.022,4.9,1.365,1.975,2.084,1.826,22,4.694,4.864,-40,308.660585124,norm,0,78,78,78,321.44,321.45,321.467817428,321.468,321.47,321.472,down,1,1.1972531453,8.8027468547,001,010,1920_1080,Intel(R) Core(TM) i5-3570 CPU @ 3.40GHz,orientation_search,LEPPC096,Intel(R) HD Graphics 2500,2018_Oct_25_1214,testMonitor,
84.5,78.3,74.4,73.6,36,30,67.1,56.6,55.8,85.8,7.826,7.881,7.976,8.082,8.222,7.937,7.901,4.771,-5.177,-7.934,1.638,-1.488,8.029,4.659,-4.343,-7.92,58.1,92.4,-7.694,70.6,78.8,74.9,79.3,,36,78.7,4,5,prime,10,0,102,norm,36,-4.957,down,norm,72.3636444339,63.1,76.1,67.7,55.0,2,75.5,83.6,79.1,10,6,8.492,4.431,1.322,-1.876,-4.492,-7.597,86.7,6,174.4,-8.051,-7.843,30,-7.689,-8.059,-4.308,-4.306,-4.935,-4.518,4.981,8.196,26,-1.315,2.027,4.768,7.624,-7.639,-8.466,-1.915,1.572,74.4,68.8,78.7,68.2,52.4,77.1,76.4,76.4,78.3,66.9,3,norm,1.489,1.989,-1.837,-1.353,-5.019,-5.191,-1.331,-1.284,-1.123,-1.95,1.129,-1.453,75.6,91.5,-4.636,-8.336,1.988,-2.051,8.011,4.68,-4.555,-8.196,22,4.881,4.454,5.298,4.488,1.762,1.374,2.035,1.85,22,4.966,4.768,-40,308.660585124,norm,0,79,79,79,322.686,322.696,322.715681522,322.716,322.718,322.72,down,1,1.55100848808,8.44899151192,001,010,1920_1080,Intel(R) Core(TM) i5-3570 CPU @ 3.40GHz,orientation_search,LEPPC096,Intel(R) HD Graphics 2500,2018_Oct_25_1214,testMonitor,
79.6,86.5,82.1,,36,30,82.7,70.0,82.8,67.5,8.187,7.882,8.09,7.561,8.283,8.392,8.063,4.383,-5.192,-7.686,1.333,-1.786,8.489,4.659,-5.288,-7.61,72.1,70.0,-8.409,83.7,84.2,76.9,63.7,67.8,36,60.2,3,5,prime,10,0,108,norm,36,-4.524,up,norm,72.3636444339,78.4,90.6,91.5,63.1,3,52.4,75.0,91.5,10,6,8.437,5.078,1.363,-2.03,-5.26,-7.897,66.3,6,180.4,-8.149,-7.985,30,-8.005,-8.048,-5.051,-5.003,-4.808,-4.315,4.569,7.714,21,-1.556,1.568,5.283,8.008,-8.046,-7.545,-1.977,1.756,77.4,67.8,80.8,92.4,67.4,74.2,80.4,74.2,62.6,56.9,4,norm,1.416,1.5,-1.783,-1.551,-4.689,-4.671,-1.26,-1.575,-1.895,-1.783,1.657,-1.178,84.3,82.4,-4.707,-8.315,1.605,-2.032,8.37,4.647,-5.221,-8.248,22,4.468,5.258,5.157,5.182,1.562,1.768,1.728,1.402,22,4.671,4.431,-40,308.660585124,norm,0,80,80,80,324.304,324.313,324.322463838,324.323,324.325,324.327,up,1,1.89277909251,8.10722090749,001,010,1920_1080,Intel(R) Core(TM) i5-3570 CPU @ 3.40GHz,orientation_search,LEPPC096,Intel(R) HD Graphics 2500,2018_Oct_25_1214,testMonitor,
79.7,52.4,75.9,60.2,36,30,89.1,64.7,57.7,,7.68,7.978,7.546,7.944,7.5,7.98,7.618,4.551,-4.508,-8.471,1.44,-1.209,7.645,5.206,-4.712,-8.476,75.8,67.5,-7.652,80.3,69.6,75.8,62.2,64.1,36,56.1,4,5,prime,10,0,74,norm,36,-4.393,up,norm,72.3636444339,74.1,84.4,81.4,72.6,5,92.4,71.2,80.7,10,6,8.318,5.17,1.757,-1.859,-4.58,-7.787,64.5,6,146.4,-7.556,-7.829,30,-7.761,-7.761,-4.364,-4.536,-5.041,-5.149,4.305,8.15,29,-1.798,1.207,4.407,8.381,-8.325,-8.081,-1.228,1.54,67.3,58.4,63.8,66.8,74.0,88.6,63.6,57.5,64.0,67.9,5,norm,1.462,1.764,-1.769,-1.17,-5.022,-4.435,-1.164,-1.494,-1.505,-1.808,2.051,-1.81,57.7,78.3,-5.278,-7.946,1.979,-1.554,7.839,4.728,-4.609,-7.71,22,4.747,5.121,5.039,4.55,1.805,1.368,1.397,1.344,22,4.729,4.516,-40,308.660585124,norm,0,81,81,81,326.253,326.262,326.272386262,326.273,326.274,326.277,up,1,1.28149646229,8.71850353771,001,010,1920_1080,Intel(R) Core(TM) i5-3570 CPU @ 3.40GHz,orientation_search,LEPPC096,Intel(R) HD Graphics 2500,2018_Oct_25_1214,testMonitor,
175.1,182.4,183.2,188.2,36,80,182.4,,180.2,176.4,7.952,7.954,7.746,7.896,7.82,8.066,7.918,4.505,-4.442,-7.87,1.925,-1.413,8.029,5.202,-4.849,-7.7,173.3,178.6,-8.313,181.1,178.0,178.1,181.6,171.9,36,181.2,4,5,probe,5,0,74,norm,36,-4.503,down,norm,180.786020219,177.6,188.5,170.8,176.2,1,181.7,184.5,178.5,10,6,7.885,4.314,2.02,-1.204,-5.098,-8.259,179.7,2,106.8,-7.67,-7.836,30,-7.534,-7.55,-5.26,-4.335,-5.005,-5.125,5.128,8.288,25,-1.65,1.676,4.673,8.421,-8.288,-8.216,-1.867,1.743,174.0,190.8,173.7,177.7,189.1,178.4,180.3,185.5,178.5,183.1,0,norm,1.126,2.068,-1.922,-1.113,-4.379,-4.762,-2.033,-1.387,-1.474,-2.082,1.663,-1.584,177.1,176.6,-4.57,-8.268,1.267,-1.589,7.968,4.861,-4.835,-8.368,23,4.841,4.577,4.669,4.981,1.242,1.414,1.389,1.489,23,4.551,4.305,30,72.3636444339,norm,0,82,82,82,327.599,327.609,327.614955567,327.615,327.617,327.619,down,1,1.46788806114,8.53211193886,001,010,1920_1080,Intel(R) Core(TM) i5-3570 CPU @ 3.40GHz,orientation_search,LEPPC096,Intel(R) HD Graphics 2500,2018_Oct_25_1214,testMonitor,
207.1,198.4,192.6,205.0,36,80,197.6,200.7,197.2,211.8,8.428,7.7,7.563,7.549,8.345,8.428,8.167,4.668,-4.608,-7.947,1.319,-2.016,7.844,4.772,-5.004,-8.016,202.4,205.3,-8.051,204.9,204.7,197.7,203.3,200.8,36,201.5,0,5,probe,5,0,95,norm,36,-5.064,down,norm,201.786020219,206.0,199.6,202.0,197.3,0,194.8,203.4,209.7,10,6,8.058,4.903,1.768,-1.875,-4.833,-7.584,202.8,2,106.8,-8.157,-8.282,30,-8.309,-8.288,-5.214,-4.89,-5.21,-5.127,5.294,7.636,0,-1.731,2.016,4.425,8.02,-8.243,-8.115,-2.022,1.246,205.6,203.2,201.3,205.5,193.4,,205.8,192.5,206.3,194.8,1,norm,1.833,2.002,-1.153,-1.919,-4.513,-4.875,-1.579,-1.252,-1.659,-1.82,1.31,-1.118,191.8,203.6,-5.276,-7.942,1.421,-1.134,8.462,4.705,-4.364,-8.012,23,4.479,5.046,4.831,4.768,1.971,1.802,1.997,1.565,23,4.351,5.067,30,72.3636444339,norm,0,83,83,83,329.128,329.138,329.144199005,329.144,329.146,329.149,down,1,1.02986072541,8.97013927459,001,010,1920_1080,Intel(R) Core(TM) i5-3570 CPU @ 3.40GHz,orientation_search,LEPPC096,Intel(R) HD Graphics 2500,2018_Oct_25_1214,testMonitor,
359.6,349.1,345.3,351.6,36,60,343.2,358.3,361.2,353.0,7.757,8.266,7.759,8.14,8.486,8.047,7.732,4.527,-4.345,-7.671,1.404,-1.963,8.049,4.467,-4.376,-8.062,341.7,354.2,-8.265,340.9,338.1,359.2,351.4,344.9,36,347.4,3,5,prime,10,0,89,norm,36,-4.888,down,norm,348.789428561,362.9,343.1,341.0,333.6,0,353.5,342.6,355.3,10,5,8.329,4.683,1.373,-1.424,-4.999,-8.136,341.9,5,437.8,-7.601,-8.462,60,-8.071,-8.457,-4.483,-4.723,-5.117,-5.242,4.849,7.667,18,-1.989,1.855,5.236,8.478,-7.651,-8.371,-1.794,1.27,368.8,354.3,347.3,342.1,335.3,364.8,347.2,344.9,328.8,358.0,0,norm,1.401,1.117,-1.656,-1.13,-5.116,-5.294,-1.878,-1.449,-1.223,-1.761,2.035,-1.814,347.7,,-4.334,-7.82,2.075,-2.012,8.277,4.327,-5.245,-7.602,24,4.603,4.357,4.881,5.037,1.45,1.138,1.819,1.271,24,4.517,5.098,80,72.3636444339,norm,0,84,84,84,330.22,330.241,330.252479112,330.253,330.255,330.258,down,1,0.843785165778,9.15621483422,001,010,1920_1080,Intel(R) Core(TM) i5-3570 CPU @ 3.40GHz,orientation_search,LEPPC096,Intel(R) HD Graphics 2500,2018_Oct_25_1214,testMonitor,
348.7,350.8,337.9,345.3,36,60,352.0,349.0,337.3,349.8,8.466,7.852,8.199,8.087,8.014,7.597,8.414,4.804,-5.221,-7.531,1.991,-1.765,7.562,5.15,-5.259,-7.794,351.5,354.7,-8.474,357.1,358.5,337.2,349.2,346.8,36,342.1,2,5,prime,10,0,69,norm,36,-4.588,up,norm,348.789428561,344.9,,352.1,344.2,4,349.2,328.8,347.2,10,5,8.128,5.271,1.849,-1.174,-4.963,-8.162,348.2,5,417.8,-8.127,-7.583,60,-8.015,-7.503,-4.461,-5.076,-4.831,-4.462,4.802,7.52,16,-1.281,1.489,4.324,7.712,-8.132,-7.67,-2.057,2.057,364.2,347.3,360.5,352.0,347.3,344.8,341.9,360.3,368.8,342.8,1,norm,1.473,1.551,-1.698,-1.948,-5.213,-4.601,-1.714,-1.547,-1.42,-1.763,1.892,-1.835,354.5,330.0,-5.023,-8.199,1.898,-1.52,7.863,4.523,-4.96,-7.798,24,4.819,5.034,4.854,4.688,1.764,1.886,1.721,1.287,24,5.189,4.363,80,72.3636444339,norm,0,85,85,85,331.14,331.149,331.156190384,331.156,331.158,331.161,up,1,1.11086335756,8.88913664244,001,010,1920_1080,Intel(R) Core(TM) i5-3570 CPU @ 3.40GHz,orientation_search,LEPPC096,Intel(R) HD Graphics 2500,2018_Oct_25_1214,testMonitor,
353.8,,330.4,347.0,36,60,351.7,361.3,357.8,344.8,8.33,7.72,8.209,7.706,8.098,8.423,7.861,4.917,-4.781,-8.277,1.224,-1.116,7.715,4.547,-4.553,-7.695,362.3,347.5,-7.9,347.8,344.8,352.3,347.6,367.8,36,345.9,3,5,prime,10,0,66,norm,36,-4.924,up,norm,348.789428561,347.7,358.5,348.9,355.8,5,331.8,352.3,343.5,10,5,8.063,4.572,1.882,-1.242,-4.616,-7.668,354.3,5,414.8,-8.051,-7.666,60,-7.92,-7.993,-4.398,-4.789,-4.344,-4.66,4.417,7.83,23,-1.688,1.486,4.583,8.266,-7.54,-8.371,-1.462,1.688,348.9,347.2,350.2,357.8,345.5,358.0,340.3,355.5,328.8,356.1,2,norm,2.05,1.671,-1.66,-1.164,-4.334,-5.093,-1.789,-1.396,-1.154,-1.435,1.225,-1.283,352.2,368.8,-5.229,-8.047,1.888,-1.99,7.567,5.13,-5.195,-7.882,24,4.844,4.92,4.368,5.051,1.5,1.665,1.142,1.337,24,4.639,4.785,80,72.3636444339,norm,0,86,86,86,332.31,332.32,332.327003091,332.327,332.329,332.331,up,1,1.51675913405,8.48324086595,001,010,1920_1080,Intel(R) Core(TM) i5-3570 CPU @ 3.40GHz,orientation_search,LEPPC096,Intel(R) HD Graphics 2500,2018_Oct_25_1214,testMonitor,
362.6,340.5,338.5,347.9,36,60,361.4,357.0,352.7,350.3,7.911,8.266,8.274,8.24,7.601,8.373,7.733,5.088,-5.001,-7.557,1.805,-1.316,8.187,4.681,-4.683,-7.776,362.6,331.7,-7.573,341.8,335.8,343.2,332.4,348.5,36,353.7,2,5,prime,10,0,113,norm,36,-4.751,down,norm,348.789428561,345.2,339.2,343.8,359.3,0,357.6,361.1,,10,5,7.591,4.954,1.519,-1.639,-5.22,-8.132,346.9,5,461.8,-7.562,-7.716,60,-8.223,-8.109,-5.253,-4.346,-4.891,-5.072,4.333,7.512,12,-1.546,1.983,4.471,7.741,-8.444,-8.474,-1.849,1.437,340.2,349.5,357.6,344.8,342.7,345.2,340.5,356.2,340.9,368.8,3,norm,1.398,1.459,-1.76,-1.383,-4.602,-5.007,-1.233,-1.693,-1.465,-1.852,1.379,-1.955,338.2,328.8,-4.457,-8.062,1.837,-1.629,7.65,5.254,-5.275,-7.999,24,4.523,4.791,4.704,4.609,1.332,1.307,2.093,1.308,24,4.99,4.903,80,72.3636444339,norm,0,87,87,87,333.881,333.89,333.900655925,333.901,333.903,333.905,down,1,1.96796654271,8.03203345729,001,010,1920_1080,Intel(R) Core(TM) i5-3570 CPU @ 3.40GHz,orientation_search,LEPPC096,Intel(R) HD Graphics 2500,2018_Oct_25_1214,testMonitor,
346.9,335.6,355.5,351.9,36,60,338.1,368.8,336.4,357.4,8.184,8.252,8.371,7.714,8.064,8.351,8.376,4.62,-4.535,-8.235,1.76,-1.754,8.216,4.911,-4.684,-7.603,344.8,341.6,-8.5,344.8,361.7,346.3,348.9,336.2,36,354.0,2,5,prime,10,0,64,norm,36,-4.758,up,norm,348.789428561,,339.6,340.3,355.6,5,351.3,362.8,346.4,10,5,7.615,4.892,1.872,-1.659,-5.238,-8.047,358.7,5,412.8,-8.012,-8.456,60,-8.378,-8.106,-4.532,-5.098,-5.111,-4.534,5.004,7.892,17,-1.642,1.412,5.01,8.291,-7.562,-8.143,-1.534,1.514,350.6,335.5,354.3,367.4,350.7,359.5,335.8,345.9,328.8,332.9,4,norm,1.764,1.593,-1.69,-2.058,-4.505,-4.823,-1.189,-2.024,-1.266,-1.761,1.569,-1.643,360.4,339.9,-4.724,-8.291,1.649,-1.181,8.027,4.802,-5.012,-7.583,24,5.216,4.557,4.928,5.198,1.377,1.571,1.479,1.183,24,4.69,4.673,80,72.3636444339,norm,0,88,88,88,335.914,335.935,335.946391659,335.947,335.949,335.951,up,1,0.9790644394,9.0209355606,001,010,1920_1080,Intel(R) Core(TM) i5-3570 CPU @ 3.40GHz,orientation_search,LEPPC096,Intel(R) HD Graphics 2500,2018_Oct_25_1214,testMonitor,
508.2,508.9,521.1,513.9,36,-30,502.8,510.0,510.5,519.4,7.655,7.782,8.038,7.812,7.879,8.042,7.616,5.014,-4.975,-8.074,1.891,-1.108,8.494,4.643,-4.989,-7.85,510.7,511.2,-7.997,511.4,503.9,507.0,515.6,,36,512.5,4,5,probe,5,0,104,norm,36,-5.122,down,norm,511.142268783,511.3,512.9,511.5,516.1,2,515.2,507.7,510.5,10,5,7.767,5.29,1.319,-1.515,-4.529,-7.637,513.5,1,407.1,-8.167,-8.104,60,-8.466,-8.062,-4.637,-4.524,-5.043,-4.955,4.5,7.606,26,-1.404,1.137,4.55,7.506,-8.166,-8.02,-1.912,1.14,509.7,514.8,513.4,505.9,510.9,505.6,508.4,512.4,511.8,510.7,0,norm,1.318,1.144,-1.679,-1.185,-4.838,-4.716,-1.598,-2.049,-1.34,-1.941,1.467,-1.757,501.1,504.4,-5.17,-8.305,1.846,-1.417,8.474,4.376,-5.12,-7.631,25,4.339,4.95,4.413,5.108,1.542,1.369,1.143,2.08,25,4.817,4.471,60,348.789428561,norm,0,89,89,89,336.964,336.977,336.995783125,336.996,336.998,337.0,down,1,0.843240020768,9.15675997923,001,010,1920_1080,Intel(R) Core(TM) i5-3570 CPU @ 3.40GHz,orientation_search,LEPPC096,Intel(R) HD Graphics 2500,2018_Oct_25_1214,testMonitor,
338.7,320.1,332.6,357.5,36,-30,333.4,327.9,342.0,329.9,8.277,7.707,8.207,7.914,7.532,7.759,7.573,4.935,-5.186,-8.293,1.775,-1.687,7.828,5.199,-5.247,-7.713,333.4,317.5,-8.16,333.9,341.6,329.2,333.2,340.6,36,339.3,3,5,prime,10,0,67,norm,36,-4.514,down,norm,337.498439591,327.0,344.9,347.5,325.5,0,331.5,339.3,341.2,10,5,7.938,4.384,1.719,-1.153,-4.68,-7.601,329.3,5,404.5,-8.434,-8.348,-30,-7.885,-8.489,-5.262,-4.921,-4.752,-4.526,4.51,7.962,18,-2.082,2.084,4.911,8.408,-7.821,-7.817,-1.811,1.436,352.9,320.1,331.6,331.1,343.0,339.6,331.8,331.1,326.7,350.0,0,norm,1.508,1.131,-1.899,-1.865,-4.441,-4.816,-1.418,-2.022,-1.587,-1.48,1.491,-1.526,343.4,,-4.567,-7.749,1.258,-2.057,7.786,4.644,-5.033,-8.431,26,4.657,4.376,5.025,4.544,1.576,1.532,2.079,1.152,26,4.486,4.427,-30,348.789428561,norm,0,90,90,90,337.879,337.889,337.895084036,337.895,337.897,337.899,down,1,1.33116683973,8.66883316027,001,010,1920_1080,Intel(R) Core(TM) i5-3570 CPU @ 3.40GHz,orientation_search,LEPPC096,Intel(R) HD Graphics 2500,2018_Oct_25_1214,testMonitor,
317.5,351.7,347.7,357.5,36,-30,331.7,330.0,342.3,326.0,7.84,8.056,8.315,7.856,8.469,8.167,8.021,5.255,-4.944,-8.409,1.36,-1.722,7.716,4.421,-5.154,-8.358,342.2,344.2,-8.028,347.5,339.0,342.0,347.7,331.3,36,319.2,0,5,prime,10,0,70,norm,36,-4.81,down,norm,337.498439591,347.5,336.2,342.2,347.4,0,345.8,349.1,343.8,10,5,7.793,4.83,1.961,-1.933,-4.575,-7.761,348.2,5,407.5,-8.4,-8.442,-30,-8.059,-8.161,-4.803,-4.33,-4.573,-4.507,4.892,7.691,0,-2.087,2.069,5.183,8.145,-7.807,-7.891,-1.292,1.736,346.4,348.2,324.0,333.6,343.8,,328.4,344.2,335.9,342.1,1,norm,1.361,1.933,-1.931,-1.751,-5.245,-5.3,-1.822,-1.345,-1.237,-1.155,2.06,-1.563,336.0,347.4,-5.071,-7.815,1.703,-1.373,8.382,4.523,-4.476,-8.473,26,4.596,4.476,4.602,5.106,1.536,1.399,1.809,1.785,26,4.865,5.227,-30,348.789428561,norm,0,91,91,91,339.264,339.273,339.28252276,339.283,339.285,339.287,down,1,0.943221004081,9.05677899592,001,010,1920_1080,Intel(R) Core(TM) i5-3570 CPU @ 3.40GHz,orientation_search,LEPPC096,Intel(R) HD Graphics 2500,2018_Oct_25_1214,testMonitor,
334.9,346.4,340.3,329.1,36,-30,324.7,323.9,345.2,328.5,8.248,8.425,8.443,8.083,7.727,7.827,7.884,5.017,-4.798,-7.88,1.172,-1.87,7.579,4.622,-4.561,-8.276,356.9,317.5,-8.323,,334.5,328.3,332.8,342.6,36,328.2,5,5,prime,10,0,65,norm,36,-5.253,down,norm,337.498439591,333.3,334.7,336.7,344.4,1,323.8,323.5,341.5,10,5,8.393,4.411,1.469,-1.396,-4.991,-8.399,345.2,5,402.5,-7.672,-8.261,-30,-7.787,-7.773,-4.389,-4.812,-5.061,-5.098,5.234,7.783,31,-1.976,1.606,4.303,7.793,-7.944,-7.759,-1.653,1.249,357.5,339.6,340.4,339.7,326.1,333.9,333.7,336.4,351.5,336.8,2,norm,1.748,1.23,-1.457,-2.03,-5.27,-5.108,-1.731,-1.573,-1.921,-1.194,1.985,-1.683,355.7,334.3,-4.494,-8.195,1.592,-1.163,7.598,5.085,-4.89,-7.775,26,4.574,4.652,4.379,4.641,2.019,1.866,1.748,1.672,26,4.984,4.83,-30,348.789428561,norm,0,92,92,92,340.25,340.259,340.266340465,340.267,340.268,340.271,down,1,0.876974113158,9.12302588684,001,010,1920_1080,Intel(R) Core(TM) i5-3570 CPU @ 3.40GHz,orientation_search,LEPPC096,Intel(R) HD Graphics 2500,2018_Oct_25_1214,testMonitor,
347.0,340.4,339.7,334.9,36,-30,340.1,322.1,343.8,327.8,8.488,8.386,8.194,7.535,8.143,8.407,8.357,4.777,-5.057,-7.663,2.002,-1.869,8.098,4.355,-5.001,-8.327,345.4,,-8.45,330.4,342.0,333.1,347.8,330.0,36,336.4,5,5,prime,10,0,112,norm,36,-4.745,up,norm,337.498439591,339.5,331.9,327.2,340.6,4,323.3,357.5,317.5,10,5,8.342,4.89,1.703,-1.432,-4.764,-7.928,329.1,5,449.5,-7.965,-8.237,-30,-8.093,-8.405,-4.362,-4.508,-4.363,-4.462,4.716,7.911,34,-2.088,1.541,4.331,7.938,-7.988,-8.419,-1.613,1.383,330.6,354.3,334.2,318.5,322.9,350.1,335.8,340.5,326.2,329.1,3,norm,1.232,2.086,-2.05,-2.074,-4.454,-4.529,-2.018,-1.833,-1.483,-1.727,1.494,-1.716,344.1,350.7,-5.162,-7.831,1.901,-1.238,8.183,5.213,-4.869,-7.956,26,4.811,5.168,5.019,4.678,1.562,1.568,1.565,1.762,26,4.682,5.109,-30,348.789428561,norm,0,93,93,93,341.186,341.199,341.218950279,341.219,341.221,341.225,up,1,1.48597232619,8.51402767381,001,010,1920_1080,Intel(R) Core(TM) i5-3570 CPU @ 3.40GHz,orientation_search,LEPPC096,Intel(R) HD Graphics 2500,2018_Oct_25_1214,testMonitor,
326.7,344.1,342.6,340.1,36,-30,347.8,325.1,328.2,322.2,8.03,8.244,7.867,7.811,8.143,8.056,8.078,4.772,-5.219,-8.46,1.875,-1.463,8.349,4.491,-5.131,-7.837,326.4,326.3,-8.21,335.8,343.2,332.9,351.0,325.6,36,350.5,0,5,prime,10,0,99,norm,36,-4.364,up,norm,337.498439591,354.1,333.2,346.9,341.5,4,336.2,357.5,329.9,10,5,7.638,5.109,1.862,-1.678,-4.569,-8.041,342.6,5,436.5,-8.177,-8.402,-30,-8.327,-7.876,-5.166,-5.266,-4.444,-4.69,5.095,8.138,4,-1.34,1.263,4.377,7.688,-8.441,-8.165,-1.845,1.115,350.6,347.6,317.5,331.9,342.4,329.7,341.2,341.4,345.0,,4,norm,1.148,1.976,-1.805,-1.453,-5.222,-4.417,-1.973,-1.334,-1.498,-1.641,1.616,-1.376,318.6,349.0,-4.448,-7.89,1.682,-1.607,8.147,4.552,-4.554,-8.214,26,4.456,4.893,4.421,4.36,1.225,1.564,1.881,1.639,26,4.952,4.543,-30,348.789428561,norm,0,94,94,94,342.742,342.752,342.761107556,342.761,342.763,342.766,up,1,1.0923235976,8.9076764024,001,010,1920_1080,Intel(R) Core(TM) i5-3570 CPU @ 3.40GHz,orientation_search,LEPPC096,Intel(R) HD Graphics 2500,2018_Oct_25_1214,testMonitor,
371.8,375.3,378.7,372.2,36,60,367.4,371.3,385.6,374.5,8.123,8.202,8.128,8.109,7.508,8.041,7.8,4.823,-4.374,-7.81,1.392,-1.283,8.127,5.137,-4.602,-7.8,377.4,377.1,-8.329,381.9,377.2,371.1,372.6,382.8,36,374.2,1,5,probe,5,0,73,norm,36,-5.22,up,norm,375.61141134,379.3,374.0,374.6,365.6,3,366.4,372.4,377.0,10,5,7.726,5.292,1.848,-1.298,-4.574,-8.469,378.4,1,302.6,-8.379,-7.523,-30,-7.568,-8.383,-4.882,-4.693,-4.872,-4.891,4.938,8.119,9,-1.132,1.888,4.365,8.157,-8.239,-8.465,-1.802,1.278,,370.7,379.0,379.1,368.4,372.9,375.3,380.3,374.1,373.9,0,norm,1.876,1.194,-1.929,-1.749,-5.284,-4.977,-1.249,-1.15,-1.931,-2.07,1.535,-1.891,379.5,372.1,-5.106,-7.581,1.299,-1.846,7.938,4.514,-4.548,-8.434,27,4.616,4.731,4.556,5.217,2.059,1.593,1.651,1.43,27,5.282,4.608,-30,337.498439591,norm,0,95,95,95,343.891,343.903,343.923070259,343.923,343.925,343.927,up,1,1.23961719108,8.76038280892,001,010,1920_1080,Intel(R) Core(TM) i5-3570 CPU @ 3.40GHz,orientation_search,LEPPC096,Intel(R) HD Graphics 2500,2018_Oct_25_1214,testMonitor,
