d_ori_22,d_ori_23,d_ori_20,d_ori_21,set_size,ctpd,d_ori_24,d_ori_25,d_ori_28,d_ori_29,stim_pos_x_30,stim_pos_x_31,stim_pos_x_32,stim_pos_x_33,stim_pos_x_34,stim_pos_x_35,stim_pos_y_11,stim_pos_y_10,stim_pos_y_13,stim_pos_y_12,stim_pos_y_15,stim_pos_y_14,stim_pos_y_17,stim_pos_y_16,stim_pos_y_19,stim_pos_y_18,d_ori_35,d_ori_34,stim_pos_x_3,d_ori_31,d_ori_30,d_ori_33,d_ori_32,d_ori_26,test_set_size,d_ori_27,targetCol,dsd_test,seq_type,dsd,blockRepN,targetDist,dtype_test,prime_set_size,stim_pos_y_25,correctResponse,dtype,distrMean,d_ori_17,d_ori_16,d_ori_15,d_ori_14,targetRow,d_ori_11,d_ori_13,d_ori_12,dsd_prime,streak_length_prime,stim_pos_y_35,stim_pos_y_34,stim_pos_y_33,stim_pos_y_32,stim_pos_y_31,stim_pos_y_30,d_ori_10,nextProbe,targetOri,stim_pos_x_1,stim_pos_x_2,ctpd_prime,stim_pos_x_4,stim_pos_x_5,stim_pos_x_6,stim_pos_x_7,stim_pos_x_8,stim_pos_x_9,stim_pos_y_28,stim_pos_y_29,targetPos,stim_pos_y_20,stim_pos_y_21,stim_pos_y_22,stim_pos_y_23,stim_pos_y_24,stim_pos_x_0,stim_pos_y_26,stim_pos_y_27,d_ori_9,d_ori_8,d_ori_3,d_ori_2,d_ori_1,d_ori_0,d_ori_7,d_ori_6,d_ori_5,d_ori_4,trialN,dtype_prime,stim_pos_x_18,stim_pos_x_19,stim_pos_x_12,stim_pos_x_13,stim_pos_x_10,stim_pos_x_11,stim_pos_x_16,stim_pos_x_17,stim_pos_x_14,stim_pos_x_15,stim_pos_y_9,stim_pos_y_8,d_ori_19,d_ori_18,stim_pos_y_1,stim_pos_y_0,stim_pos_y_3,stim_pos_y_2,stim_pos_y_5,stim_pos_y_4,stim_pos_y_7,stim_pos_y_6,totBlockN,stim_pos_x_27,stim_pos_x_26,stim_pos_x_25,stim_pos_x_24,stim_pos_x_23,stim_pos_x_22,stim_pos_x_21,stim_pos_x_20,blockN,stim_pos_x_29,stim_pos_x_28,prevDistrCTPD,prevDistrMean,prevDistrType,trials.thisRepN,trials.thisTrialN,trials.thisN,trials.thisIndex,timeStart,timeBeforeDraw,timeDraw,timeAfterSaving,timeAfterWritingToTemp,timeAfterPreparingNext,answer,correct,rt,trialScore,session,participant,resolution,cpu_info,expName,pc_name,graphic_card,date,monitorName,
355.2,343.3,346.9,368.5,36,60,357.5,348.9,370.6,366.6,7.872,7.672,7.785,8.251,8.084,7.908,7.801,4.433,-4.914,-8.035,1.887,-1.865,7.634,4.596,-4.548,-7.816,355.0,357.8,-7.634,355.7,355.0,362.0,344.7,,36,355.6,4,5,prime,10,0,102,norm,36,-5.125,down,norm,355.506175121,341.9,345.2,352.8,351.2,2,364.4,360.5,364.1,10,6,8.434,5.023,1.202,-1.484,-4.497,-7.911,347.0,6,457.5,-8.117,-8.235,60,-8.483,-7.536,-4.376,-4.891,-5.093,-4.654,4.971,8.12,26,-1.182,1.7,5.107,7.68,-8.409,-7.949,-2.076,1.107,364.8,360.2,350.1,355.7,335.5,353.6,355.9,361.8,367.5,347.8,0,norm,1.983,1.398,-1.15,-1.875,-5.192,-4.672,-1.368,-1.952,-1.659,-1.111,1.215,-1.42,354.8,349.4,-4.482,-8.226,1.712,-1.149,8.409,5.264,-5.088,-7.648,0,4.944,5.065,5.203,4.995,1.143,1.197,2.042,1.409,0,4.902,4.798,,,,0,0,0,0,214.364,214.38,214.400810579,214.401,214.401,214.404,down,1,6.55453571587,3.44546428413,001,011,1920_1080,Intel(R) Core(TM) i5-3570 CPU @ 3.40GHz,orientation_search,LEPPC096,Intel(R) HD Graphics 2500,2018_Oct_31_1250,testMonitor,
356.3,371.4,336.5,351.1,36,60,348.7,365.4,363.0,,8.071,7.695,8.146,7.813,7.726,7.92,7.997,4.975,-4.46,-7.669,1.306,-1.408,7.599,4.814,-4.524,-8.456,354.8,362.0,-7.722,348.8,351.3,352.3,360.5,360.5,36,335.5,4,5,prime,10,0,90,norm,36,-5.112,up,norm,355.506175121,349.2,363.1,352.5,362.3,5,337.2,363.4,353.6,10,6,8.142,4.508,1.997,-1.496,-5.278,-8.078,369.8,6,445.5,-7.944,-8.203,60,-7.698,-8.492,-5.288,-5.09,-4.733,-5.275,5.143,8.105,29,-1.992,1.202,4.929,8.268,-8.078,-7.538,-1.459,1.217,352.0,355.3,355.5,347.3,351.2,375.5,354.3,349.4,339.9,362.3,1,norm,1.774,1.653,-1.209,-2.032,-4.612,-4.813,-1.449,-1.298,-1.556,-1.519,2.016,-1.848,358.1,367.7,-4.457,-8.332,1.532,-1.567,8.043,4.919,-4.614,-8.484,0,4.509,4.963,4.758,5.16,1.169,1.24,1.973,1.191,0,4.348,5.206,,,,0,1,1,1,220.997,221.01,221.029765414,221.03,221.031,221.035,down,0,2.51424731937,-10,001,011,1920_1080,Intel(R) Core(TM) i5-3570 CPU @ 3.40GHz,orientation_search,LEPPC096,Intel(R) HD Graphics 2500,2018_Oct_31_1250,testMonitor,
362.9,361.4,357.4,340.5,36,60,349.5,358.8,354.9,354.5,7.707,8.146,7.797,7.971,7.775,7.646,8.311,5.042,-4.74,-7.619,1.387,-1.448,7.594,5.136,-4.549,-7.821,342.9,359.4,-7.711,335.5,359.6,363.2,356.3,347.1,36,337.1,1,5,prime,10,0,117,norm,36,-4.739,down,norm,355.506175121,364.2,353.9,356.3,340.5,0,373.3,372.5,375.5,10,6,7.789,5.123,2.02,-1.617,-5.116,-8.276,347.2,6,472.5,-7.576,-7.983,60,-7.722,-8.015,-4.754,-4.378,-4.903,-5.246,4.798,7.65,6,-1.385,1.371,5.184,8.026,-7.78,-8.483,-1.611,1.881,344.0,358.6,361.7,363.8,348.3,364.5,356.1,,357.0,348.7,2,norm,1.205,1.107,-2.002,-1.763,-5.265,-4.594,-1.847,-1.407,-1.624,-1.93,1.45,-1.48,353.6,355.8,-4.674,-7.776,1.853,-1.652,8.267,5.113,-4.358,-7.653,0,4.438,4.64,4.716,4.701,1.493,2.086,1.123,1.899,0,5.263,4.571,,,,0,2,2,2,224.62,224.629,224.646854047,224.647,224.649,224.651,down,1,6.02034869945,3.97965130055,001,011,1920_1080,Intel(R) Core(TM) i5-3570 CPU @ 3.40GHz,orientation_search,LEPPC096,Intel(R) HD Graphics 2500,2018_Oct_31_1250,testMonitor,
349.6,346.6,353.4,353.1,36,60,353.0,339.7,344.4,348.6,7.649,7.797,8.316,7.579,7.671,8.052,8.404,4.65,-4.438,-7.966,1.646,-1.89,7.764,5.185,-5.181,-7.808,358.8,343.6,-8.103,359.6,357.8,371.0,360.2,361.6,36,362.5,1,5,prime,10,0,92,norm,36,-4.605,up,norm,355.506175121,348.1,363.7,339.8,365.7,5,,347.6,351.9,10,6,7.607,4.758,1.259,-1.715,-4.547,-7.874,348.7,6,447.5,-8.017,-7.929,60,-7.991,-8.048,-5.166,-4.917,-5.014,-4.331,5.145,8.076,11,-1.624,1.375,4.423,8.4,-7.917,-8.251,-1.371,1.498,335.5,354.3,359.3,359.3,353.1,356.4,364.7,352.6,375.5,354.9,3,norm,1.427,1.837,-1.963,-1.705,-4.614,-4.462,-2.038,-1.198,-1.175,-1.98,1.436,-1.691,343.9,358.4,-4.454,-8.265,1.902,-1.656,7.954,4.309,-4.351,-7.949,0,5.222,4.869,4.356,4.376,1.842,2.021,1.393,1.8,0,4.439,4.749,,,,0,3,3,3,230.704,230.713,230.730495189,230.731,230.732,230.735,up,1,4.57263173273,5.42736826727,001,011,1920_1080,Intel(R) Core(TM) i5-3570 CPU @ 3.40GHz,orientation_search,LEPPC096,Intel(R) HD Graphics 2500,2018_Oct_31_1250,testMonitor,
360.2,353.6,347.1,362.7,36,60,354.4,351.7,366.1,348.9,7.562,7.718,8.207,8.103,8.466,8.445,8.305,5.106,-4.659,-7.963,1.538,-1.345,8.306,5.297,-5.112,-7.701,339.0,358.3,-8.267,350.9,351.7,354.5,355.0,363.3,36,340.1,3,5,prime,10,0,77,norm,36,-4.413,down,norm,355.506175121,351.7,342.9,350.1,362.8,1,349.3,350.3,348.4,10,6,8.174,5.196,1.122,-1.732,-5.202,-7.774,359.5,6,432.5,-8.142,-8.122,60,-7.742,-8.207,-4.791,-5.0,-5.134,-4.491,4.503,8.082,19,-1.405,1.644,4.905,8.205,-7.796,-8.04,-2.1,1.319,355.7,346.2,349.9,363.8,375.5,338.2,370.0,365.4,335.5,363.8,4,norm,1.266,2.029,-1.653,-2.069,-4.926,-4.423,-1.66,-1.119,-1.185,-1.783,1.947,-1.675,,371.4,-4.355,-7.624,1.643,-1.418,8.293,4.601,-5.088,-8.134,0,4.357,4.971,4.317,5.215,1.307,1.652,1.995,1.322,0,4.979,4.781,,,,0,4,4,4,235.339,235.352,235.370801273,235.371,235.373,235.375,down,1,2.99409617865,7.00590382135,001,011,1920_1080,Intel(R) Core(TM) i5-3570 CPU @ 3.40GHz,orientation_search,LEPPC096,Intel(R) HD Graphics 2500,2018_Oct_31_1250,testMonitor,
337.5,360.3,353.5,352.5,36,60,365.9,354.8,335.5,342.6,8.42,7.544,7.857,8.107,7.53,7.695,7.931,5.264,-4.779,-8.153,1.563,-1.287,8.419,4.909,-4.857,-8.217,362.6,345.4,-7.843,358.7,347.6,358.2,361.6,367.1,36,368.8,0,5,prime,10,0,117,norm,36,-5.034,up,norm,355.506175121,362.8,342.6,360.5,357.9,4,352.4,363.8,354.3,10,6,7.845,4.925,1.732,-2.075,-4.993,-8.185,364.2,6,472.5,-7.897,-7.949,60,-8.2,-8.23,-4.978,-4.971,-4.876,-5.173,4.595,8.207,4,-1.693,1.888,4.342,7.912,-7.695,-8.081,-1.109,1.611,356.7,364.3,357.9,362.2,348.9,361.4,356.3,358.1,364.6,,5,norm,1.81,1.166,-1.324,-1.956,-4.853,-4.714,-1.695,-1.435,-1.848,-1.671,1.491,-1.874,364.4,375.5,-4.451,-7.704,1.94,-1.398,7.692,5.216,-4.907,-7.773,0,4.489,4.419,4.682,4.49,1.165,1.935,1.94,1.447,0,4.405,4.596,,,,0,5,5,5,238.385,238.397,238.401108502,238.401,238.403,238.406,up,1,3.16274160194,6.83725839806,001,011,1920_1080,Intel(R) Core(TM) i5-3570 CPU @ 3.40GHz,orientation_search,LEPPC096,Intel(R) HD Graphics 2500,2018_Oct_31_1250,testMonitor,
522.8,516.8,525.4,521.0,36,10,508.6,520.1,524.1,519.5,8.374,7.894,8.435,7.782,7.646,7.582,7.611,4.518,-4.81,-7.734,1.525,-1.101,7.801,4.476,-5.142,-7.615,514.2,527.7,-8.314,520.7,517.8,521.6,527.2,512.7,36,510.6,3,5,probe,5,0,99,norm,36,-5.013,down,norm,518.562893708,520.8,517.7,516.0,516.8,1,515.5,515.9,513.2,10,6,8.494,4.486,2.044,-1.498,-5.137,-8.417,519.2,2,419.6,-7.782,-8.443,60,-8.448,-8.481,-4.754,-4.57,-5.1,-5.143,4.547,7.864,19,-1.447,1.88,4.745,8.464,-8.114,-8.298,-2.074,1.566,528.6,526.3,521.0,516.9,508.7,524.1,523.3,515.3,513.9,516.8,0,norm,2.066,1.625,-1.555,-1.255,-4.592,-5.07,-1.972,-1.329,-1.455,-1.889,1.933,-2.098,,521.0,-4.402,-8.368,1.719,-2.03,7.551,5.222,-5.015,-8.031,1,5.229,4.513,4.623,4.925,1.82,1.438,1.177,1.321,1,4.732,5.239,60,355.506175121,norm,0,6,6,6,241.588,241.598,241.606022025,241.606,241.608,241.61,down,1,1.53391837278,8.46608162722,001,011,1920_1080,Intel(R) Core(TM) i5-3570 CPU @ 3.40GHz,orientation_search,LEPPC096,Intel(R) HD Graphics 2500,2018_Oct_31_1250,testMonitor,
488.6,494.5,508.6,503.4,36,10,490.8,499.3,497.7,502.9,7.54,7.678,7.539,7.729,7.974,7.771,8.331,4.869,-5.261,-8.214,1.945,-1.679,7.665,4.392,-4.592,-7.746,499.6,,-8.114,496.8,503.3,504.3,499.9,497.6,36,501.7,5,5,probe,5,0,79,norm,36,-4.357,up,norm,498.562893708,498.5,495.5,495.4,502.0,4,499.7,503.9,504.3,10,6,7.852,5.262,1.293,-1.133,-4.319,-7.968,495.1,2,419.6,-7.612,-7.509,60,-7.864,-8.358,-5.224,-5.192,-5.051,-4.427,4.814,8.1,34,-1.657,1.916,4.74,7.744,-7.907,-7.621,-1.637,1.58,495.6,499.9,496.6,497.2,499.8,497.4,500.6,499.1,503.1,498.7,1,norm,1.525,1.39,-1.806,-1.883,-5.15,-4.493,-1.261,-2.049,-1.333,-2.007,1.408,-2.095,500.5,505.8,-4.993,-7.563,1.171,-1.733,7.991,4.528,-5.29,-8.237,1,4.493,5.172,4.98,5.201,1.77,1.385,1.272,1.821,1,4.551,4.322,60,355.506175121,norm,0,7,7,7,243.164,243.174,243.17959069,243.18,243.181,243.184,up,1,1.19941176098,8.80058823902,001,011,1920_1080,Intel(R) Core(TM) i5-3570 CPU @ 3.40GHz,orientation_search,LEPPC096,Intel(R) HD Graphics 2500,2018_Oct_31_1250,testMonitor,
6.8,2.6,12.7,-3.2,36,-80,-10.8,12.0,7.1,26.0,7.598,8.409,7.651,7.706,8.364,8.036,8.297,4.755,-4.741,-7.982,2.004,-1.467,8.415,4.581,-4.445,-8.165,-1.3,5.1,-7.788,4.0,-6.5,-0.3,14.3,10.2,36,0.8,0,5,prime,10,0,69,norm,36,-4.83,down,norm,5.9742472525,6.3,10.1,4.6,-5.8,2,7.6,-14.0,2.0,10,6,8.417,4.417,2.085,-1.59,-4.869,-7.802,4.0,6,75.0,-8.416,-8.357,-80,-8.35,-8.231,-4.547,-4.565,-4.351,-4.456,4.403,7.776,2,-1.516,1.609,4.345,7.627,-8.436,-7.82,-2.078,1.138,5.4,-3.8,-0.7,,4.8,13.4,4.3,10.5,14.6,8.0,0,norm,1.196,1.716,-1.449,-2.066,-4.426,-4.955,-1.891,-1.845,-1.231,-1.475,1.122,-1.851,18.5,17.4,-4.995,-7.633,1.924,-1.273,8.308,4.762,-5.253,-8.21,2,4.501,4.305,4.654,4.637,1.446,1.767,1.365,1.993,2,4.588,4.449,10,355.506175121,norm,0,8,8,8,244.416,244.425,244.442116501,244.442,244.444,244.447,down,1,2.70104369564,7.29895630436,001,011,1920_1080,Intel(R) Core(TM) i5-3570 CPU @ 3.40GHz,orientation_search,LEPPC096,Intel(R) HD Graphics 2500,2018_Oct_31_1250,testMonitor,
6.0,4.4,16.0,-2.7,36,-80,9.3,16.5,-11.1,7.0,8.416,7.745,7.766,8.003,7.598,8.042,7.757,5.008,-4.514,-7.558,1.791,-1.305,8.208,4.341,-4.472,-8.177,8.3,8.9,-8.112,-2.8,6.3,-3.9,26.0,9.1,36,14.1,3,5,prime,10,0,98,norm,36,-4.638,down,norm,5.9742472525,-1.2,-10.5,-14.0,14.2,0,16.6,-5.8,0.7,10,6,8.491,4.749,1.444,-1.653,-5.3,-8.481,4.3,6,104.0,-8.077,-8.283,-80,-8.425,-8.28,-5.256,-4.829,-4.98,-5.093,4.909,8.168,18,-1.582,2.023,4.856,8.109,-8.215,-8.321,-1.715,1.865,12.3,13.5,8.5,4.5,7.8,13.9,9.8,16.9,3.6,9.9,1,norm,1.595,1.516,-1.695,-2.076,-4.884,-4.658,-1.841,-1.199,-1.449,-1.889,1.228,-1.108,6.4,,-4.408,-8.337,1.167,-1.847,8.157,4.533,-5.161,-7.677,2,4.46,4.905,4.408,4.668,1.82,1.602,1.24,1.785,2,4.786,4.423,10,355.506175121,norm,0,9,9,9,247.188,247.198,247.206109741,247.206,247.208,247.211,up,0,2.49952112007,-10,001,011,1920_1080,Intel(R) Core(TM) i5-3570 CPU @ 3.40GHz,orientation_search,LEPPC096,Intel(R) HD Graphics 2500,2018_Oct_31_1250,testMonitor,
26.0,-10.3,-4.3,,36,-80,3.9,12.5,18.3,2.8,7.825,7.616,7.562,8.06,7.901,8.394,7.96,4.459,-4.849,-7.71,1.301,-1.127,8.418,5.149,-4.33,-7.627,-2.7,-9.7,-8.345,-13.0,-3.8,13.0,12.4,-3.7,36,-4.7,3,5,prime,10,0,83,norm,36,-5.11,up,norm,5.9742472525,15.3,0.0,0.1,11.4,3,6.8,8.8,9.4,10,6,7.861,5.07,2.01,-1.393,-5.111,-7.651,15.7,6,89.0,-7.827,-8.407,-80,-8.24,-7.757,-4.409,-5.217,-5.124,-4.347,4.522,7.752,21,-1.559,1.328,4.688,7.62,-8.359,-8.138,-1.827,1.103,6.6,-0.0,12.0,6.5,3.2,-14.0,-10.7,16.9,18.9,14.9,2,norm,1.925,1.648,-1.627,-1.129,-5.278,-4.549,-1.348,-1.613,-1.683,-1.635,1.453,-1.484,19.0,-1.1,-4.85,-8.272,1.614,-1.329,7.866,4.307,-5.179,-7.541,2,4.878,4.403,5.107,4.938,1.32,1.357,1.975,1.325,2,4.483,4.624,10,355.506175121,norm,0,10,10,10,250.776,250.786,250.792094874,250.792,250.794,250.796,up,1,7.13323517276,2.86676482724,001,011,1920_1080,Intel(R) Core(TM) i5-3570 CPU @ 3.40GHz,orientation_search,LEPPC096,Intel(R) HD Graphics 2500,2018_Oct_31_1250,testMonitor,
12.4,13.8,0.1,-1.3,36,-80,-8.2,9.1,12.0,1.7,7.517,7.799,7.72,8.164,7.863,7.911,8.444,4.699,-4.885,-8.398,1.251,-1.961,8.161,4.741,-5.042,-7.754,,-10.2,-7.874,15.7,13.1,-2.9,9.9,6.0,36,2.9,5,5,prime,10,0,66,norm,36,-5.188,up,norm,5.9742472525,13.2,12.2,4.6,2.4,5,19.9,19.7,6.8,10,6,7.698,5.267,1.57,-1.439,-4.62,-8.495,4.9,6,72.0,-7.541,-8.396,-80,-7.588,-8.065,-5.086,-4.415,-4.571,-4.775,5.198,8.268,35,-1.731,1.697,4.384,8.224,-7.858,-7.564,-1.386,2.066,1.6,2.3,14.3,-14.0,0.9,-1.6,1.2,5.6,6.0,26.0,3,norm,1.319,1.496,-1.873,-1.944,-4.952,-4.56,-1.424,-1.845,-2.04,-1.703,1.637,-1.561,-6.7,14.7,-5.133,-7.84,1.49,-1.862,8.308,4.913,-4.572,-7.688,2,5.079,4.714,5.125,4.916,1.573,1.663,1.677,1.845,2,4.475,5.192,10,355.506175121,norm,0,11,11,11,257.962,257.972,257.982255031,257.982,257.984,257.987,up,1,2.22886959283,7.77113040717,001,011,1920_1080,Intel(R) Core(TM) i5-3570 CPU @ 3.40GHz,orientation_search,LEPPC096,Intel(R) HD Graphics 2500,2018_Oct_31_1250,testMonitor,
,2.3,6.7,13.9,36,-80,10.2,-7.3,12.8,2.4,7.61,7.991,7.57,8.372,7.697,8.408,8.142,4.608,-4.84,-7.532,1.195,-1.55,7.603,5.044,-5.28,-7.653,3.2,-14.0,-7.563,-9.8,1.6,-2.5,3.3,14.0,36,3.4,3,5,prime,10,0,65,norm,36,-4.635,up,norm,5.9742472525,-7.2,14.1,15.2,9.6,4,21.3,12.4,9.8,10,6,8.207,4.844,1.561,-1.16,-5.284,-8.195,26.0,6,71.0,-7.652,-7.916,-80,-7.861,-8.433,-4.55,-4.573,-5.035,-5.253,5.098,8.346,22,-1.815,1.653,4.526,7.687,-8.421,-7.819,-1.447,1.198,9.3,1.2,3.0,13.6,0.6,9.7,2.1,4.7,8.6,0.3,4,norm,1.108,1.133,-1.172,-1.851,-4.826,-4.499,-1.626,-1.668,-1.351,-1.956,1.721,-2.067,3.4,18.7,-5.175,-8.255,1.259,-1.571,7.639,4.743,-5.039,-8.078,2,4.312,5.015,4.645,4.712,1.887,1.935,1.609,1.814,2,4.611,5.075,10,355.506175121,norm,0,12,12,12,260.248,260.259,260.275456023,260.276,260.278,260.28,up,1,6.74373992398,3.25626007602,001,011,1920_1080,Intel(R) Core(TM) i5-3570 CPU @ 3.40GHz,orientation_search,LEPPC096,Intel(R) HD Graphics 2500,2018_Oct_31_1250,testMonitor,
14.1,-3.7,4.8,-2.1,36,-80,9.1,-6.5,3.6,5.4,7.549,7.834,8.011,7.897,7.53,7.785,7.711,5.207,-4.994,-8.262,1.653,-2.061,7.672,4.676,-5.139,-8.382,0.9,9.4,-8.485,0.2,13.5,-7.5,26.0,-3.0,36,10.0,0,5,prime,10,0,86,norm,36,-4.696,up,norm,5.9742472525,-5.3,16.5,7.3,9.7,4,7.1,-2.9,3.1,10,6,7.725,5.088,1.599,-1.79,-5.093,-7.671,11.5,6,92.0,-8.126,-7.571,-80,-7.906,-7.593,-4.803,-5.08,-4.365,-5.222,4.445,8.272,4,-1.955,1.767,5.148,8.155,-8.152,-8.013,-1.803,1.169,18.2,-14.0,21.9,1.8,13.5,17.0,-1.3,7.5,11.3,,5,norm,1.618,1.1,-1.514,-1.208,-4.674,-4.628,-1.276,-1.122,-1.747,-1.182,1.344,-1.418,-6.9,17.3,-4.476,-7.626,1.103,-1.191,7.677,4.477,-4.967,-7.549,2,5.152,4.696,4.941,5.041,1.423,1.959,2.079,1.935,2,4.498,4.923,10,355.506175121,norm,0,13,13,13,267.056,267.066,267.076810047,267.077,267.079,267.081,up,1,1.73665225952,8.26334774048,001,011,1920_1080,Intel(R) Core(TM) i5-3570 CPU @ 3.40GHz,orientation_search,LEPPC096,Intel(R) HD Graphics 2500,2018_Oct_31_1250,testMonitor,
-3.0,-7.8,-7.5,-5.4,36,-20,1.6,-5.1,-7.4,-1.2,7.772,8.476,8.362,7.792,8.442,7.965,7.986,4.977,-5.05,-7.713,1.292,-1.947,8.406,5.221,-4.626,-7.692,-1.5,-3.1,-7.505,4.1,-9.5,-4.2,4.2,-8.1,36,-2.9,0,5,probe,5,0,65,norm,36,-4.33,up,norm,-3.5099030635,3.6,-3.6,-2.7,6.5,5,2.1,2.3,-8.0,10,6,7.777,4.55,1.41,-1.663,-5.119,-7.618,1.6,1,-68.5,-8.483,-8.29,-80,-7.763,-8.304,-4.808,-5.111,-4.463,-4.945,5.178,8.294,5,-1.584,1.953,4.768,7.987,-8.026,-7.657,-1.695,1.494,-5.6,-13.5,-1.2,-11.9,0.2,-5.8,-0.1,0.5,,-3.9,0,norm,1.304,1.272,-1.385,-1.637,-4.852,-5.14,-1.963,-1.54,-1.786,-1.671,1.785,-1.259,-9.8,-10.3,-4.542,-7.883,2.024,-1.513,8.267,4.374,-4.846,-7.65,3,5.044,4.582,4.998,5.293,1.816,1.955,1.21,2.059,3,4.916,5.266,-80,5.9742472525,norm,0,14,14,14,268.851,268.863,268.883480499,268.884,268.886,268.889,up,1,1.73954304622,8.26045695378,001,011,1920_1080,Intel(R) Core(TM) i5-3570 CPU @ 3.40GHz,orientation_search,LEPPC096,Intel(R) HD Graphics 2500,2018_Oct_31_1250,testMonitor,
209.4,201.8,200.8,216.0,36,-30,209.3,211.6,212.0,211.4,7.884,7.909,8.491,8.146,8.377,7.94,7.629,5.137,-5.16,-7.908,2.078,-1.735,7.929,4.646,-5.161,-7.636,206.0,227.5,-7.99,226.6,191.4,,212.4,194.6,36,214.5,5,5,prime,10,0,67,norm,36,-5.176,up,norm,211.404372698,210.1,210.2,220.5,199.2,3,202.8,204.2,206.0,10,6,8.478,4.314,2.016,-2.024,-5.188,-7.889,217.4,6,278.4,-7.992,-8.116,-30,-8.324,-8.21,-4.72,-4.673,-4.644,-4.926,4.48,7.81,33,-1.99,1.708,5.125,8.119,-8.437,-8.081,-2.006,2.094,214.7,208.2,198.9,222.4,206.2,231.4,200.9,201.0,220.2,209.1,0,norm,1.217,1.743,-1.195,-1.822,-4.51,-4.639,-1.145,-1.622,-1.629,-1.64,1.34,-1.24,196.0,210.0,-5.221,-7.854,1.16,-1.367,8.135,4.895,-4.378,-7.546,4,5.021,5.252,5.184,4.981,1.407,1.248,1.134,1.682,4,4.525,4.715,-20,5.9742472525,norm,0,15,15,15,270.665,270.675,270.68151119,270.682,270.683,270.686,up,1,3.07848016519,6.92151983481,001,011,1920_1080,Intel(R) Core(TM) i5-3570 CPU @ 3.40GHz,orientation_search,LEPPC096,Intel(R) HD Graphics 2500,2018_Oct_31_1250,testMonitor,
191.6,208.6,194.8,211.1,36,-30,229.0,195.8,196.2,199.3,7.929,7.781,7.514,8.356,7.782,7.964,7.53,4.457,-4.621,-7.878,1.5,-1.711,7.555,5.028,-5.262,-7.985,213.3,217.1,-8.028,202.9,212.2,211.3,191.4,207.2,36,204.4,2,5,prime,10,0,106,norm,36,-5.276,up,norm,211.404372698,202.5,,217.8,215.1,4,227.4,229.4,217.6,10,6,8.357,5.116,1.889,-1.931,-4.758,-7.509,225.3,6,317.4,-7.696,-7.798,-30,-8.404,-8.273,-4.372,-4.778,-4.542,-5.136,4.733,8.235,16,-1.515,1.192,4.42,7.564,-8.153,-7.503,-1.709,1.703,200.8,215.4,209.9,199.9,222.6,194.5,217.7,198.0,209.6,210.2,1,norm,1.469,1.524,-1.153,-1.191,-4.738,-4.711,-1.557,-1.299,-1.38,-1.418,2.045,-1.363,217.4,226.3,-5.18,-7.724,1.807,-1.863,7.697,4.907,-4.657,-8.188,4,4.33,4.959,4.829,4.839,1.962,1.581,1.755,1.906,4,4.302,4.94,-20,5.9742472525,norm,0,16,16,16,273.785,273.795,273.801060026,273.801,273.803,273.806,up,1,1.23327927257,8.76672072743,001,011,1920_1080,Intel(R) Core(TM) i5-3570 CPU @ 3.40GHz,orientation_search,LEPPC096,Intel(R) HD Graphics 2500,2018_Oct_31_1250,testMonitor,
213.3,211.1,205.2,217.3,36,-30,,221.7,204.5,211.2,7.688,8.231,8.399,7.873,7.566,7.639,8.438,5.002,-4.579,-8.478,1.197,-1.767,8.471,4.595,-5.234,-7.542,200.7,210.9,-8.304,208.6,216.5,214.3,221.9,196.3,36,215.7,4,5,prime,10,0,69,norm,36,-4.836,down,norm,211.404372698,206.8,222.2,217.9,198.2,0,220.1,214.4,214.8,10,6,7.961,5.192,1.806,-1.573,-5.243,-7.568,206.9,6,280.4,-8.469,-7.908,-30,-8.472,-7.52,-4.442,-4.447,-4.996,-4.607,5.162,8.466,24,-1.619,1.245,5.155,8.478,-7.883,-7.695,-1.76,1.369,217.4,218.0,200.1,199.2,204.5,200.0,191.4,203.9,231.4,218.4,2,norm,1.231,1.279,-2.071,-1.252,-4.329,-4.742,-1.816,-1.181,-1.667,-1.681,1.836,-1.973,211.7,219.2,-5.268,-8.442,1.418,-1.556,7.611,4.306,-5.214,-7.664,4,4.963,4.352,5.144,4.717,1.353,2.032,1.561,1.117,4,4.777,4.425,-20,5.9742472525,norm,0,17,17,17,275.08,275.09,275.095912723,275.096,275.098,275.1,down,1,1.2480739911,8.7519260089,001,011,1920_1080,Intel(R) Core(TM) i5-3570 CPU @ 3.40GHz,orientation_search,LEPPC096,Intel(R) HD Graphics 2500,2018_Oct_31_1250,testMonitor,
225.4,219.9,216.1,205.2,36,-30,203.8,203.7,202.5,,8.404,7.795,8.47,8.223,7.586,7.894,7.674,4.549,-4.4,-8.15,1.681,-1.943,8.355,4.706,-4.791,-7.771,209.7,228.9,-7.768,231.4,205.8,208.1,217.0,214.8,36,200.9,4,5,prime,10,0,70,norm,36,-4.875,up,norm,211.404372698,207.5,206.1,209.0,230.2,5,213.4,206.1,206.4,10,6,7.6,4.906,1.208,-1.194,-5.098,-8.172,223.0,6,281.4,-8.104,-7.788,-30,-7.857,-8.202,-5.044,-5.25,-4.809,-4.723,4.48,7.883,29,-1.556,1.42,4.506,7.522,-8.15,-7.634,-1.164,1.802,208.3,211.9,207.1,191.8,214.0,197.6,221.2,208.2,204.7,219.0,3,norm,1.844,1.16,-1.741,-1.586,-5.272,-4.551,-1.159,-2.062,-1.851,-1.637,1.818,-1.971,191.4,221.5,-4.397,-7.749,1.745,-1.715,7.93,5.21,-4.441,-8.114,4,4.652,5.211,4.569,4.501,1.409,1.61,1.185,2.019,4,5.08,4.307,-20,5.9742472525,norm,0,18,18,18,276.382,276.402,276.420866487,276.421,276.425,276.43,up,1,1.02639348325,8.97360651675,001,011,1920_1080,Intel(R) Core(TM) i5-3570 CPU @ 3.40GHz,orientation_search,LEPPC096,Intel(R) HD Graphics 2500,2018_Oct_31_1250,testMonitor,
221.9,210.8,224.3,200.6,36,-30,220.6,219.6,211.8,213.5,8.075,7.78,7.682,7.923,8.182,7.687,7.9,4.615,-4.447,-8.075,1.696,-1.281,7.703,4.682,-4.815,-8.247,215.5,212.8,-7.918,208.5,,204.7,196.8,215.2,36,206.8,5,5,prime,10,0,105,norm,36,-4.919,down,norm,211.404372698,205.5,200.4,211.5,214.5,0,207.1,227.4,214.1,10,6,8.062,5.018,1.467,-1.929,-4.799,-7.953,203.7,6,316.4,-7.802,-7.519,-30,-7.771,-8.462,-5.278,-4.803,-4.814,-4.896,5.006,7.651,30,-1.959,1.917,4.526,7.807,-8.349,-7.704,-1.392,1.908,219.5,208.9,205.2,231.4,218.2,208.5,222.5,212.4,231.1,193.9,4,norm,1.569,1.452,-1.198,-1.193,-4.996,-5.074,-1.479,-1.923,-1.562,-1.536,1.548,-1.995,196.6,213.0,-5.157,-7.943,1.177,-1.213,8.417,4.879,-5.288,-8.431,4,5.163,5.036,5.175,5.162,1.336,1.429,1.395,1.771,4,5.262,4.324,-20,5.9742472525,norm,0,19,19,19,277.498,277.519,277.530432948,277.531,277.533,277.535,down,1,0.859281441644,9.14071855836,001,011,1920_1080,Intel(R) Core(TM) i5-3570 CPU @ 3.40GHz,orientation_search,LEPPC096,Intel(R) HD Graphics 2500,2018_Oct_31_1250,testMonitor,
207.2,209.6,212.3,205.2,36,-30,219.5,,208.4,222.5,8.318,8.294,8.147,7.646,8.05,8.483,7.768,4.897,-4.706,-8.222,1.163,-1.976,8.089,4.424,-4.533,-7.818,218.8,231.1,-7.929,228.3,215.5,207.4,221.8,209.1,36,203.0,4,5,prime,10,0,80,norm,36,-4.39,down,norm,211.404372698,208.4,203.6,222.1,209.2,1,203.1,208.2,209.9,10,6,7.961,4.955,1.921,-1.111,-4.742,-7.74,212.2,6,291.4,-8.256,-7.856,-30,-8.494,-8.225,-4.612,-5.081,-5.087,-5.094,4.479,8.19,25,-1.505,2.1,4.71,8.275,-7.819,-7.996,-1.78,1.94,231.4,216.4,215.3,212.2,191.4,219.8,215.5,196.6,222.4,210.7,5,norm,2.009,1.572,-1.89,-2.005,-4.912,-4.875,-2.013,-1.149,-2.096,-1.474,1.274,-1.187,213.0,199.5,-5.066,-7.65,1.421,-1.484,7.517,4.786,-4.827,-7.692,4,5.086,5.222,4.8,4.585,1.921,1.317,1.129,1.235,4,5.122,4.504,-20,5.9742472525,norm,0,20,20,20,278.411,278.421,278.433129013,278.433,278.435,278.438,down,1,1.24874348728,8.75125651272,001,011,1920_1080,Intel(R) Core(TM) i5-3570 CPU @ 3.40GHz,orientation_search,LEPPC096,Intel(R) HD Graphics 2500,2018_Oct_31_1250,testMonitor,
298.3,304.3,298.2,299.6,36,20,297.0,304.1,299.4,300.6,7.75,8.115,8.201,7.886,8.486,8.356,7.747,4.338,-5.005,-7.663,1.916,-1.921,8.379,5.102,-5.271,-8.189,287.5,304.0,-8.188,302.5,292.3,291.5,306.6,290.0,36,293.3,2,5,probe,5,0,114,norm,36,-4.947,up,norm,297.548123355,,304.6,290.9,293.9,5,295.3,298.2,290.9,10,6,8.237,5.019,1.39,-2.088,-4.952,-8.02,301.6,2,183.5,-7.522,-7.631,-30,-7.711,-8.453,-4.485,-4.599,-4.977,-4.572,4.362,7.58,17,-1.896,1.633,4.941,7.504,-8.164,-7.911,-1.731,2.015,290.3,295.8,299.8,295.4,307.5,289.8,297.7,293.6,295.8,302.7,0,norm,1.71,1.427,-1.129,-1.495,-4.55,-4.975,-1.907,-1.708,-1.4,-1.356,1.529,-1.353,297.3,299.0,-4.527,-7.554,2.075,-1.325,8.123,5.274,-4.779,-7.553,5,4.803,5.215,5.049,4.749,1.637,2.049,2.044,1.285,5,4.847,4.51,-30,211.404372698,norm,0,21,21,21,279.728,279.738,279.744417872,279.745,279.746,279.749,up,1,1.28254640366,8.71745359634,001,011,1920_1080,Intel(R) Core(TM) i5-3570 CPU @ 3.40GHz,orientation_search,LEPPC096,Intel(R) HD Graphics 2500,2018_Oct_31_1250,testMonitor,
262.6,265.4,267.6,,36,20,263.2,262.7,262.9,266.9,7.969,7.969,8.084,8.289,8.355,8.32,8.109,5.105,-4.542,-7.579,1.522,-2.068,8.015,4.356,-5.2,-7.591,260.8,268.6,-7.983,263.5,264.4,267.9,264.2,266.4,36,263.8,3,5,probe,5,0,82,norm,36,-4.767,up,norm,265.548123355,271.2,267.2,266.7,275.5,3,269.7,255.5,257.9,10,6,7.601,4.889,1.444,-1.862,-4.827,-8.134,269.0,2,183.5,-8.155,-8.481,-30,-7.592,-7.646,-4.913,-5.252,-5.153,-4.802,5.045,7.586,21,-1.2,1.963,4.321,7.553,-8.065,-7.756,-1.177,1.981,262.7,263.7,266.1,260.2,269.0,262.8,257.1,272.9,262.4,269.3,1,norm,2.015,2.094,-1.484,-1.622,-4.346,-4.765,-1.658,-1.681,-2.046,-2.071,1.404,-1.934,272.0,261.1,-4.841,-7.705,1.634,-1.396,7.837,5.261,-4.658,-8.434,5,4.78,4.365,4.355,5.164,1.492,1.725,1.375,1.468,5,5.018,5.223,-30,211.404372698,norm,0,22,22,22,281.064,281.074,281.084939988,281.085,281.087,281.089,up,1,1.31566050567,8.68433949433,001,011,1920_1080,Intel(R) Core(TM) i5-3570 CPU @ 3.40GHz,orientation_search,LEPPC096,Intel(R) HD Graphics 2500,2018_Oct_31_1250,testMonitor,
287.4,300.0,294.6,278.1,36,80,295.4,292.9,279.9,301.6,7.8,7.824,7.863,7.96,7.861,7.81,7.863,4.912,-4.674,-8.024,2.001,-1.575,8.486,4.4,-4.355,-7.783,285.5,306.8,-8.499,297.5,288.7,275.9,298.8,300.9,36,,4,5,prime,10,0,97,norm,36,-5.257,up,norm,290.48299379,308.0,287.3,289.9,274.5,3,304.3,277.8,270.5,10,6,8.218,4.493,1.578,-1.415,-5.231,-7.683,292.2,6,387.5,-7.883,-8.469,80,-7.983,-7.682,-4.466,-4.883,-4.549,-4.591,4.437,8.359,27,-1.567,1.933,5.144,7.549,-8.018,-7.769,-1.937,1.796,280.3,280.8,283.3,288.1,287.2,310.5,283.4,293.6,277.5,296.7,0,norm,1.463,1.435,-1.183,-1.476,-4.674,-4.329,-1.498,-1.309,-2.011,-1.406,1.233,-1.179,296.3,290.2,-4.58,-7.965,1.617,-1.715,8.118,4.585,-4.873,-7.579,6,5.248,4.512,5.151,5.137,1.604,1.226,1.567,1.829,6,5.115,4.826,20,211.404372698,norm,0,23,23,23,282.443,282.462,282.475413221,282.476,282.478,282.481,up,1,6.00294179881,3.99705820119,001,011,1920_1080,Intel(R) Core(TM) i5-3570 CPU @ 3.40GHz,orientation_search,LEPPC096,Intel(R) HD Graphics 2500,2018_Oct_31_1250,testMonitor,
287.2,279.1,285.6,298.4,36,80,290.0,277.7,283.6,,7.681,8.145,7.762,7.914,7.782,7.895,8.316,4.607,-5.044,-8.428,1.37,-1.328,8.128,5.21,-4.459,-7.783,289.8,287.4,-7.636,292.4,287.8,273.3,294.2,291.4,36,292.7,4,5,prime,10,0,101,norm,36,-4.546,up,norm,290.48299379,270.8,301.8,283.5,299.6,5,306.3,270.5,304.4,10,6,7.812,5.051,1.787,-1.609,-5.105,-7.761,292.3,6,391.5,-8.283,-8.327,80,-8.054,-8.216,-4.403,-4.947,-4.514,-4.93,4.964,7.848,29,-1.507,1.407,4.474,7.602,-8.385,-8.114,-1.398,1.267,283.3,291.0,286.3,303.7,297.9,286.1,298.4,275.0,289.1,298.0,1,norm,1.288,1.167,-1.707,-1.406,-4.319,-4.791,-1.438,-1.168,-1.188,-1.598,1.484,-1.457,286.4,310.5,-4.589,-8.084,1.748,-1.916,8.482,4.605,-4.763,-7.637,6,4.51,4.615,5.05,4.838,1.868,1.912,1.432,1.99,6,4.557,5.266,20,211.404372698,norm,0,24,24,24,288.516,288.526,288.541182014,288.541,288.543,288.546,up,1,3.87683353059,6.12316646941,001,011,1920_1080,Intel(R) Core(TM) i5-3570 CPU @ 3.40GHz,orientation_search,LEPPC096,Intel(R) HD Graphics 2500,2018_Oct_31_1250,testMonitor,
276.4,284.0,272.9,280.6,36,80,281.9,304.7,286.5,293.8,8.153,8.149,7.546,7.807,8.165,7.937,8.479,5.264,-4.952,-8.101,1.368,-1.755,8.316,4.389,-5.007,-7.735,298.1,289.5,-7.708,,297.0,292.3,282.0,289.0,36,298.5,5,5,prime,10,0,104,norm,36,-4.997,down,norm,290.48299379,283.5,283.1,284.2,290.7,1,290.8,299.5,293.5,10,6,8.435,5.231,1.197,-1.801,-4.384,-7.851,273.3,6,394.5,-7.603,-7.553,80,-8.096,-7.682,-5.07,-4.862,-5.121,-4.761,4.633,8.243,31,-1.71,1.86,4.803,8.154,-7.552,-7.528,-1.363,1.709,310.5,288.1,270.5,294.4,280.7,288.2,283.2,298.1,282.1,271.4,2,norm,1.56,2.009,-1.775,-1.481,-4.587,-4.427,-1.721,-1.557,-1.895,-1.908,1.153,-1.864,288.0,275.9,-4.869,-8.087,1.254,-1.194,8.454,4.995,-4.815,-7.531,6,4.736,5.092,4.448,5.139,1.239,1.369,1.233,1.73,6,4.972,4.423,20,211.404372698,norm,0,25,25,25,292.458,292.467,292.473442765,292.474,292.475,292.478,down,1,1.12820368863,8.87179631137,001,011,1920_1080,Intel(R) Core(TM) i5-3570 CPU @ 3.40GHz,orientation_search,LEPPC096,Intel(R) HD Graphics 2500,2018_Oct_31_1250,testMonitor,
289.7,284.0,283.4,294.6,36,80,289.0,300.9,310.5,292.7,8.326,7.804,7.605,8.275,7.529,8.498,7.926,4.451,-4.953,-8.03,1.399,-1.665,7.868,4.955,-5.129,-8.275,270.5,294.4,-8.213,,276.2,289.2,294.9,293.5,36,298.2,5,5,prime,10,0,82,norm,36,-4.869,down,norm,290.48299379,300.0,285.5,276.8,277.7,1,299.1,285.4,303.7,10,6,7.927,5.119,1.404,-1.257,-5.172,-7.759,300.0,6,372.5,-8.186,-8.479,80,-8.136,-8.392,-5.038,-4.992,-4.514,-5.216,5.156,7.966,31,-1.235,2.092,4.835,8.417,-8.345,-8.318,-1.107,1.26,289.5,292.6,276.4,282.8,295.1,289.4,290.5,298.8,273.4,307.2,3,norm,1.357,1.706,-1.575,-1.373,-4.565,-4.884,-1.543,-1.707,-1.712,-1.992,1.741,-1.79,277.8,287.9,-4.556,-7.621,1.131,-2.007,7.765,5.255,-5.209,-8.22,6,5.253,5.149,4.508,4.456,1.177,1.408,1.227,1.518,6,4.931,4.945,20,211.404372698,norm,0,26,26,26,293.637,293.647,293.658018152,293.658,293.66,293.662,down,1,1.07974641248,8.92025358752,001,011,1920_1080,Intel(R) Core(TM) i5-3570 CPU @ 3.40GHz,orientation_search,LEPPC096,Intel(R) HD Graphics 2500,2018_Oct_31_1250,testMonitor,
284.6,303.8,294.5,291.9,36,80,294.3,301.0,290.2,284.2,7.667,8.283,8.028,8.281,8.445,7.79,7.835,4.483,-4.358,-7.845,1.408,-2.003,8.117,4.875,-4.564,-8.097,300.7,281.5,-8.136,298.3,297.5,270.5,274.4,297.3,36,289.3,1,5,prime,10,0,66,norm,36,-4.62,down,norm,290.48299379,283.3,297.2,285.2,281.9,2,310.5,288.3,293.3,10,6,7.757,5.196,1.966,-1.425,-5.18,-8.304,301.1,6,356.5,-7.636,-7.965,80,-8.458,-7.618,-5.034,-4.321,-4.609,-5.181,4.916,7.768,8,-1.52,1.992,4.553,7.66,-8.411,-7.906,-2.017,1.168,296.7,,285.7,295.4,285.6,295.7,290.0,287.4,285.3,282.2,4,norm,1.657,1.131,-1.605,-2.023,-5.048,-5.027,-2.05,-1.364,-1.16,-1.932,1.354,-1.657,300.5,279.5,-4.335,-7.664,2.01,-1.659,7.581,5.069,-4.422,-8.209,6,4.766,4.738,4.33,5.005,1.754,1.808,1.28,1.494,6,5.083,4.322,20,211.404372698,norm,0,27,27,27,294.775,294.785,294.796731543,294.797,294.799,294.801,up,0,1.2990133534,-10,001,011,1920_1080,Intel(R) Core(TM) i5-3570 CPU @ 3.40GHz,orientation_search,LEPPC096,Intel(R) HD Graphics 2500,2018_Oct_31_1250,testMonitor,
299.8,,291.5,289.6,36,80,283.4,294.0,286.1,289.3,7.523,7.797,7.804,8.008,8.423,7.563,7.985,5.096,-5.048,-8.496,1.12,-1.202,7.604,4.461,-5.227,-7.989,298.8,277.9,-8.149,279.5,286.7,270.5,276.5,275.3,36,274.7,3,5,prime,10,0,92,norm,36,-4.477,up,norm,290.48299379,306.7,274.1,307.0,285.4,5,292.8,296.2,289.1,10,6,8.213,5.12,1.815,-1.353,-5.153,-8.33,281.3,6,382.5,-7.696,-7.926,80,-8.128,-8.354,-5.203,-4.772,-5.179,-4.539,4.528,7.863,23,-1.45,1.104,4.865,8.044,-7.674,-7.952,-1.34,1.474,272.3,290.7,285.5,277.6,279.1,286.6,296.5,293.2,276.1,280.9,5,norm,1.88,2.043,-1.273,-1.988,-4.693,-4.735,-1.268,-1.328,-1.409,-2.015,1.192,-2.066,301.6,277.2,-4.753,-8.03,1.755,-1.675,8.09,5.073,-4.598,-7.888,6,5.143,4.459,4.55,4.424,1.724,1.308,1.719,1.587,6,4.784,5.255,20,211.404372698,norm,0,28,28,28,297.172,297.182,297.199171491,297.199,297.201,297.204,up,1,2.26296228213,7.73703771787,001,011,1920_1080,Intel(R) Core(TM) i5-3570 CPU @ 3.40GHz,orientation_search,LEPPC096,Intel(R) HD Graphics 2500,2018_Oct_31_1250,testMonitor,
458.9,467.0,463.4,471.7,36,-80,463.5,465.7,468.9,460.2,8.235,8.263,7.505,8.044,8.018,8.237,8.174,5.135,-4.477,-7.75,1.705,-1.709,8.14,4.969,-4.838,-8.468,460.5,453.0,-8.097,460.5,462.7,466.9,469.8,467.0,36,464.7,0,5,probe,5,0,94,norm,36,-4.49,down,norm,463.025551524,468.1,473.0,472.5,465.7,1,459.6,457.2,470.0,10,6,8.398,4.925,1.232,-1.883,-4.873,-8.049,466.9,1,369.0,-8.145,-8.463,80,-7.585,-8.363,-5.12,-5.236,-4.886,-4.516,5.268,8.458,1,-1.943,1.867,4.849,7.568,-7.552,-7.52,-1.664,1.612,462.1,467.8,461.4,463.6,,461.9,473.0,464.2,463.0,467.5,0,norm,1.31,1.146,-1.682,-1.766,-4.542,-4.958,-1.586,-1.483,-1.767,-1.484,1.653,-1.916,465.7,462.8,-4.756,-8.424,2.044,-1.262,8.321,5.189,-5.298,-7.603,7,4.913,4.91,4.381,4.871,1.386,1.466,1.962,2.008,7,5.074,4.967,80,290.48299379,norm,0,29,29,29,299.509,299.531,299.541092064,299.541,299.543,299.545,down,1,1.06308326232,8.93691673768,001,011,1920_1080,Intel(R) Core(TM) i5-3570 CPU @ 3.40GHz,orientation_search,LEPPC096,Intel(R) HD Graphics 2500,2018_Oct_31_1250,testMonitor,
,32.4,36.2,32.3,36,40,44.7,39.4,27.1,15.1,8.099,7.881,7.575,8.129,8.447,7.592,7.742,5.204,-4.511,-8.231,1.815,-1.381,8.313,4.911,-4.952,-8.257,18.4,45.9,-7.925,46.5,26.4,25.3,19.1,51.8,36,34.9,3,5,prime,10,0,112,norm,36,-4.463,up,norm,31.8232512566,32.9,12.1,28.6,18.6,4,15.5,31.2,22.7,10,6,8.238,5.074,1.851,-1.128,-4.371,-8.001,29.9,6,143.8,-8.376,-7.792,40,-7.683,-7.553,-4.729,-5.149,-4.482,-4.388,4.426,7.705,22,-1.179,1.428,5.03,7.789,-7.789,-8.065,-1.106,1.804,34.7,33.7,29.6,30.5,39.2,27.2,42.8,28.8,31.8,20.2,0,norm,2.015,2.096,-1.548,-1.681,-4.846,-4.921,-1.222,-1.731,-1.505,-1.581,1.748,-1.745,24.7,11.8,-5.0,-8.047,1.561,-1.217,7.607,4.781,-4.463,-8.181,8,4.797,4.611,4.402,4.344,1.908,1.62,1.209,1.312,8,4.902,5.074,-80,290.48299379,norm,0,30,30,30,300.647,300.657,300.663151057,300.663,300.665,300.668,up,1,1.07970717239,8.92029282761,001,011,1920_1080,Intel(R) Core(TM) i5-3570 CPU @ 3.40GHz,orientation_search,LEPPC096,Intel(R) HD Graphics 2500,2018_Oct_31_1250,testMonitor,
31.8,28.6,29.7,40.9,36,40,17.7,40.1,37.4,27.9,8.407,7.661,7.568,8.017,8.176,8.033,8.358,5.227,-4.557,-7.678,1.949,-1.834,7.673,4.347,-4.431,-7.891,33.4,24.5,-8.232,20.3,25.2,,32.1,48.7,36,51.8,5,5,prime,10,0,65,norm,36,-4.581,up,norm,31.8232512566,11.8,38.1,45.2,34.0,3,34.7,34.2,34.3,10,6,7.98,4.661,1.825,-1.156,-4.424,-8.045,18.1,6,96.8,-8.458,-7.81,40,-7.73,-8.476,-4.722,-4.333,-4.854,-4.521,4.982,7.969,33,-1.904,1.516,4.861,8.294,-7.93,-7.559,-1.453,1.437,30.7,39.5,25.9,13.2,33.4,42.3,39.0,45.1,20.4,27.3,1,norm,1.861,1.128,-1.868,-1.119,-4.52,-4.42,-1.94,-2.022,-1.348,-2.037,1.488,-2.088,35.0,36.4,-4.309,-7.767,1.134,-1.837,7.788,5.075,-4.474,-7.5,8,4.392,4.941,4.417,4.629,1.612,2.048,1.768,1.471,8,4.376,4.633,-80,290.48299379,norm,0,31,31,31,301.786,301.795,301.803788721,301.804,301.806,301.808,up,1,1.00906747755,8.99093252245,001,011,1920_1080,Intel(R) Core(TM) i5-3570 CPU @ 3.40GHz,orientation_search,LEPPC096,Intel(R) HD Graphics 2500,2018_Oct_31_1250,testMonitor,
25.6,43.3,41.7,36.2,36,40,44.2,39.3,34.7,36.7,8.208,8.38,7.784,7.906,7.719,8.229,7.861,4.396,-4.459,-8.325,1.669,-1.26,8.328,4.687,-4.318,-8.4,,20.5,-8.064,39.7,14.2,19.3,32.0,27.6,36,31.3,5,5,prime,10,0,103,norm,36,-4.707,up,norm,31.8232512566,20.3,36.1,33.9,11.8,5,21.7,17.3,26.2,10,6,7.58,5.246,1.409,-1.275,-4.761,-7.691,50.7,6,134.8,-7.777,-7.654,40,-7.773,-8.253,-4.574,-4.318,-5.269,-4.763,4.806,7.815,35,-1.574,1.434,4.876,7.57,-7.819,-7.79,-2.077,1.175,29.8,32.9,51.8,39.5,32.2,24.6,37.6,23.0,24.7,41.8,2,norm,1.391,2.027,-1.269,-1.843,-4.64,-4.514,-1.735,-1.913,-1.409,-2.013,1.482,-1.114,36.5,34.3,-4.397,-7.654,1.484,-1.202,8.471,4.312,-4.95,-7.687,8,4.806,4.96,4.53,5.139,1.451,1.711,1.544,1.313,8,4.629,4.383,-80,290.48299379,norm,0,32,32,32,302.862,302.872,302.878177956,302.878,302.88,302.883,up,1,0.924916214877,9.07508378512,001,011,1920_1080,Intel(R) Core(TM) i5-3570 CPU @ 3.40GHz,orientation_search,LEPPC096,Intel(R) HD Graphics 2500,2018_Oct_31_1250,testMonitor,
36.7,32.2,45.5,28.0,36,40,19.5,14.8,21.2,32.4,7.991,7.699,7.609,7.833,8.401,7.89,8.399,4.373,-4.549,-8.254,1.55,-1.131,8.435,4.56,-4.499,-8.259,19.5,25.3,-7.643,28.1,44.5,38.4,26.7,25.4,36,38.7,1,5,prime,10,0,117,norm,36,-5.282,up,norm,31.8232512566,39.0,11.8,21.5,32.5,3,35.5,51.8,49.6,10,6,7.914,4.926,1.948,-1.679,-4.405,-8.317,24.6,6,148.8,-8.226,-7.832,40,-7.544,-8.38,-5.003,-4.983,-4.829,-4.469,4.98,7.755,9,-1.998,1.533,5.288,7.789,-8.059,-8.379,-1.186,1.133,,42.3,42.5,44.3,40.8,30.7,23.0,43.2,26.8,27.9,3,norm,1.365,1.887,-1.239,-1.925,-4.476,-4.871,-1.528,-1.955,-1.128,-2.008,1.467,-1.501,46.5,30.4,-5.039,-8.065,1.517,-1.336,7.538,4.42,-4.613,-8.046,8,5.255,4.581,5.178,4.923,1.845,2.046,1.903,1.952,8,5.008,4.695,-80,290.48299379,norm,0,33,33,33,303.845,303.854,303.860928318,303.861,303.863,303.865,up,1,0.858956050805,9.14104394919,001,011,1920_1080,Intel(R) Core(TM) i5-3570 CPU @ 3.40GHz,orientation_search,LEPPC096,Intel(R) HD Graphics 2500,2018_Oct_31_1250,testMonitor,
21.2,11.8,19.4,19.7,36,40,28.6,15.6,39.7,17.6,7.915,8.406,8.377,7.955,7.9,7.87,7.687,5.097,-4.696,-8.075,1.343,-1.926,7.567,4.983,-5.102,-7.923,38.2,47.4,-7.777,46.9,44.2,51.8,,41.4,36,27.6,5,5,prime,10,0,90,norm,36,-4.886,down,norm,31.8232512566,29.7,22.9,15.0,23.8,2,26.0,41.1,29.1,10,6,7.97,4.459,1.345,-1.804,-4.529,-7.53,32.0,6,121.8,-7.514,-7.851,40,-7.775,-7.828,-4.857,-4.538,-5.197,-4.497,4.837,7.764,32,-1.562,1.841,4.884,8.235,-7.719,-8.353,-2.085,1.953,42.5,21.7,13.7,50.7,39.3,23.3,45.4,40.2,38.6,27.3,4,norm,1.625,2.041,-1.356,-1.777,-5.11,-4.781,-1.425,-1.685,-1.225,-1.602,1.43,-1.303,21.0,25.8,-5.173,-8.485,1.402,-1.809,8.273,5.007,-4.952,-8.326,8,4.57,4.702,5.261,4.819,1.931,1.475,1.768,1.924,8,5.223,5.063,-80,290.48299379,norm,0,34,34,34,304.758,304.769,304.795834454,304.796,304.798,304.8,down,1,0.910838684323,9.08916131568,001,011,1920_1080,Intel(R) Core(TM) i5-3570 CPU @ 3.40GHz,orientation_search,LEPPC096,Intel(R) HD Graphics 2500,2018_Oct_31_1250,testMonitor,
21.9,26.7,28.1,31.0,36,40,37.9,47.2,12.4,19.1,7.831,7.667,7.815,8.186,8.032,8.218,8.036,4.679,-4.468,-7.834,1.288,-1.232,8.385,4.777,-4.832,-7.533,35.2,25.7,-7.732,21.2,27.0,33.4,33.0,31.5,36,50.5,2,5,prime,10,0,112,norm,36,-5.243,up,norm,31.8232512566,37.6,,23.8,35.5,4,27.4,11.8,21.8,10,6,7.997,4.531,1.454,-1.855,-4.494,-7.759,51.8,6,143.8,-7.852,-7.692,40,-7.935,-7.991,-5.247,-4.596,-5.115,-4.474,5.254,8.173,16,-1.798,1.446,5.02,7.981,-7.662,-8.133,-1.249,1.349,14.2,48.1,22.5,27.6,32.8,33.2,41.5,36.0,22.7,38.6,5,norm,1.692,1.327,-1.973,-1.445,-4.843,-5.227,-1.865,-1.236,-1.576,-1.78,2.056,-1.268,35.1,45.7,-4.375,-7.658,1.832,-1.21,8.374,5.002,-5.089,-8.378,8,5.199,5.005,4.994,4.649,1.27,1.321,1.388,1.415,8,4.946,5.153,-80,290.48299379,norm,0,35,35,35,305.744,305.754,305.763168896,305.763,305.765,305.768,up,1,0.673963510949,9.32603648905,001,011,1920_1080,Intel(R) Core(TM) i5-3570 CPU @ 3.40GHz,orientation_search,LEPPC096,Intel(R) HD Graphics 2500,2018_Oct_31_1250,testMonitor,
143.4,141.9,146.8,150.1,36,30,141.4,137.3,146.9,154.1,8.126,7.851,7.902,7.847,8.145,8.392,7.693,5.089,-4.347,-8.123,1.767,-1.842,7.997,4.819,-4.921,-7.603,140.2,140.1,-8.296,148.6,152.7,154.4,146.1,,36,134.4,4,5,probe,5,0,67,norm,36,-4.338,down,norm,144.370985405,150.4,142.5,149.7,141.2,2,154.0,145.6,141.7,10,6,8.413,5.13,1.911,-1.285,-4.36,-8.054,151.1,1,77.4,-8.314,-8.259,40,-8.495,-8.423,-4.565,-4.634,-4.993,-4.969,5.229,7.55,26,-1.28,1.505,4.75,8.003,-7.961,-7.81,-1.629,2.008,145.2,135.5,142.4,151.0,139.1,150.6,149.4,144.0,151.6,140.2,0,norm,2.072,1.805,-1.934,-1.682,-4.688,-4.336,-1.402,-1.509,-1.514,-1.137,1.639,-1.85,143.3,143.8,-4.726,-7.838,1.871,-1.784,8.331,4.648,-5.269,-7.752,9,5.223,4.676,5.026,4.918,1.54,2.011,1.242,1.956,9,4.652,4.903,40,31.8232512566,norm,0,36,36,36,306.474,306.485,306.490130365,306.49,306.492,306.495,down,1,1.11695717911,8.88304282089,001,011,1920_1080,Intel(R) Core(TM) i5-3570 CPU @ 3.40GHz,orientation_search,LEPPC096,Intel(R) HD Graphics 2500,2018_Oct_31_1250,testMonitor,
303.7,301.5,303.7,282.4,36,-10,297.6,,297.9,310.9,7.956,8.095,7.546,7.667,8.108,8.455,8.109,4.483,-4.428,-7.61,2.06,-1.807,8.167,4.853,-4.394,-8.257,280.8,289.8,-7.669,297.1,291.0,300.6,302.0,315.2,36,306.7,4,5,prime,10,0,78,norm,36,-4.609,down,norm,295.202739028,292.7,308.1,281.2,289.0,1,291.6,301.6,299.3,10,6,7.99,4.669,1.285,-1.844,-5.234,-7.934,283.6,6,373.2,-7.606,-7.58,-10,-7.855,-7.921,-4.772,-4.8,-4.614,-4.876,4.455,8.476,25,-1.35,1.166,4.548,7.724,-8.03,-7.689,-1.355,1.606,310.6,308.7,290.7,277.9,285.1,292.4,298.0,275.2,301.5,296.6,0,norm,1.109,1.801,-1.219,-2.067,-4.716,-4.985,-2.071,-1.835,-1.108,-1.356,1.112,-1.132,300.2,298.3,-4.492,-7.816,2.061,-1.826,8.139,4.354,-4.796,-7.932,10,5.044,4.386,4.945,4.812,1.455,1.615,1.103,1.64,10,5.179,4.59,30,31.8232512566,norm,0,37,37,37,307.644,307.655,307.666257664,307.666,307.668,307.671,up,0,0.859043888221,-10,001,011,1920_1080,Intel(R) Core(TM) i5-3570 CPU @ 3.40GHz,orientation_search,LEPPC096,Intel(R) HD Graphics 2500,2018_Oct_31_1250,testMonitor,
293.8,292.6,295.8,283.9,36,-10,286.3,295.3,314.8,306.6,8.05,8.229,7.986,8.321,7.574,8.307,7.556,4.595,-4.562,-7.709,1.908,-2.06,7.56,4.357,-4.869,-8.472,310.8,288.4,-7.541,287.2,286.9,302.4,281.5,288.7,36,277.9,3,5,prime,10,0,86,norm,36,-4.954,down,norm,295.202739028,300.1,304.1,292.0,276.1,1,307.4,288.5,307.7,10,6,8.448,4.971,1.886,-1.406,-4.801,-7.763,279.4,6,381.2,-8.056,-7.709,-10,-7.509,-7.714,-4.581,-5.249,-4.425,-4.575,5.058,8.347,19,-1.813,1.595,4.604,8.383,-8.487,-8.275,-1.258,1.961,315.2,301.9,310.2,285.4,275.2,301.3,295.0,278.8,302.7,296.3,1,norm,1.603,1.876,-1.148,-1.327,-5.179,-4.598,-2.097,-1.319,-1.909,-1.709,1.416,-1.545,,307.5,-4.555,-8.332,1.18,-1.696,7.628,4.399,-5.033,-7.706,10,4.555,4.534,5.039,4.818,1.129,1.479,1.434,1.756,10,4.942,4.948,30,31.8232512566,norm,0,38,38,38,309.605,309.614,309.631778913,309.632,309.634,309.636,down,1,3.95813143556,6.04186856444,001,011,1920_1080,Intel(R) Core(TM) i5-3570 CPU @ 3.40GHz,orientation_search,LEPPC096,Intel(R) HD Graphics 2500,2018_Oct_31_1250,testMonitor,
314.5,284.9,287.1,301.5,36,-10,296.1,278.7,279.2,305.8,8.228,8.484,8.297,7.987,7.855,8.461,8.294,4.526,-4.798,-7.86,1.291,-1.909,8.052,4.36,-4.778,-7.592,288.4,283.7,-7.99,,296.2,300.2,299.0,293.5,36,285.0,5,5,prime,10,0,97,norm,36,-5.137,down,norm,295.202739028,301.3,294.5,299.2,288.8,1,277.7,304.2,312.1,10,6,8.498,4.3,1.124,-1.332,-4.83,-8.076,275.2,6,392.2,-7.869,-8.342,-10,-7.65,-7.529,-5.127,-4.887,-4.603,-4.357,4.642,7.974,31,-2.023,2.008,5.072,7.658,-8.356,-7.727,-1.998,1.683,286.9,281.8,285.9,311.8,293.6,296.8,303.3,295.5,293.0,291.0,2,norm,1.671,1.201,-1.77,-1.347,-5.142,-4.322,-1.902,-1.363,-1.374,-1.977,1.403,-1.209,288.1,299.9,-4.679,-8.001,1.265,-1.168,7.541,5.072,-4.854,-8.472,10,5.166,4.317,4.813,4.794,1.199,1.555,1.534,1.134,10,5.019,5.241,30,31.8232512566,norm,0,39,39,39,313.611,313.621,313.627147376,313.627,313.629,313.632,down,1,2.19773409652,7.80226590348,001,011,1920_1080,Intel(R) Core(TM) i5-3570 CPU @ 3.40GHz,orientation_search,LEPPC096,Intel(R) HD Graphics 2500,2018_Oct_31_1250,testMonitor,
293.2,285.0,291.6,296.3,36,-10,299.6,311.5,306.4,295.7,8.372,7.697,7.689,7.762,7.956,7.876,8.133,5.255,-4.424,-8.269,1.1,-1.862,8.492,4.885,-4.827,-7.75,277.0,302.4,-8.271,296.9,302.1,291.9,295.8,309.6,36,,4,5,prime,10,0,73,norm,36,-4.976,up,norm,295.202739028,275.2,279.8,304.3,291.8,3,297.7,281.8,288.8,10,6,8.093,5.257,1.472,-1.271,-4.496,-8.113,287.7,6,368.2,-7.853,-8.365,-10,-7.652,-8.229,-4.315,-5.182,-5.122,-4.67,5.104,8.483,27,-1.914,1.82,4.764,8.145,-8.108,-8.088,-1.162,1.197,303.9,315.2,290.1,287.2,294.9,291.6,290.3,291.0,307.0,292.0,3,norm,1.909,1.211,-2.023,-1.96,-4.993,-5.156,-1.918,-1.123,-1.531,-1.15,1.46,-1.4,302.1,283.5,-4.358,-7.973,2.056,-1.48,8.089,4.75,-5.102,-7.844,10,5.192,4.5,5.027,4.669,1.502,1.615,1.959,1.975,10,4.809,5.21,30,31.8232512566,norm,0,40,40,40,315.862,315.875,315.894533826,315.895,315.896,315.899,up,1,1.42662844079,8.57337155921,001,011,1920_1080,Intel(R) Core(TM) i5-3570 CPU @ 3.40GHz,orientation_search,LEPPC096,Intel(R) HD Graphics 2500,2018_Oct_31_1250,testMonitor,
308.8,310.8,282.3,298.7,36,-10,296.1,275.2,285.2,290.3,7.793,7.696,8.306,8.191,8.4,8.203,8.492,4.335,-4.348,-8.287,1.845,-1.103,7.909,4.525,-5.03,-8.336,307.0,,-7.514,286.1,296.1,298.8,297.6,292.1,36,315.2,5,5,prime,10,0,115,norm,36,-4.809,up,norm,295.202739028,288.3,285.0,309.6,294.8,4,294.1,298.8,284.6,10,6,7.555,5.203,1.112,-1.735,-4.995,-8.15,299.6,6,410.2,-8.273,-8.317,-10,-7.726,-8.488,-4.818,-4.82,-4.994,-4.882,4.955,8.178,34,-1.573,1.349,4.75,8.41,-8.289,-7.649,-1.369,1.962,277.3,282.6,305.0,283.1,306.9,308.3,293.3,284.8,287.1,307.0,4,norm,1.361,1.213,-1.144,-1.376,-4.886,-4.787,-1.966,-1.351,-1.276,-1.694,1.179,-1.763,288.6,307.1,-4.862,-7.613,1.728,-1.988,8.413,4.706,-4.672,-8.349,10,4.465,4.455,4.97,5.152,1.643,1.499,1.602,2.1,10,5.144,4.859,30,31.8232512566,norm,0,41,41,41,317.359,317.374,317.390948339,317.391,317.393,317.396,up,1,1.8000545739,8.1999454261,001,011,1920_1080,Intel(R) Core(TM) i5-3570 CPU @ 3.40GHz,orientation_search,LEPPC096,Intel(R) HD Graphics 2500,2018_Oct_31_1250,testMonitor,
312.5,277.6,310.5,287.9,36,-10,282.3,295.9,313.2,290.7,8.234,7.843,8.316,7.938,8.438,8.183,8.212,4.764,-5.015,-7.723,1.936,-1.277,7.519,4.915,-5.01,-8.216,310.6,292.9,-8.214,283.1,279.4,292.8,297.9,295.8,36,279.5,1,5,prime,10,0,100,norm,36,-4.529,up,norm,295.202739028,307.5,280.2,275.2,298.3,5,,276.9,303.2,10,6,8.324,4.416,1.485,-1.463,-5.057,-8.315,301.3,6,395.2,-8.439,-8.17,-10,-8.241,-8.382,-4.82,-4.549,-5.045,-4.584,4.689,7.978,11,-1.409,2.081,4.691,8.048,-7.941,-7.919,-1.8,1.65,284.4,298.9,298.2,288.1,280.7,291.0,288.6,301.7,283.1,296.2,5,norm,1.928,1.737,-1.166,-1.578,-4.364,-4.333,-1.843,-2.003,-1.197,-1.852,1.19,-1.534,295.9,315.2,-4.748,-8.223,1.198,-1.491,8.214,4.723,-5.258,-7.667,10,4.307,4.715,4.871,4.674,1.601,1.387,2.013,1.109,10,4.617,5.092,30,31.8232512566,norm,0,42,42,42,319.229,319.239,319.256427601,319.257,319.258,319.261,up,1,2.40153018211,7.59846981789,001,011,1920_1080,Intel(R) Core(TM) i5-3570 CPU @ 3.40GHz,orientation_search,LEPPC096,Intel(R) HD Graphics 2500,2018_Oct_31_1250,testMonitor,
356.1,369.6,359.6,358.3,36,80,362.2,371.4,361.4,353.7,7.95,7.691,7.797,7.61,7.574,7.909,8.459,4.421,-4.485,-7.941,1.711,-1.207,7.927,4.516,-4.581,-7.64,364.1,361.1,-7.873,361.8,360.9,351.4,361.5,360.0,36,361.9,3,5,probe,5,0,74,norm,36,-4.304,down,norm,361.416506258,364.8,359.4,367.1,361.6,0,361.7,352.0,363.0,10,6,8.421,5.035,1.555,-2.037,-5.004,-8.359,360.0,2,287.4,-8.263,-7.541,-10,-7.667,-7.763,-4.567,-4.689,-5.212,-4.925,4.39,8.421,18,-1.628,1.152,4.418,8.194,-7.634,-8.299,-1.313,1.752,360.6,364.6,362.4,358.2,363.5,366.4,361.4,366.5,360.9,365.7,0,norm,2.083,1.199,-1.882,-1.63,-4.885,-4.756,-1.676,-1.961,-1.183,-1.718,1.53,-1.93,355.2,,-4.553,-7.702,1.972,-1.801,8.455,5.242,-4.844,-7.906,11,4.495,4.447,4.752,4.855,1.426,1.911,1.944,1.951,11,4.508,4.851,-10,295.202739028,norm,0,43,43,43,321.695,321.704,321.721095982,321.721,321.723,321.725,down,1,1.51666813062,8.48333186938,001,011,1920_1080,Intel(R) Core(TM) i5-3570 CPU @ 3.40GHz,orientation_search,LEPPC096,Intel(R) HD Graphics 2500,2018_Oct_31_1250,testMonitor,
366.3,362.7,363.2,,36,80,360.0,360.8,365.7,368.1,7.605,7.937,8.132,7.693,7.797,8.06,7.946,4.921,-4.813,-7.661,1.439,-1.7,7.997,5.085,-4.361,-7.612,373.4,363.7,-7.658,364.1,360.5,364.0,359.0,360.3,36,368.7,3,5,probe,5,0,76,norm,36,-4.511,up,norm,363.416506258,363.6,362.2,370.6,360.2,3,367.9,358.9,360.5,10,6,7.635,4.898,2.018,-1.476,-4.36,-8.114,359.5,2,287.4,-8.348,-8.278,-10,-8.458,-8.03,-5.217,-4.87,-4.75,-4.478,4.436,7.783,21,-1.254,1.791,4.825,8.37,-8.229,-7.61,-1.84,1.732,363.8,353.4,371.9,364.9,356.7,373.3,361.0,364.1,362.7,366.9,1,norm,1.265,1.539,-1.872,-1.425,-4.984,-4.671,-1.999,-1.313,-1.841,-2.07,1.156,-1.641,363.5,358.1,-4.33,-7.522,1.146,-1.671,7.671,4.308,-5.118,-7.972,11,4.941,5.015,4.618,4.786,1.938,1.484,1.636,1.329,11,4.48,4.861,-10,295.202739028,norm,0,44,44,44,323.275,323.286,323.290693249,323.291,323.293,323.295,up,1,1.56294667665,8.43705332335,001,011,1920_1080,Intel(R) Core(TM) i5-3570 CPU @ 3.40GHz,orientation_search,LEPPC096,Intel(R) HD Graphics 2500,2018_Oct_31_1250,testMonitor,
190.6,189.4,188.9,175.8,36,-20,202.0,185.6,167.2,184.4,8.413,7.6,7.785,7.936,8.319,8.388,8.198,5.166,-4.361,-7.701,1.41,-1.401,7.586,5.023,-4.545,-8.004,180.5,190.1,-7.742,185.2,184.9,190.6,205.3,165.3,36,168.6,2,5,prime,10,0,73,norm,36,-4.571,down,norm,185.321352751,184.3,184.9,193.3,169.7,0,191.3,183.3,,10,6,7.74,4.895,1.469,-1.265,-4.727,-8.398,176.6,6,258.3,-7.65,-8.398,-20,-7.857,-7.546,-4.494,-4.589,-4.911,-4.46,4.72,7.912,12,-1.971,1.481,4.825,8.129,-8.35,-8.402,-1.617,1.694,202.7,170.6,180.0,201.7,182.5,175.1,173.1,186.0,171.9,183.3,0,norm,1.47,1.204,-1.108,-1.796,-5.092,-5.154,-1.957,-1.175,-2.004,-2.029,1.947,-1.419,184.6,180.2,-5.106,-7.555,2.04,-1.267,7.524,4.322,-4.468,-8.021,12,4.725,4.411,4.741,4.6,1.392,2.076,1.773,1.756,12,4.719,5.053,80,295.202739028,norm,0,45,45,45,324.891,324.901,324.906594417,324.907,324.909,324.912,down,1,1.35056637022,8.64943362978,001,011,1920_1080,Intel(R) Core(TM) i5-3570 CPU @ 3.40GHz,orientation_search,LEPPC096,Intel(R) HD Graphics 2500,2018_Oct_31_1250,testMonitor,
188.0,181.2,191.5,205.1,36,-20,177.9,188.3,205.3,182.5,8.081,8.375,7.888,8.467,7.601,7.903,8.237,4.633,-4.373,-7.55,1.163,-1.383,7.901,4.334,-5.184,-8.294,190.7,192.1,-8.38,185.7,172.7,195.8,175.2,165.3,36,180.7,2,5,prime,10,0,119,norm,36,-4.582,up,norm,185.321352751,,179.5,196.5,183.0,5,195.7,166.1,195.9,10,6,8.36,4.931,1.158,-1.735,-4.599,-8.291,182.8,6,304.3,-7.856,-7.914,-20,-8.309,-7.682,-4.423,-4.84,-4.404,-4.795,5.127,8.456,17,-1.729,1.449,4.571,7.806,-7.977,-7.88,-1.599,1.225,191.8,180.8,175.9,181.0,188.3,194.5,188.7,183.1,191.5,182.4,1,norm,1.364,2.085,-1.991,-2.064,-5.204,-4.386,-1.77,-1.645,-1.216,-1.98,1.865,-1.311,186.6,188.7,-4.519,-7.877,2.035,-1.752,8.293,4.608,-5.103,-8.201,12,4.593,5.19,5.02,4.767,2.047,1.876,1.398,1.871,12,4.784,4.316,80,295.202739028,norm,0,46,46,46,326.279,326.29,326.29496589,326.295,326.297,326.3,up,1,1.39693214997,8.60306785003,001,011,1920_1080,Intel(R) Core(TM) i5-3570 CPU @ 3.40GHz,orientation_search,LEPPC096,Intel(R) HD Graphics 2500,2018_Oct_31_1250,testMonitor,
202.7,173.8,183.1,189.5,36,-20,165.3,167.7,178.9,199.4,7.781,7.569,7.649,7.518,8.24,7.655,7.875,4.304,-5.184,-7.756,1.511,-1.793,8.035,5.19,-4.802,-8.113,169.6,177.1,-7.793,177.0,166.9,,171.5,167.4,36,190.9,5,5,prime,10,0,109,norm,36,-5.105,up,norm,185.321352751,191.2,180.2,178.2,192.0,3,201.9,196.0,192.6,10,6,7.644,5.274,1.58,-1.57,-4.447,-7.672,193.6,6,294.3,-7.922,-7.538,-20,-7.764,-8.325,-4.901,-4.835,-5.3,-4.591,4.852,7.535,33,-1.685,1.861,4.544,8.034,-8.023,-8.469,-1.206,1.736,205.3,186.8,193.7,192.3,185.8,199.7,188.6,185.9,188.3,178.8,2,norm,1.446,1.717,-2.089,-1.735,-4.543,-5.065,-1.787,-1.41,-1.685,-2.037,1.665,-1.393,183.8,193.1,-5.175,-8.066,1.91,-1.67,8.386,4.412,-5.174,-7.889,12,4.429,4.627,5.215,5.059,2.089,1.159,2.052,1.127,12,5.158,4.491,80,295.202739028,norm,0,47,47,47,327.714,327.724,327.742383425,327.743,327.744,327.747,up,1,3.40211727412,6.59788272588,001,011,1920_1080,Intel(R) Core(TM) i5-3570 CPU @ 3.40GHz,orientation_search,LEPPC096,Intel(R) HD Graphics 2500,2018_Oct_31_1250,testMonitor,
172.8,182.9,185.7,173.9,36,-20,167.8,185.1,180.1,172.6,7.557,7.501,7.776,7.922,8.429,7.625,8.146,5.15,-4.913,-7.524,1.137,-1.758,8.002,5.152,-5.172,-7.991,199.3,180.7,-7.945,177.0,182.2,193.3,177.2,188.3,36,182.4,0,5,prime,10,0,74,norm,36,-4.751,up,norm,185.321352751,184.2,193.4,190.8,197.8,5,176.7,194.2,197.4,10,6,8.25,4.552,1.789,-1.17,-5.247,-7.51,186.6,6,259.3,-8.453,-8.31,-20,-8.365,-7.648,-4.674,-5.25,-4.975,-4.993,5.191,7.968,5,-1.572,1.828,4.315,8.322,-7.558,-8.083,-2.012,1.679,194.6,175.8,183.6,196.6,186.9,196.0,193.3,171.1,,205.3,3,norm,1.82,1.574,-1.361,-1.892,-5.27,-4.779,-1.946,-1.512,-1.681,-1.259,1.479,-1.626,165.3,193.7,-4.492,-8.394,1.325,-1.673,8.132,5.228,-5.267,-8.249,12,5.298,4.891,4.707,4.739,1.377,1.859,1.272,1.156,12,4.828,4.775,80,295.202739028,norm,0,48,48,48,331.191,331.213,331.223263694,331.223,331.225,331.228,up,1,2.2969212533,7.7030787467,001,011,1920_1080,Intel(R) Core(TM) i5-3570 CPU @ 3.40GHz,orientation_search,LEPPC096,Intel(R) HD Graphics 2500,2018_Oct_31_1250,testMonitor,
174.1,175.8,175.4,181.0,36,-20,190.5,183.0,180.0,188.3,7.942,7.897,8.364,7.752,8.261,8.219,8.102,5.021,-5.076,-7.675,1.832,-1.563,8.489,4.954,-5.185,-7.793,177.3,180.7,-8.349,175.3,,199.3,196.0,178.6,36,185.7,5,5,prime,10,0,68,norm,36,-5.08,down,norm,185.321352751,196.7,173.0,182.9,181.0,0,195.4,178.9,185.1,10,6,8.264,4.801,2.016,-1.981,-4.509,-7.579,181.1,6,253.3,-7.801,-8.072,-20,-7.828,-8.223,-4.946,-5.07,-4.827,-4.347,4.665,8.086,30,-1.575,1.91,4.847,7.544,-7.989,-8.026,-1.933,1.797,187.1,180.2,187.9,205.3,196.2,202.6,182.0,173.1,184.3,197.5,4,norm,1.962,1.369,-1.438,-2.045,-4.58,-4.586,-1.794,-1.505,-1.304,-1.419,1.45,-1.569,165.3,199.2,-5.177,-7.661,1.477,-1.129,8.45,4.326,-4.308,-7.653,12,4.822,5.15,4.901,4.647,1.755,1.934,1.327,1.821,12,4.718,4.589,80,295.202739028,norm,0,49,49,49,333.562,333.574,333.594420543,333.595,333.597,333.6,down,1,3.90777524126,6.09222475874,001,011,1920_1080,Intel(R) Core(TM) i5-3570 CPU @ 3.40GHz,orientation_search,LEPPC096,Intel(R) HD Graphics 2500,2018_Oct_31_1250,testMonitor,
176.3,185.6,187.4,205.3,36,-20,191.5,180.9,178.5,179.1,8.294,8.452,8.306,7.716,8.167,7.566,8.152,5.077,-4.37,-7.612,1.82,-1.335,7.757,5.047,-5.251,-8.336,170.0,186.9,-8.36,173.9,178.4,188.2,187.1,184.1,36,173.1,2,5,prime,10,0,60,norm,36,-5.071,up,norm,185.321352751,,185.1,180.0,171.2,5,193.6,192.5,185.4,10,6,7.63,5.079,1.349,-1.945,-4.418,-7.527,192.8,6,245.3,-8.445,-7.643,-20,-8.241,-7.781,-4.74,-4.328,-4.637,-4.728,5.221,7.891,17,-1.365,1.912,4.881,7.835,-8.119,-8.426,-1.378,2.073,165.3,191.2,176.9,190.2,177.2,185.6,179.9,169.7,190.4,184.6,5,norm,1.937,1.116,-1.287,-1.667,-4.355,-5.123,-1.725,-1.298,-2.052,-1.599,1.631,-1.683,194.7,173.0,-4.474,-8.49,1.881,-1.913,8.28,4.589,-4.425,-7.76,12,4.6,5.134,5.053,5.105,1.488,1.816,2.062,1.419,12,5.13,5.29,80,295.202739028,norm,0,50,50,50,337.525,337.535,337.554521831,337.555,337.556,337.559,up,1,8.4405456907,1.5594543093,001,011,1920_1080,Intel(R) Core(TM) i5-3570 CPU @ 3.40GHz,orientation_search,LEPPC096,Intel(R) HD Graphics 2500,2018_Oct_31_1250,testMonitor,
261.4,256.8,257.5,254.9,36,20,251.8,263.4,254.2,267.3,8.261,8.059,7.938,7.816,8.218,7.986,8.061,4.588,-5.25,-7.582,1.141,-1.536,7.542,4.56,-4.903,-7.85,255.3,250.9,-8.426,259.3,,259.1,254.2,266.8,36,261.6,5,5,probe,5,0,94,norm,36,-4.763,down,norm,257.270184223,258.5,260.2,249.6,255.8,0,259.1,252.6,256.7,10,6,8.329,5.262,1.409,-1.753,-4.525,-7.864,263.0,2,163.3,-7.568,-8.446,-20,-8.107,-8.244,-4.37,-4.731,-4.708,-5.165,4.579,7.696,30,-1.295,1.752,4.555,7.951,-7.5,-8.418,-2.065,1.29,263.8,248.9,252.2,266.6,258.9,254.2,263.2,261.7,247.3,253.6,0,norm,2.082,1.618,-1.312,-1.753,-4.887,-4.376,-1.423,-2.069,-1.824,-1.569,1.379,-1.729,254.6,252.8,-5.215,-7.635,1.792,-1.856,7.718,4.73,-4.543,-8.348,13,5.239,4.586,5.216,4.395,2.06,2.071,1.878,1.454,13,4.68,4.728,-20,185.321352751,norm,0,51,51,51,346.041,346.054,346.073976007,346.074,346.077,346.08,down,1,3.16196344092,6.83803655908,001,011,1920_1080,Intel(R) Core(TM) i5-3570 CPU @ 3.40GHz,orientation_search,LEPPC096,Intel(R) HD Graphics 2500,2018_Oct_31_1250,testMonitor,
252.1,243.5,241.0,236.3,36,20,255.5,254.6,243.0,246.9,7.925,8.012,8.38,8.011,7.839,8.447,8.158,4.988,-4.776,-7.561,2.058,-1.385,8.119,4.539,-4.658,-7.859,244.3,252.3,-8.364,254.3,244.3,245.6,242.8,240.6,36,253.9,2,5,probe,5,0,83,norm,36,-4.745,down,norm,246.270184223,251.3,243.2,248.2,251.3,0,243.4,243.9,,10,6,8.215,4.705,1.693,-1.662,-4.761,-7.569,256.3,2,163.3,-7.822,-8.436,-20,-8.445,-8.316,-4.655,-4.924,-4.697,-4.832,4.475,7.65,12,-1.731,1.248,4.438,8.145,-8.214,-7.786,-1.514,2.044,249.9,250.1,252.6,247.3,243.8,249.8,241.7,245.5,245.0,240.9,1,norm,1.559,1.744,-1.86,-1.43,-5.158,-5.267,-1.456,-1.17,-1.241,-1.494,1.134,-2.045,250.6,243.9,-5.194,-7.812,1.217,-1.29,8.19,4.756,-4.553,-7.764,13,4.34,4.966,4.815,4.649,1.535,1.463,1.902,1.376,13,4.812,4.51,-20,185.321352751,norm,0,52,52,52,349.275,349.288,349.307107979,349.307,349.309,349.312,down,1,1.12955475486,8.87044524514,001,011,1920_1080,Intel(R) Core(TM) i5-3570 CPU @ 3.40GHz,orientation_search,LEPPC096,Intel(R) HD Graphics 2500,2018_Oct_31_1250,testMonitor,
301.3,311.6,299.8,302.4,36,-60,304.8,300.7,296.1,283.6,8.459,8.406,8.411,8.333,7.514,7.988,7.624,4.598,-4.901,-8.007,1.798,-1.792,7.633,4.487,-4.552,-7.587,300.9,318.6,-7.539,294.1,294.8,297.2,291.8,295.5,36,303.9,1,5,prime,10,0,71,norm,36,-4.875,down,norm,301.369942207,314.4,303.5,294.1,293.8,0,305.2,291.0,305.4,10,6,7.976,4.537,1.21,-1.264,-4.473,-8.255,316.6,6,372.4,-7.727,-7.574,-60,-8.35,-8.113,-4.898,-4.433,-5.101,-4.927,4.8,8.164,6,-2.079,1.764,4.673,8.054,-8.265,-8.051,-1.992,1.248,321.4,303.2,309.9,291.4,281.4,296.1,308.0,,294.2,314.1,0,norm,1.717,1.23,-1.108,-1.751,-5.01,-4.976,-1.397,-1.257,-1.129,-1.695,2.087,-1.577,300.6,291.3,-5.277,-7.866,1.793,-1.661,8.364,4.854,-4.444,-7.542,14,5.197,4.885,5.28,4.324,1.823,2.024,2.005,1.876,14,4.663,4.679,20,185.321352751,norm,0,53,53,53,350.458,350.468,350.486354563,350.487,350.488,350.491,down,1,1.01023471908,8.98976528092,001,011,1920_1080,Intel(R) Core(TM) i5-3570 CPU @ 3.40GHz,orientation_search,LEPPC096,Intel(R) HD Graphics 2500,2018_Oct_31_1250,testMonitor,
299.5,307.6,321.4,306.0,36,-60,295.0,296.9,288.3,289.6,7.802,7.643,8.2,7.876,8.469,8.149,8.127,4.46,-5.145,-8.067,1.342,-1.634,8.139,4.705,-4.696,-7.872,300.5,287.3,-7.812,296.4,320.8,313.2,316.2,281.4,36,313.3,2,5,prime,10,0,74,norm,36,-5.197,down,norm,301.369942207,312.8,296.0,308.1,312.3,1,298.9,,308.0,10,6,7.96,4.52,1.671,-1.642,-4.893,-8.34,293.3,6,375.4,-8.445,-8.062,-60,-8.092,-8.178,-5.157,-4.444,-4.483,-4.968,4.693,8.166,13,-1.902,1.761,4.392,7.729,-8.046,-7.931,-1.288,1.926,296.9,292.3,311.9,312.1,299.6,318.4,291.0,319.1,311.9,282.2,1,norm,1.777,2.026,-1.712,-1.191,-4.968,-4.48,-1.616,-1.311,-1.259,-2.0,1.892,-1.965,311.5,304.7,-4.583,-8.427,1.3,-1.875,8.237,4.481,-4.987,-7.524,14,4.819,4.652,5.162,5.027,2.071,1.704,1.279,1.902,14,4.469,4.927,20,185.321352751,norm,0,54,54,54,351.534,351.546,351.566917169,351.567,351.569,351.573,down,1,0.790124720074,9.20987527993,001,011,1920_1080,Intel(R) Core(TM) i5-3570 CPU @ 3.40GHz,orientation_search,LEPPC096,Intel(R) HD Graphics 2500,2018_Oct_31_1250,testMonitor,
306.9,307.0,301.4,298.9,36,-60,296.2,298.9,308.8,303.2,8.11,8.111,7.917,8.499,8.227,7.929,7.708,4.717,-5.234,-7.552,2.033,-1.891,8.219,5.247,-5.129,-8.082,303.5,281.4,-8.349,305.5,282.9,314.7,302.2,295.3,36,299.6,2,5,prime,10,0,90,norm,36,-5.045,down,norm,301.369942207,302.7,303.7,319.4,309.2,0,300.3,297.4,,10,6,7.778,5.238,1.152,-1.175,-4.664,-8.38,317.3,6,391.4,-7.987,-8.188,-60,-8.429,-7.607,-5.14,-5.097,-4.608,-4.435,4.752,7.559,12,-1.417,1.457,4.943,7.855,-7.711,-7.955,-1.296,1.111,309.0,301.1,305.5,309.9,297.0,321.4,308.1,300.8,298.6,302.4,2,norm,1.946,2.082,-1.56,-1.896,-4.849,-5.044,-1.674,-1.135,-1.328,-1.589,1.892,-1.231,291.8,291.2,-5.005,-8.074,2.037,-1.671,7.951,4.849,-4.708,-8.16,14,4.46,5.049,4.67,4.896,1.463,1.167,1.641,1.664,14,4.316,4.865,20,185.321352751,norm,0,55,55,55,352.396,352.412,352.428148541,352.428,352.431,352.435,down,1,1.11218981092,8.88781018908,001,011,1920_1080,Intel(R) Core(TM) i5-3570 CPU @ 3.40GHz,orientation_search,LEPPC096,Intel(R) HD Graphics 2500,2018_Oct_31_1250,testMonitor,
,298.7,308.7,313.1,36,-60,299.3,301.3,305.0,308.3,8.364,8.224,8.087,7.756,8.266,8.039,7.85,4.432,-4.338,-7.808,1.449,-1.589,7.733,4.558,-4.952,-8.48,321.4,312.9,-8.281,301.8,307.4,316.5,291.7,312.0,36,310.0,3,5,prime,10,0,67,norm,36,-4.385,up,norm,301.369942207,306.5,296.4,311.5,281.4,4,291.8,303.2,308.3,10,6,8.244,4.837,1.758,-1.173,-4.802,-7.853,289.9,6,368.4,-8.052,-7.703,-60,-7.976,-7.904,-5.235,-5.204,-4.929,-4.741,5.275,7.7,22,-1.373,2.032,4.983,7.892,-7.746,-7.902,-1.379,1.715,296.4,310.6,304.1,302.6,308.3,295.7,306.6,296.2,300.6,281.5,3,norm,1.972,1.418,-1.447,-1.89,-4.923,-5.26,-1.688,-1.869,-1.889,-1.484,1.367,-1.221,293.2,302.6,-4.641,-8.2,1.44,-2.071,7.506,4.763,-4.95,-8.346,14,5.031,4.714,4.453,4.768,1.608,1.906,1.41,1.169,14,4.611,5.123,20,185.321352751,norm,0,56,56,56,353.58,353.59,353.606051304,353.606,353.608,353.61,up,1,0.842542527949,9.15745747205,001,011,1920_1080,Intel(R) Core(TM) i5-3570 CPU @ 3.40GHz,orientation_search,LEPPC096,Intel(R) HD Graphics 2500,2018_Oct_31_1250,testMonitor,
302.0,290.2,,288.6,36,-60,301.7,298.1,316.5,288.8,8.449,8.483,7.791,7.521,8.187,7.684,7.707,4.663,-4.763,-8.356,1.305,-1.734,8.313,5.171,-4.344,-8.434,306.1,281.4,-7.762,302.0,300.0,313.3,305.3,321.4,36,294.7,3,5,prime,10,0,71,norm,36,-4.768,down,norm,301.369942207,315.9,317.6,303.0,294.7,2,291.7,312.5,301.2,10,6,8.389,4.926,1.112,-1.513,-5.266,-8.425,309.6,6,372.4,-7.945,-8.433,-60,-7.735,-7.709,-5.089,-4.559,-4.987,-4.921,4.399,8.163,20,-1.171,1.973,4.925,8.087,-8.251,-7.711,-1.675,1.273,304.4,306.2,295.6,317.4,288.4,295.2,309.6,299.1,296.7,301.4,4,norm,1.93,1.172,-1.902,-1.328,-5.131,-4.982,-1.446,-1.699,-1.62,-1.439,2.018,-1.556,315.3,307.6,-4.388,-7.8,1.512,-1.886,8.005,4.495,-4.311,-8.377,14,5.258,5.032,5.06,4.708,1.147,1.185,2.049,1.479,14,5.083,5.289,20,185.321352751,norm,0,57,57,57,354.497,354.519,354.52863545,354.529,354.531,354.534,down,1,0.978881893087,9.02111810691,001,011,1920_1080,Intel(R) Core(TM) i5-3570 CPU @ 3.40GHz,orientation_search,LEPPC096,Intel(R) HD Graphics 2500,2018_Oct_31_1250,testMonitor,
310.4,302.5,299.7,310.4,36,-60,298.2,293.1,296.3,291.3,7.759,7.992,7.562,7.633,7.53,8.332,8.147,5.045,-4.83,-8.017,1.161,-1.771,7.959,4.618,-5.288,-7.55,293.3,317.6,-7.865,305.5,307.1,305.7,302.1,298.2,36,300.4,2,5,prime,10,0,83,norm,36,-4.641,up,norm,301.369942207,313.9,,300.5,286.3,4,281.4,295.5,305.8,10,6,8.414,4.422,1.826,-1.584,-5.05,-7.769,289.9,6,384.4,-7.927,-7.693,-60,-7.859,-8.04,-5.139,-4.79,-5.004,-4.949,4.87,7.946,16,-1.964,2.09,4.366,7.808,-7.985,-8.135,-2.006,1.972,301.3,299.9,294.0,288.3,299.2,321.4,306.4,317.9,298.9,309.1,5,norm,1.104,1.397,-1.902,-1.641,-4.615,-4.336,-1.234,-1.163,-1.792,-1.495,1.934,-1.851,304.0,312.7,-4.795,-8.398,1.353,-1.149,8.033,4.399,-5.037,-8.061,14,4.822,4.847,4.9,4.987,1.417,1.65,1.552,1.45,14,5.248,4.304,20,185.321352751,norm,0,58,58,58,355.546,355.559,355.578067993,355.578,355.58,355.583,up,1,0.724800547187,9.27519945281,001,011,1920_1080,Intel(R) Core(TM) i5-3570 CPU @ 3.40GHz,orientation_search,LEPPC096,Intel(R) HD Graphics 2500,2018_Oct_31_1250,testMonitor,
324.9,319.8,331.5,316.5,36,-10,324.4,324.2,329.0,321.3,8.152,7.582,7.563,8.0,8.031,7.76,8.263,4.524,-4.813,-7.841,1.38,-1.691,8.084,4.86,-5.168,-7.908,313.8,321.2,-7.924,320.7,316.5,311.5,325.6,,36,323.0,4,5,probe,5,0,86,norm,36,-4.391,down,norm,321.507247766,317.7,322.3,321.2,322.7,2,326.2,321.3,318.1,10,6,8.301,5.184,1.302,-1.331,-5.148,-8.063,318.9,2,235.5,-7.585,-8.001,-60,-8.15,-7.862,-5.152,-4.735,-5.089,-4.938,4.459,7.99,26,-1.291,1.716,4.54,7.511,-8.456,-8.268,-1.711,1.538,321.1,325.9,322.0,312.3,320.1,315.6,316.2,326.1,317.8,323.7,0,norm,1.443,1.66,-1.557,-1.908,-4.975,-4.363,-1.325,-1.885,-1.455,-1.254,1.249,-1.103,323.9,318.5,-4.935,-8.343,1.602,-1.61,7.872,4.857,-5.206,-8.277,15,4.356,4.877,4.799,4.751,1.291,1.872,1.472,1.144,15,4.523,4.424,-60,301.369942207,norm,0,59,59,59,356.34,356.35,356.36728838,356.367,356.369,356.372,down,1,1.24905046546,8.75094953454,001,011,1920_1080,Intel(R) Core(TM) i5-3570 CPU @ 3.40GHz,orientation_search,LEPPC096,Intel(R) HD Graphics 2500,2018_Oct_31_1250,testMonitor,
355.1,356.8,357.4,352.7,36,-10,347.2,354.0,355.1,354.5,8.285,8.085,7.975,7.628,7.946,7.715,7.99,4.716,-4.857,-8.474,1.287,-1.675,7.857,4.712,-4.545,-7.858,,346.7,-7.769,364.5,358.9,353.5,359.7,354.6,36,349.8,5,5,probe,5,0,119,norm,36,-4.476,up,norm,354.507247766,351.5,354.7,353.8,348.5,5,353.7,351.8,359.5,10,6,7.855,4.895,1.857,-1.885,-4.986,-8.426,355.2,2,235.5,-7.777,-8.121,-60,-7.765,-7.889,-5.07,-4.626,-4.652,-4.805,4.868,8.348,35,-1.625,1.695,4.456,7.979,-7.639,-7.939,-1.394,1.446,355.3,354.8,352.9,355.9,352.6,358.2,353.8,344.5,354.8,360.2,1,norm,1.513,1.609,-1.634,-1.921,-4.531,-4.61,-1.776,-1.585,-1.955,-1.64,1.59,-1.563,363.3,352.6,-4.707,-7.527,1.554,-2.077,8.163,5.01,-5.025,-8.454,15,4.57,5.235,4.744,5.196,1.559,2.036,1.459,1.382,15,5.164,4.372,-60,301.369942207,norm,0,60,60,60,357.653,357.663,357.677650268,357.678,357.68,357.682,up,1,0.825725134088,9.17427486591,001,011,1920_1080,Intel(R) Core(TM) i5-3570 CPU @ 3.40GHz,orientation_search,LEPPC096,Intel(R) HD Graphics 2500,2018_Oct_31_1250,testMonitor,
104.9,108.9,92.6,84.3,36,40,86.1,96.0,103.9,81.8,7.747,8.061,7.507,7.962,8.223,8.329,8.206,5.155,-4.685,-7.594,1.302,-1.896,8.423,4.369,-4.533,-8.051,76.4,93.7,-7.753,80.7,95.0,99.8,116.4,102.5,36,98.3,2,5,prime,10,0,92,norm,36,-4.975,down,norm,96.4408947373,115.4,106.0,104.4,,2,85.4,85.1,91.1,10,5,7.743,5.229,2.06,-1.974,-5.115,-7.79,98.8,5,188.4,-8.111,-7.589,40,-7.901,-7.617,-5.24,-4.972,-4.422,-5.224,5.241,7.51,14,-1.691,1.412,4.587,8.365,-8.358,-8.245,-1.374,1.746,104.8,90.4,86.1,95.2,110.6,86.4,110.6,95.7,78.9,104.2,0,norm,1.777,1.573,-1.407,-1.507,-5.245,-4.536,-1.502,-1.895,-1.668,-1.565,1.85,-1.481,93.3,99.0,-5.02,-8.193,1.145,-1.836,8.039,4.672,-4.663,-7.829,16,4.714,5.113,4.318,4.337,1.459,2.057,1.918,2.028,16,4.689,5.134,-10,301.369942207,norm,0,61,61,61,358.541,358.554,358.573140646,358.573,358.575,358.578,down,1,1.30015674904,8.69984325096,001,011,1920_1080,Intel(R) Core(TM) i5-3570 CPU @ 3.40GHz,orientation_search,LEPPC096,Intel(R) HD Graphics 2500,2018_Oct_31_1250,testMonitor,
,86.9,99.3,96.6,36,40,101.7,94.6,97.8,100.8,7.584,8.387,7.523,7.674,7.971,7.979,8.023,5.184,-4.74,-8.261,1.125,-1.299,8.265,4.439,-4.354,-7.877,79.8,76.4,-8.038,99.8,92.2,102.5,96.8,108.6,36,93.9,3,5,prime,10,0,100,norm,36,-4.604,up,norm,96.4408947373,90.1,97.9,85.4,92.0,4,96.5,116.4,101.9,10,5,8.404,4.7,1.242,-2.093,-5.15,-7.627,88.3,5,196.4,-8.375,-7.602,40,-7.973,-8.232,-4.754,-4.339,-5.153,-4.548,5.007,7.652,22,-1.241,1.819,5.129,7.726,-8.291,-8.03,-1.817,1.894,91.6,95.1,87.4,77.7,107.6,102.7,82.9,102.4,108.2,97.5,1,norm,1.148,1.356,-1.353,-1.812,-5.028,-4.599,-1.434,-1.742,-1.916,-1.598,1.946,-1.664,87.6,100.2,-5.239,-7.94,1.753,-1.185,7.708,5.065,-5.271,-7.902,16,4.856,4.544,5.063,4.789,1.899,1.593,1.419,1.964,16,4.871,5.018,-10,301.369942207,norm,0,62,62,62,359.894,359.905,359.910383198,359.911,359.912,359.915,up,1,0.723318781299,9.2766812187,001,011,1920_1080,Intel(R) Core(TM) i5-3570 CPU @ 3.40GHz,orientation_search,LEPPC096,Intel(R) HD Graphics 2500,2018_Oct_31_1250,testMonitor,
92.8,81.1,93.5,97.4,36,40,113.4,92.1,106.9,99.3,8.418,7.719,8.291,8.384,8.496,8.274,7.735,4.569,-4.754,-8.403,1.207,-1.542,8.397,5.092,-4.894,-7.507,101.5,96.4,-7.693,106.6,109.2,116.4,111.4,115.2,36,96.0,3,5,prime,10,0,97,norm,36,-5.01,down,norm,96.4408947373,97.9,77.4,104.1,96.1,0,101.1,103.0,96.4,10,5,7.583,5.07,1.276,-1.868,-4.569,-8.249,96.7,5,193.4,-7.511,-8.052,40,-8.159,-8.14,-4.317,-4.932,-4.596,-4.372,5.233,8.472,18,-1.536,1.235,4.94,7.918,-7.806,-8.438,-1.199,1.588,106.2,103.7,91.4,93.6,94.7,111.1,76.4,88.2,101.7,111.7,2,norm,2.056,1.326,-1.881,-1.306,-4.896,-5.249,-1.458,-1.447,-1.364,-1.642,1.98,-2.011,87.2,,-4.971,-8.175,1.138,-2.031,8.486,4.492,-5.167,-7.782,16,5.045,4.435,4.906,4.551,1.93,1.836,1.369,2.052,16,5.281,5.084,-10,301.369942207,norm,0,63,63,63,360.658,360.667,360.673629065,360.674,360.676,360.678,down,1,1.26701819744,8.73298180256,001,011,1920_1080,Intel(R) Core(TM) i5-3570 CPU @ 3.40GHz,orientation_search,LEPPC096,Intel(R) HD Graphics 2500,2018_Oct_31_1250,testMonitor,
100.0,95.1,102.1,92.2,36,40,97.4,97.8,102.3,105.0,7.794,8.103,8.219,8.356,8.008,7.677,7.847,4.466,-4.577,-7.975,1.234,-1.398,7.731,4.567,-4.814,-7.662,96.5,94.4,-8.238,99.2,105.1,91.9,95.1,85.8,36,101.2,0,5,prime,10,0,66,norm,36,-4.416,up,norm,96.4408947373,97.4,109.5,108.9,87.8,5,82.9,102.4,99.4,10,5,7.922,4.475,1.929,-1.317,-5.093,-8.105,102.5,5,162.4,-8.157,-8.212,40,-8.381,-7.687,-4.658,-4.982,-4.465,-4.976,4.878,7.847,5,-1.755,1.678,4.799,8.158,-7.746,-7.68,-1.367,1.387,102.5,85.1,95.6,95.6,116.4,102.2,88.9,76.4,,98.5,3,norm,2.079,1.6,-2.01,-1.852,-5.049,-4.421,-1.322,-1.756,-1.769,-1.272,1.112,-2.041,84.2,99.5,-5.015,-8.453,1.505,-1.857,8.143,4.326,-4.775,-7.775,16,4.499,5.022,4.346,4.782,1.178,1.193,1.957,1.793,16,4.424,4.431,-10,301.369942207,norm,0,64,64,64,361.984,361.993,362.000975569,362.001,362.003,362.005,up,1,1.58791031166,8.41208968834,001,011,1920_1080,Intel(R) Core(TM) i5-3570 CPU @ 3.40GHz,orientation_search,LEPPC096,Intel(R) HD Graphics 2500,2018_Oct_31_1250,testMonitor,
84.1,96.6,113.2,94.3,36,40,111.5,102.7,105.5,102.1,7.906,7.618,7.624,8.214,7.795,7.684,7.625,4.803,-4.851,-7.743,1.591,-1.398,7.58,4.426,-4.552,-7.55,76.4,,-8.051,86.8,91.1,97.4,85.4,90.7,36,101.2,5,5,prime,10,0,94,norm,36,-4.425,up,norm,96.4408947373,107.7,91.6,86.3,116.4,4,87.2,102.3,78.9,10,5,7.822,4.969,1.171,-1.584,-4.555,-8.418,103.7,5,190.4,-8.097,-8.273,40,-7.69,-8.044,-4.704,-4.953,-4.444,-4.835,4.338,8.147,34,-1.266,2.089,4.407,8.028,-7.77,-8.372,-1.92,1.463,82.1,76.5,101.9,100.8,108.0,103.1,83.3,100.4,89.7,93.8,4,norm,2.021,1.303,-1.907,-1.397,-4.541,-4.619,-1.735,-1.925,-1.137,-1.816,1.522,-2.003,107.9,91.2,-4.446,-8.082,1.139,-1.272,8.362,4.909,-5.194,-7.625,16,5.139,4.464,4.495,4.417,1.87,2.014,1.882,1.647,16,5.215,4.588,-10,301.369942207,norm,0,65,65,65,363.626,363.636,363.652205187,363.652,363.654,363.657,up,1,3.04087729958,6.95912270042,001,011,1920_1080,Intel(R) Core(TM) i5-3570 CPU @ 3.40GHz,orientation_search,LEPPC096,Intel(R) HD Graphics 2500,2018_Oct_31_1250,testMonitor,
251.5,244.8,240.4,248.0,36,-30,238.7,,250.0,250.8,8.011,7.526,7.689,8.169,7.918,7.659,7.861,4.737,-4.906,-7.618,1.349,-1.146,8.251,4.959,-5.124,-8.293,249.4,247.1,-8.295,250.4,254.0,249.0,239.0,239.8,36,254.3,4,5,probe,5,0,114,norm,36,-5.212,down,norm,248.442971727,247.7,248.2,244.6,252.6,1,244.1,246.8,244.9,10,5,8.273,5.206,1.58,-1.71,-4.724,-8.276,250.7,2,134.4,-8.321,-7.825,40,-7.903,-7.815,-4.72,-5.08,-5.033,-4.71,4.36,7.504,25,-1.504,1.551,4.448,8.441,-8.377,-8.489,-1.164,1.667,244.2,254.2,256.1,246.4,248.9,258.4,249.9,255.1,252.0,252.2,0,norm,1.629,1.688,-1.112,-1.446,-4.399,-4.869,-2.058,-1.834,-1.229,-1.921,1.237,-1.76,247.3,242.1,-4.874,-8.191,1.597,-1.596,8.024,4.405,-5.16,-7.541,17,5.29,4.432,4.355,4.553,1.962,1.974,1.716,1.863,17,4.856,4.889,40,96.4408947373,norm,0,66,66,66,366.731,366.744,366.762784343,366.763,366.765,366.767,down,1,0.910128740674,9.08987125933,001,011,1920_1080,Intel(R) Core(TM) i5-3570 CPU @ 3.40GHz,orientation_search,LEPPC096,Intel(R) HD Graphics 2500,2018_Oct_31_1250,testMonitor,
213.2,197.1,215.4,204.9,36,-30,209.7,205.1,206.6,196.9,8.224,8.123,8.048,8.133,7.776,8.153,7.753,5.141,-4.726,-8.278,2.085,-1.397,7.551,4.442,-4.877,-8.127,206.0,,-7.795,205.3,206.2,203.3,200.2,203.5,36,202.4,5,5,probe,5,0,71,norm,36,-4.817,up,norm,205.442971727,203.5,212.8,209.4,211.4,4,200.4,202.9,201.8,10,5,8.216,5.239,1.899,-2.064,-5.008,-7.854,199.9,2,134.4,-8.487,-8.098,40,-8.075,-7.599,-5.175,-4.305,-4.426,-4.689,4.866,7.871,34,-1.407,1.538,4.572,8.308,-7.596,-7.611,-1.956,2.006,207.1,208.8,211.4,214.7,203.6,203.7,204.8,206.9,206.7,207.4,1,norm,1.397,1.865,-1.373,-1.43,-5.184,-4.684,-1.364,-1.183,-1.694,-1.752,1.152,-1.889,195.4,206.4,-4.973,-8.473,1.221,-1.15,8.215,4.949,-4.344,-8.484,17,5.009,4.599,4.967,4.646,2.022,1.124,1.476,1.402,17,4.566,4.304,40,96.4408947373,norm,0,67,67,67,367.694,367.704,367.723563881,367.724,367.725,367.728,up,1,0.740148249031,9.25985175097,001,011,1920_1080,Intel(R) Core(TM) i5-3570 CPU @ 3.40GHz,orientation_search,LEPPC096,Intel(R) HD Graphics 2500,2018_Oct_31_1250,testMonitor,
70.8,73.9,73.6,,36,10,61.8,76.1,67.2,76.1,8.198,7.695,8.08,7.758,7.556,7.691,7.695,4.723,-5.006,-7.585,2.05,-1.583,8.432,4.556,-5.028,-7.903,52.8,67.8,-7.659,73.7,74.9,72.8,74.6,69.6,36,73.1,3,5,prime,10,0,97,norm,36,-4.36,up,norm,71.9573881681,86.0,58.8,72.7,68.6,3,59.6,71.1,69.1,10,5,7.715,5.172,1.117,-1.743,-4.989,-7.715,66.0,5,169.0,-8.389,-8.156,10,-7.641,-8.003,-5.15,-4.595,-5.299,-4.663,4.66,7.52,21,-1.889,2.092,4.903,7.952,-7.912,-8.436,-1.986,2.071,80.7,67.7,52.0,74.0,79.6,87.6,75.1,69.3,85.3,92.0,0,norm,1.132,2.054,-1.702,-2.026,-4.616,-5.218,-1.848,-1.688,-1.464,-1.14,1.671,-1.243,75.8,61.8,-4.383,-7.695,1.473,-1.643,7.881,5.147,-4.755,-8.14,18,4.91,5.175,4.623,4.477,1.798,2.085,1.354,1.907,18,4.611,5.153,-30,96.4408947373,norm,0,68,68,68,368.5,385.243,385.257338575,385.258,385.259,385.262,up,1,1.51743602886,8.48256397114,001,011,1920_1080,Intel(R) Core(TM) i5-3570 CPU @ 3.40GHz,orientation_search,LEPPC096,Intel(R) HD Graphics 2500,2018_Oct_31_1250,testMonitor,
71.4,65.5,68.4,52.0,36,10,83.4,57.9,84.5,71.1,7.588,8.208,8.291,8.095,7.565,8.018,8.017,5.139,-4.422,-8.119,1.262,-1.243,7.567,4.56,-4.682,-7.77,70.3,70.0,-8.253,55.8,78.0,81.7,84.5,73.2,36,67.1,0,5,prime,10,0,92,norm,36,-4.742,down,norm,71.9573881681,73.5,78.1,80.4,55.8,2,62.3,86.2,60.6,10,5,8.27,5.279,1.328,-2.057,-4.552,-7.5,64.0,5,164.0,-8.199,-7.904,10,-8.33,-7.98,-5.02,-5.093,-4.472,-4.928,4.394,8.381,2,-1.706,1.567,4.452,7.746,-7.695,-7.884,-1.639,1.787,85.0,74.5,67.8,,70.1,82.6,53.0,65.2,72.5,83.6,1,norm,1.888,1.59,-1.911,-1.913,-5.107,-5.057,-2.024,-1.815,-1.289,-1.859,1.443,-1.751,92.0,73.4,-4.322,-7.819,2.039,-1.62,7.848,4.847,-4.789,-7.634,18,4.968,5.055,4.534,4.871,1.707,1.547,1.515,1.381,18,5.119,4.305,-30,96.4408947373,norm,0,69,69,69,386.812,386.822,386.832646481,386.833,386.835,386.837,down,1,1.34967260188,8.65032739812,001,011,1920_1080,Intel(R) Core(TM) i5-3570 CPU @ 3.40GHz,orientation_search,LEPPC096,Intel(R) HD Graphics 2500,2018_Oct_31_1250,testMonitor,
70.8,79.5,66.4,52.0,36,10,63.5,68.1,69.6,66.7,7.556,8.355,7.963,7.757,7.924,8.479,7.798,5.281,-4.769,-8.286,1.241,-1.23,8.266,5.124,-4.843,-8.134,57.6,84.7,-8.14,59.3,80.2,68.6,63.6,78.1,36,65.1,1,5,prime,10,0,102,norm,36,-4.612,up,norm,71.9573881681,88.6,70.4,81.9,55.7,5,,52.3,70.0,10,5,8.287,4.82,1.681,-1.585,-5.039,-7.615,71.7,5,174.0,-8.137,-8.048,10,-8.458,-8.035,-4.806,-4.698,-5.082,-5.007,4.963,7.939,11,-1.184,1.638,4.507,8.264,-7.813,-7.989,-1.934,1.171,70.0,92.0,61.9,70.6,64.8,72.0,60.0,61.1,68.9,84.8,2,norm,1.354,1.599,-1.846,-1.457,-5.229,-4.571,-1.531,-1.87,-1.949,-1.397,2.087,-1.775,82.4,67.7,-4.335,-8.025,2.001,-1.615,7.742,4.413,-4.675,-8.163,18,5.266,4.353,5.291,5.11,1.149,1.516,1.256,2.051,18,4.616,4.302,-30,96.4408947373,norm,0,70,70,70,388.206,388.215,388.222041517,388.222,388.224,388.226,up,1,0.724400902039,9.27559909796,001,011,1920_1080,Intel(R) Core(TM) i5-3570 CPU @ 3.40GHz,orientation_search,LEPPC096,Intel(R) HD Graphics 2500,2018_Oct_31_1250,testMonitor,
76.3,59.3,68.8,74.2,36,10,65.6,76.3,66.0,83.3,8.451,8.471,8.278,7.998,8.245,8.375,7.611,4.478,-4.905,-7.698,1.135,-1.592,7.915,4.501,-4.703,-7.506,92.0,86.3,-8.058,75.7,69.2,71.1,67.9,80.3,36,70.0,1,5,prime,10,0,66,norm,36,-4.791,up,norm,71.9573881681,78.9,56.4,72.3,85.2,4,80.8,83.4,78.6,10,5,8.215,4.918,1.439,-1.563,-5.234,-8.151,,5,138.0,-8.328,-8.123,10,-8.339,-8.147,-4.935,-5.138,-5.013,-5.2,5.281,7.844,10,-1.934,1.44,5.216,8.491,-7.521,-8.027,-2.021,1.262,82.4,88.5,59.0,71.2,59.0,82.2,75.1,74.7,64.3,65.0,3,norm,1.287,1.811,-1.485,-1.623,-4.459,-4.505,-1.941,-1.511,-1.462,-1.12,1.345,-1.34,63.8,52.0,-4.943,-7.638,1.183,-1.247,8.136,4.791,-5.01,-8.411,18,4.328,4.898,4.64,4.774,1.493,2.028,1.941,1.676,18,4.55,4.361,-30,96.4408947373,norm,0,71,71,71,388.986,388.995,389.001959891,389.002,389.004,389.006,up,1,1.09458037108,8.90541962892,001,011,1920_1080,Intel(R) Core(TM) i5-3570 CPU @ 3.40GHz,orientation_search,LEPPC096,Intel(R) HD Graphics 2500,2018_Oct_31_1250,testMonitor,
79.2,84.6,76.5,83.2,36,10,53.6,81.4,67.2,64.2,8.225,7.518,8.332,8.393,8.265,7.677,7.6,5.204,-4.751,-7.746,1.785,-1.589,8.049,4.702,-4.946,-7.519,74.1,80.0,-7.564,52.0,70.2,68.0,67.7,67.9,36,74.8,2,5,prime,10,0,73,norm,36,-4.547,down,norm,71.9573881681,80.2,73.5,76.0,,2,69.3,66.6,56.6,10,5,7.934,4.779,1.326,-1.741,-5.047,-8.093,78.8,5,145.0,-8.207,-8.206,10,-8.348,-8.345,-4.719,-5.211,-4.494,-4.398,4.853,8.204,14,-1.934,1.261,4.48,7.654,-7.528,-7.982,-1.789,1.491,58.4,56.6,66.9,74.2,75.3,67.3,92.0,53.6,66.0,62.2,4,norm,1.343,1.531,-1.376,-1.356,-4.469,-5.112,-1.689,-1.733,-1.45,-1.205,1.19,-1.367,68.2,68.7,-5.079,-8.288,1.828,-1.671,8.452,5.034,-5.186,-7.635,18,4.515,4.483,5.131,4.629,1.53,1.301,2.078,1.679,18,4.318,4.849,-30,96.4408947373,norm,0,72,72,72,390.134,390.147,390.166056785,390.166,390.169,390.171,down,1,0.791259060309,9.20874093969,001,011,1920_1080,Intel(R) Core(TM) i5-3570 CPU @ 3.40GHz,orientation_search,LEPPC096,Intel(R) HD Graphics 2500,2018_Oct_31_1250,testMonitor,
150.7,146.4,146.2,149.3,36,60,151.1,140.0,153.1,146.9,7.712,8.406,7.741,7.867,8.242,8.209,7.922,4.539,-4.631,-8.34,1.242,-1.918,8.134,4.342,-4.807,-8.439,142.6,146.4,-7.797,143.8,,151.8,152.0,145.1,36,149.1,5,5,probe,5,0,66,norm,36,-4.794,down,norm,147.659976654,150.7,144.1,144.4,137.7,0,150.1,146.8,142.4,10,5,8.203,4.607,1.83,-1.62,-4.935,-8.18,149.8,2,81.7,-7.831,-8.214,10,-7.786,-8.083,-4.416,-4.345,-4.692,-4.912,5.12,7.806,30,-1.626,1.353,4.309,7.878,-7.942,-8.326,-1.88,1.115,145.0,147.6,142.4,157.7,145.3,145.9,152.6,149.7,147.3,148.8,0,norm,1.514,2.039,-1.987,-1.464,-4.889,-4.353,-1.795,-1.863,-1.528,-1.713,1.941,-1.315,149.8,143.3,-5.111,-8.454,1.144,-1.829,8.295,4.563,-4.985,-8.086,19,4.485,4.453,4.546,4.587,1.641,2.024,1.426,1.216,19,5.243,5.235,10,71.9573881681,norm,0,73,73,73,390.979,390.989,390.997738262,390.998,391.0,391.002,up,0,1.1302698299,-10,001,011,1920_1080,Intel(R) Core(TM) i5-3570 CPU @ 3.40GHz,orientation_search,LEPPC096,Intel(R) HD Graphics 2500,2018_Oct_31_1250,testMonitor,
190.4,193.2,,192.8,36,60,194.6,192.3,199.5,201.0,7.517,7.615,7.501,7.577,7.549,8.387,8.032,4.865,-4.563,-8.35,2.064,-1.382,7.857,4.302,-4.464,-7.862,193.8,184.7,-8.286,203.2,197.8,191.6,198.0,197.6,36,194.9,3,5,probe,5,0,113,norm,36,-5.166,down,norm,194.659976654,196.0,186.2,188.0,194.2,2,189.1,194.7,187.1,10,5,7.733,5.274,1.926,-2.083,-4.57,-8.446,192.9,2,81.7,-8.456,-8.155,10,-8.153,-8.425,-5.002,-5.096,-5.146,-5.189,4.908,7.928,20,-1.312,1.404,4.946,7.678,-8.463,-8.374,-1.708,2.069,191.3,198.0,197.4,204.7,191.7,200.4,193.3,201.1,193.9,192.0,1,norm,1.543,1.533,-1.864,-1.831,-4.71,-4.666,-1.718,-1.319,-1.519,-1.46,1.303,-1.202,188.3,186.6,-5.235,-7.706,1.774,-1.903,8.086,5.061,-4.995,-8.348,19,5.239,4.771,4.933,4.614,1.662,1.688,1.87,1.491,19,4.472,4.362,10,71.9573881681,norm,0,74,74,74,393.202,393.211,393.228510395,393.229,393.231,393.233,down,1,1.83937374036,8.16062625964,001,011,1920_1080,Intel(R) Core(TM) i5-3570 CPU @ 3.40GHz,orientation_search,LEPPC096,Intel(R) HD Graphics 2500,2018_Oct_31_1250,testMonitor,
146.9,134.5,133.8,146.0,36,30,135.7,132.4,143.2,151.4,7.604,7.643,7.943,8.439,8.088,8.418,7.996,4.747,-4.921,-7.571,2.03,-2.024,7.91,4.516,-4.751,-8.301,136.4,150.3,-7.566,146.5,151.9,150.7,134.3,124.4,36,161.4,2,5,prime,10,0,95,norm,36,-5.223,down,norm,141.392955178,137.8,137.3,134.3,,2,121.4,139.8,142.1,10,6,7.524,4.893,1.614,-1.602,-5.215,-8.445,145.2,6,236.4,-8.158,-8.337,30,-8.344,-7.888,-4.971,-4.795,-5.274,-5.153,4.944,8.074,14,-1.96,1.801,4.651,7.789,-7.901,-8.297,-1.668,1.114,136.6,127.3,144.9,140.3,140.4,139.5,127.7,133.1,149.0,138.7,0,norm,1.973,1.51,-2.098,-1.822,-5.3,-5.063,-1.394,-1.475,-2.057,-1.214,1.891,-1.92,152.0,150.8,-5.025,-7.961,1.502,-1.46,7.954,4.794,-4.342,-7.866,20,4.773,4.908,4.381,4.99,1.761,1.887,1.753,1.908,20,4.373,4.954,60,71.9573881681,norm,0,75,75,75,395.106,395.12,395.137634288,395.138,395.14,395.142,down,1,0.858028777469,9.14197122253,001,011,1920_1080,Intel(R) Core(TM) i5-3570 CPU @ 3.40GHz,orientation_search,LEPPC096,Intel(R) HD Graphics 2500,2018_Oct_31_1250,testMonitor,
134.6,136.9,156.4,153.7,36,30,126.5,154.0,142.0,140.5,8.1,8.306,8.254,8.345,8.241,8.117,7.86,5.141,-4.908,-8.326,1.222,-1.538,8.048,4.974,-4.717,-8.03,140.3,127.7,-8.027,137.0,138.7,135.8,147.8,153.3,36,145.6,2,5,prime,10,0,84,norm,36,-4.351,down,norm,141.392955178,140.2,141.4,130.9,,2,121.4,137.2,154.4,10,6,7.713,4.794,1.823,-1.573,-5.058,-7.56,161.4,6,225.4,-7.778,-7.684,30,-7.717,-8.368,-4.697,-4.446,-5.201,-5.136,4.477,7.818,14,-1.636,1.366,4.604,8.035,-8.309,-8.108,-1.766,1.723,132.7,125.6,134.7,158.6,142.0,139.6,133.2,136.9,142.7,144.5,1,norm,1.687,1.874,-1.366,-1.2,-4.503,-4.845,-1.735,-1.836,-1.778,-1.6,1.663,-1.114,126.8,138.8,-4.908,-7.797,1.4,-1.216,8.485,4.699,-4.81,-8.172,20,4.475,4.886,4.852,4.542,1.669,1.897,2.024,1.303,20,4.326,4.641,60,71.9573881681,norm,0,76,76,76,396.033,396.043,396.051961717,396.052,396.054,396.056,down,1,3.65034913109,6.34965086891,001,011,1920_1080,Intel(R) Core(TM) i5-3570 CPU @ 3.40GHz,orientation_search,LEPPC096,Intel(R) HD Graphics 2500,2018_Oct_31_1250,testMonitor,
145.6,131.0,148.3,156.3,36,30,140.6,130.9,148.6,154.4,7.741,7.763,8.046,7.629,7.925,7.561,8.105,5.249,-4.903,-7.567,1.409,-1.394,7.966,5.06,-4.917,-8.25,143.9,132.8,-8.341,155.4,134.7,154.5,139.1,144.9,36,149.1,1,5,prime,10,0,97,norm,36,-4.611,up,norm,141.392955178,161.4,135.1,131.5,143.0,4,157.0,139.4,151.8,10,6,7.642,5.063,1.891,-1.362,-4.487,-8.395,,6,238.4,-8.242,-8.186,30,-7.948,-8.11,-4.466,-5.064,-4.428,-4.469,4.436,7.973,10,-1.889,1.263,5.041,7.815,-8.192,-8.351,-1.104,1.686,141.9,133.9,136.1,148.5,146.9,121.4,147.8,145.6,124.1,147.4,2,norm,1.805,2.041,-1.47,-1.782,-5.261,-4.843,-1.263,-1.363,-1.118,-2.088,1.333,-1.217,143.2,143.5,-5.227,-8.4,1.299,-1.682,8.268,4.87,-5.177,-7.534,20,4.548,5.076,4.661,4.403,1.922,1.341,1.741,2.087,20,4.989,5.272,60,71.9573881681,norm,0,77,77,77,399.739,399.749,399.764559806,399.765,399.766,399.769,down,0,1.50287343051,-10,001,011,1920_1080,Intel(R) Core(TM) i5-3570 CPU @ 3.40GHz,orientation_search,LEPPC096,Intel(R) HD Graphics 2500,2018_Oct_31_1250,testMonitor,
132.5,161.4,128.4,145.4,36,30,121.4,,146.9,131.7,8.015,8.325,7.966,7.631,8.168,8.472,8.404,4.42,-4.996,-7.507,1.705,-1.416,7.696,5.125,-4.372,-7.835,145.0,158.6,-7.928,134.6,128.0,127.8,139.9,146.5,36,152.8,4,5,prime,10,0,68,norm,36,-4.699,down,norm,141.392955178,125.8,136.1,130.9,147.0,1,132.5,131.4,155.7,10,6,7.829,4.726,1.414,-1.567,-5.124,-7.819,159.3,6,209.4,-8.083,-7.813,30,-7.661,-7.776,-4.737,-4.376,-5.001,-4.614,4.934,7.822,25,-1.605,1.507,4.824,7.622,-8.082,-8.288,-1.175,1.821,130.9,142.6,147.2,151.9,148.4,141.2,131.5,142.7,152.1,151.7,3,norm,2.095,1.84,-1.387,-2.044,-4.844,-4.797,-1.372,-1.782,-1.443,-1.651,2.096,-1.643,142.1,131.1,-4.974,-7.74,1.365,-1.375,7.734,5.268,-4.465,-8.049,20,4.475,5.282,4.646,4.434,1.987,1.609,1.279,1.479,20,4.771,4.351,60,71.9573881681,norm,0,78,78,78,402.321,402.331,402.338484349,402.339,402.34,402.343,down,1,1.18195837593,8.81804162407,001,011,1920_1080,Intel(R) Core(TM) i5-3570 CPU @ 3.40GHz,orientation_search,LEPPC096,Intel(R) HD Graphics 2500,2018_Oct_31_1250,testMonitor,
125.2,155.6,152.7,123.5,36,30,147.0,151.7,145.7,153.6,7.97,7.686,8.422,7.88,7.744,8.141,7.623,4.588,-5.287,-8.286,1.129,-1.305,8.431,5.151,-4.677,-7.609,141.1,130.3,-8.307,135.2,146.6,158.2,133.5,153.5,36,157.6,2,5,prime,10,0,113,norm,36,-4.589,up,norm,141.392955178,,138.4,145.2,144.0,5,132.0,143.2,142.4,10,6,8.268,5.065,2.037,-1.879,-4.511,-7.68,132.3,6,254.4,-8.277,-7.609,30,-8.373,-8.069,-4.827,-5.176,-4.724,-4.893,4.732,7.784,17,-1.819,1.447,5.045,8.486,-7.931,-8.376,-1.607,1.419,139.6,145.9,150.0,132.0,146.6,121.4,137.1,161.4,128.9,132.6,4,norm,1.523,1.222,-1.788,-1.623,-4.571,-4.64,-1.33,-1.869,-2.041,-1.546,2.021,-1.315,138.0,136.7,-4.786,-7.89,1.711,-2.009,8.29,4.372,-5.232,-8.142,20,4.402,5.209,4.986,4.703,1.165,1.744,1.206,1.503,20,5.271,4.753,60,71.9573881681,norm,0,79,79,79,403.558,403.572,403.590679756,403.591,403.593,403.597,up,1,0.9205050259,9.0794949741,001,011,1920_1080,Intel(R) Core(TM) i5-3570 CPU @ 3.40GHz,orientation_search,LEPPC096,Intel(R) HD Graphics 2500,2018_Oct_31_1250,testMonitor,
152.0,,144.2,141.9,36,30,141.4,143.9,161.4,148.2,8.072,7.742,7.563,8.197,8.163,7.541,7.769,4.399,-4.338,-7.972,1.219,-1.701,7.768,4.632,-4.598,-8.149,138.9,145.5,-8.273,141.8,135.5,147.4,134.2,141.8,36,142.9,3,5,prime,10,0,75,norm,36,-4.855,up,norm,141.392955178,155.7,144.0,139.0,155.4,5,124.5,139.5,158.6,10,6,7.656,4.866,1.555,-1.543,-4.509,-8.076,131.4,6,216.4,-7.661,-7.509,30,-7.884,-8.283,-4.549,-4.361,-4.806,-5.278,4.471,7.773,23,-1.763,1.11,5.175,8.459,-8.154,-7.6,-1.697,1.996,141.8,134.2,146.3,136.8,140.8,144.5,133.8,131.4,142.1,128.2,5,norm,1.599,1.47,-1.453,-1.889,-5.249,-5.293,-2.045,-1.765,-1.96,-1.442,1.557,-1.327,153.4,121.4,-4.446,-8.178,2.033,-1.593,7.669,5.214,-5.27,-7.52,20,5.037,4.473,4.502,5.159,1.375,2.078,1.153,1.287,20,4.517,5.074,60,71.9573881681,norm,0,80,80,80,404.538,404.548,404.554592463,404.555,404.557,404.559,up,1,0.877754163297,9.1222458367,001,011,1920_1080,Intel(R) Core(TM) i5-3570 CPU @ 3.40GHz,orientation_search,LEPPC096,Intel(R) HD Graphics 2500,2018_Oct_31_1250,testMonitor,
254.7,,266.3,264.8,36,0,252.2,268.0,256.9,262.4,8.393,8.31,8.459,7.557,8.148,7.522,7.901,4.979,-4.727,-7.854,1.866,-1.87,7.57,4.544,-4.892,-7.692,266.2,255.7,-8.324,263.5,264.1,267.0,255.4,266.3,36,262.5,3,5,probe,5,0,88,norm,36,-4.998,up,norm,260.812507639,262.3,260.0,265.4,259.1,5,270.8,255.5,268.0,10,6,8.336,4.485,1.579,-1.766,-4.33,-8.299,261.1,1,172.8,-7.869,-8.326,30,-8.402,-7.851,-4.679,-5.146,-4.954,-5.286,4.777,8.043,23,-2.012,1.54,4.531,8.071,-7.839,-8.06,-1.568,1.656,263.5,267.1,255.9,264.7,262.9,258.5,261.3,268.2,250.8,265.5,0,norm,1.944,1.386,-1.781,-1.787,-4.447,-5.121,-1.51,-1.625,-1.492,-1.58,1.62,-1.686,269.7,262.1,-4.817,-7.543,2.037,-2.052,8.46,4.747,-4.318,-8.141,21,4.563,4.663,4.985,5.071,1.384,1.897,1.507,1.389,21,5.048,5.071,30,141.392955178,norm,0,81,81,81,405.47,405.479,405.489433702,405.49,405.491,405.494,up,1,2.00953624561,7.99046375439,001,011,1920_1080,Intel(R) Core(TM) i5-3570 CPU @ 3.40GHz,orientation_search,LEPPC096,Intel(R) HD Graphics 2500,2018_Oct_31_1250,testMonitor,
157.0,166.6,157.8,152.4,36,-60,143.7,165.9,150.0,162.8,7.509,7.81,8.139,7.672,8.495,7.914,8.158,5.256,-4.496,-7.871,2.078,-1.234,7.779,5.02,-5.001,-8.345,152.5,162.9,-7.561,179.6,155.7,170.7,145.3,156.3,36,160.0,3,5,prime,10,0,73,norm,36,-4.74,down,norm,159.645700569,160.0,166.7,142.8,165.9,1,165.7,147.6,165.5,10,5,7.972,4.818,1.996,-1.601,-4.41,-7.889,161.6,5,232.6,-7.888,-8.383,-60,-8.493,-8.178,-4.889,-4.979,-4.714,-4.52,5.006,7.79,19,-1.321,1.391,4.661,7.774,-7.644,-8.054,-2.027,1.872,140.1,158.4,167.2,139.6,152.1,164.1,150.2,145.4,155.5,169.5,0,norm,1.369,1.628,-1.538,-1.744,-4.4,-4.753,-1.473,-1.901,-2.043,-1.633,1.245,-1.277,,167.9,-4.392,-7.731,2.091,-1.624,7.568,4.86,-5.192,-8.068,22,5.05,4.489,4.594,4.423,1.998,1.617,1.728,1.241,22,4.525,4.518,0,141.392955178,norm,0,82,82,82,407.534,407.556,407.566320418,407.567,407.568,407.571,down,1,1.09526103559,8.90473896441,001,011,1920_1080,Intel(R) Core(TM) i5-3570 CPU @ 3.40GHz,orientation_search,LEPPC096,Intel(R) HD Graphics 2500,2018_Oct_31_1250,testMonitor,
169.5,,152.0,167.3,36,-60,164.2,139.6,169.2,150.1,8.307,7.657,8.111,7.804,7.892,8.066,8.166,4.344,-4.499,-7.538,1.973,-1.609,7.885,5.282,-4.718,-7.665,154.1,160.2,-8.283,166.4,143.8,163.8,152.0,146.6,36,174.1,3,5,prime,10,0,98,norm,36,-4.82,up,norm,159.645700569,161.9,168.1,146.2,149.9,5,149.5,163.3,165.2,10,5,7.93,4.802,1.391,-1.474,-5.233,-8.255,166.4,5,257.6,-8.417,-8.19,-60,-8.485,-7.695,-5.074,-4.934,-4.347,-4.406,4.681,8.169,23,-1.753,1.542,4.441,7.634,-7.752,-7.921,-1.912,1.735,160.9,151.8,145.6,167.9,157.1,155.8,163.5,154.5,168.1,179.6,1,norm,1.805,2.06,-1.826,-1.709,-4.508,-5.164,-1.232,-1.493,-1.735,-1.211,1.37,-1.966,145.7,150.9,-5.041,-7.742,1.813,-1.789,7.576,4.384,-4.514,-7.905,22,4.826,5.008,4.43,4.999,1.938,1.978,1.886,1.599,22,4.737,4.992,0,141.392955178,norm,0,83,83,83,408.704,408.727,408.736279781,408.736,408.738,408.741,up,1,0.688517053891,9.31148294611,001,011,1920_1080,Intel(R) Core(TM) i5-3570 CPU @ 3.40GHz,orientation_search,LEPPC096,Intel(R) HD Graphics 2500,2018_Oct_31_1250,testMonitor,
173.1,164.8,177.3,174.0,36,-60,163.7,154.5,176.2,156.8,7.568,8.215,7.6,8.115,8.482,8.475,8.153,4.501,-5.08,-8.342,1.518,-1.334,8.416,4.943,-4.337,-8.063,161.4,165.8,-7.939,171.3,165.6,,167.4,151.6,36,147.7,5,5,prime,10,0,74,norm,36,-4.923,up,norm,159.645700569,170.3,165.1,171.5,179.6,3,163.8,164.7,162.9,10,5,7.741,5.289,1.367,-1.866,-4.748,-7.93,158.3,5,233.6,-7.776,-8.049,-60,-8.029,-8.248,-4.391,-4.888,-5.08,-5.046,5.227,7.627,33,-1.298,1.216,4.578,8.225,-8.103,-8.362,-1.209,1.436,157.7,158.9,169.2,158.8,172.0,139.6,156.3,156.7,159.6,142.2,2,norm,1.417,1.113,-1.571,-2.049,-4.508,-4.765,-1.29,-1.225,-1.406,-1.809,1.657,-2.044,168.5,163.2,-4.379,-7.709,1.423,-1.339,8.463,5.035,-4.516,-8.03,22,4.749,5.259,4.357,5.127,1.499,1.423,1.762,1.234,22,4.475,5.177,0,141.392955178,norm,0,84,84,84,409.462,409.472,409.482893588,409.483,409.485,409.487,up,1,1.01004606484,8.98995393516,001,011,1920_1080,Intel(R) Core(TM) i5-3570 CPU @ 3.40GHz,orientation_search,LEPPC096,Intel(R) HD Graphics 2500,2018_Oct_31_1250,testMonitor,
155.4,147.1,158.0,177.3,36,-60,145.2,148.7,149.3,161.5,7.64,8.472,7.644,8.436,7.913,8.436,8.324,4.677,-4.925,-7.501,1.466,-1.939,8.059,4.425,-4.301,-8.26,148.3,148.6,-7.821,174.9,154.4,164.4,156.9,,36,171.6,4,5,prime,10,0,60,norm,36,-5.025,down,norm,159.645700569,164.3,158.6,155.4,170.3,2,173.5,162.0,158.7,10,5,8.015,5.1,1.152,-1.584,-4.344,-7.838,162.5,5,219.6,-8.422,-8.038,-60,-7.512,-8.252,-4.361,-4.762,-4.909,-4.694,4.747,7.951,26,-1.705,1.447,4.694,7.866,-7.673,-7.699,-1.907,1.375,158.1,139.6,152.5,154.2,178.7,166.3,169.2,150.6,171.7,179.6,3,norm,1.835,1.598,-1.462,-1.72,-4.962,-5.015,-1.758,-1.546,-1.742,-1.922,1.457,-1.543,157.3,145.9,-4.807,-8.159,1.577,-1.454,7.691,4.767,-5.194,-8.491,22,4.902,4.75,4.494,4.888,1.48,1.386,1.101,1.428,22,4.946,4.635,0,141.392955178,norm,0,85,85,85,410.516,410.525,410.531734209,410.532,410.534,410.536,down,1,0.857729345455,9.14227065455,001,011,1920_1080,Intel(R) Core(TM) i5-3570 CPU @ 3.40GHz,orientation_search,LEPPC096,Intel(R) HD Graphics 2500,2018_Oct_31_1250,testMonitor,
147.9,158.6,142.0,159.3,36,-60,164.6,154.0,159.1,154.4,7.678,7.895,7.672,7.52,7.761,7.811,8.179,4.714,-4.678,-7.744,1.379,-1.153,7.524,4.911,-5.176,-7.979,179.6,154.0,-7.642,156.7,155.5,174.5,177.5,157.2,36,148.9,2,5,prime,10,0,66,norm,36,-4.658,down,norm,159.645700569,139.6,164.1,156.4,,2,162.0,158.6,177.6,10,5,7.651,5.119,1.992,-1.654,-4.897,-8.43,158.2,5,225.6,-7.956,-8.097,-60,-7.727,-8.185,-5.292,-4.469,-4.935,-4.451,4.75,7.845,14,-1.679,1.145,5.186,7.654,-7.832,-8.352,-1.766,1.215,166.0,175.8,144.7,161.6,146.2,161.7,164.3,160.6,172.7,152.4,4,norm,2.064,1.765,-1.706,-1.694,-4.994,-4.882,-1.952,-1.475,-1.322,-1.174,1.412,-1.456,169.5,172.4,-5.098,-8.372,1.207,-1.755,8.195,5.211,-5.171,-8.265,22,4.354,4.339,4.997,4.734,1.788,1.378,1.238,1.236,22,4.431,5.094,0,141.392955178,norm,0,86,86,86,411.434,411.456,411.466016428,411.466,411.468,411.47,down,1,1.27932207626,8.72067792374,001,011,1920_1080,Intel(R) Core(TM) i5-3570 CPU @ 3.40GHz,orientation_search,LEPPC096,Intel(R) HD Graphics 2500,2018_Oct_31_1250,testMonitor,
158.8,147.7,162.0,146.3,36,-40,153.3,155.0,161.7,150.3,7.595,8.209,7.651,8.357,7.77,7.778,7.998,4.442,-4.786,-7.83,1.863,-1.337,8.183,4.649,-4.859,-8.437,161.5,153.5,-8.485,146.7,157.2,154.7,152.4,153.9,36,147.8,2,5,probe,5,0,61,norm,36,-5.131,up,norm,154.904393825,,160.7,151.3,154.1,5,162.7,164.9,151.7,10,5,7.776,4.546,1.732,-1.299,-5.166,-7.908,152.6,1,93.9,-7.617,-8.463,-60,-7.99,-7.62,-4.38,-4.854,-5.168,-4.803,4.506,8.216,17,-1.169,1.507,5.1,8.37,-7.905,-8.401,-1.163,1.293,154.3,153.1,162.8,151.7,151.3,153.7,156.8,153.2,144.9,163.3,0,norm,2.011,1.313,-1.549,-1.924,-4.585,-4.306,-1.177,-1.926,-2.028,-1.553,1.603,-1.562,153.3,154.6,-5.238,-7.548,1.886,-1.268,7.844,4.824,-4.63,-8.216,23,4.762,4.552,4.464,4.649,1.564,1.178,1.871,2.07,23,4.988,5.243,-60,159.645700569,norm,0,87,87,87,412.791,412.812,412.82327776,412.823,412.825,412.828,up,1,0.742221634628,9.25777836537,001,011,1920_1080,Intel(R) Core(TM) i5-3570 CPU @ 3.40GHz,orientation_search,LEPPC096,Intel(R) HD Graphics 2500,2018_Oct_31_1250,testMonitor,
78.3,,69.2,88.0,36,0,76.5,93.5,94.5,69.0,8.405,8.406,8.438,8.009,8.458,8.449,8.068,5.018,-5.113,-7.712,1.26,-2.011,8.349,4.482,-4.934,-7.876,84.7,54.9,-7.831,83.2,79.9,73.8,85.4,72.9,36,80.7,3,5,prime,10,0,115,norm,36,-4.86,up,norm,74.5130159355,75.9,81.9,89.0,59.4,5,70.7,71.2,79.0,10,6,8.288,4.42,1.86,-1.428,-5.137,-8.124,64.6,6,189.5,-7.879,-7.617,0,-8.313,-7.61,-4.531,-5.156,-5.022,-5.247,4.317,8.211,23,-1.124,1.11,4.489,8.073,-7.77,-7.533,-1.58,1.622,80.2,85.4,76.6,80.2,85.3,82.8,68.9,69.3,54.5,85.9,0,norm,2.038,1.831,-1.517,-1.564,-5.021,-4.452,-1.218,-1.461,-1.493,-1.4,1.922,-1.41,68.7,76.3,-4.925,-8.003,2.068,-1.408,8.063,5.008,-5.259,-8.105,24,5.24,4.777,4.829,5.271,1.314,1.249,1.149,1.56,24,4.513,4.93,-40,159.645700569,norm,0,88,88,88,413.587,413.598,413.616756602,413.617,413.619,413.621,up,1,4.34929167123,5.65070832877,001,011,1920_1080,Intel(R) Core(TM) i5-3570 CPU @ 3.40GHz,orientation_search,LEPPC096,Intel(R) HD Graphics 2500,2018_Oct_31_1250,testMonitor,
94.5,67.0,69.8,78.1,36,0,90.1,61.1,76.7,85.3,8.41,8.284,7.87,7.724,7.98,8.203,8.15,4.679,-5.27,-8.271,1.481,-1.751,7.53,4.5,-4.852,-7.722,71.4,,-7.692,69.6,73.1,66.4,66.5,70.4,36,77.1,5,5,prime,10,0,88,norm,36,-4.689,up,norm,74.5130159355,76.0,70.4,87.9,75.5,4,82.4,60.7,74.8,10,6,8.123,5.289,2.069,-1.151,-4.994,-8.093,80.5,6,162.5,-7.54,-7.68,0,-7.857,-7.972,-4.368,-4.892,-4.762,-4.63,4.781,8.024,34,-1.178,1.486,4.797,8.044,-8.407,-8.454,-1.972,1.864,79.8,83.6,75.7,83.0,83.4,69.9,79.2,85.4,57.7,60.9,1,norm,1.495,1.891,-1.923,-2.086,-4.629,-4.804,-1.132,-1.762,-1.932,-1.825,2.087,-1.49,54.5,63.9,-4.754,-7.544,1.635,-1.322,8.378,4.46,-4.359,-8.325,24,4.822,4.595,5.063,5.161,1.911,1.218,1.692,1.801,24,4.703,4.831,-40,159.645700569,norm,0,89,89,89,417.987,417.997,418.01574614,418.016,418.018,418.02,up,1,1.6525194095,8.3474805905,001,011,1920_1080,Intel(R) Core(TM) i5-3570 CPU @ 3.40GHz,orientation_search,LEPPC096,Intel(R) HD Graphics 2500,2018_Oct_31_1250,testMonitor,
67.6,67.4,73.0,71.0,36,0,94.5,88.1,88.1,72.6,7.664,8.106,8.106,7.628,7.572,8.469,8.119,4.375,-4.366,-8.42,1.718,-1.791,8.253,5.235,-4.315,-8.371,78.2,59.9,-8.353,71.7,72.2,67.4,67.5,68.3,36,75.4,3,5,prime,10,0,85,norm,36,-5.245,down,norm,74.5130159355,70.7,66.9,54.5,85.4,0,77.3,86.3,88.3,10,6,8.278,5.003,1.19,-1.166,-4.786,-8.04,79.1,6,159.5,-8.459,-8.036,0,-7.556,-7.986,-4.465,-5.191,-4.605,-4.96,4.927,7.794,18,-1.8,1.524,5.24,7.982,-7.904,-7.976,-1.462,1.127,86.4,71.3,81.4,77.1,71.1,66.4,65.0,70.2,78.7,70.0,2,norm,2.062,1.342,-1.964,-1.873,-5.112,-4.798,-1.663,-1.967,-2.032,-2.071,1.937,-1.192,79.3,,-5.289,-8.166,1.637,-1.168,8.017,4.879,-4.559,-7.549,24,4.924,4.589,4.935,5.294,2.024,1.162,1.379,1.817,24,4.548,5.178,-40,159.645700569,norm,0,90,90,90,419.706,419.719,419.737785996,419.738,419.74,419.742,down,1,1.3667148716,8.6332851284,001,011,1920_1080,Intel(R) Core(TM) i5-3570 CPU @ 3.40GHz,orientation_search,LEPPC096,Intel(R) HD Graphics 2500,2018_Oct_31_1250,testMonitor,
73.3,80.6,70.9,72.6,36,0,67.6,71.4,64.8,80.6,7.741,7.874,7.861,8.325,8.242,8.232,8.307,4.918,-4.973,-8.262,2.073,-1.993,8.484,4.906,-4.945,-7.657,94.5,83.2,-7.515,75.0,60.4,76.8,79.2,54.5,36,74.7,3,5,prime,10,0,107,norm,36,-5.19,down,norm,74.5130159355,65.0,74.8,91.8,88.0,1,66.7,79.2,72.9,10,6,7.903,5.115,1.627,-1.672,-4.641,-8.342,76.0,6,181.5,-7.905,-8.11,0,-8.301,-8.318,-4.933,-5.042,-4.309,-4.507,4.673,7.929,19,-1.551,1.782,5.266,7.893,-8.264,-8.072,-1.825,2.071,80.3,83.4,86.9,86.9,73.7,67.1,72.5,93.7,90.8,74.1,3,norm,1.398,1.426,-2.029,-1.713,-4.943,-4.911,-1.919,-1.378,-1.363,-2.036,1.143,-1.13,,70.9,-4.853,-7.821,1.898,-1.367,7.505,4.921,-5.299,-8.163,24,4.858,4.817,5.158,4.69,1.421,1.818,1.991,1.499,24,4.913,5.178,-40,159.645700569,norm,0,91,91,91,421.152,421.163,421.167839492,421.168,421.17,421.173,down,1,1.18190404351,8.81809595649,001,011,1920_1080,Intel(R) Core(TM) i5-3570 CPU @ 3.40GHz,orientation_search,LEPPC096,Intel(R) HD Graphics 2500,2018_Oct_31_1250,testMonitor,
84.8,70.1,64.0,75.4,36,0,94.5,71.9,80.5,77.8,7.56,7.951,8.037,8.077,7.836,8.054,8.131,4.629,-4.88,-8.053,1.699,-1.297,7.858,4.613,-5.001,-7.604,79.6,54.5,-7.605,74.0,80.8,58.6,90.0,78.0,36,79.0,0,5,prime,10,0,97,norm,36,-4.671,down,norm,74.5130159355,79.6,65.0,76.1,78.6,0,73.1,80.7,79.8,10,6,7.787,4.955,1.182,-1.649,-5.074,-8.329,75.4,6,171.5,-7.848,-7.796,0,-7.77,-7.66,-4.483,-4.63,-4.782,-4.41,4.958,8.279,0,-1.473,1.899,5.201,7.861,-7.73,-7.781,-1.414,1.171,73.7,65.4,62.5,77.7,80.8,,84.5,58.3,71.8,73.4,4,norm,1.502,1.418,-1.633,-1.542,-4.945,-5.109,-1.918,-1.453,-1.846,-1.942,1.191,-1.578,86.5,90.7,-4.987,-7.546,1.482,-1.864,7.836,4.544,-5.08,-7.705,24,5.036,5.056,4.303,4.517,1.295,1.563,2.048,1.756,24,4.779,4.919,-40,159.645700569,norm,0,92,92,92,422.387,422.398,422.414748959,422.415,422.417,422.42,down,1,1.07953330864,8.92046669136,001,011,1920_1080,Intel(R) Core(TM) i5-3570 CPU @ 3.40GHz,orientation_search,LEPPC096,Intel(R) HD Graphics 2500,2018_Oct_31_1250,testMonitor,
72.4,67.2,74.1,55.7,36,0,75.5,70.8,83.2,66.7,7.949,8.286,7.69,7.742,7.671,8.311,8.314,4.314,-5.139,-8.4,1.817,-1.213,7.658,5.014,-5.145,-7.861,54.5,73.2,-7.95,74.1,59.7,66.8,75.1,88.8,36,91.3,3,5,prime,10,0,88,norm,36,-4.46,down,norm,74.5130159355,68.0,79.5,72.0,63.7,1,72.3,75.7,79.7,10,6,7.616,4.664,1.519,-1.443,-4.464,-7.83,75.3,6,162.5,-8.394,-8.29,0,-7.851,-8.298,-5.243,-4.771,-4.326,-4.785,4.396,8.299,19,-1.659,1.483,4.988,8.33,-8.373,-8.379,-1.146,1.472,78.2,67.3,74.5,74.7,68.5,94.5,84.3,80.0,80.3,83.9,5,norm,1.373,1.787,-1.857,-1.977,-4.418,-4.812,-1.456,-1.657,-1.544,-1.968,1.816,-2.068,,62.3,-4.843,-8.222,1.951,-1.775,8.484,4.686,-4.407,-7.678,24,5.104,4.395,4.706,5.168,2.084,1.576,1.415,2.041,24,5.211,4.913,-40,159.645700569,norm,0,93,93,93,423.539,423.548,423.55467698,423.555,423.557,423.559,down,1,0.909088576638,9.09091142336,001,011,1920_1080,Intel(R) Core(TM) i5-3570 CPU @ 3.40GHz,orientation_search,LEPPC096,Intel(R) HD Graphics 2500,2018_Oct_31_1250,testMonitor,
149.1,154.9,148.2,157.2,36,-40,159.6,146.1,156.4,163.1,7.694,7.585,7.974,7.839,7.897,7.596,8.148,4.537,-4.396,-8.183,1.445,-2.022,7.653,5.111,-5.255,-8.222,149.4,152.6,-7.975,156.9,151.4,151.3,157.5,150.1,36,156.4,1,5,probe,5,0,80,norm,36,-4.842,up,norm,153.400843444,144.0,161.9,148.9,153.9,3,143.7,149.6,163.4,10,6,8.036,5.256,1.119,-2.073,-4.708,-7.803,145.2,1,73.4,-8.255,-8.083,0,-7.642,-7.559,-4.838,-4.437,-4.357,-4.413,4.766,8.252,9,-1.845,1.908,4.839,8.195,-8.484,-7.777,-1.557,1.657,,157.1,152.2,158.4,157.8,155.0,148.4,143.4,159.9,154.6,0,norm,1.349,1.75,-1.912,-1.71,-5.054,-4.566,-1.18,-1.883,-1.474,-1.848,1.925,-1.412,158.5,152.9,-4.304,-8.183,1.464,-1.608,7.914,4.469,-5.09,-8.086,25,5.117,4.398,5.232,5.293,1.676,1.967,2.088,1.703,25,4.592,4.478,0,74.5130159355,norm,0,94,94,94,424.506,424.515,424.521596081,424.522,424.523,424.526,up,1,0.924895387449,9.07510461255,001,011,1920_1080,Intel(R) Core(TM) i5-3570 CPU @ 3.40GHz,orientation_search,LEPPC096,Intel(R) HD Graphics 2500,2018_Oct_31_1250,testMonitor,
289.4,298.9,288.3,275.2,36,-40,286.1,284.4,285.7,286.6,8.367,7.537,7.519,8.443,7.797,8.031,7.941,5.076,-5.272,-8.072,1.788,-2.022,7.751,4.375,-4.504,-8.098,,283.6,-8.229,289.4,296.3,300.6,286.2,274.7,36,299.4,5,5,prime,10,0,87,norm,36,-5.121,up,norm,287.769842705,297.7,302.2,272.5,284.8,5,270.6,307.2,283.3,10,6,8.129,4.715,1.249,-2.022,-4.425,-8.421,296.3,6,374.8,-7.947,-8.234,-40,-7.54,-8.037,-5.101,-5.184,-4.932,-4.678,5.279,7.586,35,-1.742,1.125,4.98,7.648,-8.377,-7.578,-1.556,2.085,284.6,298.6,267.8,295.7,278.9,307.8,278.9,280.0,305.7,297.8,0,norm,2.096,1.519,-1.713,-1.869,-4.781,-4.522,-1.161,-1.493,-1.575,-1.213,1.106,-1.426,278.7,284.2,-4.593,-8.423,1.707,-2.081,7.718,4.42,-5.262,-8.449,26,5.173,4.553,5.15,4.605,2.019,1.928,1.858,1.973,26,4.919,4.334,-40,74.5130159355,norm,0,95,95,95,425.483,425.493,425.503325597,425.504,425.505,425.508,up,1,0.996471712881,9.00352828712,001,011,1920_1080,Intel(R) Core(TM) i5-3570 CPU @ 3.40GHz,orientation_search,LEPPC096,Intel(R) HD Graphics 2500,2018_Oct_31_1250,testMonitor,
