d_ori_22,d_ori_23,d_ori_20,d_ori_21,set_size,ctpd,d_ori_24,d_ori_25,d_ori_28,d_ori_29,stim_pos_x_30,stim_pos_x_31,stim_pos_x_32,stim_pos_x_33,stim_pos_x_34,stim_pos_x_35,stim_pos_y_11,stim_pos_y_10,stim_pos_y_13,stim_pos_y_12,stim_pos_y_15,stim_pos_y_14,stim_pos_y_17,stim_pos_y_16,stim_pos_y_19,stim_pos_y_18,d_ori_35,d_ori_34,stim_pos_x_3,d_ori_31,d_ori_30,d_ori_33,d_ori_32,d_ori_26,test_set_size,d_ori_27,targetCol,dsd_test,seq_type,dsd,blockRepN,targetDist,dtype_test,prime_set_size,stim_pos_y_25,correctResponse,dtype,distrMean,d_ori_17,d_ori_16,stim_pos_y_3,d_ori_14,targetRow,d_ori_11,d_ori_13,d_ori_12,dsd_prime,streak_length_prime,stim_pos_y_35,stim_pos_y_34,stim_pos_y_33,stim_pos_y_32,stim_pos_y_31,stim_pos_y_30,d_ori_10,nextProbe,targetOri,stim_pos_x_1,stim_pos_x_2,ctpd_prime,stim_pos_x_4,stim_pos_x_5,stim_pos_x_6,stim_pos_x_7,stim_pos_x_8,stim_pos_x_9,stim_pos_y_28,stim_pos_y_29,targetPos,stim_pos_y_20,stim_pos_y_21,stim_pos_y_22,stim_pos_y_23,stim_pos_y_24,stim_pos_x_0,stim_pos_y_26,stim_pos_y_27,d_ori_9,d_ori_8,d_ori_3,d_ori_2,d_ori_1,d_ori_0,d_ori_7,d_ori_6,d_ori_5,d_ori_4,trialN,dtype_prime,stim_pos_x_18,stim_pos_x_19,stim_pos_x_12,stim_pos_x_13,stim_pos_x_10,stim_pos_x_11,stim_pos_x_16,stim_pos_x_17,stim_pos_x_14,stim_pos_x_15,stim_pos_y_9,stim_pos_y_8,d_ori_19,d_ori_18,stim_pos_y_1,stim_pos_y_0,d_ori_15,stim_pos_y_2,stim_pos_y_5,stim_pos_y_4,stim_pos_y_7,stim_pos_y_6,totBlockN,stim_pos_x_27,stim_pos_x_26,stim_pos_x_25,stim_pos_x_24,stim_pos_x_23,stim_pos_x_22,stim_pos_x_21,stim_pos_x_20,blockN,stim_pos_x_29,stim_pos_x_28,prevDistrCTPD,prevDistrMean,prevDistrType,trials.thisRepN,trials.thisTrialN,trials.thisN,trials.thisIndex,timeStart,timeBeforeDraw,timeDraw,timeAfterSaving,timeAfterWritingToTemp,timeAfterPreparingNext,answer,correct,rt,trialScore,session,participant,resolution,cpu_info,expName,pc_name,graphic_card,date,monitorName,
288.9,302.6,315.5,317.5,36,0,311.6,314.0,328.9,312.7,8.48,8.426,7.854,7.655,7.568,8.182,7.64,4.936,-4.58,-7.859,1.397,-1.419,7.966,4.602,-5.296,-8.195,318.4,316.5,-7.587,319.1,322.5,307.5,296.9,321.5,36,312.8,3,5,prime,10,0,77,norm,36,-4.45,down,norm,308.9377384,326.6,313.4,1.844,308.7,1,305.7,308.4,310.2,10,6,8.359,4.54,1.449,-1.132,-4.996,-8.402,303.8,6,385.9,-7.922,-8.437,0,-8.171,-7.879,-5.156,-4.909,-4.759,-5.262,5.036,8.25,19,-1.636,1.475,4.372,7.83,-8.019,-7.772,-1.524,1.501,300.2,305.1,314.6,295.7,298.8,297.9,313.9,324.5,296.5,293.3,0,norm,1.983,1.621,-1.468,-1.545,-5.152,-4.483,-1.58,-1.114,-1.861,-1.624,1.656,-1.723,,313.7,-4.735,-7.908,311.3,-1.688,7.599,4.996,-4.87,-7.982,0,4.769,4.742,5.195,4.958,1.61,1.989,1.464,1.423,0,4.311,4.578,,,,0,0,0,0,865.751,865.771,865.79283799,865.793,865.793,865.798,down,1,2.53351976694,7.46648023306,001,312,1280_800,Intel(R) Core(TM)2 Duo CPU     P8600  @ 2.40GHz,orientation_search,GRVLAPTOP1,Quadro NVS 160M/PCIe/SSE2,2018_nov_08_1353,testMonitor,
312.6,312.5,298.3,,36,0,317.4,305.2,304.2,322.7,8.211,8.246,7.659,7.706,8.408,8.257,8.459,4.919,-5.057,-8.288,1.989,-1.555,8.217,5.035,-4.331,-8.247,316.9,305.4,-7.862,299.5,297.3,317.5,325.6,297.9,36,310.3,3,5,prime,10,0,110,norm,36,-4.576,up,norm,308.9377384,312.4,315.2,1.767,288.9,3,317.5,303.2,317.2,10,6,7.622,5.209,1.317,-1.163,-4.732,-8.335,294.1,6,418.9,-7.585,-8.264,0,-7.606,-7.676,-4.362,-4.794,-4.818,-4.741,4.592,8.291,21,-2.02,1.872,5.015,7.567,-7.659,-8.361,-1.403,1.939,321.7,316.5,305.5,304.9,308.6,309.6,300.5,306.7,309.6,311.4,1,norm,1.554,1.815,-1.537,-1.425,-4.69,-5.249,-1.239,-1.56,-1.212,-2.087,1.953,-1.617,299.9,328.9,-4.352,-8.179,305.9,-1.417,7.962,4.457,-4.835,-8.321,0,5.235,4.684,4.415,4.689,1.274,2.071,1.325,1.957,0,5.299,4.828,,,,0,1,1,1,868.349,868.358,868.364469428,868.365,868.367,868.372,up,1,3.08282066231,6.91717933769,001,312,1280_800,Intel(R) Core(TM)2 Duo CPU     P8600  @ 2.40GHz,orientation_search,GRVLAPTOP1,Quadro NVS 160M/PCIe/SSE2,2018_nov_08_1353,testMonitor,
296.7,297.5,316.8,309.3,36,0,318.7,315.9,315.9,302.6,7.862,7.967,7.9,7.516,8.298,8.033,8.115,5.229,-5.216,-8.187,1.192,-1.109,7.685,4.976,-4.452,-7.986,318.3,300.7,-7.563,318.0,320.0,323.1,312.7,328.9,36,317.6,2,5,prime,10,0,70,norm,36,-4.49,up,norm,308.9377384,320.4,,1.771,296.5,4,319.9,288.9,314.3,10,6,7.799,5.077,1.146,-1.151,-5.28,-7.951,322.3,6,378.9,-7.775,-8.347,0,-7.518,-7.741,-5.082,-4.531,-4.921,-4.998,5.029,8.195,16,-1.41,1.982,5.018,7.567,-7.946,-7.705,-1.285,1.834,308.5,309.0,301.4,308.7,308.7,296.4,308.3,317.0,308.1,316.3,2,norm,1.433,1.294,-1.563,-1.959,-4.766,-5.25,-1.108,-1.863,-1.987,-1.634,1.686,-1.486,312.5,302.4,-4.572,-7.998,311.0,-1.151,8.329,4.381,-5.037,-7.713,0,5.234,4.531,4.721,4.306,1.421,1.11,1.8,1.882,0,5.141,5.267,,,,0,2,2,2,871.471,871.479,871.487278216,871.488,871.491,871.496,up,1,1.99611192689,8.00388807311,001,312,1280_800,Intel(R) Core(TM)2 Duo CPU     P8600  @ 2.40GHz,orientation_search,GRVLAPTOP1,Quadro NVS 160M/PCIe/SSE2,2018_nov_08_1353,testMonitor,
301.8,307.2,328.9,316.4,36,0,311.6,321.1,304.9,304.1,8.005,7.599,8.473,8.225,8.476,7.965,8.237,4.678,-4.507,-8.439,1.418,-1.266,7.69,4.379,-4.44,-7.506,298.8,300.7,-8.209,306.2,313.5,318.2,304.2,299.9,36,318.5,0,5,prime,10,0,106,norm,36,-5.074,up,norm,308.9377384,298.6,299.4,1.918,293.8,3,311.2,288.9,298.2,10,6,8.161,4.786,1.889,-1.345,-4.74,-8.197,308.5,6,414.9,-7.517,-7.874,0,-8.473,-8.285,-5.061,-4.871,-4.973,-4.623,5.163,7.519,3,-1.128,1.852,4.51,7.53,-8.457,-8.461,-1.434,1.743,303.9,310.4,,306.9,319.4,306.6,304.5,294.3,310.9,310.0,3,norm,1.317,1.944,-1.122,-1.766,-5.033,-4.902,-1.332,-1.717,-2.096,-1.669,1.412,-2.026,303.6,306.1,-4.599,-7.903,305.9,-1.11,7.553,4.707,-4.977,-8.059,0,4.975,4.749,4.629,5.143,1.144,1.55,1.479,1.236,0,5.281,4.436,,,,0,3,3,3,873.509,873.515,873.524642214,873.525,873.529,873.534,up,1,1.09418504234,8.90581495766,001,312,1280_800,Intel(R) Core(TM)2 Duo CPU     P8600  @ 2.40GHz,orientation_search,GRVLAPTOP1,Quadro NVS 160M/PCIe/SSE2,2018_nov_08_1353,testMonitor,
321.1,288.9,319.0,301.4,36,0,313.3,305.3,315.2,301.4,8.195,7.62,7.989,8.049,8.168,7.938,8.176,4.727,-4.867,-7.643,1.491,-1.798,7.645,5.105,-5.159,-8.232,301.0,289.7,-8.21,301.2,310.7,289.9,311.9,295.8,36,323.3,1,5,prime,10,0,93,norm,36,-5.129,up,norm,308.9377384,311.4,319.9,1.602,307.9,3,311.6,301.3,328.9,10,6,7.945,4.592,1.15,-1.58,-5.051,-8.088,308.3,6,401.9,-7.735,-8.288,0,-7.67,-7.618,-5.103,-4.622,-4.556,-4.508,5.022,7.662,9,-1.61,1.665,4.914,7.589,-8.064,-8.024,-1.227,1.8,,306.0,311.9,305.2,315.5,314.0,308.2,319.6,317.7,311.2,4,norm,1.446,1.195,-1.605,-2.089,-4.675,-5.255,-1.816,-2.066,-1.378,-1.935,1.388,-1.411,303.6,321.9,-4.377,-7.752,307.0,-2.046,7.871,5.241,-4.349,-7.914,0,4.91,4.754,4.31,5.269,1.431,1.881,1.345,1.923,0,4.591,4.837,,,,0,4,4,4,874.644,874.652,874.660132366,874.66,874.664,874.669,up,1,0.92749192765,9.07250807235,001,312,1280_800,Intel(R) Core(TM)2 Duo CPU     P8600  @ 2.40GHz,orientation_search,GRVLAPTOP1,Quadro NVS 160M/PCIe/SSE2,2018_nov_08_1353,testMonitor,
308.5,315.1,304.7,305.0,36,0,327.2,306.7,288.9,301.1,7.738,7.997,8.077,8.214,7.946,8.256,7.721,4.851,-4.776,-7.554,1.705,-1.288,8.427,4.81,-5.206,-8.481,308.2,323.5,-7.808,306.8,322.6,318.2,317.0,319.6,36,293.3,3,5,prime,10,0,94,norm,36,-4.678,down,norm,308.9377384,295.3,325.1,1.984,302.5,1,301.2,297.4,304.9,10,6,8.436,4.394,1.906,-1.999,-4.342,-7.553,307.1,6,402.9,-7.649,-7.751,0,-8.33,-8.39,-5.225,-5.053,-4.959,-4.75,5.061,7.861,19,-1.608,1.505,4.778,7.674,-7.819,-8.198,-1.182,1.665,323.4,313.2,307.6,305.6,295.8,309.5,312.1,317.5,292.7,328.9,5,norm,1.28,1.131,-1.529,-1.566,-4.346,-4.467,-1.522,-1.204,-1.445,-1.578,1.275,-1.26,,308.3,-4.746,-7.694,310.6,-1.286,8.188,5.187,-4.92,-8.163,0,4.596,5.142,4.481,4.666,1.667,1.8,1.987,1.634,0,4.825,4.762,,,,0,5,5,5,875.613,875.62,875.628689446,875.629,875.633,875.638,down,1,1.91179335127,8.08820664873,001,312,1280_800,Intel(R) Core(TM)2 Duo CPU     P8600  @ 2.40GHz,orientation_search,GRVLAPTOP1,Quadro NVS 160M/PCIe/SSE2,2018_nov_08_1353,testMonitor,
424.5,429.9,426.0,428.4,36,20,424.1,415.8,420.1,,7.594,7.688,7.641,7.609,7.949,7.536,8.192,5.293,-4.551,-7.824,2.008,-1.727,7.716,5.113,-4.919,-8.031,427.2,426.1,-8.406,427.6,425.8,426.2,423.8,431.2,36,418.4,4,5,probe,5,0,115,norm,36,-4.48,up,norm,423.532508583,427.5,423.0,1.668,428.4,5,428.0,419.0,427.9,10,6,8.063,4.523,1.591,-1.475,-4.313,-8.25,421.5,1,308.5,-8.461,-8.221,0,-8.15,-7.634,-4.967,-4.716,-4.95,-4.59,4.783,8.473,29,-2.039,1.382,4.56,7.718,-8.439,-8.365,-1.692,1.56,420.5,428.2,426.4,417.5,433.5,419.0,413.5,426.2,425.3,422.0,0,norm,2.028,1.776,-2.027,-1.124,-4.317,-5.296,-1.426,-1.747,-1.538,-1.132,2.011,-1.643,424.7,419.5,-4.729,-7.823,417.8,-1.772,7.723,4.633,-4.986,-8.206,1,5.047,4.897,5.022,5.078,1.717,1.108,1.522,1.466,1,4.359,4.608,0,308.9377384,norm,0,6,6,6,877.567,877.573,877.582446184,877.583,877.587,877.592,up,1,1.46115113483,8.53884886517,001,312,1280_800,Intel(R) Core(TM)2 Duo CPU     P8600  @ 2.40GHz,orientation_search,GRVLAPTOP1,Quadro NVS 160M/PCIe/SSE2,2018_nov_08_1353,testMonitor,
189.9,204.1,211.0,194.0,36,40,204.3,183.5,194.5,195.6,7.867,8.463,7.9,7.509,7.855,7.958,7.77,5.014,-5.033,-8.212,2.013,-1.221,7.578,5.202,-4.384,-8.359,204.5,174.5,-7.508,188.9,187.9,177.1,184.4,192.0,36,188.2,1,5,prime,10,0,110,norm,36,-4.424,down,norm,190.970332091,178.3,172.7,1.306,178.2,0,171.0,179.5,198.3,10,5,7.844,4.503,1.504,-1.452,-4.679,-8.199,192.5,5,301.0,-8.313,-7.908,40,-8.329,-8.014,-5.143,-4.79,-5.255,-4.345,4.498,8.307,6,-1.443,1.698,4.808,8.151,-7.93,-8.322,-1.501,1.445,182.7,201.6,198.2,199.1,188.3,185.8,181.8,,198.3,183.6,0,norm,1.885,1.759,-2.06,-1.339,-5.081,-5.063,-1.262,-1.525,-1.121,-1.349,1.211,-1.932,183.4,205.8,-4.531,-7.8,190.3,-1.254,8.302,4.729,-4.855,-7.853,2,4.447,5.151,5.161,4.805,1.229,2.093,1.234,1.925,2,5.153,4.623,20,308.9377384,norm,0,7,7,7,879.07,879.076,879.085514511,879.086,879.089,879.094,down,1,1.62866335403,8.37133664597,001,312,1280_800,Intel(R) Core(TM)2 Duo CPU     P8600  @ 2.40GHz,orientation_search,GRVLAPTOP1,Quadro NVS 160M/PCIe/SSE2,2018_nov_08_1353,testMonitor,
179.1,193.4,195.2,,36,40,196.8,199.0,182.2,206.8,7.759,7.569,7.969,8.133,7.794,7.926,8.498,5.003,-4.952,-8.469,1.129,-1.697,8.049,4.745,-5.204,-8.193,186.2,193.5,-7.832,191.5,177.5,200.9,205.1,199.2,36,174.2,3,5,prime,10,0,77,norm,36,-5.176,up,norm,190.970332091,184.3,189.6,1.8,196.2,3,199.2,185.4,192.0,10,5,8.449,5.133,2.023,-1.561,-4.748,-7.722,186.1,5,268.0,-8.161,-7.683,40,-7.771,-8.479,-4.533,-4.835,-4.664,-4.741,4.651,8.491,21,-1.704,1.645,4.547,8.2,-7.868,-8.336,-2.017,2.029,180.1,195.6,171.0,185.2,183.4,179.2,188.6,193.7,195.7,180.3,1,norm,1.953,1.652,-1.921,-1.217,-4.324,-4.425,-2.1,-1.268,-2.017,-1.274,1.62,-1.898,207.3,186.2,-5.193,-8.369,197.3,-1.712,7.609,4.5,-4.884,-7.598,2,5.186,4.389,4.961,4.329,1.607,1.169,1.518,1.579,2,4.783,4.791,20,308.9377384,norm,0,8,8,8,880.74,880.746,880.755412827,880.756,880.759,880.764,up,1,1.34493453366,8.65506546634,001,312,1280_800,Intel(R) Core(TM)2 Duo CPU     P8600  @ 2.40GHz,orientation_search,GRVLAPTOP1,Quadro NVS 160M/PCIe/SSE2,2018_nov_08_1353,testMonitor,
195.2,183.0,183.5,206.5,36,40,191.0,185.8,194.8,203.1,7.747,8.498,8.433,8.145,8.146,8.123,8.297,4.769,-4.395,-8.278,1.525,-1.347,8.14,4.921,-4.323,-8.314,177.8,185.1,-7.943,198.7,196.0,185.5,182.5,209.5,36,180.0,1,5,prime,10,0,111,norm,36,-4.809,down,norm,190.970332091,211.0,189.2,1.275,197.5,2,181.2,210.1,191.5,10,5,7.569,4.348,1.34,-1.159,-4.46,-7.952,186.1,5,302.0,-7.531,-7.847,40,-8.263,-8.296,-4.77,-4.735,-5.209,-4.691,4.484,7.76,8,-1.11,1.958,4.975,7.953,-8.042,-8.38,-1.757,1.691,209.0,,188.9,171.0,180.5,196.2,189.8,195.9,185.5,189.6,2,norm,1.472,1.624,-1.291,-1.389,-5.299,-4.423,-2.039,-1.271,-1.613,-1.944,1.597,-1.908,181.3,175.1,-4.351,-8.095,196.4,-1.106,7.723,5.031,-4.617,-8.247,2,4.352,4.936,4.446,4.974,1.663,1.546,1.659,2.019,2,4.51,4.654,20,308.9377384,norm,0,9,9,9,882.126,882.133,882.141462557,882.142,882.146,882.151,down,1,1.19386728112,8.80613271888,001,312,1280_800,Intel(R) Core(TM)2 Duo CPU     P8600  @ 2.40GHz,orientation_search,GRVLAPTOP1,Quadro NVS 160M/PCIe/SSE2,2018_nov_08_1353,testMonitor,
185.6,195.6,203.9,200.2,36,40,210.2,,171.0,204.1,8.007,7.6,7.678,8.195,8.474,8.025,8.082,4.577,-4.506,-8.061,1.911,-1.717,7.725,4.888,-4.868,-7.947,197.4,202.6,-7.965,187.9,195.1,208.8,185.8,199.0,36,198.7,4,5,prime,10,0,95,norm,36,-4.819,down,norm,190.970332091,183.0,178.7,1.731,195.7,1,177.4,194.9,183.4,10,5,8.488,4.691,1.123,-1.101,-4.894,-7.529,192.9,5,286.0,-7.936,-8.366,40,-7.686,-8.379,-4.317,-4.801,-5.087,-4.969,5.185,7.531,25,-1.488,1.102,4.361,7.656,-8.302,-8.331,-1.396,1.414,200.1,199.7,177.9,191.6,195.2,208.8,188.5,183.4,197.6,211.0,3,norm,2.038,1.347,-1.734,-2.031,-4.588,-5.154,-1.306,-1.131,-1.55,-1.608,1.913,-1.139,179.1,199.3,-4.357,-7.713,205.1,-1.164,8.448,4.757,-4.372,-7.747,2,4.43,4.434,5.192,4.885,1.725,1.28,1.584,1.907,2,5.098,4.584,20,308.9377384,norm,0,10,10,10,883.361,883.368,883.377286382,883.378,883.381,883.387,up,0,0.993367178247,-10,001,312,1280_800,Intel(R) Core(TM)2 Duo CPU     P8600  @ 2.40GHz,orientation_search,GRVLAPTOP1,Quadro NVS 160M/PCIe/SSE2,2018_nov_08_1353,testMonitor,
200.4,202.5,173.4,193.0,36,40,193.0,186.2,201.3,211.0,7.885,8.216,7.891,7.96,8.294,8.209,7.574,4.85,-4.326,-7.856,1.116,-1.614,7.901,4.534,-4.76,-7.976,199.0,196.8,-7.567,193.5,193.9,171.0,185.9,197.7,36,192.2,0,5,prime,10,0,111,norm,36,-5.116,up,norm,190.970332091,198.0,187.2,1.414,207.7,3,189.3,190.8,194.0,10,5,7.879,5.129,1.851,-1.131,-4.51,-7.775,190.4,5,302.0,-8.279,-8.025,40,-8.271,-7.717,-5.281,-4.884,-4.767,-4.873,4.687,7.995,3,-1.55,1.913,5.126,7.891,-7.604,-7.863,-1.14,1.12,184.6,198.1,,179.6,181.8,195.0,193.8,179.2,182.6,173.3,4,norm,2.029,1.75,-1.657,-1.483,-5.04,-5.251,-1.462,-1.447,-1.554,-1.367,1.548,-1.968,188.9,178.4,-4.692,-7.759,195.3,-1.107,7.568,4.457,-5.119,-8.021,2,4.459,4.37,4.445,4.327,1.582,1.192,1.15,1.821,2,4.383,4.427,20,308.9377384,norm,0,11,11,11,885.432,885.439,885.448038619,885.448,885.452,885.457,down,0,0.927337516825,-10,001,312,1280_800,Intel(R) Core(TM)2 Duo CPU     P8600  @ 2.40GHz,orientation_search,GRVLAPTOP1,Quadro NVS 160M/PCIe/SSE2,2018_nov_08_1353,testMonitor,
322.7,320.1,316.3,309.3,36,60,315.1,314.7,327.0,326.2,8.397,7.857,8.006,8.34,8.172,8.079,8.156,4.505,-5.139,-8.022,1.941,-2.03,7.528,4.945,-5.07,-8.118,321.3,328.5,-7.816,321.3,309.3,315.5,318.1,323.4,36,324.6,1,5,probe,5,0,82,norm,36,-4.767,up,norm,319.329359753,322.1,322.1,2.028,329.3,5,,329.1,321.2,10,5,7.823,4.771,1.397,-1.732,-4.671,-8.457,321.8,2,237.3,-8.353,-8.292,40,-7.526,-8.29,-4.815,-4.622,-4.414,-4.377,4.646,7.615,11,-2.02,1.114,4.571,8.387,-8.451,-7.856,-1.788,1.352,327.9,315.0,317.4,309.6,320.4,323.7,324.0,322.6,315.3,315.5,0,norm,1.67,1.181,-1.219,-1.61,-5.052,-4.546,-2.079,-1.77,-1.747,-1.968,1.268,-1.167,313.2,312.6,-4.858,-7.628,319.5,-1.345,8.044,4.732,-5.044,-7.873,3,4.627,4.633,4.441,4.442,1.303,1.474,1.349,1.107,3,5.215,4.678,40,190.970332091,norm,0,12,12,12,887.436,887.443,887.451899745,887.452,887.456,887.461,up,1,1.16072242024,8.83927757976,001,312,1280_800,Intel(R) Core(TM)2 Duo CPU     P8600  @ 2.40GHz,orientation_search,GRVLAPTOP1,Quadro NVS 160M/PCIe/SSE2,2018_nov_08_1353,testMonitor,
334.4,331.3,330.7,341.3,36,60,334.6,329.4,338.3,333.8,8.185,7.676,7.931,8.194,7.996,8.335,7.743,4.809,-4.903,-8.418,1.603,-1.57,8.233,4.494,-4.906,-7.743,,329.9,-8.458,327.7,333.6,331.9,336.3,331.2,36,328.3,5,5,probe,5,0,94,norm,36,-4.446,up,norm,331.329359753,335.7,321.8,1.233,334.4,5,332.4,334.1,333.4,10,5,8.288,4.663,1.858,-1.534,-4.317,-8.441,337.5,2,237.3,-8.139,-7.923,40,-7.656,-8.341,-4.306,-4.707,-5.04,-4.732,4.999,8.253,35,-1.75,1.634,5.187,7.778,-8.081,-7.607,-2.078,1.699,321.3,337.4,331.1,327.8,337.0,329.6,333.3,326.2,326.2,324.5,1,norm,1.354,1.791,-1.349,-1.487,-4.613,-5.236,-1.856,-1.546,-1.455,-1.275,2.06,-1.922,338.6,331.3,-5.071,-7.521,337.8,-1.639,8.153,4.43,-4.95,-8.464,3,4.529,4.914,4.797,4.493,1.431,1.579,1.838,1.748,3,5.086,4.99,40,190.970332091,norm,0,13,13,13,888.638,888.645,888.654269887,888.655,888.658,888.664,up,1,1.36066561759,8.63933438241,001,312,1280_800,Intel(R) Core(TM)2 Duo CPU     P8600  @ 2.40GHz,orientation_search,GRVLAPTOP1,Quadro NVS 160M/PCIe/SSE2,2018_nov_08_1353,testMonitor,
148.9,135.6,166.5,163.2,36,-30,149.0,151.4,157.3,144.8,8.335,7.975,8.349,8.032,8.405,7.947,8.158,4.935,-4.325,-7.921,2.055,-1.708,8.183,4.832,-4.713,-7.66,155.6,158.6,-7.985,152.6,154.0,164.6,147.6,141.9,36,141.3,1,5,prime,10,0,90,norm,36,-4.371,up,norm,155.574849719,165.9,164.1,1.766,143.0,4,161.0,167.7,151.6,10,6,8.193,4.531,1.77,-1.778,-5.013,-7.78,,6,245.6,-8.185,-7.726,-30,-8.417,-7.63,-5.192,-4.825,-5.211,-5.222,5.107,8.029,10,-1.832,1.251,4.351,8.447,-7.932,-8.199,-1.992,1.699,163.3,146.2,158.8,156.6,158.8,148.7,166.7,175.6,138.6,147.6,0,norm,1.87,1.965,-2.017,-1.146,-4.855,-5.031,-1.916,-1.218,-1.656,-1.292,1.767,-1.314,151.5,149.3,-4.338,-7.505,162.9,-1.374,8.118,4.84,-5.22,-8.125,4,4.405,4.978,4.332,4.309,1.694,1.144,1.517,2.085,4,5.21,4.358,60,190.970332091,norm,0,14,14,14,890.041,890.047,890.056930544,890.057,890.061,890.066,up,1,1.06040457347,8.93959542653,001,312,1280_800,Intel(R) Core(TM)2 Duo CPU     P8600  @ 2.40GHz,orientation_search,GRVLAPTOP1,Quadro NVS 160M/PCIe/SSE2,2018_nov_08_1353,testMonitor,
164.4,151.6,163.9,170.4,36,-30,149.7,146.7,164.3,175.6,8.219,7.532,7.89,7.939,8.163,8.398,7.665,4.608,-4.54,-7.713,1.904,-1.142,7.984,5.084,-4.488,-8.258,165.6,150.1,-7.672,162.5,152.6,172.7,159.9,156.8,36,139.3,3,5,prime,10,0,64,norm,36,-4.68,down,norm,155.574849719,150.7,158.0,1.396,143.2,0,154.1,159.4,153.1,10,6,8.066,4.926,1.414,-1.372,-4.664,-8.196,159.1,6,219.6,-7.678,-8.254,-30,-8.241,-8.475,-4.468,-4.799,-4.532,-5.014,5.172,8.325,18,-1.595,1.936,4.965,7.863,-7.91,-8.156,-1.388,1.384,165.3,156.5,135.6,149.6,147.6,155.4,141.3,168.3,148.4,141.3,1,norm,1.681,1.577,-2.012,-1.645,-5.21,-4.781,-1.811,-1.829,-1.604,-1.454,1.717,-1.558,160.8,,-4.409,-7.565,161.7,-1.136,8.191,4.911,-5.294,-8.468,4,4.322,4.443,5.095,5.102,1.599,1.272,1.709,1.709,4,4.458,4.426,60,190.970332091,norm,0,15,15,15,891.143,891.15,891.159096188,891.159,891.163,891.169,down,1,1.27744203285,8.72255796715,001,312,1280_800,Intel(R) Core(TM)2 Duo CPU     P8600  @ 2.40GHz,orientation_search,GRVLAPTOP1,Quadro NVS 160M/PCIe/SSE2,2018_nov_08_1353,testMonitor,
151.2,165.7,162.9,149.1,36,-30,163.7,160.1,154.2,150.8,7.851,8.291,7.541,7.989,8.372,7.806,8.135,5.022,-4.347,-7.701,1.33,-1.973,8.071,4.62,-4.748,-7.559,162.2,166.7,-8.204,150.4,173.1,167.8,138.0,153.3,36,150.7,1,5,prime,10,0,70,norm,36,-4.552,down,norm,155.574849719,175.6,158.2,1.744,169.1,1,157.3,156.7,148.4,10,6,7.503,4.857,1.621,-1.456,-4.689,-7.704,167.0,6,225.6,-8.459,-8.01,-30,-8.039,-7.593,-4.341,-4.98,-4.854,-4.328,4.667,7.88,7,-1.574,1.197,4.802,7.813,-7.922,-8.166,-1.611,2.079,164.7,145.5,156.5,147.7,162.9,162.0,,151.3,142.0,168.4,2,norm,1.328,2.04,-1.412,-2.04,-5.28,-4.48,-1.128,-1.971,-1.897,-1.176,1.469,-1.836,148.5,135.6,-5.292,-7.717,155.4,-1.318,8.391,5.12,-4.653,-8.468,4,4.466,4.79,5.124,5.185,1.925,2.096,1.495,1.518,4,5.008,4.904,60,190.970332091,norm,0,16,16,16,892.463,892.469,892.478491342,892.479,892.483,892.488,down,1,1.94486720883,8.05513279117,001,312,1280_800,Intel(R) Core(TM)2 Duo CPU     P8600  @ 2.40GHz,orientation_search,GRVLAPTOP1,Quadro NVS 160M/PCIe/SSE2,2018_nov_08_1353,testMonitor,
157.5,165.3,162.3,,36,-30,158.9,160.2,135.6,148.6,8.452,8.13,7.974,7.607,7.923,8.063,8.064,4.909,-4.399,-7.945,1.512,-1.325,8.026,4.425,-4.77,-8.118,156.0,150.0,-8.142,150.0,140.1,143.7,147.0,150.3,36,153.0,3,5,prime,10,0,82,norm,36,-4.744,up,norm,155.574849719,173.2,148.4,1.423,175.6,3,149.4,157.9,167.7,10,6,7.728,5.274,1.311,-1.523,-5.285,-7.901,143.6,6,237.6,-7.732,-7.937,-30,-7.533,-8.207,-5.127,-5.045,-5.23,-5.174,4.499,7.84,21,-1.315,1.481,4.395,8.44,-7.597,-7.627,-1.979,1.957,137.6,157.8,149.6,160.3,154.5,146.4,143.5,148.9,154.8,166.6,3,norm,1.673,1.96,-2.062,-1.789,-4.915,-4.551,-1.815,-1.937,-1.349,-1.836,1.118,-1.852,168.6,148.9,-5.133,-7.542,155.0,-1.652,8.048,4.72,-4.523,-7.898,4,4.403,4.446,4.453,4.938,1.518,1.246,2.086,2.096,4,4.647,4.967,60,190.970332091,norm,0,17,17,17,894.45,894.457,894.465655996,894.466,894.47,894.475,up,1,1.36169901523,8.63830098477,001,312,1280_800,Intel(R) Core(TM)2 Duo CPU     P8600  @ 2.40GHz,orientation_search,GRVLAPTOP1,Quadro NVS 160M/PCIe/SSE2,2018_nov_08_1353,testMonitor,
164.0,169.6,168.2,162.1,36,-30,151.9,163.2,160.4,152.0,8.046,7.667,7.782,7.786,8.394,8.004,7.584,5.207,-5.187,-7.546,1.752,-1.501,8.197,4.596,-4.991,-7.823,171.2,153.2,-7.576,163.8,145.7,155.5,164.5,141.0,36,,4,5,prime,10,0,86,norm,36,-4.929,up,norm,155.574849719,175.6,169.1,2.015,142.7,3,141.0,159.9,153.9,10,6,8.419,4.398,1.645,-1.456,-4.389,-8.371,162.6,6,241.6,-8.279,-8.401,-30,-8.183,-7.969,-4.554,-4.378,-4.534,-4.876,5.147,8.163,27,-1.854,1.269,4.508,7.636,-7.889,-7.592,-1.365,1.732,168.7,157.0,157.1,148.4,158.6,170.4,164.2,150.7,165.6,163.3,4,norm,1.537,1.461,-1.717,-1.874,-5.098,-4.318,-1.546,-1.881,-2.063,-1.775,1.168,-2.098,157.6,152.5,-5.173,-8.238,151.8,-1.463,7.504,4.349,-5.052,-7.69,4,4.961,4.648,5.09,4.986,1.343,1.64,1.615,1.166,4,4.352,5.011,60,190.970332091,norm,0,18,18,18,895.853,895.859,895.868484323,895.869,895.873,895.878,up,1,1.31015745199,8.68984254801,001,312,1280_800,Intel(R) Core(TM)2 Duo CPU     P8600  @ 2.40GHz,orientation_search,GRVLAPTOP1,Quadro NVS 160M/PCIe/SSE2,2018_nov_08_1353,testMonitor,
158.7,151.1,166.3,159.8,36,-30,161.3,151.9,171.2,144.4,7.99,8.141,8.01,7.713,8.289,8.112,7.611,5.24,-4.496,-8.07,1.627,-1.683,8.369,4.899,-4.303,-7.949,167.2,141.0,-7.82,151.1,137.8,156.8,150.0,169.5,36,158.8,2,5,prime,10,0,94,norm,36,-4.853,down,norm,155.574849719,144.0,135.6,1.581,,2,143.3,160.9,137.8,10,6,8.361,4.873,1.215,-1.913,-4.423,-7.79,146.1,6,249.6,-7.524,-7.787,-30,-7.553,-8.437,-4.956,-4.67,-4.483,-4.595,4.374,8.237,14,-1.511,2.048,4.329,8.482,-8.207,-8.401,-2.043,1.857,147.4,154.1,155.1,149.1,141.3,162.6,152.2,158.2,160.2,175.6,5,norm,1.912,1.733,-1.109,-1.843,-5.209,-5.029,-1.431,-1.92,-1.979,-1.736,1.294,-1.519,156.9,161.9,-4.545,-8.276,173.8,-1.372,8.045,5.169,-4.77,-7.769,4,4.891,4.325,4.716,5.272,1.983,1.992,1.783,1.525,4,4.319,4.491,60,190.970332091,norm,0,19,19,19,897.205,897.212,897.221103896,897.221,897.225,897.23,down,1,1.31070665836,8.68929334164,001,312,1280_800,Intel(R) Core(TM)2 Duo CPU     P8600  @ 2.40GHz,orientation_search,GRVLAPTOP1,Quadro NVS 160M/PCIe/SSE2,2018_nov_08_1353,testMonitor,
239.0,243.8,244.5,235.3,36,-30,224.5,238.2,241.2,235.3,8.32,8.256,7.701,7.848,8.349,7.529,8.075,4.331,-5.047,-7.84,2.018,-1.814,8.244,4.395,-5.058,-7.805,239.2,230.9,-7.776,237.9,231.1,237.8,230.9,228.6,36,232.4,2,5,probe,5,0,110,norm,36,-4.48,down,norm,234.472920197,239.0,236.2,1.362,,2,235.0,235.6,241.0,10,6,8.034,4.979,1.262,-1.935,-4.439,-8.261,238.0,1,124.5,-8.193,-8.211,-30,-7.675,-7.631,-4.559,-4.783,-5.141,-4.996,4.533,8.005,14,-1.92,2.074,5.007,8.059,-7.753,-7.817,-1.857,1.266,239.3,233.3,233.9,231.6,242.5,231.0,235.5,237.6,237.1,231.5,0,norm,1.168,1.368,-1.92,-1.901,-4.819,-4.802,-1.25,-1.166,-1.764,-1.146,1.42,-1.562,240.7,241.2,-4.762,-8.29,234.3,-1.35,8.434,4.537,-4.703,-8.239,5,4.91,4.965,5.004,4.455,1.766,1.466,1.561,1.149,5,4.675,4.46,-30,155.574849719,norm,0,20,20,20,898.558,898.564,898.573729458,898.574,898.578,898.583,down,1,1.74535644734,8.25464355266,001,312,1280_800,Intel(R) Core(TM)2 Duo CPU     P8600  @ 2.40GHz,orientation_search,GRVLAPTOP1,Quadro NVS 160M/PCIe/SSE2,2018_nov_08_1353,testMonitor,
291.2,295.7,311.5,306.1,36,-40,295.1,311.8,301.2,310.1,8.427,7.503,7.514,7.645,7.543,7.829,8.001,4.942,-4.601,-8.088,1.941,-1.883,7.707,4.632,-4.504,-7.583,302.3,301.4,-7.769,294.3,317.9,324.6,308.3,308.7,36,320.6,1,5,prime,10,0,117,norm,36,-4.952,down,norm,304.571511653,303.0,284.6,1.474,305.8,1,310.6,308.9,303.2,10,6,8.318,5.018,1.17,-1.763,-4.457,-8.313,308.5,6,421.6,-7.774,-8.32,-40,-7.601,-7.837,-4.336,-5.062,-5.203,-4.337,4.565,8.175,7,-1.416,1.464,4.744,8.488,-8.056,-7.864,-1.858,1.573,294.5,293.9,301.3,299.4,296.5,293.4,,322.4,296.6,307.9,0,norm,1.359,1.835,-2.088,-1.399,-5.135,-4.881,-1.794,-2.005,-1.509,-1.289,1.278,-1.127,304.7,286.1,-4.647,-8.278,313.6,-1.624,7.797,4.911,-4.561,-7.77,6,4.316,4.693,4.453,4.426,1.182,1.374,1.253,1.672,6,5.048,4.828,-30,155.574849719,norm,0,21,21,21,900.345,900.353,900.360668612,900.361,900.365,900.37,down,1,1.2109927675,8.7890072325,001,312,1280_800,Intel(R) Core(TM)2 Duo CPU     P8600  @ 2.40GHz,orientation_search,GRVLAPTOP1,Quadro NVS 160M/PCIe/SSE2,2018_nov_08_1353,testMonitor,
302.7,324.6,287.7,308.2,36,-40,309.5,305.0,317.1,306.6,8.107,8.297,8.231,7.929,7.582,7.917,8.404,4.36,-4.657,-7.643,1.974,-1.557,7.696,4.328,-4.689,-7.504,307.0,306.0,-8.394,310.1,,310.3,297.5,315.4,36,291.3,5,5,prime,10,0,108,norm,36,-5.132,down,norm,304.571511653,304.8,305.5,2.044,292.1,0,305.7,300.4,289.1,10,6,8.371,4.41,1.656,-1.397,-5.063,-7.519,313.4,6,412.6,-7.786,-7.665,-40,-7.839,-8.135,-5.273,-4.766,-5.169,-4.928,5.016,7.601,30,-1.281,2.073,5.088,8.009,-7.896,-8.071,-1.866,1.621,284.9,300.2,310.6,310.9,284.6,317.1,295.5,304.1,317.1,304.5,1,norm,1.628,2.1,-2.054,-1.26,-4.671,-4.966,-1.763,-1.153,-1.979,-1.405,1.483,-1.194,308.5,308.2,-4.638,-8.474,304.7,-1.481,7.953,5.293,-5.279,-7.994,6,4.325,5.111,4.691,5.154,1.339,1.249,1.661,1.58,6,5.042,5.024,-30,155.574849719,norm,0,22,22,22,901.597,901.604,901.613001563,901.613,901.617,901.622,down,1,1.71167948932,8.28832051068,001,312,1280_800,Intel(R) Core(TM)2 Duo CPU     P8600  @ 2.40GHz,orientation_search,GRVLAPTOP1,Quadro NVS 160M/PCIe/SSE2,2018_nov_08_1353,testMonitor,
296.3,293.8,299.9,300.8,36,-40,310.3,304.2,300.5,313.3,8.118,8.489,8.107,8.091,7.506,8.096,8.173,4.384,-4.404,-7.61,1.66,-1.294,7.991,4.963,-4.762,-8.362,287.2,320.7,-7.635,312.8,311.5,291.7,313.8,306.9,36,303.1,0,5,prime,10,0,83,norm,36,-4.481,up,norm,304.571511653,311.9,287.3,1.99,284.6,4,324.6,310.9,303.3,10,6,8.409,4.813,1.294,-1.537,-4.469,-7.959,305.6,6,387.6,-7.774,-7.584,-40,-7.991,-7.556,-4.797,-4.764,-4.886,-5.208,4.469,7.761,4,-1.239,1.649,4.412,8.069,-7.829,-8.006,-1.781,1.156,310.9,294.5,296.8,308.0,302.9,303.6,297.4,294.7,307.7,,2,norm,1.916,1.591,-2.039,-1.839,-4.556,-4.847,-1.972,-1.964,-1.343,-1.492,1.185,-1.896,313.8,303.1,-4.474,-7.687,305.2,-1.623,7.57,5.167,-4.64,-8.056,6,4.872,4.779,4.547,5.0,1.889,1.796,1.938,1.201,6,4.305,4.842,-30,155.574849719,norm,0,23,23,23,903.351,903.357,903.366451532,903.367,903.371,903.376,up,1,1.19408456837,8.80591543163,001,312,1280_800,Intel(R) Core(TM)2 Duo CPU     P8600  @ 2.40GHz,orientation_search,GRVLAPTOP1,Quadro NVS 160M/PCIe/SSE2,2018_nov_08_1353,testMonitor,
300.6,313.5,308.6,305.4,36,-40,310.4,300.7,313.8,296.5,8.274,8.325,8.051,7.575,7.96,8.357,8.464,4.733,-4.896,-8.391,1.985,-1.565,7.525,5.205,-5.275,-7.644,290.1,298.9,-8.296,305.7,310.2,315.8,298.6,315.9,36,301.1,2,5,prime,10,0,76,norm,36,-4.999,down,norm,304.571511653,301.6,307.8,1.156,296.9,0,284.6,307.8,,10,6,7.754,4.628,1.213,-1.932,-5.234,-8.023,294.1,6,380.6,-8.439,-8.02,-40,-7.769,-7.581,-5.073,-4.92,-4.548,-4.908,4.863,7.775,12,-1.136,2.07,4.617,8.444,-7.65,-7.66,-1.353,1.765,298.9,296.9,312.6,296.2,300.8,302.8,294.7,292.1,309.7,301.9,3,norm,1.47,2.05,-1.379,-2.005,-4.971,-4.793,-1.182,-1.306,-1.667,-1.42,1.723,-1.621,324.6,317.4,-5.131,-8.089,301.7,-1.589,7.692,4.511,-4.826,-7.925,6,4.957,4.668,4.315,5.124,1.938,1.661,1.595,1.611,6,5.219,5.006,-30,155.574849719,norm,0,24,24,24,904.587,904.593,904.602200932,904.602,904.606,904.612,down,1,1.05977965875,8.94022034125,001,312,1280_800,Intel(R) Core(TM)2 Duo CPU     P8600  @ 2.40GHz,orientation_search,GRVLAPTOP1,Quadro NVS 160M/PCIe/SSE2,2018_nov_08_1353,testMonitor,
304.2,308.5,304.5,311.8,36,-40,308.8,301.8,298.9,315.6,7.835,7.868,7.502,7.813,7.773,8.032,8.162,4.313,-5.21,-8.244,1.226,-1.385,7.724,4.531,-4.73,-7.529,291.6,308.1,-8.261,309.6,317.6,307.9,285.7,298.0,36,309.0,3,5,prime,10,0,82,norm,36,-5.149,down,norm,304.571511653,314.2,313.4,1.63,306.2,0,296.2,310.9,301.1,10,6,8.219,5.037,1.62,-1.507,-4.448,-7.953,305.0,6,386.6,-7.884,-8.019,-40,-8.097,-8.312,-4.362,-5.07,-4.374,-5.286,5.104,7.937,18,-1.397,1.598,4.374,7.916,-8.334,-7.776,-1.736,1.921,289.6,320.7,324.6,307.3,290.5,308.3,319.0,307.5,313.7,318.6,4,norm,2.097,1.567,-2.089,-1.655,-5.142,-4.536,-2.046,-1.503,-1.706,-1.37,1.706,-2.081,301.3,,-4.502,-8.468,284.6,-1.241,8.308,4.991,-4.447,-7.599,6,4.785,4.806,4.487,4.819,1.678,1.688,1.692,2.022,6,4.705,5.135,-30,155.574849719,norm,0,25,25,25,905.689,905.694,905.704487623,905.705,905.709,905.714,down,1,1.29434766559,8.70565233441,001,312,1280_800,Intel(R) Core(TM)2 Duo CPU     P8600  @ 2.40GHz,orientation_search,GRVLAPTOP1,Quadro NVS 160M/PCIe/SSE2,2018_nov_08_1353,testMonitor,
295.9,317.1,296.1,310.3,36,-40,312.5,303.6,302.6,315.4,7.567,7.904,7.641,7.752,7.981,8.09,7.519,5.163,-4.667,-7.863,1.349,-1.385,8.163,5.03,-4.334,-7.736,308.6,311.4,-7.668,302.2,296.1,307.4,308.4,299.6,36,305.9,0,5,prime,10,0,107,norm,36,-5.112,up,norm,304.571511653,299.9,293.3,1.835,285.9,4,306.6,290.7,304.2,10,6,7.713,5.295,1.273,-1.249,-5.216,-8.12,307.4,6,411.6,-8.109,-7.894,-40,-7.524,-8.183,-4.968,-4.571,-4.853,-4.459,5.258,8.136,4,-1.839,1.963,4.546,7.951,-8.016,-7.558,-1.378,1.371,291.8,307.9,313.3,295.3,295.5,305.3,324.6,284.6,303.7,,5,norm,1.149,1.216,-1.256,-1.863,-4.435,-5.261,-2.011,-1.846,-1.286,-1.591,1.669,-1.547,305.0,290.6,-4.499,-8.353,302.6,-1.831,8.422,4.595,-4.809,-7.572,6,5.256,4.752,4.765,4.648,1.811,1.909,1.539,1.44,6,5.02,4.827,-30,155.574849719,norm,0,26,26,26,907.025,907.031,907.040375223,907.041,907.044,907.049,up,1,0.977198953429,9.02280104657,001,312,1280_800,Intel(R) Core(TM)2 Duo CPU     P8600  @ 2.40GHz,orientation_search,GRVLAPTOP1,Quadro NVS 160M/PCIe/SSE2,2018_nov_08_1353,testMonitor,
355.8,345.3,356.8,361.2,36,-60,352.7,361.5,350.9,352.6,7.955,8.115,8.009,7.943,7.583,7.577,7.996,4.629,-5.096,-7.683,1.219,-1.938,7.961,4.404,-4.793,-7.839,,350.6,-8.451,357.0,348.1,360.4,358.8,358.8,36,355.0,5,5,probe,5,0,91,norm,36,-4.886,up,norm,355.334899108,354.4,354.0,1.761,352.3,5,358.1,353.7,356.8,10,6,7.631,4.642,1.27,-1.802,-5.122,-7.814,353.1,1,264.3,-8.075,-7.56,-40,-7.743,-8.195,-4.34,-4.943,-4.526,-5.142,5.276,8.127,35,-1.712,1.879,5.023,7.69,-8.147,-8.338,-1.258,1.986,365.3,348.6,357.2,361.5,354.6,356.2,353.3,352.9,355.5,348.7,0,norm,1.832,1.227,-1.732,-1.197,-4.612,-4.804,-1.538,-1.919,-1.78,-1.49,1.657,-1.78,359.5,356.1,-5.175,-8.078,354.3,-1.991,7.624,4.918,-5.248,-7.554,7,4.468,4.419,5.014,5.006,1.175,1.536,1.916,1.386,7,4.613,5.221,-40,304.571511653,norm,0,27,27,27,908.043,908.05,908.059052089,908.059,908.063,908.068,up,1,1.62803159562,8.37196840438,001,312,1280_800,Intel(R) Core(TM)2 Duo CPU     P8600  @ 2.40GHz,orientation_search,GRVLAPTOP1,Quadro NVS 160M/PCIe/SSE2,2018_nov_08_1353,testMonitor,
33.4,17.6,11.6,24.3,36,-80,20.8,16.4,13.4,25.3,7.757,7.947,7.887,8.393,8.408,7.614,8.308,4.802,-4.665,-8.207,1.608,-1.495,8.358,5.203,-4.742,-7.603,7.8,39.1,-7.643,13.6,15.0,7.3,7.4,17.1,36,24.6,2,5,prime,10,0,87,norm,36,-4.43,down,norm,22.8118262256,34.0,24.5,1.706,,2,25.7,16.0,42.8,10,6,7.843,5.294,1.553,-1.953,-4.834,-8.032,2.8,6,109.8,-8.031,-7.516,-80,-7.817,-8.06,-4.677,-4.6,-4.301,-5.028,4.412,7.726,14,-1.506,1.266,4.694,8.123,-7.76,-8.373,-1.135,1.473,20.8,33.1,27.5,20.0,18.7,17.9,34.0,30.1,41.8,33.0,0,norm,1.16,1.835,-1.671,-1.464,-4.44,-5.009,-1.975,-1.341,-1.622,-1.977,1.914,-1.36,31.9,32.5,-4.707,-8.277,27.5,-1.179,7.576,4.706,-4.703,-7.751,8,4.772,4.408,4.947,5.266,1.769,1.258,1.638,1.934,8,5.229,4.78,-60,304.571511653,norm,0,28,28,28,909.713,909.719,909.728902498,909.729,909.733,909.738,down,1,1.59443676192,8.40556323808,001,312,1280_800,Intel(R) Core(TM)2 Duo CPU     P8600  @ 2.40GHz,orientation_search,GRVLAPTOP1,Quadro NVS 160M/PCIe/SSE2,2018_nov_08_1353,testMonitor,
16.5,39.9,27.2,37.4,36,-80,31.8,28.1,16.1,28.3,7.932,8.456,7.613,8.201,7.826,8.235,7.934,5.3,-5.184,-7.595,1.746,-1.532,7.935,5.098,-4.445,-7.779,7.8,15.4,-8.495,37.4,34.7,24.5,33.1,32.0,36,24.0,2,5,prime,10,0,69,norm,36,-5.27,down,norm,22.8118262256,20.2,18.6,1.751,,2,22.0,21.5,16.8,10,6,7.87,4.815,1.45,-1.633,-5.09,-8.158,30.0,6,91.8,-8.37,-8.413,-80,-7.801,-8.296,-4.487,-4.821,-4.563,-5.261,4.37,7.986,14,-1.163,1.751,5.234,7.589,-8.25,-7.947,-1.358,1.59,28.1,11.7,26.3,18.2,27.6,10.3,2.8,23.6,19.7,14.2,1,norm,1.538,1.495,-1.515,-1.995,-4.928,-4.322,-1.49,-1.755,-1.346,-1.933,2.017,-1.252,42.8,17.5,-4.439,-8.435,12.5,-1.369,8.337,4.498,-4.453,-7.68,8,4.662,4.955,4.366,5.18,1.466,1.468,1.998,1.878,8,4.333,4.526,-60,304.571511653,norm,0,29,29,29,911.35,911.356,911.365484433,911.366,911.369,911.374,down,1,5.56951459824,4.43048540176,001,312,1280_800,Intel(R) Core(TM)2 Duo CPU     P8600  @ 2.40GHz,orientation_search,GRVLAPTOP1,Quadro NVS 160M/PCIe/SSE2,2018_nov_08_1353,testMonitor,
21.8,,38.6,30.8,36,-80,28.2,9.7,14.7,32.7,7.842,7.996,7.686,7.965,8.024,7.601,7.767,4.927,-4.675,-7.917,1.519,-1.97,8.259,4.885,-4.413,-8.113,34.9,42.8,-7.786,27.3,18.4,26.2,21.2,3.1,36,34.0,3,5,prime,10,0,110,norm,36,-4.599,up,norm,22.8118262256,20.6,18.6,1.267,12.0,5,41.2,29.1,13.9,10,6,7.921,4.526,1.613,-1.79,-4.966,-8.261,15.1,6,132.8,-7.753,-7.775,-80,-8.254,-8.422,-5.253,-4.415,-5.0,-4.841,4.586,7.641,23,-1.389,1.191,4.602,8.485,-7.504,-8.319,-1.401,1.382,26.1,20.9,25.2,15.3,24.5,39.0,12.8,29.7,28.1,35.5,2,norm,1.133,2.04,-1.137,-1.216,-5.018,-4.501,-1.374,-1.372,-1.73,-1.144,1.404,-1.381,20.5,30.2,-5.27,-7.739,2.8,-1.564,8.268,5.169,-4.323,-8.04,8,4.817,4.614,4.664,5.228,1.116,1.964,1.642,1.574,8,4.673,4.65,-60,304.571511653,norm,0,30,30,30,916.961,916.969,916.976445719,916.977,916.98,916.985,up,1,2.19632929969,7.80367070031,001,312,1280_800,Intel(R) Core(TM)2 Duo CPU     P8600  @ 2.40GHz,orientation_search,GRVLAPTOP1,Quadro NVS 160M/PCIe/SSE2,2018_nov_08_1353,testMonitor,
26.6,23.0,,2.8,36,-80,11.8,34.8,21.1,29.3,7.871,7.636,8.357,8.446,7.826,7.973,7.721,4.474,-5.034,-7.735,1.801,-1.152,8.417,4.626,-4.452,-8.149,11.5,25.5,-7.568,31.2,30.6,19.0,35.2,26.3,36,21.9,3,5,prime,10,0,68,norm,36,-4.87,down,norm,22.8118262256,25.9,13.3,1.959,30.8,2,11.9,23.6,31.1,10,6,8.298,4.982,1.655,-1.48,-5.288,-8.021,26.7,6,90.8,-8.149,-8.08,-80,-8.282,-8.129,-5.088,-5.131,-5.233,-5.215,5.045,8.083,20,-1.843,1.626,5.191,8.171,-7.95,-8.053,-1.635,1.452,29.4,42.8,33.0,15.8,26.7,35.9,7.6,13.2,16.8,8.9,3,norm,1.769,2.079,-1.504,-1.74,-4.642,-5.153,-1.898,-1.111,-1.341,-1.196,1.996,-1.852,26.7,24.1,-4.706,-7.682,28.4,-1.144,8.469,5.279,-5.068,-8.476,8,4.34,5.275,5.004,5.234,2.009,1.271,1.47,1.278,8,4.912,5.166,-60,304.571511653,norm,0,31,31,31,919.198,919.205,919.214196471,919.214,919.218,919.223,up,0,6.07025991918,-10,001,312,1280_800,Intel(R) Core(TM)2 Duo CPU     P8600  @ 2.40GHz,orientation_search,GRVLAPTOP1,Quadro NVS 160M/PCIe/SSE2,2018_nov_08_1353,testMonitor,
8.6,42.8,20.1,36.1,36,-80,23.5,18.7,18.2,18.2,7.907,7.885,7.974,7.57,8.037,8.063,7.823,4.94,-5.157,-7.615,1.931,-1.201,8.248,4.537,-4.382,-7.815,38.3,5.1,-7.983,27.9,5.3,23.4,34.3,10.0,36,22.6,0,5,prime,10,0,90,norm,36,-5.204,down,norm,22.8118262256,21.6,14.3,1.307,20.6,0,18.3,31.1,20.4,10,6,7.731,5.181,1.875,-1.958,-4.432,-7.659,37.0,6,112.8,-8.227,-7.762,-80,-8.441,-8.027,-5.006,-4.882,-5.137,-5.111,4.848,8.338,0,-1.683,1.254,4.987,7.971,-7.684,-7.551,-1.386,1.616,29.3,2.8,4.7,31.7,13.7,,10.9,14.3,25.8,27.6,4,norm,1.956,1.944,-1.349,-1.408,-5.052,-4.75,-1.999,-1.734,-2.025,-1.575,1.268,-1.881,9.3,27.5,-4.706,-7.995,42.3,-1.706,8.174,4.422,-4.31,-8.452,8,4.81,5.274,4.374,4.937,1.133,1.814,1.298,2.07,8,4.879,4.61,-60,304.571511653,norm,0,32,32,32,926.346,926.352,926.361607481,926.362,926.366,926.371,down,1,1.52835363415,8.47164636585,001,312,1280_800,Intel(R) Core(TM)2 Duo CPU     P8600  @ 2.40GHz,orientation_search,GRVLAPTOP1,Quadro NVS 160M/PCIe/SSE2,2018_nov_08_1353,testMonitor,
20.4,15.7,28.9,16.0,36,-80,18.3,9.0,19.3,27.8,8.474,7.731,7.94,7.552,8.386,8.401,7.812,4.344,-5.278,-8.129,1.461,-1.704,7.966,5.142,-4.935,-8.102,16.0,41.5,-7.873,22.3,36.4,30.4,,21.9,36,42.3,5,5,prime,10,0,109,norm,36,-4.593,down,norm,22.8118262256,12.3,28.3,1.161,12.9,2,17.6,22.1,33.9,10,6,7.995,4.773,1.256,-1.644,-4.65,-7.701,19.1,6,131.8,-7.575,-8.196,-80,-7.746,-8.303,-4.812,-4.81,-4.404,-4.419,5.021,8.156,32,-1.29,1.532,4.992,8.002,-8.451,-8.394,-1.454,1.839,10.3,2.8,11.7,17.1,31.1,10.7,34.2,37.5,42.8,21.4,5,norm,1.766,1.174,-1.778,-1.822,-4.422,-4.845,-2.086,-1.938,-2.097,-1.704,1.585,-1.298,15.4,28.9,-4.542,-8.016,32.2,-1.42,7.7,4.792,-5.042,-8.349,8,5.232,5.062,4.951,4.434,1.257,1.274,1.603,1.678,8,4.607,4.368,-60,304.571511653,norm,0,33,33,33,927.916,927.922,927.931248687,927.932,927.935,927.94,down,1,1.51173372559,8.48826627441,001,312,1280_800,Intel(R) Core(TM)2 Duo CPU     P8600  @ 2.40GHz,orientation_search,GRVLAPTOP1,Quadro NVS 160M/PCIe/SSE2,2018_nov_08_1353,testMonitor,
12.6,10.8,23.3,23.3,36,30,20.7,16.4,19.9,,7.691,8.482,8.047,8.169,7.841,7.941,7.755,5.18,-5.116,-8.234,1.638,-1.598,7.674,4.833,-4.705,-7.733,17.0,13.4,-7.999,20.0,14.8,18.6,10.1,19.6,36,28.5,4,5,probe,5,0,75,norm,36,-4.508,up,norm,20.1209730377,29.6,25.7,2.074,17.9,5,27.5,22.0,16.0,10,6,7.53,5.028,1.578,-1.37,-4.749,-8.264,21.9,1,-54.9,-8.297,-8.268,-80,-7.973,-8.365,-5.289,-4.714,-5.188,-5.14,5.248,8.224,29,-1.67,1.688,4.301,7.815,-8.461,-8.374,-1.495,1.295,16.8,25.6,30.1,18.5,23.2,26.0,23.5,18.5,18.4,26.1,0,norm,1.771,1.297,-1.382,-1.557,-4.81,-4.793,-1.166,-1.108,-1.247,-1.789,1.709,-1.587,21.2,24.8,-4.338,-7.809,16.3,-1.31,8.288,4.362,-4.496,-8.408,9,4.807,4.54,4.342,4.671,1.703,2.097,1.388,1.862,9,4.468,4.905,-80,22.8118262256,norm,0,34,34,34,929.469,929.475,929.484353821,929.485,929.488,929.493,up,1,1.87901077839,8.12098922161,001,312,1280_800,Intel(R) Core(TM)2 Duo CPU     P8600  @ 2.40GHz,orientation_search,GRVLAPTOP1,Quadro NVS 160M/PCIe/SSE2,2018_nov_08_1353,testMonitor,
237.3,248.1,224.7,243.0,36,60,223.0,241.9,251.1,229.5,7.602,7.805,7.748,8.12,8.041,8.256,7.529,4.795,-4.673,-8.256,1.415,-1.583,7.634,5.257,-5.252,-7.877,241.0,229.4,-8.493,256.3,236.3,248.0,216.3,229.4,36,244.7,0,5,prime,10,0,85,norm,36,-4.4,down,norm,236.335345886,235.0,231.8,1.293,238.7,1,237.5,219.0,236.9,10,5,8.399,4.524,1.862,-1.857,-4.518,-8.075,246.1,5,321.3,-7.888,-7.79,60,-7.52,-8.186,-4.999,-4.802,-4.335,-4.457,5.279,8.324,1,-1.296,1.345,4.664,7.585,-7.545,-8.315,-1.705,1.484,248.1,230.0,249.3,228.5,,232.0,236.0,248.3,236.1,228.5,0,norm,1.704,1.989,-1.551,-1.812,-4.438,-4.371,-1.858,-1.88,-1.668,-1.377,1.253,-1.936,241.5,237.1,-4.651,-8.313,224.9,-1.655,7.702,5.076,-4.948,-8.111,10,4.568,5.255,4.321,5.259,1.68,1.644,1.371,1.373,10,4.619,4.461,30,22.8118262256,norm,0,35,35,35,931.389,931.395,931.404776213,931.405,931.409,931.414,down,1,1.89604259172,8.10395740828,001,312,1280_800,Intel(R) Core(TM)2 Duo CPU     P8600  @ 2.40GHz,orientation_search,GRVLAPTOP1,Quadro NVS 160M/PCIe/SSE2,2018_nov_08_1353,testMonitor,
234.5,225.6,252.8,222.5,36,60,247.4,234.5,229.3,235.7,8.056,8.054,8.426,7.877,8.455,8.027,8.369,4.927,-4.567,-8.432,2.079,-1.817,7.933,4.42,-4.397,-8.158,218.2,232.0,-8.281,216.3,247.9,242.4,236.2,231.6,36,231.7,2,5,prime,10,0,93,norm,36,-4.337,up,norm,236.335345886,235.2,,1.43,249.5,4,238.2,227.1,232.0,10,5,7.911,4.868,1.9,-1.673,-4.993,-7.92,244.2,5,329.3,-7.658,-8.339,60,-8.104,-8.294,-5.216,-4.572,-4.337,-4.78,4.917,7.723,16,-1.764,1.858,4.849,8.088,-7.948,-7.752,-2.002,1.292,237.8,251.1,225.3,256.3,248.9,221.6,223.3,247.6,226.8,233.1,1,norm,1.205,1.861,-1.268,-1.892,-5.158,-5.102,-1.281,-1.61,-1.158,-1.752,1.408,-1.721,245.4,230.8,-5.199,-7.522,240.2,-1.213,8.017,4.705,-5.224,-8.001,10,4.504,4.734,4.35,4.947,1.893,1.768,1.67,1.779,10,4.88,5.227,30,22.8118262256,norm,0,36,36,36,933.326,933.333,933.341949828,933.342,933.346,933.352,up,1,0.909662824073,9.09033717593,001,312,1280_800,Intel(R) Core(TM)2 Duo CPU     P8600  @ 2.40GHz,orientation_search,GRVLAPTOP1,Quadro NVS 160M/PCIe/SSE2,2018_nov_08_1353,testMonitor,
239.9,243.8,230.9,229.5,36,60,,219.1,235.2,236.3,8.218,7.559,8.28,7.811,7.763,7.847,8.054,5.264,-5.238,-8.173,1.172,-1.709,7.72,5.254,-4.977,-7.783,222.2,244.7,-8.496,229.0,236.1,252.4,256.3,228.2,36,244.1,4,5,prime,10,0,66,norm,36,-5.097,down,norm,236.335345886,224.0,230.4,1.78,238.3,0,232.0,250.3,249.7,10,5,7.699,4.309,1.733,-1.968,-4.812,-8.268,251.1,5,302.3,-7.757,-8.071,60,-8.163,-7.979,-4.547,-5.087,-4.388,-4.732,5.273,7.573,24,-1.704,1.912,4.335,8.37,-8.003,-7.951,-1.308,2.036,228.4,228.2,241.5,241.4,244.5,234.6,235.9,221.2,237.6,234.5,2,norm,2.006,1.482,-1.233,-1.568,-4.463,-4.666,-1.872,-1.967,-2.084,-1.708,1.404,-1.961,237.8,216.3,-4.718,-8.188,234.8,-1.191,7.912,4.753,-4.903,-8.083,10,4.519,4.55,4.488,4.593,1.855,1.804,1.625,1.562,10,4.716,4.852,30,22.8118262256,norm,0,37,37,37,934.278,934.284,934.293852781,934.294,934.298,934.303,down,1,0.827034212904,9.1729657871,001,312,1280_800,Intel(R) Core(TM)2 Duo CPU     P8600  @ 2.40GHz,orientation_search,GRVLAPTOP1,Quadro NVS 160M/PCIe/SSE2,2018_nov_08_1353,testMonitor,
216.7,241.6,224.2,240.8,36,60,246.0,234.8,220.6,227.7,8.116,8.406,7.659,8.152,8.079,7.871,7.666,5.209,-4.39,-8.04,2.062,-1.104,7.721,4.934,-5.057,-7.958,234.9,245.6,-7.92,233.4,234.6,232.8,235.1,236.9,36,237.9,2,5,prime,10,0,77,norm,36,-5.133,up,norm,236.335345886,,228.2,1.501,240.7,5,256.3,239.1,231.9,10,5,8.202,5.07,1.19,-1.42,-4.508,-8.034,232.1,5,313.3,-8.144,-7.608,60,-7.975,-7.85,-5.016,-4.613,-4.422,-4.591,4.973,7.692,17,-1.383,1.501,4.641,8.062,-7.695,-8.062,-1.331,1.632,218.0,231.3,235.1,216.3,235.6,243.5,234.5,248.6,244.7,245.5,3,norm,1.741,1.483,-1.894,-2.001,-5.181,-4.747,-1.524,-2.007,-2.085,-1.335,1.98,-1.814,231.0,242.6,-4.344,-7.622,236.7,-1.752,7.853,4.496,-5.185,-7.907,10,4.505,4.851,5.281,4.677,1.228,1.149,1.562,1.592,10,5.177,5.211,30,22.8118262256,norm,0,38,38,38,935.146,935.153,935.162184404,935.162,935.166,935.172,up,1,0.926665123985,9.07333487601,001,312,1280_800,Intel(R) Core(TM)2 Duo CPU     P8600  @ 2.40GHz,orientation_search,GRVLAPTOP1,Quadro NVS 160M/PCIe/SSE2,2018_nov_08_1353,testMonitor,
224.4,222.9,230.6,232.5,36,60,228.1,228.4,220.1,232.7,8.185,7.852,8.338,8.334,8.304,8.429,7.615,5.103,-4.997,-7.76,1.663,-1.261,8.421,5.019,-5.035,-8.063,241.8,241.4,-8.261,233.3,251.8,240.7,222.2,238.0,36,232.2,3,5,prime,10,0,69,norm,36,-4.724,down,norm,236.335345886,243.1,232.2,1.683,217.9,0,241.9,227.3,256.3,10,5,8.318,4.826,1.754,-1.568,-4.953,-8.438,229.4,5,305.3,-7.519,-7.792,60,-7.99,-8.315,-4.705,-4.559,-5.179,-4.456,4.764,8.373,18,-1.916,1.397,4.684,8.162,-7.952,-8.019,-1.715,1.544,232.8,246.8,236.5,239.2,241.6,237.5,229.4,242.5,245.9,242.3,4,norm,1.334,1.369,-1.502,-2.036,-4.746,-5.214,-1.126,-2.069,-1.797,-1.961,1.973,-1.836,234.5,,-4.417,-7.537,216.3,-1.272,7.963,4.561,-5.267,-7.68,10,4.928,4.539,4.495,5.159,1.144,1.467,1.681,1.834,10,4.505,4.853,30,22.8118262256,norm,0,39,39,39,936.115,936.121,936.130670909,936.131,936.135,936.14,down,1,0.79319856676,9.20680143324,001,312,1280_800,Intel(R) Core(TM)2 Duo CPU     P8600  @ 2.40GHz,orientation_search,GRVLAPTOP1,Quadro NVS 160M/PCIe/SSE2,2018_nov_08_1353,testMonitor,
387.6,386.9,394.3,381.3,36,30,380.3,391.4,379.1,389.9,8.481,7.905,8.132,8.135,8.182,7.59,7.921,4.41,-4.38,-7.592,1.139,-1.353,7.877,4.922,-5.274,-8.389,381.2,390.5,-8.463,392.1,394.2,382.8,390.6,389.0,36,395.5,1,5,probe,5,0,93,norm,36,-4.892,up,norm,386.345020275,394.8,381.0,1.3,391.5,4,384.3,396.3,387.3,10,5,8.225,5.26,1.91,-1.648,-5.029,-7.657,,1,293.3,-8.073,-8.434,60,-7.966,-7.671,-5.194,-4.937,-4.498,-4.66,5.079,7.732,10,-2.016,1.245,5.215,7.724,-7.759,-8.416,-1.748,1.156,395.9,386.0,389.8,389.2,389.4,393.0,376.3,380.1,388.7,389.0,0,norm,1.77,1.638,-1.443,-1.453,-5.074,-4.313,-1.871,-1.48,-1.734,-1.794,1.885,-1.762,383.2,383.7,-4.631,-7.658,385.1,-1.974,7.546,4.842,-5.031,-7.932,11,4.511,4.349,4.73,4.73,1.982,1.133,1.218,1.215,11,4.627,5.025,60,236.335345886,norm,0,40,40,40,936.95,936.957,936.965611726,936.966,936.97,936.975,up,1,1.26072545713,8.73927454287,001,312,1280_800,Intel(R) Core(TM)2 Duo CPU     P8600  @ 2.40GHz,orientation_search,GRVLAPTOP1,Quadro NVS 160M/PCIe/SSE2,2018_nov_08_1353,testMonitor,
316.7,324.5,319.8,317.4,36,-60,333.5,304.5,326.0,314.7,7.717,7.523,8.319,7.809,7.521,7.742,8.218,4.314,-4.8,-7.634,1.833,-1.371,7.531,4.499,-4.714,-7.63,295.2,325.3,-7.501,314.3,316.7,319.2,321.6,317.3,36,297.6,1,5,prime,10,0,94,norm,36,-4.977,down,norm,313.537052301,317.4,310.5,1.864,308.9,1,293.5,305.0,312.2,10,6,8.107,4.434,1.798,-1.46,-4.968,-7.519,316.7,6,407.5,-8.459,-8.109,-60,-7.572,-8.075,-5.193,-4.674,-4.894,-5.004,5.078,7.944,7,-1.478,1.45,5.238,7.919,-8.429,-7.745,-1.952,1.89,315.9,293.6,305.8,303.9,324.1,313.9,,312.6,329.9,311.2,0,norm,1.339,1.339,-1.612,-1.228,-4.709,-5.253,-1.811,-1.259,-1.684,-1.396,1.438,-1.803,307.6,329.5,-4.748,-8.121,333.0,-1.353,8.106,4.653,-4.659,-7.94,12,5.202,5.034,4.707,5.02,1.969,1.709,1.658,2.007,12,4.868,4.975,30,236.335345886,norm,0,41,41,41,938.253,938.259,938.268193637,938.269,938.272,938.277,down,1,1.56188345276,8.43811654724,001,312,1280_800,Intel(R) Core(TM)2 Duo CPU     P8600  @ 2.40GHz,orientation_search,GRVLAPTOP1,Quadro NVS 160M/PCIe/SSE2,2018_nov_08_1353,testMonitor,
317.1,319.9,314.8,314.1,36,-60,313.6,329.0,323.6,316.4,7.65,8.019,7.573,7.529,7.501,8.457,7.898,5.077,-4.918,-7.631,1.647,-1.188,7.725,4.854,-5.155,-8.342,323.7,324.0,-7.768,304.0,296.8,293.6,,310.8,36,317.2,5,5,prime,10,0,113,norm,36,-5.2,down,norm,313.537052301,312.3,317.6,2.011,319.2,2,315.7,313.6,333.5,10,6,7.59,4.771,1.134,-1.251,-5.251,-7.564,312.8,6,426.5,-8.41,-8.383,-60,-8.191,-8.102,-5.038,-4.33,-4.548,-5.298,4.546,8.054,32,-1.83,1.559,5.064,7.725,-8.14,-7.522,-1.878,1.248,304.5,315.6,297.3,328.4,303.4,294.0,325.5,309.0,293.5,318.2,1,norm,1.903,2.099,-2.046,-1.503,-5.175,-4.827,-1.25,-1.737,-1.467,-1.464,1.795,-1.94,302.5,315.2,-4.904,-8.021,320.1,-1.271,7.826,5.226,-5.09,-8.079,12,4.389,4.505,4.447,4.987,1.412,1.988,1.262,1.381,12,4.504,5.205,30,236.335345886,norm,0,42,42,42,939.856,939.861,939.871354825,939.872,939.875,939.881,down,1,1.34382499993,8.65617500007,001,312,1280_800,Intel(R) Core(TM)2 Duo CPU     P8600  @ 2.40GHz,orientation_search,GRVLAPTOP1,Quadro NVS 160M/PCIe/SSE2,2018_nov_08_1353,testMonitor,
295.1,293.6,298.3,301.7,36,-60,300.8,320.8,302.1,305.7,7.605,8.228,8.469,7.764,7.596,8.424,8.171,4.866,-5.038,-7.777,1.309,-1.597,8.186,4.866,-4.316,-8.453,320.9,326.8,-7.706,314.7,314.8,308.8,309.3,307.5,36,324.9,0,5,prime,10,0,97,norm,36,-4.887,down,norm,313.537052301,293.5,307.2,2.038,325.5,1,308.1,307.4,314.9,10,6,8.087,4.415,1.667,-1.152,-4.799,-7.582,326.9,6,410.5,-7.951,-7.767,-60,-7.927,-7.578,-4.967,-4.77,-5.194,-4.929,4.411,7.566,1,-1.919,1.944,5.054,8.112,-7.618,-8.34,-1.372,1.968,297.4,305.8,320.9,321.0,,327.3,312.7,317.2,303.1,299.5,2,norm,2.033,1.845,-1.563,-1.59,-4.883,-4.962,-1.688,-1.751,-1.384,-1.219,1.101,-1.704,333.5,308.3,-4.886,-8.442,310.7,-1.935,7.797,5.29,-4.745,-8.337,12,4.596,5.122,4.899,5.15,1.159,1.189,1.7,2.068,12,4.882,4.534,30,236.335345886,norm,0,43,43,43,941.242,941.248,941.257398567,941.258,941.261,941.267,down,1,1.11041272174,8.88958727826,001,312,1280_800,Intel(R) Core(TM)2 Duo CPU     P8600  @ 2.40GHz,orientation_search,GRVLAPTOP1,Quadro NVS 160M/PCIe/SSE2,2018_nov_08_1353,testMonitor,
315.6,299.8,325.3,309.2,36,-60,304.2,304.8,324.3,322.0,8.359,8.118,8.002,7.725,7.533,8.239,8.239,4.371,-4.965,-7.62,1.522,-1.314,7.928,4.978,-4.43,-7.926,303.8,322.6,-7.795,,293.5,311.4,316.0,314.6,36,312.6,5,5,prime,10,0,119,norm,36,-4.699,down,norm,313.537052301,317.1,306.6,1.747,321.4,1,328.4,328.6,311.1,10,6,8.277,5.032,1.728,-2.012,-5.176,-8.392,298.7,6,432.5,-8.252,-8.214,-60,-7.797,-8.197,-4.58,-4.975,-4.883,-4.613,4.454,8.078,31,-1.369,1.556,4.487,8.129,-7.66,-7.883,-1.561,2.058,333.5,304.6,316.9,298.3,316.5,320.9,322.7,330.9,297.7,303.7,3,norm,1.242,2.027,-1.722,-1.192,-5.08,-4.678,-1.198,-1.636,-1.706,-2.085,2.037,-1.28,299.5,297.2,-4.96,-7.83,307.1,-1.699,7.534,4.521,-4.317,-7.508,12,5.037,4.402,5.295,4.905,1.399,1.341,1.848,1.484,12,4.329,4.585,30,236.335345886,norm,0,44,44,44,942.394,942.4,942.409701961,942.41,942.414,942.419,down,1,0.943729444862,9.05627055514,001,312,1280_800,Intel(R) Core(TM)2 Duo CPU     P8600  @ 2.40GHz,orientation_search,GRVLAPTOP1,Quadro NVS 160M/PCIe/SSE2,2018_nov_08_1353,testMonitor,
312.8,321.3,312.6,301.4,36,-60,316.9,302.4,303.5,315.3,8.139,8.371,8.103,7.87,8.377,8.036,8.03,4.855,-4.464,-8.094,1.723,-1.316,8.154,4.858,-5.132,-7.99,312.4,315.9,-8.177,303.7,296.7,307.7,315.5,333.5,36,305.0,3,5,prime,10,0,87,norm,36,-4.38,down,norm,313.537052301,315.4,299.2,1.804,325.4,0,309.1,311.0,310.5,10,6,8.487,4.907,1.472,-1.473,-4.461,-7.811,319.2,6,400.5,-7.759,-7.759,-60,-7.849,-7.775,-4.354,-4.565,-4.64,-5.167,4.405,8.418,18,-1.582,1.207,4.887,7.805,-7.809,-8.477,-1.233,1.867,317.3,304.5,323.7,306.4,324.2,321.1,325.6,328.4,325.6,315.7,4,norm,1.489,1.886,-1.756,-1.682,-4.783,-4.593,-1.103,-1.818,-1.343,-1.492,1.858,-1.804,320.9,,-4.311,-7.552,293.5,-1.353,8.287,4.404,-4.936,-8.227,12,4.947,4.965,4.872,4.554,1.976,1.222,1.459,1.306,12,5.158,4.39,30,236.335345886,norm,0,45,45,45,943.379,943.386,943.394984172,943.395,943.399,943.405,down,1,0.859925857141,9.14007414286,001,312,1280_800,Intel(R) Core(TM)2 Duo CPU     P8600  @ 2.40GHz,orientation_search,GRVLAPTOP1,Quadro NVS 160M/PCIe/SSE2,2018_nov_08_1353,testMonitor,
302.4,316.7,299.0,324.7,36,-60,312.0,304.9,314.8,306.3,8.204,8.255,8.169,8.381,8.068,8.338,7.828,5.023,-4.921,-7.709,1.941,-1.32,8.358,4.778,-4.974,-7.752,304.2,300.2,-7.568,316.4,307.2,310.5,293.5,,36,314.0,4,5,prime,10,0,112,norm,36,-5.253,down,norm,313.537052301,305.1,316.1,1.867,333.5,2,310.1,311.8,306.3,10,6,7.787,4.668,1.957,-1.556,-4.498,-8.15,302.5,6,425.5,-8.483,-8.374,-60,-7.695,-7.848,-5.084,-5.295,-4.931,-4.583,4.751,7.983,26,-1.762,1.351,4.925,7.909,-8.362,-7.912,-2.048,1.406,314.5,303.6,312.4,319.4,306.2,314.7,328.6,308.3,312.5,313.1,5,norm,1.471,1.72,-2.053,-1.166,-4.943,-5.076,-1.655,-1.817,-1.9,-1.867,1.366,-1.76,312.3,327.6,-4.344,-7.642,304.2,-1.478,8.087,4.532,-5.049,-7.908,12,5.3,5.096,5.266,4.898,2.025,1.712,1.478,1.272,12,4.313,4.987,30,236.335345886,norm,0,46,46,46,944.281,944.288,944.296721572,944.297,944.301,944.306,down,1,0.676179542574,9.32382045743,001,312,1280_800,Intel(R) Core(TM)2 Duo CPU     P8600  @ 2.40GHz,orientation_search,GRVLAPTOP1,Quadro NVS 160M/PCIe/SSE2,2018_nov_08_1353,testMonitor,
342.7,339.8,345.7,338.9,36,40,341.2,332.9,344.3,344.3,8.341,7.825,7.619,7.69,8.042,8.167,8.483,5.236,-5.05,-7.901,1.377,-1.846,7.748,5.118,-4.433,-7.536,336.9,343.8,-8.224,342.1,336.6,339.1,339.4,343.4,36,336.5,2,5,probe,5,0,96,norm,36,-5.134,up,norm,341.31174498,,335.6,1.566,337.0,5,340.8,341.8,339.3,10,6,8.296,4.5,2.066,-1.766,-4.514,-7.873,331.3,1,245.3,-7.811,-8.049,-60,-8.182,-8.405,-4.994,-4.406,-4.816,-4.652,4.438,8.131,17,-1.17,1.635,4.373,8.371,-7.557,-7.752,-1.682,1.74,343.1,345.9,332.7,345.2,343.1,343.4,339.1,332.0,339.1,335.0,0,norm,1.632,1.344,-1.213,-1.75,-4.484,-4.557,-1.352,-2.019,-1.236,-1.462,1.645,-1.251,344.4,343.9,-4.745,-7.722,340.4,-1.88,8.065,4.672,-4.955,-7.876,13,5.011,4.971,4.64,4.563,1.725,1.775,1.873,1.193,13,4.461,4.396,-60,313.537052301,norm,0,47,47,47,944.999,945.005,945.014935932,945.015,945.019,945.025,up,1,0.909592248492,9.09040775151,001,312,1280_800,Intel(R) Core(TM)2 Duo CPU     P8600  @ 2.40GHz,orientation_search,GRVLAPTOP1,Quadro NVS 160M/PCIe/SSE2,2018_nov_08_1353,testMonitor,
34.1,27.5,27.7,39.0,36,10,25.4,12.9,13.9,20.8,8.007,7.839,7.641,7.694,7.872,7.84,8.036,4.562,-4.957,-8.378,1.933,-1.709,7.597,5.125,-4.658,-7.661,9.3,32.7,-8.442,24.5,32.8,,12.0,39.9,36,21.9,5,5,prime,10,0,92,norm,36,-4.837,up,norm,29.3364702652,32.2,32.9,1.493,35.6,3,22.1,49.3,43.3,10,5,8.37,4.324,2.096,-2.061,-5.218,-7.94,13.8,5,121.3,-7.551,-8.384,10,-7.746,-7.932,-4.466,-4.813,-5.026,-5.034,4.317,8.42,33,-1.162,2.098,4.358,8.167,-7.587,-7.596,-1.156,1.321,24.4,41.1,18.0,26.5,39.3,42.7,30.0,18.0,37.7,19.3,0,norm,1.889,1.736,-1.138,-1.136,-4.833,-5.013,-1.137,-1.575,-2.0,-1.249,1.382,-2.04,41.8,15.0,-4.594,-8.236,41.5,-1.968,7.651,4.715,-4.596,-7.643,14,4.426,4.431,5.286,4.328,1.178,2.039,1.353,1.526,14,4.794,4.92,40,313.537052301,norm,0,48,48,48,945.951,945.957,945.966721687,945.967,945.971,945.976,up,1,1.29418769427,8.70581230573,001,312,1280_800,Intel(R) Core(TM)2 Duo CPU     P8600  @ 2.40GHz,orientation_search,GRVLAPTOP1,Quadro NVS 160M/PCIe/SSE2,2018_nov_08_1353,testMonitor,
29.1,16.1,25.1,13.0,36,10,43.3,24.7,30.4,41.3,8.327,7.718,8.296,7.682,7.871,8.118,7.514,5.296,-4.535,-7.594,2.05,-1.451,8.005,4.62,-4.431,-7.872,35.5,20.8,-8.025,35.7,29.1,36.2,32.5,26.2,36,49.3,0,5,prime,10,0,91,norm,36,-5.059,down,norm,29.3364702652,37.7,18.0,1.219,28.7,2,30.6,42.0,32.1,10,5,7.849,4.609,1.694,-1.196,-5.267,-8.289,30.4,5,120.3,-8.07,-8.315,10,-8.194,-7.749,-4.966,-4.923,-4.835,-4.437,4.602,8.473,2,-1.385,1.197,4.684,7.903,-8.171,-7.567,-1.867,1.971,24.8,15.3,32.0,,27.9,13.9,32.1,22.9,20.8,19.3,1,norm,1.335,1.591,-1.412,-1.96,-4.792,-5.039,-1.78,-1.152,-1.9,-1.784,1.114,-1.629,9.3,19.4,-4.826,-8.078,21.2,-2.096,7.856,5.226,-4.318,-8.254,14,4.825,5.01,4.496,4.894,1.534,1.198,1.674,1.964,14,5.127,4.995,40,313.537052301,norm,0,49,49,49,947.287,947.294,947.302634522,947.303,947.307,947.313,down,1,0.777193735114,9.22280626489,001,312,1280_800,Intel(R) Core(TM)2 Duo CPU     P8600  @ 2.40GHz,orientation_search,GRVLAPTOP1,Quadro NVS 160M/PCIe/SSE2,2018_nov_08_1353,testMonitor,
28.1,39.9,49.3,24.2,36,10,31.9,17.6,24.2,27.5,8.252,8.074,8.427,7.796,8.171,8.447,7.757,4.398,-4.78,-7.647,1.438,-1.146,8.405,4.526,-4.788,-7.92,24.9,35.3,-7.862,36.2,,19.4,25.0,34.5,36,31.1,5,5,prime,10,0,89,norm,36,-4.873,down,norm,29.3364702652,30.9,30.8,1.138,23.1,0,30.0,23.4,37.1,10,5,8.115,4.742,1.915,-1.694,-4.346,-8.406,31.0,5,118.3,-8.074,-8.281,10,-7.938,-8.049,-5.273,-4.306,-5.193,-4.957,5.062,8.068,30,-1.685,1.216,4.401,8.112,-7.742,-8.494,-1.765,1.174,42.3,33.2,27.4,32.4,28.7,32.9,27.3,31.5,9.3,40.4,2,norm,1.207,1.682,-1.276,-1.83,-4.498,-4.776,-1.921,-1.257,-1.239,-1.337,1.46,-1.737,36.9,26.9,-4.846,-8.166,30.8,-1.531,7.803,4.788,-5.155,-8.487,14,5.062,4.727,4.995,4.69,1.571,1.707,1.486,1.388,14,4.595,4.365,40,313.537052301,norm,0,50,50,50,948.105,948.111,948.120872023,948.121,948.125,948.13,down,1,1.09370170652,8.90629829348,001,312,1280_800,Intel(R) Core(TM)2 Duo CPU     P8600  @ 2.40GHz,orientation_search,GRVLAPTOP1,Quadro NVS 160M/PCIe/SSE2,2018_nov_08_1353,testMonitor,
15.1,24.2,42.5,9.3,36,10,32.2,43.4,33.0,34.4,8.438,7.816,7.738,8.154,7.647,7.55,8.245,4.403,-4.811,-7.791,2.028,-1.772,8.195,4.797,-4.642,-8.153,13.8,43.9,-8.163,14.4,25.1,44.4,28.1,42.1,36,36.0,0,5,prime,10,0,115,norm,36,-4.759,down,norm,29.3364702652,15.1,25.1,1.939,45.3,0,30.7,35.0,26.6,10,5,8.221,5.24,1.244,-1.842,-4.867,-8.431,12.7,5,144.3,-8.203,-7.531,10,-8.322,-8.494,-4.668,-4.672,-5.258,-4.962,5.05,8.165,0,-1.464,1.96,5.254,7.507,-8.394,-7.925,-1.762,1.132,49.3,40.2,34.1,28.7,27.2,,27.9,21.2,14.9,28.4,3,norm,1.239,1.169,-1.48,-1.882,-4.769,-5.105,-1.87,-1.495,-1.278,-1.431,1.838,-1.19,38.3,28.1,-4.497,-7.739,14.6,-1.566,7.937,4.821,-4.99,-7.882,14,4.918,4.651,4.582,4.93,1.876,1.618,1.619,1.266,14,4.777,4.578,40,313.537052301,norm,0,51,51,51,949.241,949.247,949.256466541,949.257,949.261,949.266,down,1,0.776375486061,9.22362451394,001,312,1280_800,Intel(R) Core(TM)2 Duo CPU     P8600  @ 2.40GHz,orientation_search,GRVLAPTOP1,Quadro NVS 160M/PCIe/SSE2,2018_nov_08_1353,testMonitor,
16.5,34.1,15.8,11.2,36,10,13.4,38.1,43.0,31.6,7.524,8.238,8.059,8.473,8.3,7.876,8.12,4.686,-4.897,-7.743,1.984,-1.577,8.013,4.455,-4.827,-8.078,,39.9,-8.268,36.8,26.8,31.7,15.1,41.2,36,44.2,5,5,prime,10,0,111,norm,36,-4.531,up,norm,29.3364702652,27.1,38.4,1.895,23.2,5,46.6,23.1,49.3,10,5,8.354,5.233,1.158,-2.077,-4.627,-8.054,19.2,5,140.3,-8.104,-8.184,10,-7.588,-8.207,-5.062,-4.685,-4.805,-4.976,4.752,8.076,35,-2.013,1.546,5.018,8.324,-7.829,-8.371,-1.907,1.537,35.8,39.2,39.4,28.7,30.4,20.8,10.0,32.7,29.4,9.3,4,norm,1.352,1.107,-1.101,-1.522,-4.389,-4.907,-1.483,-1.133,-1.405,-1.574,1.787,-1.887,27.8,13.3,-5.132,-8.344,31.0,-1.583,8.223,4.372,-4.92,-7.675,14,4.852,4.638,4.709,5.063,1.458,1.94,1.462,1.349,14,4.911,4.91,40,313.537052301,norm,0,52,52,52,950.059,950.065,950.074725429,950.075,950.079,950.084,up,1,0.843246493998,9.156753506,001,312,1280_800,Intel(R) Core(TM)2 Duo CPU     P8600  @ 2.40GHz,orientation_search,GRVLAPTOP1,Quadro NVS 160M/PCIe/SSE2,2018_nov_08_1353,testMonitor,
102.7,102.6,106.8,105.1,36,80,109.0,106.6,99.2,97.4,7.622,8.457,7.744,8.454,8.149,7.864,7.718,5.294,-4.35,-8.031,1.712,-1.534,8.096,4.547,-5.137,-8.109,109.2,,-7.885,102.7,105.3,107.8,106.5,112.5,36,102.3,5,5,probe,5,0,73,norm,36,-4.984,up,norm,107.350915296,107.7,117.4,1.666,114.0,4,107.9,103.9,103.1,10,5,8.495,5.144,1.292,-1.356,-4.41,-8.207,107.6,2,34.4,-8.138,-7.537,10,-8.407,-7.857,-4.533,-4.941,-4.942,-4.704,5.191,8.219,34,-1.153,2.055,4.921,8.431,-7.957,-8.306,-1.917,1.714,105.6,108.0,100.2,109.9,101.3,110.1,110.0,113.5,107.7,104.4,0,norm,1.566,2.067,-1.642,-1.373,-5.22,-4.502,-1.216,-1.454,-1.887,-1.691,1.466,-1.53,104.1,109.3,-4.464,-7.598,109.1,-1.261,8.436,4.308,-4.321,-8.062,15,4.828,5.1,5.095,5.115,1.331,1.839,1.104,1.763,15,4.729,4.664,10,29.3364702652,norm,0,53,53,53,950.944,950.95,950.959851475,950.96,950.964,950.969,up,1,1.01005124643,8.98994875357,001,312,1280_800,Intel(R) Core(TM)2 Duo CPU     P8600  @ 2.40GHz,orientation_search,GRVLAPTOP1,Quadro NVS 160M/PCIe/SSE2,2018_nov_08_1353,testMonitor,
121.7,121.0,128.3,127.3,36,80,116.9,116.5,120.7,121.0,8.236,7.885,7.852,7.722,7.965,8.4,8.006,4.598,-4.616,-7.79,1.829,-1.184,7.733,4.979,-5.016,-8.2,111.6,124.0,-7.909,115.0,120.6,117.8,117.2,115.6,36,121.9,1,5,probe,5,0,86,norm,36,-4.732,up,norm,120.350915296,128.3,125.9,1.933,114.2,5,,123.0,121.0,10,5,8.361,4.764,1.834,-1.772,-4.746,-8.444,124.6,2,34.4,-8.35,-7.846,10,-8.364,-7.541,-4.626,-4.672,-4.739,-5.252,5.094,8.329,11,-1.921,1.453,4.64,7.727,-7.871,-7.826,-1.599,1.567,128.3,119.0,126.5,116.1,114.2,118.1,119.2,110.4,123.9,119.5,1,norm,1.14,1.157,-1.247,-2.07,-4.54,-4.463,-1.29,-1.907,-1.941,-1.213,2.089,-1.101,130.4,115.5,-4.883,-8.286,129.5,-1.353,7.646,4.976,-4.3,-8.379,15,5.059,5.166,5.211,4.787,1.27,1.504,1.499,1.919,15,4.749,5.0,10,29.3364702652,norm,0,54,54,54,951.996,952.003,952.031019466,952.031,952.035,952.04,up,1,0.807344908015,9.19265509199,001,312,1280_800,Intel(R) Core(TM)2 Duo CPU     P8600  @ 2.40GHz,orientation_search,GRVLAPTOP1,Quadro NVS 160M/PCIe/SSE2,2018_nov_08_1353,testMonitor,
106.6,112.9,118.9,108.7,36,10,88.6,120.6,107.7,118.0,7.782,8.169,8.313,8.47,7.518,8.084,8.469,5.253,-5.08,-8.494,1.607,-1.999,8.022,4.358,-4.697,-8.261,114.9,105.4,-8.025,110.5,89.4,93.7,105.3,110.1,36,104.9,0,5,prime,10,0,104,norm,36,-5.055,up,norm,108.644323186,105.3,106.3,1.415,128.6,5,112.9,117.6,99.1,10,6,8.309,4.515,1.194,-1.969,-4.443,-7.885,96.2,6,212.6,-8.239,-7.741,10,-8.418,-8.204,-4.329,-5.064,-5.146,-4.527,4.735,7.743,5,-2.053,2.034,4.729,7.527,-7.781,-8.307,-1.436,2.072,100.7,121.2,111.0,116.9,95.9,102.0,109.2,103.5,,125.6,0,norm,1.855,1.124,-2.058,-1.24,-4.801,-4.905,-1.533,-1.223,-1.768,-1.537,1.442,-1.196,99.2,100.9,-4.354,-8.11,101.5,-1.964,8.445,4.316,-4.767,-8.398,16,4.565,5.058,4.688,4.587,1.686,1.452,1.214,1.754,16,4.739,4.359,80,29.3364702652,norm,0,55,55,55,952.864,952.87,952.880437261,952.881,952.885,952.89,up,1,0.759842834588,9.24015716541,001,312,1280_800,Intel(R) Core(TM)2 Duo CPU     P8600  @ 2.40GHz,orientation_search,GRVLAPTOP1,Quadro NVS 160M/PCIe/SSE2,2018_nov_08_1353,testMonitor,
92.3,107.3,112.5,106.0,36,10,120.8,103.0,122.5,123.9,8.216,7.972,8.04,8.387,7.969,8.066,7.727,5.117,-4.485,-7.829,1.157,-1.628,8.199,4.482,-4.736,-8.42,108.3,99.1,-8.093,128.6,127.9,118.6,111.8,113.8,36,120.7,3,5,prime,10,0,60,norm,36,-4.996,down,norm,108.644323186,117.0,118.8,1.471,88.6,1,109.8,120.0,95.9,10,6,8.338,4.835,1.297,-2.071,-4.823,-7.913,123.5,6,168.6,-7.814,-8.491,10,-7.949,-8.416,-5.187,-4.9,-5.017,-4.484,4.951,8.357,19,-1.58,1.811,4.805,7.926,-7.743,-7.734,-1.763,1.642,117.0,119.3,118.7,99.9,106.4,108.2,102.0,105.3,110.8,91.8,1,norm,1.772,1.848,-1.177,-1.783,-5.049,-4.635,-1.541,-1.755,-1.174,-1.347,1.327,-2.066,,115.6,-5.099,-7.527,118.3,-1.604,7.932,4.33,-4.845,-7.603,16,4.396,4.583,4.524,4.921,1.439,1.18,2.055,1.81,16,5.097,5.138,80,29.3364702652,norm,0,56,56,56,953.666,953.672,953.68184612,953.682,953.686,953.691,down,1,1.72879385471,8.27120614529,001,312,1280_800,Intel(R) Core(TM)2 Duo CPU     P8600  @ 2.40GHz,orientation_search,GRVLAPTOP1,Quadro NVS 160M/PCIe/SSE2,2018_nov_08_1353,testMonitor,
105.7,119.2,122.3,107.9,36,10,103.4,100.6,110.3,122.7,8.499,8.324,7.833,7.805,8.211,8.431,7.658,5.265,-4.651,-8.397,1.675,-1.934,8.244,4.653,-4.595,-7.685,101.2,96.4,-7.998,119.7,104.7,107.0,,117.3,36,113.2,5,5,prime,10,0,72,norm,36,-4.872,down,norm,108.644323186,117.2,103.2,1.551,108.3,2,93.9,100.7,116.2,10,6,7.962,4.435,1.45,-1.629,-4.776,-7.562,103.7,6,180.6,-7.905,-7.775,10,-8.419,-7.939,-4.384,-4.94,-5.166,-4.592,5.09,8.378,32,-1.511,1.279,4.709,8.467,-8.388,-7.994,-1.291,1.302,128.6,107.8,113.8,108.7,88.6,93.2,94.6,103.5,125.7,122.4,2,norm,2.05,1.915,-1.274,-1.594,-5.21,-4.737,-1.949,-1.399,-1.582,-2.005,1.145,-1.397,113.6,109.0,-4.775,-8.45,112.8,-1.883,7.733,4.627,-5.226,-8.426,16,4.387,5.037,5.286,4.749,1.289,1.628,1.55,2.007,16,5.123,4.527,80,29.3364702652,norm,0,57,57,57,955.436,955.442,955.451909583,955.452,955.456,955.461,down,1,1.37790872994,8.62209127006,001,312,1280_800,Intel(R) Core(TM)2 Duo CPU     P8600  @ 2.40GHz,orientation_search,GRVLAPTOP1,Quadro NVS 160M/PCIe/SSE2,2018_nov_08_1353,testMonitor,
93.9,123.8,90.8,128.6,36,10,94.9,115.6,103.9,126.0,7.609,8.108,7.672,8.122,7.766,8.255,7.524,5.179,-4.446,-7.808,1.759,-1.749,7.931,4.874,-4.499,-7.543,93.9,109.6,-8.327,103.1,88.6,105.3,120.1,102.3,36,116.8,1,5,prime,10,0,107,norm,36,-4.344,down,norm,108.644323186,93.0,105.9,1.542,105.1,2,120.7,102.6,94.3,10,6,8.112,5.234,1.24,-1.841,-4.479,-8.038,106.8,6,215.6,-7.511,-7.514,10,-8.324,-7.534,-4.799,-4.686,-5.039,-4.974,4.844,8.165,8,-1.19,1.276,4.951,8.108,-7.682,-8.315,-1.419,1.769,108.1,,117.6,89.7,112.5,95.9,105.5,111.9,91.5,106.9,3,norm,1.181,1.443,-1.769,-1.201,-4.624,-4.361,-1.531,-1.787,-2.031,-1.425,1.521,-1.878,112.4,122.2,-5.029,-8.459,95.5,-1.447,8.222,4.432,-4.957,-8.338,16,4.943,5.253,5.171,4.611,1.526,1.431,2.011,1.26,16,5.125,4.544,80,29.3364702652,norm,0,58,58,58,956.856,956.862,956.871457908,956.872,956.875,956.88,up,0,0.910585867176,-10,001,312,1280_800,Intel(R) Core(TM)2 Duo CPU     P8600  @ 2.40GHz,orientation_search,GRVLAPTOP1,Quadro NVS 160M/PCIe/SSE2,2018_nov_08_1353,testMonitor,
112.7,105.2,112.7,111.1,36,10,93.1,106.0,128.0,125.8,8.266,7.841,8.439,7.57,8.327,7.842,8.314,4.898,-5.263,-7.861,1.979,-1.378,7.617,5.131,-5.022,-8.399,106.5,128.6,-7.786,123.2,106.8,106.2,115.6,,36,120.2,4,5,prime,10,0,88,norm,36,-4.668,down,norm,108.644323186,115.8,96.1,1.918,108.5,2,115.2,109.2,88.6,10,6,8.157,4.303,1.113,-1.961,-4.434,-7.591,114.5,6,196.6,-8.256,-8.288,10,-8.174,-8.196,-4.496,-4.993,-4.447,-4.443,5.055,7.838,26,-1.358,1.674,4.776,8.475,-8.12,-7.711,-2.036,2.031,106.9,111.3,99.0,102.5,105.7,106.5,123.2,107.6,111.2,115.5,4,norm,1.425,1.187,-1.555,-2.061,-5.046,-4.615,-1.16,-1.587,-1.803,-1.248,1.236,-1.815,121.8,110.0,-5.013,-8.076,119.5,-1.302,7.621,4.673,-4.957,-7.675,16,4.569,4.428,5.093,4.417,1.288,1.243,1.111,2.068,16,4.333,4.867,80,29.3364702652,norm,0,59,59,59,958.843,958.849,958.858652075,958.859,958.863,958.868,down,1,0.760167054548,9.23983294545,001,312,1280_800,Intel(R) Core(TM)2 Duo CPU     P8600  @ 2.40GHz,orientation_search,GRVLAPTOP1,Quadro NVS 160M/PCIe/SSE2,2018_nov_08_1353,testMonitor,
94.2,103.4,113.0,123.1,36,10,118.1,108.4,109.5,119.4,8.327,7.812,8.485,7.648,8.288,7.888,7.534,4.856,-4.53,-7.84,1.654,-1.826,7.954,5.154,-4.46,-7.504,115.7,114.5,-7.723,112.5,93.2,95.4,122.1,94.6,36,114.0,3,5,prime,10,0,102,norm,36,-5.193,down,norm,108.644323186,103.2,109.7,1.377,98.9,0,95.9,88.6,112.9,10,6,7.513,4.713,1.859,-1.715,-4.332,-8.424,109.9,6,210.6,-8.328,-7.633,10,-8.146,-8.399,-4.609,-4.995,-4.745,-5.109,4.485,8.239,18,-2.097,1.93,5.216,8.177,-7.827,-7.568,-1.96,1.611,114.6,111.1,110.7,128.6,117.4,107.1,122.6,111.0,121.6,90.0,5,norm,1.519,2.0,-1.319,-1.507,-5.161,-4.809,-1.286,-1.794,-1.891,-1.416,1.556,-2.064,106.0,,-4.496,-8.346,98.0,-1.763,7.652,4.488,-4.355,-8.308,16,4.432,4.672,4.967,4.333,1.121,1.342,1.582,2.035,16,5.274,4.649,80,29.3364702652,norm,0,60,60,60,959.645,959.651,959.660278222,959.661,959.664,959.669,down,1,1.2776550428,8.7223449572,001,312,1280_800,Intel(R) Core(TM)2 Duo CPU     P8600  @ 2.40GHz,orientation_search,GRVLAPTOP1,Quadro NVS 160M/PCIe/SSE2,2018_nov_08_1353,testMonitor,
233.8,227.9,226.2,231.1,36,-10,222.2,226.4,229.2,231.9,7.975,8.461,7.593,8.393,8.001,7.937,7.852,4.842,-4.89,-7.876,2.023,-1.453,7.579,4.336,-5.228,-7.981,240.8,227.1,-7.574,227.6,235.9,232.1,230.0,230.4,36,238.9,2,5,probe,5,0,117,norm,36,-4.882,down,norm,230.832901156,238.7,230.2,2.061,,2,233.3,224.9,226.4,10,6,7.592,4.838,1.508,-1.2,-4.595,-7.861,224.6,1,113.8,-7.982,-8.198,10,-7.877,-7.916,-5.299,-4.524,-5.066,-5.23,5.011,8.134,14,-1.793,1.962,5.174,8.371,-7.525,-7.996,-1.557,1.632,237.5,232.3,235.7,227.1,234.7,227.4,233.2,227.0,220.8,231.8,0,norm,1.634,1.48,-2.053,-1.689,-4.917,-4.363,-1.46,-1.761,-1.984,-1.306,1.701,-2.088,227.3,228.9,-5.142,-8.253,238.3,-1.271,7.918,4.966,-4.489,-8.115,17,4.391,4.683,4.35,5.23,1.479,1.504,1.99,1.563,17,4.723,4.493,10,108.644323186,norm,0,61,61,61,960.964,960.97,960.979473198,960.98,960.984,960.989,down,1,1.92870625543,8.07129374457,001,312,1280_800,Intel(R) Core(TM)2 Duo CPU     P8600  @ 2.40GHz,orientation_search,GRVLAPTOP1,Quadro NVS 160M/PCIe/SSE2,2018_nov_08_1353,testMonitor,
316.5,324.7,320.2,304.9,36,-20,,310.3,334.1,307.6,8.09,7.508,8.122,7.624,8.469,7.521,7.915,5.226,-5.204,-8.025,1.226,-2.036,8.145,4.451,-4.571,-7.706,298.0,316.7,-8.102,329.8,328.6,325.7,320.4,321.3,36,297.8,4,5,prime,10,0,115,norm,36,-5.257,down,norm,314.060359427,312.4,315.0,1.857,319.4,0,330.6,317.4,320.8,10,6,8.335,5.035,1.34,-1.275,-4.389,-8.187,294.1,6,429.1,-8.12,-8.116,-20,-8.255,-7.598,-4.567,-4.69,-4.622,-5.229,4.632,8.237,24,-1.632,1.827,5.218,7.893,-7.841,-8.306,-1.584,1.525,320.7,316.7,303.0,308.2,323.2,306.8,324.9,314.5,308.3,306.5,0,norm,1.666,1.764,-2.097,-2.044,-4.376,-4.564,-1.818,-1.572,-1.222,-1.572,1.978,-1.213,321.9,304.1,-4.922,-8.318,298.7,-1.134,8.44,4.404,-4.929,-7.762,18,5.175,4.446,4.739,4.88,2.082,1.755,1.93,1.745,18,4.715,4.537,-10,108.644323186,norm,0,62,62,62,962.934,981.059,981.06888562,981.069,981.073,981.078,down,1,0.993392842094,9.00660715791,001,312,1280_800,Intel(R) Core(TM)2 Duo CPU     P8600  @ 2.40GHz,orientation_search,GRVLAPTOP1,Quadro NVS 160M/PCIe/SSE2,2018_nov_08_1353,testMonitor,
309.1,310.2,301.3,306.6,36,-20,306.8,305.3,297.0,322.2,8.318,7.656,8.343,7.89,7.548,8.231,7.683,4.837,-4.699,-7.797,1.603,-1.302,7.996,5.214,-4.514,-7.869,,322.9,-8.231,320.8,325.7,326.5,313.0,309.5,36,294.1,5,5,prime,10,0,118,norm,36,-4.431,up,norm,314.060359427,314.6,313.6,1.221,323.1,5,317.4,298.4,296.3,10,6,7.826,4.629,1.837,-1.921,-4.636,-7.771,334.1,6,432.1,-7.887,-7.639,-20,-7.85,-8.441,-4.332,-4.908,-5.155,-4.974,5.064,7.548,35,-1.711,1.527,4.629,7.526,-8.467,-8.119,-1.483,2.041,313.3,302.2,329.6,317.5,317.3,320.8,322.5,301.5,321.8,319.2,1,norm,1.246,1.161,-1.627,-1.489,-4.624,-4.487,-1.338,-1.773,-1.305,-1.39,1.977,-1.83,318.0,320.0,-4.319,-8.042,327.7,-1.964,8.31,4.972,-5.241,-8.044,18,4.769,5.14,5.296,4.396,1.966,1.632,1.775,1.813,18,4.918,4.505,-10,108.644323186,norm,0,63,63,63,982.088,982.094,982.104263664,982.105,982.108,982.113,up,1,0.860414325733,9.13958567427,001,312,1280_800,Intel(R) Core(TM)2 Duo CPU     P8600  @ 2.40GHz,orientation_search,GRVLAPTOP1,Quadro NVS 160M/PCIe/SSE2,2018_nov_08_1353,testMonitor,
329.0,324.4,304.5,317.5,36,-20,304.9,303.3,318.0,,8.028,7.9,8.494,8.185,8.211,8.328,8.202,4.804,-4.81,-7.803,1.632,-1.591,8.199,5.03,-4.74,-8.237,313.0,301.9,-8.067,304.7,300.6,318.4,304.8,310.7,36,325.1,4,5,prime,10,0,105,norm,36,-5.129,up,norm,314.060359427,306.0,325.3,2.055,308.8,5,324.5,326.5,319.1,10,6,8.38,4.419,1.701,-1.489,-4.448,-7.839,297.5,6,419.1,-8.096,-7.725,-20,-7.967,-8.451,-4.935,-4.832,-4.409,-4.354,4.811,8.406,29,-1.593,1.45,5.004,7.523,-7.644,-7.565,-1.317,1.772,319.6,318.9,303.6,310.8,318.5,319.6,303.2,314.7,312.4,334.1,2,norm,1.201,1.218,-1.864,-1.132,-4.866,-5.204,-1.674,-1.476,-1.213,-1.843,1.242,-1.252,294.1,315.2,-4.655,-8.339,327.9,-1.447,7.848,4.751,-4.948,-8.135,18,4.996,4.516,4.605,4.577,2.021,1.508,1.452,1.907,18,4.785,4.913,-10,108.644323186,norm,0,64,64,64,982.99,982.997,983.006034854,983.006,983.01,983.016,up,1,0.792525318455,9.20747468155,001,312,1280_800,Intel(R) Core(TM)2 Duo CPU     P8600  @ 2.40GHz,orientation_search,GRVLAPTOP1,Quadro NVS 160M/PCIe/SSE2,2018_nov_08_1353,testMonitor,
327.4,295.9,307.9,315.7,36,-20,312.8,294.1,320.4,309.4,8.322,7.82,8.155,7.609,7.515,7.836,8.255,4.843,-4.559,-8.128,1.307,-1.848,7.631,4.571,-5.213,-8.261,307.6,308.2,-7.558,317.3,315.9,303.7,315.4,314.4,36,,4,5,prime,10,0,61,norm,36,-4.818,up,norm,314.060359427,318.4,317.3,1.572,308.6,3,320.3,308.7,304.8,10,6,7.595,5.131,1.239,-1.597,-5.055,-7.694,301.1,6,375.1,-8.295,-8.297,-20,-7.976,-8.058,-4.637,-4.998,-5.22,-5.022,5.027,8.227,27,-1.949,1.817,4.51,8.021,-7.627,-7.855,-2.047,1.675,334.1,303.4,304.0,312.2,304.5,323.0,300.3,324.6,298.1,317.5,3,norm,1.938,1.481,-1.939,-1.922,-4.533,-5.101,-1.745,-1.24,-1.688,-1.774,1.591,-1.78,323.9,303.5,-4.884,-7.548,329.4,-2.099,8.436,4.771,-4.773,-7.792,18,4.667,5.098,4.361,4.664,1.53,1.723,1.408,1.409,18,4.633,4.358,-10,108.644323186,norm,0,65,65,65,983.825,983.831,983.841009034,983.841,983.845,983.85,up,1,0.910451131967,9.08954886803,001,312,1280_800,Intel(R) Core(TM)2 Duo CPU     P8600  @ 2.40GHz,orientation_search,GRVLAPTOP1,Quadro NVS 160M/PCIe/SSE2,2018_nov_08_1353,testMonitor,
314.6,299.5,307.5,312.2,36,-20,326.4,321.7,319.8,298.9,8.306,7.985,7.971,7.872,7.573,8.461,7.541,4.342,-4.423,-7.608,1.895,-2.054,7.936,4.518,-4.562,-7.802,333.8,321.4,-7.951,294.1,316.3,308.4,332.6,305.3,36,298.7,2,5,prime,10,0,95,norm,36,-4.438,down,norm,314.060359427,320.3,302.4,1.191,327.3,0,320.5,313.2,,10,6,8.042,4.412,1.247,-1.669,-4.406,-8.353,308.7,6,409.1,-8.014,-7.719,-20,-7.879,-7.968,-5.026,-5.103,-4.499,-4.643,4.901,7.763,12,-2.03,1.705,4.777,7.631,-8.205,-8.395,-1.761,1.632,316.5,310.7,319.5,320.1,313.5,316.5,319.9,306.2,311.1,329.6,4,norm,1.284,1.766,-1.915,-1.844,-4.671,-4.417,-1.126,-1.488,-1.195,-1.754,1.381,-1.272,317.8,310.6,-4.603,-8.468,334.1,-1.558,8.211,5.122,-5.113,-7.539,18,5.243,4.727,4.717,5.142,1.322,1.68,1.311,1.343,18,5.202,4.454,-10,108.644323186,norm,0,66,66,66,984.777,984.783,984.792754154,984.793,984.797,984.802,down,1,0.726824154302,9.2731758457,001,312,1280_800,Intel(R) Core(TM)2 Duo CPU     P8600  @ 2.40GHz,orientation_search,GRVLAPTOP1,Quadro NVS 160M/PCIe/SSE2,2018_nov_08_1353,testMonitor,
314.2,322.1,314.9,311.7,36,-20,309.4,334.1,302.6,309.4,8.233,7.744,7.529,8.407,8.293,7.805,8.03,4.578,-5.225,-7.974,1.315,-1.852,7.516,5.059,-5.154,-8.06,309.5,,-8.467,304.2,320.8,298.2,318.1,309.8,36,315.5,5,5,prime,10,0,86,norm,36,-4.493,up,norm,314.060359427,329.1,323.8,1.294,319.7,4,316.3,303.5,314.8,10,6,8.23,4.554,1.785,-1.177,-4.528,-8.295,310.2,6,400.1,-7.921,-7.842,-20,-8.38,-8.141,-4.831,-5.262,-5.178,-5.157,4.578,7.798,34,-1.959,1.468,4.554,8.453,-8.228,-7.996,-1.113,1.716,315.7,296.0,316.3,317.1,320.6,299.5,320.0,294.1,312.1,313.9,5,norm,1.944,1.348,-1.483,-1.336,-4.629,-4.758,-1.551,-1.551,-1.108,-1.524,1.891,-2.01,308.2,311.7,-4.551,-7.804,302.6,-1.63,7.856,4.917,-4.856,-8.212,18,5.095,5.094,4.64,4.955,1.203,1.804,1.7,1.528,18,4.46,4.582,-10,108.644323186,norm,0,67,67,67,985.545,985.554,985.560918064,985.561,985.565,985.57,up,1,0.84387311964,9.15612688036,001,312,1280_800,Intel(R) Core(TM)2 Duo CPU     P8600  @ 2.40GHz,orientation_search,GRVLAPTOP1,Quadro NVS 160M/PCIe/SSE2,2018_nov_08_1353,testMonitor,
411.4,417.9,422.6,409.8,36,20,403.0,419.6,413.0,410.5,8.346,7.639,8.069,8.127,8.056,7.789,8.448,4.559,-4.45,-8.068,1.915,-1.844,7.561,4.863,-4.543,-8.392,417.0,405.8,-7.858,411.3,413.2,407.2,414.9,402.6,36,412.2,2,5,probe,5,0,116,norm,36,-5.163,up,norm,412.64477236,,415.6,1.855,404.4,5,408.7,413.3,415.5,10,6,8.383,4.627,1.807,-1.235,-5.0,-7.902,415.0,1,296.6,-7.716,-7.889,-20,-8.245,-7.769,-4.47,-4.901,-4.767,-4.921,4.827,7.72,17,-1.834,1.614,5.294,8.318,-8.147,-8.292,-2.024,1.986,417.9,408.0,407.0,406.5,418.2,415.3,410.7,410.9,415.0,409.1,0,norm,1.331,1.719,-1.498,-2.002,-4.836,-4.879,-2.032,-1.674,-1.816,-1.613,1.755,-1.298,416.4,405.3,-4.735,-8.486,414.9,-1.529,7.872,4.679,-4.597,-8.395,19,5.241,4.622,5.125,4.958,1.569,1.433,1.348,1.187,19,4.788,5.079,-20,314.060359427,norm,0,68,68,68,986.43,986.436,986.44612709,986.446,986.45,986.455,up,1,0.893859453645,9.10614054636,001,312,1280_800,Intel(R) Core(TM)2 Duo CPU     P8600  @ 2.40GHz,orientation_search,GRVLAPTOP1,Quadro NVS 160M/PCIe/SSE2,2018_nov_08_1353,testMonitor,
,28.8,30.0,40.4,36,-80,21.3,50.8,56.6,41.4,7.7,8.483,7.62,7.982,8.281,8.493,8.186,4.36,-4.962,-7.963,2.075,-1.765,7.998,5.021,-5.251,-7.7,41.1,31.2,-7.858,24.6,31.9,39.2,37.5,35.3,36,37.8,3,5,prime,10,0,72,norm,36,-4.372,up,norm,37.0945286455,43.9,33.6,1.729,26.6,4,34.4,42.8,26.0,10,5,8.398,4.499,1.223,-1.972,-4.303,-7.539,45.6,5,109.1,-7.513,-8.142,-80,-8.466,-8.125,-4.819,-4.904,-4.603,-4.794,5.211,7.903,22,-1.191,1.74,4.657,8.493,-8.021,-8.492,-1.44,1.173,44.2,39.9,42.8,32.6,29.1,17.1,45.4,19.5,37.8,57.1,0,norm,2.057,1.112,-1.785,-1.638,-4.422,-5.214,-1.808,-1.903,-1.989,-1.991,1.157,-1.687,48.0,25.5,-4.738,-8.096,27.7,-1.655,8.017,5.218,-4.81,-8.217,20,5.21,5.151,4.58,4.993,1.674,1.335,1.76,1.478,20,4.709,5.072,20,314.060359427,norm,0,69,69,69,987.365,987.371,987.381252729,987.382,987.386,987.391,up,1,0.959951991492,9.04004800851,001,312,1280_800,Intel(R) Core(TM)2 Duo CPU     P8600  @ 2.40GHz,orientation_search,GRVLAPTOP1,Quadro NVS 160M/PCIe/SSE2,2018_nov_08_1353,testMonitor,
42.8,38.0,27.0,57.1,36,-80,34.8,32.9,52.5,41.0,7.905,8.064,7.66,8.16,7.833,7.775,7.725,4.567,-4.88,-8.116,1.702,-1.204,7.563,4.567,-4.661,-7.741,24.9,28.8,-8.23,43.0,50.5,46.9,29.8,27.3,36,34.1,2,5,prime,10,0,119,norm,36,-4.55,up,norm,37.0945286455,,37.0,1.538,25.9,5,17.1,31.2,33.8,10,5,7.529,4.855,1.439,-1.858,-4.516,-8.119,23.4,5,156.1,-7.992,-8.142,-80,-8.421,-7.534,-4.878,-5.28,-4.561,-4.878,5.131,8.472,17,-1.364,1.758,4.794,8.139,-7.7,-7.656,-2.088,1.219,41.2,50.6,30.0,50.9,21.2,44.4,37.5,46.2,35.5,25.7,1,norm,1.26,1.183,-1.144,-1.856,-4.492,-4.692,-1.489,-1.752,-1.568,-1.539,1.707,-2.078,21.8,42.3,-5.103,-7.677,40.5,-1.255,7.978,4.999,-4.6,-7.722,20,4.654,4.758,5.061,4.655,2.006,1.494,1.81,1.275,20,5.023,5.087,20,314.060359427,norm,0,70,70,70,988.368,988.374,988.383187784,988.383,988.387,988.393,up,1,0.642564605532,9.35743539447,001,312,1280_800,Intel(R) Core(TM)2 Duo CPU     P8600  @ 2.40GHz,orientation_search,GRVLAPTOP1,Quadro NVS 160M/PCIe/SSE2,2018_nov_08_1353,testMonitor,
40.0,39.6,30.0,49.5,36,-80,56.3,33.1,22.6,27.6,8.247,7.643,8.007,7.609,7.808,8.334,8.004,5.205,-5.012,-8.164,1.724,-1.846,8.215,5.197,-4.818,-7.841,40.5,39.0,-8.005,26.2,30.8,31.5,50.6,17.1,36,,4,5,prime,10,0,72,norm,36,-4.43,up,norm,37.0945286455,41.0,35.0,1.984,31.2,3,36.7,36.1,40.2,10,5,8.339,4.98,1.25,-1.689,-4.734,-7.918,39.4,5,109.1,-7.991,-8.062,-80,-8.226,-8.484,-4.648,-4.66,-5.169,-4.417,4.796,7.582,27,-2.048,1.716,4.521,8.186,-7.894,-7.935,-2.008,1.354,32.9,45.3,23.0,21.5,49.3,36.9,40.9,57.1,31.3,29.9,2,norm,2.059,1.305,-1.184,-2.076,-4.545,-5.255,-2.017,-1.816,-1.146,-1.964,1.449,-1.28,52.9,37.7,-5.053,-8.295,37.8,-1.967,7.872,4.469,-4.39,-7.745,20,4.486,4.924,4.777,5.17,1.307,1.884,1.128,1.167,20,4.827,4.711,20,314.060359427,norm,0,71,71,71,989.052,989.058,989.067799612,989.068,989.072,989.077,up,1,0.893897093953,9.10610290605,001,312,1280_800,Intel(R) Core(TM)2 Duo CPU     P8600  @ 2.40GHz,orientation_search,GRVLAPTOP1,Quadro NVS 160M/PCIe/SSE2,2018_nov_08_1353,testMonitor,
32.6,56.2,24.3,19.6,36,-80,29.0,33.1,28.9,42.2,8.451,8.199,8.339,7.543,8.41,8.05,7.667,4.439,-5.049,-7.534,1.753,-2.029,8.184,4.972,-4.766,-8.165,34.5,38.5,-7.572,39.4,57.1,36.9,40.2,26.2,36,36.8,2,5,prime,10,0,111,norm,36,-4.505,up,norm,37.0945286455,,52.4,1.288,38.4,5,41.8,51.0,38.0,10,5,8.16,4.536,1.845,-1.695,-4.368,-8.38,29.9,5,148.1,-8.083,-8.206,-80,-7.589,-7.662,-4.797,-5.248,-4.955,-4.813,4.828,8.072,17,-1.609,1.64,4.534,7.712,-7.729,-8.24,-2.058,1.541,38.6,39.1,17.1,35.2,41.6,41.1,38.6,47.6,38.4,26.6,3,norm,1.52,1.91,-1.305,-1.248,-5.23,-4.704,-1.163,-1.146,-1.256,-1.142,1.267,-1.962,34.6,49.9,-4.775,-7.647,31.0,-1.443,7.917,4.631,-4.631,-7.859,20,4.531,5.056,4.945,4.412,1.123,2.05,1.308,1.2,20,5.086,4.931,20,314.060359427,norm,0,72,72,72,989.987,989.993,990.003281979,990.004,990.008,990.013,up,1,0.692795601557,9.30720439844,001,312,1280_800,Intel(R) Core(TM)2 Duo CPU     P8600  @ 2.40GHz,orientation_search,GRVLAPTOP1,Quadro NVS 160M/PCIe/SSE2,2018_nov_08_1353,testMonitor,
45.9,49.6,48.4,41.2,36,-80,24.1,30.6,23.3,41.0,7.956,7.644,7.986,7.625,8.471,7.671,8.389,4.533,-4.585,-8.396,1.16,-1.153,8.062,4.407,-4.609,-7.911,29.3,25.6,-8.312,25.9,22.4,39.3,37.9,42.3,36,37.6,1,5,prime,10,0,111,norm,36,-4.717,up,norm,37.0945286455,36.9,57.1,1.329,50.7,4,41.0,17.1,24.7,10,5,8.186,5.204,1.791,-1.817,-5.059,-7.655,,5,148.1,-7.706,-8.05,-80,-7.906,-8.196,-4.512,-4.595,-5.263,-4.991,5.017,7.515,10,-1.965,1.691,5.199,8.107,-7.618,-7.503,-1.606,1.739,53.1,45.3,26.9,43.4,25.0,34.4,32.6,25.7,28.9,55.6,4,norm,1.694,1.93,-1.687,-1.291,-4.352,-4.429,-1.907,-1.47,-1.606,-1.993,1.632,-1.308,29.5,32.5,-5.184,-7.85,37.8,-2.082,7.686,4.65,-4.808,-8.187,20,5.218,5.078,5.244,4.462,1.32,1.938,1.733,1.458,20,5.288,4.755,20,314.060359427,norm,0,73,73,73,990.722,990.728,990.737830524,990.738,990.742,990.747,up,1,0.726781381221,9.27321861878,001,312,1280_800,Intel(R) Core(TM)2 Duo CPU     P8600  @ 2.40GHz,orientation_search,GRVLAPTOP1,Quadro NVS 160M/PCIe/SSE2,2018_nov_08_1353,testMonitor,
56.5,51.3,54.9,45.4,36,-40,54.2,48.8,54.5,54.6,8.457,7.525,7.905,7.93,8.02,8.374,7.919,4.353,-4.412,-8.132,1.712,-1.36,8.245,5.164,-4.767,-8.341,,51.3,-7.559,54.3,57.9,47.6,54.2,48.8,36,60.7,5,5,probe,5,0,96,norm,36,-4.892,up,norm,55.3644473418,57.2,55.8,1.733,62.9,5,53.1,53.8,48.9,10,5,7.607,4.435,1.623,-1.788,-5.254,-7.759,65.4,1,-40.6,-7.881,-7.967,-80,-8.114,-7.75,-5.24,-4.681,-5.147,-4.877,4.713,7.601,35,-1.747,1.952,5.296,8.126,-7.65,-8.405,-1.396,2.047,53.3,58.0,62.0,51.6,56.5,56.2,50.6,55.3,49.8,51.2,0,norm,1.19,1.439,-1.661,-1.994,-4.826,-4.888,-1.95,-1.334,-1.557,-1.633,1.358,-1.508,55.9,55.0,-4.83,-8.414,48.0,-1.966,7.681,4.688,-4.301,-8.296,21,4.873,4.707,4.962,4.802,1.935,2.1,1.907,1.159,21,4.749,4.437,-80,37.0945286455,norm,0,74,74,74,991.49,991.496,991.50600641,991.506,991.51,991.515,up,1,0.60982694439,9.39017305561,001,312,1280_800,Intel(R) Core(TM)2 Duo CPU     P8600  @ 2.40GHz,orientation_search,GRVLAPTOP1,Quadro NVS 160M/PCIe/SSE2,2018_nov_08_1353,testMonitor,
169.6,161.3,179.3,161.1,36,-10,191.5,170.1,175.6,168.2,8.117,8.027,7.724,7.887,7.736,7.892,8.372,4.949,-4.617,-7.542,1.308,-1.902,8.062,4.92,-5.009,-7.627,169.5,159.5,-8.008,174.0,173.7,178.7,182.5,181.3,36,164.8,1,5,prime,10,0,81,norm,36,-5.186,up,norm,171.454374273,168.2,180.0,1.957,164.8,4,179.7,167.0,151.5,10,5,7.534,4.305,1.906,-1.72,-4.473,-8.443,,5,252.5,-8.241,-7.575,-10,-8.425,-8.285,-5.053,-4.512,-4.69,-4.848,5.239,8.048,10,-1.638,1.934,4.622,8.24,-7.93,-7.543,-2.061,1.434,168.3,175.1,171.8,161.1,179.2,173.6,176.0,180.2,182.0,171.7,0,norm,1.326,1.531,-1.261,-1.645,-4.802,-5.166,-1.676,-1.836,-1.306,-2.017,1.779,-1.145,178.4,165.0,-5.166,-7.952,178.6,-1.223,8.329,5.153,-4.874,-8.228,22,4.957,4.317,5.124,4.474,1.293,1.947,2.005,1.857,22,5.068,4.788,-40,37.0945286455,norm,0,75,75,75,992.142,992.148,992.157294158,992.158,992.161,992.167,up,1,0.809785540048,9.19021445995,001,312,1280_800,Intel(R) Core(TM)2 Duo CPU     P8600  @ 2.40GHz,orientation_search,GRVLAPTOP1,Quadro NVS 160M/PCIe/SSE2,2018_nov_08_1353,testMonitor,
163.2,170.5,157.5,170.3,36,-10,175.1,168.0,151.5,162.5,7.82,7.542,8.237,7.716,8.218,7.685,8.168,4.932,-4.393,-8.219,1.386,-1.209,7.745,5.208,-4.544,-7.935,162.2,170.9,-8.213,179.7,171.2,164.1,181.0,187.2,36,175.2,1,5,prime,10,0,117,norm,36,-5.028,up,norm,171.454374273,170.2,156.9,1.408,174.2,4,191.5,171.4,170.3,10,5,8.214,5.106,1.487,-1.932,-4.93,-7.51,,5,288.5,-8.226,-8.437,-10,-8.135,-8.375,-4.751,-4.457,-5.15,-4.832,4.543,8.019,10,-1.669,1.932,4.895,7.989,-7.853,-8.403,-1.961,1.85,154.2,173.8,164.4,160.5,161.4,178.9,178.0,168.7,180.2,169.7,1,norm,1.783,2.075,-1.295,-1.731,-4.35,-5.057,-1.647,-1.883,-1.879,-1.266,1.898,-2.073,181.4,178.0,-4.91,-7.609,180.0,-1.325,8.05,4.449,-4.554,-8.308,22,5.042,5.298,5.154,4.59,2.086,1.76,1.821,1.95,22,5.236,4.6,-40,37.0945286455,norm,0,76,76,76,992.993,992.999,993.008954117,993.009,993.013,993.018,up,1,0.609533093317,9.39046690668,001,312,1280_800,Intel(R) Core(TM)2 Duo CPU     P8600  @ 2.40GHz,orientation_search,GRVLAPTOP1,Quadro NVS 160M/PCIe/SSE2,2018_nov_08_1353,testMonitor,
170.2,179.6,171.6,167.4,36,-10,168.6,154.9,172.7,151.5,7.981,8.017,8.196,7.953,7.596,7.626,7.953,4.885,-5.259,-8.27,1.608,-1.921,8.254,5.164,-4.919,-8.025,182.3,171.0,-7.639,180.9,161.4,191.5,173.3,171.9,36,172.3,1,5,prime,10,0,86,norm,36,-4.554,up,norm,171.454374273,162.1,176.2,1.818,155.4,4,170.5,189.1,183.1,10,5,7.559,4.445,2.017,-1.367,-4.616,-8.215,,5,257.5,-8.061,-7.795,-10,-8.317,-8.456,-4.527,-4.876,-5.281,-5.166,4.776,8.348,10,-1.121,1.733,4.433,8.427,-7.88,-7.585,-2.035,2.038,167.9,173.4,188.2,169.9,169.5,176.6,163.6,175.6,187.3,171.6,2,norm,1.312,1.144,-1.85,-2.043,-5.122,-4.779,-1.98,-1.297,-1.609,-1.918,1.224,-1.25,174.5,175.2,-4.919,-7.895,172.9,-1.198,7.518,4.607,-5.018,-8.042,22,4.65,4.93,4.609,4.558,2.033,1.581,1.219,1.655,22,4.961,5.263,-40,37.0945286455,norm,0,77,77,77,993.644,993.65,993.660218767,993.66,993.664,993.669,up,1,0.542963635609,9.45703636439,001,312,1280_800,Intel(R) Core(TM)2 Duo CPU     P8600  @ 2.40GHz,orientation_search,GRVLAPTOP1,Quadro NVS 160M/PCIe/SSE2,2018_nov_08_1353,testMonitor,
164.0,179.4,191.5,177.5,36,-10,174.1,175.4,183.7,166.2,8.186,8.061,7.685,7.643,8.234,7.912,8.384,5.015,-5.136,-7.564,1.515,-1.775,8.224,4.346,-5.258,-8.122,157.1,160.6,-7.608,187.2,171.6,186.0,161.8,157.8,36,189.7,0,5,prime,10,0,103,norm,36,-4.953,down,norm,171.454374273,185.6,172.6,1.151,151.5,2,182.8,180.9,178.5,10,5,8.091,4.69,1.903,-1.458,-4.532,-7.655,173.7,5,274.5,-8.339,-7.571,-10,-7.803,-7.891,-4.84,-4.632,-4.401,-4.527,4.5,8.109,2,-1.481,1.186,4.76,8.262,-8.401,-7.858,-1.308,1.13,161.7,171.6,170.7,,170.6,167.9,162.9,180.1,187.9,182.9,3,norm,1.995,1.395,-1.782,-1.327,-4.409,-5.156,-1.868,-1.955,-1.301,-1.906,1.268,-1.993,171.0,165.3,-4.928,-8.07,177.1,-1.37,7.703,5.128,-4.341,-7.901,22,4.884,4.454,4.795,4.682,2.005,1.445,1.338,1.262,22,4.858,4.994,-40,37.0945286455,norm,0,78,78,78,994.229,994.235,994.244738162,994.245,994.249,994.254,down,1,1.54516174427,8.45483825573,001,312,1280_800,Intel(R) Core(TM)2 Duo CPU     P8600  @ 2.40GHz,orientation_search,GRVLAPTOP1,Quadro NVS 160M/PCIe/SSE2,2018_nov_08_1353,testMonitor,
161.1,181.7,160.5,188.6,36,-10,151.5,179.4,190.9,161.0,7.629,8.243,7.738,7.952,8.106,7.869,8.275,5.167,-4.648,-8.005,1.307,-1.579,7.803,4.733,-4.467,-8.364,180.3,158.0,-8.437,191.5,179.1,185.5,179.5,166.0,36,168.6,1,5,prime,10,0,106,norm,36,-4.407,up,norm,171.454374273,160.7,187.2,1.163,171.5,3,179.1,169.4,166.5,10,5,7.985,5.146,1.409,-1.977,-4.7,-8.157,154.1,5,277.5,-7.524,-8.454,-10,-8.067,-7.795,-4.973,-5.278,-5.09,-4.369,4.667,7.807,9,-1.23,1.363,4.84,7.549,-8.289,-8.243,-1.852,1.539,,182.4,176.8,168.5,180.9,153.8,165.3,176.3,161.2,189.8,4,norm,1.939,1.943,-1.623,-1.819,-5.274,-4.462,-1.376,-1.51,-1.278,-1.673,1.155,-1.649,180.0,191.2,-4.957,-7.847,173.0,-1.437,8.438,4.848,-4.581,-8.122,22,4.663,4.819,5.195,5.011,1.331,1.169,1.759,1.2,22,4.461,4.52,-40,37.0945286455,norm,0,79,79,79,995.815,995.821,995.831197745,995.831,995.835,995.84,down,0,1.39465096952,-10,001,312,1280_800,Intel(R) Core(TM)2 Duo CPU     P8600  @ 2.40GHz,orientation_search,GRVLAPTOP1,Quadro NVS 160M/PCIe/SSE2,2018_nov_08_1353,testMonitor,
233.5,225.3,234.9,228.0,36,80,233.7,228.3,231.0,227.4,8.001,8.138,8.096,8.408,8.079,8.469,8.033,4.351,-4.326,-8.194,2.09,-1.37,8.177,4.365,-5.075,-7.775,230.9,233.9,-7.968,222.6,224.6,222.8,226.4,236.9,36,,4,5,probe,5,0,69,norm,36,-5.283,up,norm,229.546622239,236.7,224.0,2.095,230.9,3,223.5,227.3,233.7,10,5,8.492,4.676,1.806,-1.47,-4.382,-7.755,227.6,1,160.5,-8.327,-8.181,-10,-8.459,-8.203,-4.671,-5.08,-4.317,-4.765,4.38,7.746,27,-1.489,1.499,4.511,8.13,-7.668,-7.721,-1.725,1.977,237.9,235.5,219.5,224.6,232.4,239.5,227.9,232.1,222.3,226.6,0,norm,1.982,1.304,-1.653,-1.528,-5.126,-5.126,-1.988,-1.625,-1.828,-1.298,1.21,-1.683,232.2,236.1,-4.713,-7.909,228.7,-1.215,8.122,4.873,-4.328,-8.345,23,5.233,5.255,4.726,5.09,1.703,1.436,1.121,1.532,23,5.299,4.491,-10,171.454374273,norm,0,80,80,80,998.287,998.293,998.302670452,998.303,998.307,998.312,up,1,0.82696492051,9.17303507949,001,312,1280_800,Intel(R) Core(TM)2 Duo CPU     P8600  @ 2.40GHz,orientation_search,GRVLAPTOP1,Quadro NVS 160M/PCIe/SSE2,2018_nov_08_1353,testMonitor,
90.5,86.4,86.1,90.5,36,0,99.6,90.3,92.5,97.5,7.725,8.217,8.359,7.63,8.012,7.842,7.52,4.474,-4.761,-7.649,1.327,-1.809,8.375,4.504,-4.614,-8.261,96.4,,-7.808,96.5,86.8,94.0,88.5,82.4,36,83.9,5,5,prime,10,0,89,norm,36,-4.773,up,norm,87.6418719849,82.5,96.7,1.755,107.6,4,85.8,93.5,77.2,10,5,8.107,4.867,1.188,-2.089,-5.004,-7.901,87.0,5,176.6,-8.373,-7.748,0,-7.991,-7.769,-4.352,-4.91,-4.501,-5.136,5.075,8.398,34,-1.395,1.402,4.868,7.626,-7.715,-7.817,-1.451,1.839,77.5,82.2,97.4,73.7,74.4,71.3,84.1,67.6,78.6,92.8,0,norm,1.253,1.976,-1.85,-1.905,-4.901,-5.292,-1.536,-1.188,-1.327,-1.22,2.074,-1.998,77.9,79.4,-5.294,-8.362,87.5,-1.855,7.858,5.133,-5.08,-8.236,24,5.076,4.467,5.069,5.06,1.554,1.842,1.597,1.998,24,5.033,5.139,80,171.454374273,norm,0,81,81,81,999.155,999.161,999.17106324,999.171,999.175,999.181,up,1,0.875960629946,9.12403937005,001,312,1280_800,Intel(R) Core(TM)2 Duo CPU     P8600  @ 2.40GHz,orientation_search,GRVLAPTOP1,Quadro NVS 160M/PCIe/SSE2,2018_nov_08_1353,testMonitor,
77.5,92.0,73.3,88.6,36,0,81.1,81.2,72.8,104.4,8.312,7.951,7.919,8.123,8.247,7.955,7.671,5.027,-4.791,-7.846,1.588,-1.172,7.868,5.068,-4.574,-8.363,71.6,88.0,-7.802,97.0,86.6,104.0,71.2,78.6,36,92.1,2,5,prime,10,0,86,norm,36,-5.168,down,norm,87.6418719849,71.3,78.2,1.329,,2,81.9,102.9,80.0,10,5,8.197,4.321,2.05,-2.052,-5.29,-8.327,99.1,5,173.6,-8.136,-8.279,0,-7.507,-8.041,-4.85,-5.046,-4.672,-4.726,4.959,7.651,14,-1.918,1.753,4.683,7.658,-8.19,-8.401,-1.357,1.125,84.8,74.0,67.6,84.5,82.6,80.0,107.6,100.6,69.4,74.3,1,norm,1.153,1.937,-1.43,-1.191,-4.821,-5.233,-1.513,-1.775,-2.084,-1.436,1.314,-1.265,92.1,103.4,-4.417,-7.807,78.8,-1.367,7.701,4.936,-4.541,-7.661,24,5.171,4.667,4.9,4.876,1.655,1.776,1.849,1.386,24,4.904,4.668,80,171.454374273,norm,0,82,82,82,1000.074,1000.08,1000.08950353,1000.09,1000.093,1000.098,up,0,0.543342177381,-10,001,312,1280_800,Intel(R) Core(TM)2 Duo CPU     P8600  @ 2.40GHz,orientation_search,GRVLAPTOP1,Quadro NVS 160M/PCIe/SSE2,2018_nov_08_1353,testMonitor,
82.7,80.4,103.7,85.1,36,0,95.3,89.1,95.7,83.9,7.678,8.341,8.008,7.601,8.24,7.611,8.095,4.844,-4.389,-8.321,1.801,-1.967,8.447,4.428,-5.279,-7.716,97.0,99.3,-7.72,70.3,95.0,100.7,82.2,107.6,36,88.7,3,5,prime,10,0,105,norm,36,-5.173,down,norm,87.6418719849,87.0,80.9,1.753,89.1,1,84.4,96.9,91.9,10,5,7.977,4.628,1.305,-1.68,-4.675,-7.954,96.3,5,192.6,-8.197,-8.348,0,-8.33,-8.3,-5.269,-4.637,-4.803,-4.843,4.867,7.972,19,-2.099,1.332,5.251,8.047,-7.784,-8.133,-1.832,2.068,88.1,67.6,105.7,83.6,79.1,78.5,87.9,82.3,91.3,93.4,2,norm,1.555,1.253,-1.521,-1.737,-4.736,-5.208,-1.416,-1.726,-1.789,-1.478,1.585,-1.498,,71.6,-5.153,-8.239,91.3,-1.509,8.131,5.163,-4.871,-7.812,24,4.31,4.845,5.034,4.764,1.789,1.29,1.722,1.219,24,4.37,5.117,80,171.454374273,norm,0,83,83,83,1001.694,1001.701,1001.70942791,1001.71,1001.713,1001.718,down,1,1.36129352642,8.63870647358,001,312,1280_800,Intel(R) Core(TM)2 Duo CPU     P8600  @ 2.40GHz,orientation_search,GRVLAPTOP1,Quadro NVS 160M/PCIe/SSE2,2018_nov_08_1353,testMonitor,
88.6,67.6,85.7,,36,0,96.2,84.6,78.5,96.0,7.776,8.284,8.043,8.355,7.763,7.904,8.32,4.993,-4.359,-7.79,1.18,-1.795,7.875,4.86,-4.733,-8.04,96.8,104.2,-8.038,89.5,83.2,72.0,95.6,84.6,36,74.3,3,5,prime,10,0,97,norm,36,-5.296,up,norm,87.6418719849,90.1,98.6,1.477,87.0,3,107.6,97.4,85.3,10,5,7.797,5.002,1.611,-2.094,-5.232,-8.399,92.2,5,184.6,-7.65,-7.588,0,-7.717,-7.908,-4.75,-4.808,-5.128,-4.302,4.444,7.846,21,-2.075,1.128,5.272,8.372,-7.881,-7.777,-1.447,1.87,87.8,76.4,74.0,89.6,72.7,84.6,90.8,82.7,80.5,82.1,3,norm,1.365,1.529,-1.316,-1.251,-4.517,-4.617,-1.779,-1.807,-1.295,-2.096,1.965,-1.538,88.2,74.2,-4.72,-8.186,103.9,-1.574,7.923,5.089,-4.962,-7.836,24,4.661,4.887,5.029,5.128,1.771,1.615,1.732,1.797,24,5.27,4.371,80,171.454374273,norm,0,84,84,84,1003.096,1003.103,1003.11230458,1003.113,1003.117,1003.122,down,0,0.675654289134,-10,001,312,1280_800,Intel(R) Core(TM)2 Duo CPU     P8600  @ 2.40GHz,orientation_search,GRVLAPTOP1,Quadro NVS 160M/PCIe/SSE2,2018_nov_08_1353,testMonitor,
67.6,89.7,93.9,86.4,36,0,74.2,73.6,76.0,90.7,8.0,7.726,8.151,7.893,7.738,8.303,8.439,5.215,-4.742,-7.929,1.599,-1.732,7.891,5.148,-4.776,-7.769,87.5,92.7,-7.922,92.7,84.5,97.9,90.4,74.5,36,95.8,2,5,prime,10,0,83,norm,36,-4.512,down,norm,87.6418719849,71.1,86.9,1.381,89.4,0,80.1,82.1,,10,5,7.539,4.78,1.56,-1.718,-4.48,-8.301,81.1,5,170.6,-8.294,-8.135,0,-8.172,-7.954,-4.664,-5.109,-5.128,-4.688,5.285,8.171,12,-1.73,1.677,4.428,7.919,-7.532,-8.168,-2.078,1.128,74.0,93.0,98.4,107.6,77.8,79.8,83.2,98.9,83.9,84.6,4,norm,1.789,1.264,-1.902,-1.623,-4.567,-4.945,-1.8,-1.344,-1.892,-1.55,1.966,-1.552,90.3,106.1,-4.892,-7.956,86.9,-1.128,7.531,4.462,-4.595,-8.353,24,4.94,4.932,4.898,4.773,1.98,1.145,1.971,1.805,24,4.41,4.978,80,171.454374273,norm,0,85,85,85,1004.85,1004.856,1004.86558302,1004.866,1004.869,1004.874,up,0,1.02738460999,-10,001,312,1280_800,Intel(R) Core(TM)2 Duo CPU     P8600  @ 2.40GHz,orientation_search,GRVLAPTOP1,Quadro NVS 160M/PCIe/SSE2,2018_nov_08_1353,testMonitor,
165.1,183.9,175.3,177.3,36,-20,172.8,167.1,169.4,175.8,7.521,8.389,7.914,7.584,8.227,8.174,7.534,5.055,-4.925,-8.36,1.315,-1.473,7.53,4.389,-4.677,-8.108,173.4,169.6,-8.213,179.8,170.2,170.2,178.9,181.7,36,167.0,2,5,probe,5,0,84,norm,36,-4.527,down,norm,173.907673767,172.7,174.1,1.824,163.9,1,166.5,,172.0,10,5,8.297,5.244,1.182,-1.143,-4.745,-8.3,166.6,1,89.9,-7.515,-8.062,0,-7.657,-8.0,-5.242,-4.356,-4.396,-5.142,5.089,8.328,13,-1.748,1.345,4.798,8.291,-7.886,-8.075,-1.829,1.762,165.1,182.5,175.7,171.7,182.8,177.0,168.3,164.6,176.6,168.1,0,norm,1.719,1.183,-1.342,-1.386,-4.439,-4.327,-1.478,-1.307,-1.663,-1.202,1.583,-2.007,176.4,173.5,-4.774,-8.04,172.8,-1.874,7.508,4.816,-4.908,-7.537,25,4.903,4.401,5.263,4.941,1.907,1.888,1.92,1.733,25,5.079,4.464,0,87.6418719849,norm,0,86,86,86,1006.954,1006.961,1006.96969912,1006.97,1006.974,1006.979,down,1,0.592683921044,9.40731607896,001,312,1280_800,Intel(R) Core(TM)2 Duo CPU     P8600  @ 2.40GHz,orientation_search,GRVLAPTOP1,Quadro NVS 160M/PCIe/SSE2,2018_nov_08_1353,testMonitor,
321.9,307.2,313.1,314.6,36,-20,293.3,301.6,314.9,313.5,7.687,8.441,8.013,7.831,7.649,7.666,7.892,4.474,-4.603,-8.221,1.216,-1.998,7.756,4.893,-4.303,-7.918,291.0,301.8,-7.946,301.3,310.8,320.1,318.0,305.3,36,306.2,2,5,prime,10,0,111,norm,36,-5.292,down,norm,309.281481052,289.3,329.3,2.087,,2,314.9,296.9,312.9,10,5,7.84,4.607,1.885,-1.774,-5.059,-8.309,313.6,5,420.3,-8.227,-7.75,-20,-7.811,-7.589,-4.551,-4.959,-5.173,-5.119,4.922,7.723,14,-1.356,1.801,4.965,8.188,-8.056,-7.572,-1.808,1.156,317.3,309.9,293.5,297.4,313.2,297.7,306.7,295.1,318.2,304.7,0,norm,1.888,1.834,-1.29,-1.686,-5.212,-5.148,-1.66,-1.864,-1.962,-1.237,1.663,-1.367,317.4,326.2,-4.584,-7.993,308.3,-1.658,8.257,5.102,-4.78,-7.946,26,5.291,4.447,5.186,5.283,1.479,1.291,1.912,1.856,26,4.403,5.224,-20,87.6418719849,norm,0,87,87,87,1007.589,1007.595,1007.60426003,1007.605,1007.608,1007.613,down,1,1.91223348628,8.08776651372,001,312,1280_800,Intel(R) Core(TM)2 Duo CPU     P8600  @ 2.40GHz,orientation_search,GRVLAPTOP1,Quadro NVS 160M/PCIe/SSE2,2018_nov_08_1353,testMonitor,
298.6,313.4,299.6,311.9,36,-20,294.8,313.4,319.8,289.3,8.464,7.59,7.596,8.312,7.969,7.628,8.042,4.584,-5.08,-8.426,1.136,-1.262,7.711,5.244,-4.371,-7.984,317.6,304.9,-7.592,290.4,312.3,,301.4,299.5,36,319.4,5,5,prime,10,0,112,norm,36,-4.96,up,norm,309.281481052,310.2,313.3,2.036,308.3,3,294.8,304.3,319.5,10,5,7.82,4.323,1.703,-1.269,-4.554,-7.975,313.4,5,421.3,-7.668,-8.294,-20,-7.692,-7.76,-4.963,-5.194,-4.65,-4.644,5.145,7.665,33,-1.457,2.086,5.282,8.419,-8.249,-8.065,-2.078,1.853,307.3,329.3,299.7,291.2,297.9,310.4,299.5,328.3,298.1,304.2,1,norm,1.829,1.353,-1.956,-1.788,-4.455,-5.219,-1.561,-1.569,-1.487,-1.517,1.207,-1.398,306.8,318.9,-4.614,-8.112,306.0,-1.107,7.614,4.4,-5.206,-7.503,26,4.338,5.125,4.946,5.294,1.427,1.981,1.226,2.054,26,4.805,4.661,-20,87.6418719849,norm,0,88,88,88,1009.542,1009.549,1009.5580189,1009.558,1009.562,1009.568,up,1,1.27713363893,8.72286636107,001,312,1280_800,Intel(R) Core(TM)2 Duo CPU     P8600  @ 2.40GHz,orientation_search,GRVLAPTOP1,Quadro NVS 160M/PCIe/SSE2,2018_nov_08_1353,testMonitor,
304.7,320.7,297.3,317.5,36,-20,309.1,291.2,319.4,289.3,8.417,7.697,8.462,8.068,8.358,8.124,8.426,5.132,-5.122,-8.062,1.226,-1.227,8.246,4.522,-5.296,-8.171,315.4,310.8,-7.93,310.8,305.3,311.8,306.1,299.9,36,308.5,1,5,prime,10,0,103,norm,36,-5.057,up,norm,309.281481052,304.2,316.5,1.836,308.0,5,,308.6,309.4,10,5,8.358,5.173,1.307,-1.503,-5.293,-7.955,303.3,5,412.3,-8.442,-7.729,-20,-8.082,-8.486,-5.269,-4.6,-4.606,-5.127,4.53,8.224,11,-2.083,1.864,5.224,7.975,-8.259,-8.006,-1.915,1.603,301.6,290.6,302.8,312.4,303.5,307.3,290.7,329.3,322.3,311.1,2,norm,1.526,1.982,-1.669,-1.519,-4.876,-4.394,-1.337,-1.465,-1.479,-1.89,1.678,-1.219,323.4,325.7,-5.032,-7.916,307.9,-1.86,8.489,4.67,-5.035,-8.241,26,5.149,4.335,4.388,4.791,1.812,1.377,1.747,1.453,26,5.07,5.248,-20,87.6418719849,norm,0,89,89,89,1010.862,1010.868,1010.87739224,1010.878,1010.881,1010.886,up,1,0.793369659084,9.20663034092,001,312,1280_800,Intel(R) Core(TM)2 Duo CPU     P8600  @ 2.40GHz,orientation_search,GRVLAPTOP1,Quadro NVS 160M/PCIe/SSE2,2018_nov_08_1353,testMonitor,
319.9,304.1,307.1,300.2,36,-20,314.5,299.7,312.1,300.8,8.114,8.253,8.244,7.57,8.113,7.822,8.099,4.913,-4.656,-7.926,1.643,-1.207,8.037,4.612,-4.545,-8.45,315.9,301.1,-8.093,298.8,299.0,329.3,307.2,305.9,36,304.5,1,5,prime,10,0,109,norm,36,-4.829,down,norm,309.281481052,312.3,299.4,1.733,316.4,0,301.3,306.7,297.0,10,5,8.258,4.422,1.189,-1.707,-4.629,-7.924,308.9,5,418.3,-8.229,-7.948,-20,-7.984,-8.464,-4.788,-5.16,-4.579,-4.854,4.471,7.968,6,-1.154,1.183,4.312,8.434,-7.896,-7.621,-1.522,1.122,304.8,300.9,323.2,298.0,289.3,311.7,319.7,,303.9,304.4,3,norm,1.129,1.102,-1.805,-1.769,-4.375,-4.571,-1.59,-1.849,-1.28,-1.436,1.178,-1.949,315.7,316.4,-4.71,-7.817,296.5,-1.876,8.191,4.394,-5.092,-7.676,26,5.28,4.826,5.042,5.13,1.564,1.315,1.902,1.262,26,5.123,4.577,-20,87.6418719849,norm,0,90,90,90,1011.697,1011.703,1011.71225137,1011.713,1011.716,1011.722,down,1,0.859988305841,9.14001169416,001,312,1280_800,Intel(R) Core(TM)2 Duo CPU     P8600  @ 2.40GHz,orientation_search,GRVLAPTOP1,Quadro NVS 160M/PCIe/SSE2,2018_nov_08_1353,testMonitor,
293.7,315.2,304.7,308.5,36,-20,318.5,308.2,315.9,301.2,7.986,7.885,7.768,8.368,7.966,8.479,7.604,4.941,-5.032,-7.899,1.63,-1.982,8.336,5.258,-4.488,-8.166,311.7,327.2,-8.086,307.7,297.6,308.8,321.3,311.5,36,315.9,0,5,prime,10,0,73,norm,36,-5.03,up,norm,309.281481052,296.6,318.7,2.03,303.9,4,289.3,313.6,325.7,10,5,7.55,4.399,1.544,-1.168,-4.977,-8.102,312.6,5,382.3,-8.475,-7.826,-20,-8.124,-7.9,-4.327,-4.374,-4.37,-4.786,4.79,8.49,4,-1.976,1.421,4.796,8.189,-7.929,-8.484,-1.496,1.728,316.6,302.4,303.8,316.7,301.1,309.8,329.3,311.6,299.8,,4,norm,2.006,1.209,-1.86,-1.9,-4.843,-4.481,-1.137,-2.022,-1.516,-1.159,1.228,-1.325,303.7,325.5,-4.629,-8.427,308.0,-1.908,7.584,4.911,-5.135,-7.946,26,5.022,5.156,4.702,4.793,1.296,1.855,1.768,2.06,26,4.574,4.835,-20,87.6418719849,norm,0,91,91,91,1012.598,1012.605,1012.61425652,1012.615,1012.619,1012.624,up,1,1.07652275378,8.92347724622,001,312,1280_800,Intel(R) Core(TM)2 Duo CPU     P8600  @ 2.40GHz,orientation_search,GRVLAPTOP1,Quadro NVS 160M/PCIe/SSE2,2018_nov_08_1353,testMonitor,
373.3,367.6,385.0,365.9,36,0,373.1,,365.1,374.5,7.712,8.056,8.464,8.229,8.061,8.374,7.653,4.951,-4.843,-7.608,1.984,-2.043,8.279,4.62,-4.343,-7.538,373.3,377.4,-7.669,365.0,377.8,372.4,373.3,375.2,36,372.2,4,5,probe,5,0,88,norm,36,-4.547,down,norm,375.015666971,378.4,371.1,1.926,369.5,1,374.2,371.1,369.2,10,5,8.346,4.581,1.489,-1.49,-5.003,-7.661,378.3,2,287.0,-8.021,-8.321,-20,-7.667,-7.545,-4.38,-4.616,-4.929,-4.67,4.906,7.963,25,-1.585,1.362,4.533,7.742,-7.936,-8.493,-1.597,1.709,371.4,379.2,375.0,369.2,372.0,376.2,373.3,369.9,379.3,371.2,0,norm,1.255,1.56,-1.354,-1.488,-4.78,-5.204,-1.702,-1.487,-1.279,-1.606,1.918,-1.251,368.1,371.6,-4.507,-8.219,377.3,-1.849,7.528,4.514,-4.837,-7.562,27,4.634,4.81,5.151,4.915,1.575,1.806,1.524,1.945,27,4.387,5.244,-20,309.281481052,norm,0,92,92,92,1013.717,1013.723,1013.73290435,1013.733,1013.737,1013.742,down,1,1.01008033213,8.98991966787,001,312,1280_800,Intel(R) Core(TM)2 Duo CPU     P8600  @ 2.40GHz,orientation_search,GRVLAPTOP1,Quadro NVS 160M/PCIe/SSE2,2018_nov_08_1353,testMonitor,
363.3,366.2,362.8,365.7,36,0,356.0,365.8,367.2,366.2,8.483,7.895,8.247,7.786,8.407,7.968,8.145,4.997,-5.218,-7.677,2.052,-1.577,8.392,4.372,-4.93,-8.365,364.1,368.6,-8.254,376.0,361.2,368.3,373.6,367.8,36,363.5,0,5,probe,5,0,79,norm,36,-5.281,up,norm,366.015666971,364.6,366.0,1.564,357.9,4,362.7,358.3,365.2,10,5,8.287,4.577,1.763,-2.022,-4.346,-7.51,358.5,2,287.0,-8.494,-7.611,-20,-8.352,-7.718,-4.332,-4.533,-4.857,-5.217,5.132,8.364,4,-1.333,1.607,4.899,8.185,-8.47,-8.365,-1.265,1.246,362.2,364.6,363.2,369.7,371.3,362.0,363.3,360.8,364.8,,1,norm,1.269,1.735,-1.146,-1.922,-4.82,-5.086,-2.078,-1.513,-1.9,-1.611,1.68,-1.577,362.6,365.5,-5.131,-7.687,362.8,-1.478,8.037,4.893,-4.965,-7.699,27,4.746,4.951,4.827,5.12,2.016,1.143,2.016,1.763,27,5.201,4.44,-20,309.281481052,norm,0,93,93,93,1014.769,1014.775,1014.78503618,1014.785,1014.789,1014.795,up,1,0.759129379592,9.24087062041,001,312,1280_800,Intel(R) Core(TM)2 Duo CPU     P8600  @ 2.40GHz,orientation_search,GRVLAPTOP1,Quadro NVS 160M/PCIe/SSE2,2018_nov_08_1353,testMonitor,
337.4,337.7,343.6,339.2,36,80,332.6,349.1,323.4,338.8,8.293,8.216,8.454,8.101,7.894,8.185,7.821,4.407,-4.35,-7.93,1.995,-1.335,8.137,4.875,-5.008,-8.394,336.4,346.6,-7.922,,359.8,329.7,343.4,349.8,36,335.6,5,5,prime,10,0,71,norm,36,-4.978,down,norm,339.770102104,324.8,329.4,1.963,342.4,1,335.2,343.8,352.3,10,5,8.318,4.435,1.827,-1.603,-5.169,-7.668,348.1,5,410.8,-7.827,-7.734,80,-7.664,-8.443,-5.252,-5.222,-4.523,-5.003,4.545,7.511,31,-1.659,1.123,4.39,7.672,-8.262,-7.65,-1.273,1.612,349.0,346.6,351.0,338.1,339.7,338.1,319.8,341.0,338.3,329.8,0,norm,1.96,2.016,-2.024,-2.055,-4.576,-4.61,-1.331,-1.167,-1.61,-1.264,1.448,-1.148,340.3,344.4,-4.58,-8.368,333.4,-1.893,8.211,5.188,-4.469,-8.321,28,4.914,4.584,4.681,4.56,1.731,1.545,1.768,1.811,28,4.612,5.049,0,309.281481052,norm,0,94,94,94,1015.571,1015.577,1015.58661357,1015.587,1015.591,1015.596,down,1,0.910107236396,9.0898927636,001,312,1280_800,Intel(R) Core(TM)2 Duo CPU     P8600  @ 2.40GHz,orientation_search,GRVLAPTOP1,Quadro NVS 160M/PCIe/SSE2,2018_nov_08_1353,testMonitor,
