d_ori_22,d_ori_23,d_ori_20,d_ori_21,set_size,ctpd,d_ori_24,d_ori_25,d_ori_28,d_ori_29,stim_pos_x_30,stim_pos_x_31,stim_pos_x_32,stim_pos_x_33,stim_pos_x_34,stim_pos_x_35,stim_pos_y_11,stim_pos_y_10,stim_pos_y_13,stim_pos_y_12,stim_pos_y_15,stim_pos_y_14,stim_pos_y_17,stim_pos_y_16,stim_pos_y_19,stim_pos_y_18,d_ori_35,d_ori_34,stim_pos_x_3,d_ori_31,d_ori_30,d_ori_33,d_ori_32,d_ori_26,test_set_size,d_ori_27,targetCol,dsd_test,seq_type,dsd,blockRepN,targetDist,dtype_test,prime_set_size,stim_pos_y_25,correctResponse,dtype,distrMean,d_ori_17,d_ori_16,d_ori_15,d_ori_14,targetRow,d_ori_11,d_ori_13,d_ori_12,dsd_prime,streak_length_prime,stim_pos_y_35,stim_pos_y_34,stim_pos_y_33,stim_pos_y_32,stim_pos_y_31,stim_pos_y_30,d_ori_10,nextProbe,targetOri,stim_pos_x_1,stim_pos_x_2,ctpd_prime,stim_pos_x_4,stim_pos_x_5,stim_pos_x_6,stim_pos_x_7,stim_pos_x_8,stim_pos_x_9,stim_pos_y_28,stim_pos_y_29,targetPos,stim_pos_y_20,stim_pos_y_21,stim_pos_y_22,stim_pos_y_23,stim_pos_y_24,stim_pos_x_0,stim_pos_y_26,stim_pos_y_27,d_ori_9,d_ori_8,d_ori_3,d_ori_2,d_ori_1,d_ori_0,d_ori_7,d_ori_6,d_ori_5,d_ori_4,trialN,dtype_prime,stim_pos_x_18,stim_pos_x_19,stim_pos_x_12,stim_pos_x_13,stim_pos_x_10,stim_pos_x_11,stim_pos_x_16,stim_pos_x_17,stim_pos_x_14,stim_pos_x_15,stim_pos_y_9,stim_pos_y_8,d_ori_19,d_ori_18,stim_pos_y_1,stim_pos_y_0,stim_pos_y_3,stim_pos_y_2,stim_pos_y_5,stim_pos_y_4,stim_pos_y_7,stim_pos_y_6,totBlockN,stim_pos_x_27,stim_pos_x_26,stim_pos_x_25,stim_pos_x_24,stim_pos_x_23,stim_pos_x_22,stim_pos_x_21,stim_pos_x_20,blockN,stim_pos_x_29,stim_pos_x_28,prevDistrCTPD,prevDistrMean,prevDistrType,trials.thisRepN,trials.thisTrialN,trials.thisN,trials.thisIndex,timeStart,timeBeforeDraw,timeDraw,timeAfterSaving,timeAfterWritingToTemp,timeAfterPreparingNext,answer,correct,rt,trialScore,session,participant,resolution,cpu_info,expName,pc_name,graphic_card,date,monitorName,
42.2,48.4,68.0,49.0,36,-40,,52.9,47.8,43.0,7.867,7.539,7.958,7.784,7.583,7.858,7.824,5.14,-5.285,-8.383,1.434,-1.533,8.223,4.968,-4.682,-8.006,58.9,52.4,-8.398,55.9,61.6,43.9,58.5,63.3,36,59.3,4,5,prime,10,0,71,norm,36,-4.376,down,norm,53.3273717299,39.7,54.4,33.3,49.8,0,47.3,59.7,70.3,10,6,8.172,4.376,1.704,-1.583,-4.421,-8.205,40.8,6,124.3,-7.52,-8.025,-40,-7.863,-7.703,-5.156,-4.671,-5.282,-5.162,5.184,8.356,24,-1.269,1.413,4.664,7.691,-8.497,-7.68,-1.639,1.971,65.9,53.7,52.2,59.8,48.2,33.8,47.5,47.3,58.1,65.8,0,norm,1.295,1.136,-1.368,-1.487,-4.923,-4.43,-1.228,-1.537,-1.439,-1.541,1.248,-1.477,54.9,54.6,-4.973,-8.49,1.515,-1.444,8.15,5.247,-5.196,-7.841,0,4.643,4.6,4.524,4.429,1.701,1.604,1.385,1.52,0,5.196,4.448,,,,0,0,0,0,237.285,237.307,237.327831141,237.328,237.328,237.331,down,1,1.88467551159,8.11532448841,001,328,1920_1200,Intel(R) Core(TM) i5-3570 CPU @ 3.40GHz,orientation_search,LEPPC096,Intel(R) HD Graphics 2500,2019_Jan_22_1744,testMonitor,
49.1,44.1,44.4,52.0,36,-40,,50.6,33.3,47.2,8.349,8.217,8.28,8.32,8.47,7.566,7.818,5.233,-5.141,-7.618,1.482,-1.213,7.698,4.728,-4.69,-8.409,68.5,55.8,-8.155,53.8,62.0,50.9,34.5,52.7,36,57.3,4,5,prime,10,0,66,norm,36,-4.842,down,norm,53.3273717299,65.4,67.9,73.3,51.8,0,65.1,50.8,46.8,10,6,8.227,4.722,1.337,-1.5,-5.142,-8.47,55.5,6,119.3,-8.096,-8.07,-40,-7.645,-7.624,-4.349,-4.998,-5.061,-4.618,4.636,7.847,24,-1.314,1.95,4.504,8.425,-8.2,-8.03,-1.611,1.806,49.1,33.7,48.9,41.5,55.4,45.3,67.2,43.8,45.1,68.6,1,norm,1.554,1.963,-1.509,-1.677,-4.375,-4.809,-1.922,-2.007,-1.368,-1.51,1.194,-1.778,60.0,52.7,-4.75,-7.641,1.622,-2.022,7.868,4.505,-5.273,-7.511,0,4.482,4.887,4.467,4.337,1.27,1.643,1.821,1.647,0,4.576,4.466,,,,0,1,1,1,239.248,239.258,239.275025424,239.275,239.276,239.279,down,1,1.74755385149,8.25244614851,001,328,1920_1200,Intel(R) Core(TM) i5-3570 CPU @ 3.40GHz,orientation_search,LEPPC096,Intel(R) HD Graphics 2500,2019_Jan_22_1744,testMonitor,
59.6,65.6,53.3,57.4,36,-40,41.7,43.7,34.9,53.7,8.06,8.306,8.234,7.941,8.066,8.455,8.265,5.038,-4.636,-7.885,2.1,-1.121,7.95,5.227,-5.135,-8.34,64.4,56.4,-8.179,54.3,50.8,63.6,54.7,73.3,36,38.0,3,5,prime,10,0,97,norm,36,-4.734,down,norm,53.3273717299,43.6,46.1,33.3,56.0,1,57.9,55.3,43.3,10,6,8.159,5.087,1.873,-2.053,-4.349,-7.732,57.0,6,150.3,-8.237,-7.795,-40,-8.209,-7.716,-4.676,-4.965,-4.824,-4.789,4.931,7.986,19,-1.624,1.243,4.659,7.864,-8.385,-7.863,-1.211,1.402,58.5,62.8,51.7,45.0,45.6,56.5,56.9,42.2,56.9,66.5,2,norm,1.941,2.09,-1.575,-1.189,-4.846,-4.838,-1.751,-2.072,-1.985,-1.187,1.943,-1.834,,48.8,-5.23,-8.079,1.554,-1.698,8.165,5.282,-4.362,-8.354,0,5.145,4.388,5.158,4.749,1.859,1.536,1.198,1.342,0,4.407,5.281,,,,0,2,2,2,241.06,241.073,241.092634131,241.093,241.094,241.097,down,1,1.83773209923,8.16226790077,001,328,1920_1200,Intel(R) Core(TM) i5-3570 CPU @ 3.40GHz,orientation_search,LEPPC096,Intel(R) HD Graphics 2500,2019_Jan_22_1744,testMonitor,
33.3,43.7,39.9,37.6,36,-40,51.5,54.3,61.7,52.4,8.45,8.358,7.822,7.643,7.509,8.085,7.675,4.822,-4.472,-7.967,1.295,-2.08,8.062,4.419,-5.129,-8.398,54.6,44.6,-8.415,41.7,58.6,65.9,,65.2,36,44.3,5,5,prime,10,0,70,norm,36,-4.36,down,norm,53.3273717299,71.7,73.3,37.2,56.6,2,64.7,50.8,56.0,10,6,7.536,4.534,1.658,-2.016,-4.441,-7.825,45.8,6,123.3,-8.099,-7.524,-40,-7.694,-7.547,-4.334,-4.534,-4.951,-4.82,4.591,7.807,32,-2.065,1.305,4.8,7.539,-8.13,-8.386,-1.584,1.881,40.3,39.9,50.9,33.8,63.3,69.0,46.9,58.2,70.6,44.6,3,norm,1.958,1.462,-1.821,-1.501,-4.503,-5.137,-1.206,-1.754,-1.53,-1.935,1.739,-1.952,47.0,69.0,-4.498,-8.27,1.225,-1.446,7.947,4.518,-4.634,-8.275,0,4.974,5.122,4.48,4.376,1.654,1.784,1.52,1.843,0,5.037,4.789,,,,0,3,3,3,242.973,242.981,242.988968448,242.989,242.991,242.993,down,1,1.74720762507,8.25279237493,001,328,1920_1200,Intel(R) Core(TM) i5-3570 CPU @ 3.40GHz,orientation_search,LEPPC096,Intel(R) HD Graphics 2500,2019_Jan_22_1744,testMonitor,
54.4,60.8,63.5,68.3,36,-40,49.2,33.3,46.4,45.6,8.472,7.622,7.718,7.933,8.463,7.812,7.995,5.183,-5.298,-8.355,2.08,-1.356,8.427,5.28,-5.135,-7.887,64.4,56.9,-7.972,65.8,55.9,71.4,50.9,53.2,36,50.3,0,5,prime,10,0,113,norm,36,-4.506,down,norm,53.3273717299,68.4,51.7,55.8,57.3,0,70.4,43.0,62.4,10,6,8.492,4.407,1.951,-2.099,-5.231,-8.411,50.5,6,166.3,-8.41,-7.976,-40,-7.713,-8.137,-4.511,-4.712,-4.845,-5.258,5.236,7.616,0,-1.261,2.093,5.251,7.983,-7.507,-8.227,-1.764,1.769,57.5,58.7,41.8,51.7,54.5,,68.2,61.2,73.3,51.9,4,norm,1.415,1.597,-1.226,-1.956,-5.089,-4.701,-1.966,-1.857,-1.189,-1.479,1.171,-1.161,65.6,57.8,-4.638,-7.77,1.766,-1.579,8.136,4.498,-5.052,-8.02,0,4.724,4.885,4.801,4.802,1.174,1.713,2.012,1.181,0,4.443,5.153,,,,0,4,4,4,244.774,244.787,244.806690954,244.807,244.809,244.811,down,1,1.54680652161,8.45319347839,001,328,1920_1200,Intel(R) Core(TM) i5-3570 CPU @ 3.40GHz,orientation_search,LEPPC096,Intel(R) HD Graphics 2500,2019_Jan_22_1744,testMonitor,
60.2,45.8,53.2,51.1,36,-40,52.8,40.7,64.1,41.8,8.204,8.171,7.613,7.734,8.081,8.029,8.378,5.081,-5.212,-8.354,1.903,-1.31,8.238,4.901,-4.329,-7.79,,68.6,-8.467,49.3,42.7,73.3,40.9,39.7,36,44.0,5,5,prime,10,0,94,norm,36,-5.133,up,norm,53.3273717299,57.4,63.5,58.0,67.0,5,33.3,56.4,67.1,10,6,7.839,4.335,1.387,-1.478,-4.983,-7.63,47.1,6,147.3,-7.923,-8.346,-40,-8.276,-8.206,-5.273,-5.041,-4.705,-4.694,4.494,8.338,35,-1.406,2.015,4.383,7.984,-7.552,-7.832,-2.046,1.146,51.8,58.8,48.4,52.2,49.8,50.2,46.2,52.8,60.0,53.8,5,norm,1.172,1.595,-1.711,-1.501,-5.252,-4.88,-1.392,-2.095,-1.654,-1.858,1.847,-1.964,52.0,61.6,-4.831,-7.881,1.148,-1.66,8.428,5.204,-4.334,-8.169,0,4.368,5.028,5.205,4.685,1.623,1.97,1.687,1.415,0,4.355,4.571,,,,0,5,5,5,246.389,246.4,246.419681659,246.42,246.422,246.425,up,1,1.60607825079,8.39392174921,001,328,1920_1200,Intel(R) Core(TM) i5-3570 CPU @ 3.40GHz,orientation_search,LEPPC096,Intel(R) HD Graphics 2500,2019_Jan_22_1744,testMonitor,
120.4,107.1,113.1,106.6,36,0,114.2,113.3,123.4,116.5,7.782,7.599,7.979,8.033,7.991,7.773,7.618,4.31,-5.229,-8.412,2.009,-1.334,8.378,4.316,-4.481,-8.003,114.6,110.8,-7.908,105.3,115.1,113.4,114.5,111.3,36,116.0,2,5,probe,5,0,100,norm,36,-4.881,down,norm,114.560834059,124.6,121.5,117.1,117.9,0,108.0,114.4,,10,6,8.156,5.205,1.405,-1.196,-5.205,-8.128,114.2,1,14.6,-7.735,-7.974,-40,-7.684,-7.964,-5.094,-4.866,-5.055,-4.685,4.805,8.289,12,-1.881,1.627,4.78,8.176,-8.163,-8.247,-1.938,1.55,114.8,116.9,113.7,123.0,119.8,117.2,111.0,118.5,112.8,109.4,0,norm,1.595,1.849,-1.666,-1.431,-4.874,-4.798,-1.214,-1.782,-1.963,-1.245,2.025,-1.114,118.4,114.9,-4.607,-7.515,1.295,-1.342,8.426,5.08,-5.292,-8.455,1,4.825,4.526,4.609,5.299,1.927,1.176,1.608,1.282,1,4.901,4.638,-40,53.3273717299,norm,0,6,6,6,248.062,248.074,248.080630307,248.081,248.083,248.086,down,1,1.50819306937,8.49180693063,001,328,1920_1200,Intel(R) Core(TM) i5-3570 CPU @ 3.40GHz,orientation_search,LEPPC096,Intel(R) HD Graphics 2500,2019_Jan_22_1744,testMonitor,
189.2,174.3,183.0,192.7,36,-30,182.9,183.1,195.2,,7.689,7.872,8.306,8.191,7.682,7.706,8.074,4.698,-4.903,-7.879,1.527,-1.405,8.449,4.733,-4.649,-7.571,174.7,181.6,-8.354,208.8,189.2,207.0,170.6,197.4,36,177.7,4,5,prime,10,0,92,norm,36,-5.242,up,norm,188.789190752,202.1,179.7,191.5,172.5,5,186.1,179.9,188.8,10,6,7.667,5.107,1.52,-1.672,-5.037,-7.971,208.1,6,280.8,-7.508,-7.601,-30,-8.457,-8.498,-4.682,-4.684,-4.87,-5.176,4.661,7.646,29,-1.668,1.311,4.806,8.049,-7.58,-7.525,-1.364,1.261,208.1,186.0,186.3,191.5,201.6,199.3,168.8,178.6,205.6,201.4,0,norm,1.877,1.963,-1.815,-1.953,-4.627,-4.521,-1.473,-1.549,-1.902,-1.268,1.549,-1.334,176.9,194.6,-4.645,-7.76,2.061,-2.05,8.443,4.369,-4.921,-7.902,2,4.592,4.751,4.507,4.687,1.349,1.121,1.173,1.792,2,4.715,4.364,0,53.3273717299,norm,0,7,7,7,249.634,249.642,249.65011149,249.65,249.652,249.654,up,1,3.95324222779,6.04675777221,001,328,1920_1200,Intel(R) Core(TM) i5-3570 CPU @ 3.40GHz,orientation_search,LEPPC096,Intel(R) HD Graphics 2500,2019_Jan_22_1744,testMonitor,
187.4,200.1,204.0,168.8,36,-30,193.6,202.6,196.9,189.3,8.386,7.987,8.267,8.014,8.003,7.573,8.358,4.727,-4.89,-8.499,1.635,-1.445,8.393,5.075,-4.503,-8.1,185.3,191.3,-7.643,194.7,181.1,180.4,194.2,180.6,36,184.6,0,5,prime,10,0,118,norm,36,-4.885,down,norm,188.789190752,192.7,177.2,181.4,187.4,1,181.2,202.6,174.7,10,6,7.528,4.595,1.339,-1.101,-5.232,-8.369,206.0,6,306.8,-7.897,-8.182,-30,-8.309,-8.347,-5.265,-4.634,-4.751,-4.53,4.3,7.651,1,-1.519,1.725,5.219,7.844,-7.66,-7.868,-1.386,1.744,177.4,184.0,205.3,208.8,,174.0,184.4,192.6,191.1,178.1,1,norm,1.451,1.248,-1.651,-1.327,-5.009,-5.262,-1.51,-1.687,-1.643,-1.922,1.692,-2.058,179.5,172.6,-4.999,-8.443,2.015,-1.429,8.113,4.366,-4.517,-7.675,2,5.074,4.902,5.252,5.083,1.738,1.559,1.476,1.62,2,4.444,5.086,0,53.3273717299,norm,0,8,8,8,253.624,253.635,253.640252036,253.64,253.642,253.645,down,1,1.84794653322,8.15205346678,001,328,1920_1200,Intel(R) Core(TM) i5-3570 CPU @ 3.40GHz,orientation_search,LEPPC096,Intel(R) HD Graphics 2500,2019_Jan_22_1744,testMonitor,
171.6,182.6,195.0,194.7,36,-30,181.2,176.3,186.6,190.4,8.28,8.166,7.901,7.858,7.913,7.739,8.147,4.404,-4.545,-7.504,2.0,-1.771,8.134,5.081,-4.455,-7.666,177.9,184.4,-8.405,175.0,184.3,192.3,187.7,178.0,36,,4,5,prime,10,0,100,norm,36,-4.979,up,norm,188.789190752,186.0,201.4,208.8,197.7,3,182.7,186.1,204.4,10,6,7.664,4.518,1.306,-1.148,-5.283,-8.177,195.9,6,288.8,-8.39,-8.102,-30,-7.773,-7.563,-4.421,-5.248,-5.254,-4.48,5.262,7.559,27,-1.271,1.688,4.595,7.571,-8.19,-8.018,-1.526,1.669,169.6,187.6,172.6,186.5,203.6,193.9,202.3,184.7,194.1,168.8,2,norm,1.889,1.822,-2.071,-1.345,-5.239,-4.916,-2.022,-1.574,-1.66,-1.533,1.419,-1.746,193.1,183.1,-5.23,-8.426,1.761,-1.557,7.646,4.416,-5.283,-8.342,2,4.871,4.857,4.783,4.604,1.418,1.268,1.302,1.787,2,4.755,4.596,0,53.3273717299,norm,0,9,9,9,255.526,255.535,255.545523643,255.546,255.547,255.55,up,1,2.31635676836,7.68364323164,001,328,1920_1200,Intel(R) Core(TM) i5-3570 CPU @ 3.40GHz,orientation_search,LEPPC096,Intel(R) HD Graphics 2500,2019_Jan_22_1744,testMonitor,
184.6,186.4,168.8,180.4,36,-30,196.2,188.4,183.1,183.1,8.144,7.655,8.094,8.408,7.827,8.478,8.324,5.09,-4.91,-7.541,1.915,-1.387,7.806,4.456,-5.056,-7.88,171.1,196.8,-8.225,189.6,186.6,193.3,,189.6,36,181.4,5,5,prime,10,0,95,norm,36,-4.593,down,norm,188.789190752,182.0,184.8,190.5,197.0,2,187.7,200.1,174.6,10,6,7.966,4.643,2.069,-1.335,-4.504,-8.096,191.8,6,283.8,-8.281,-7.602,-30,-7.717,-8.46,-4.339,-4.676,-5.086,-5.009,4.803,7.535,32,-1.412,1.559,4.517,8.235,-7.946,-7.769,-1.386,1.124,189.7,199.2,174.3,208.8,193.8,194.8,185.4,177.4,194.8,191.3,3,norm,2.001,1.898,-1.429,-1.298,-4.496,-4.87,-1.285,-1.218,-1.386,-1.358,1.952,-2.047,179.7,173.9,-4.979,-7.527,1.734,-1.691,7.791,4.908,-4.395,-7.993,2,4.517,5.046,4.422,4.555,1.956,1.614,2.056,1.598,2,5.223,5.154,0,53.3273717299,norm,0,10,10,10,257.883,257.893,257.901448325,257.902,257.903,257.906,down,1,2.43271389895,7.56728610105,001,328,1920_1200,Intel(R) Core(TM) i5-3570 CPU @ 3.40GHz,orientation_search,LEPPC096,Intel(R) HD Graphics 2500,2019_Jan_22_1744,testMonitor,
173.4,192.9,195.2,175.1,36,-30,188.7,181.2,180.1,190.0,8.248,8.357,7.634,8.428,7.547,8.347,7.517,5.27,-4.501,-7.799,2.038,-1.227,7.934,4.373,-4.667,-8.315,179.0,176.0,-7.681,193.8,199.0,190.3,193.9,178.1,36,196.6,0,5,prime,10,0,63,norm,36,-5.223,up,norm,188.789190752,204.7,190.3,199.8,187.9,5,184.3,196.3,190.3,10,6,7.503,5.197,1.773,-1.831,-5.147,-7.635,200.7,6,251.8,-8.078,-8.205,-30,-8.11,-7.742,-4.857,-4.953,-4.857,-5.287,4.903,7.859,5,-1.312,1.697,5.056,8.045,-8.292,-8.091,-1.799,1.962,180.5,183.1,194.1,188.9,208.8,196.9,190.7,189.8,,194.0,4,norm,1.259,1.168,-1.188,-1.223,-4.384,-4.771,-1.712,-2.035,-2.023,-1.499,1.115,-2.093,184.7,187.4,-4.32,-8.43,1.956,-1.351,7.719,4.939,-4.63,-8.266,2,5.13,5.179,4.556,4.934,1.862,1.861,1.429,1.359,2,4.958,5.098,0,53.3273717299,norm,0,11,11,11,260.372,260.385,260.405061064,260.405,260.407,260.409,up,1,1.80502954999,8.19497045001,001,328,1920_1200,Intel(R) Core(TM) i5-3570 CPU @ 3.40GHz,orientation_search,LEPPC096,Intel(R) HD Graphics 2500,2019_Jan_22_1744,testMonitor,
176.0,168.8,199.0,188.4,36,-30,189.2,181.8,185.3,194.7,8.123,7.619,7.664,8.313,7.926,7.996,7.84,5.04,-4.88,-8.003,1.2,-1.169,8.483,5.177,-5.11,-8.34,177.0,179.8,-7.569,197.6,187.7,190.7,182.8,180.8,36,188.6,0,5,prime,10,0,79,norm,36,-4.972,down,norm,188.789190752,198.8,199.5,200.7,183.8,0,208.8,187.4,182.9,10,6,8.211,4.823,1.412,-1.383,-4.334,-8.475,171.3,6,267.8,-8.035,-7.72,-30,-8.275,-8.297,-4.932,-5.194,-5.049,-5.156,5.234,7.902,0,-1.364,1.535,4.491,8.141,-7.638,-8.185,-2.072,2.085,182.1,191.2,184.1,195.2,196.0,,191.8,185.2,179.9,185.1,5,norm,1.682,1.841,-1.678,-1.982,-5.125,-4.936,-1.785,-2.073,-1.58,-1.977,1.229,-2.06,185.1,187.7,-4.868,-8.347,1.179,-1.342,8.225,4.404,-5.014,-7.832,2,4.809,4.42,5.159,5.109,1.268,1.905,1.869,1.405,2,5.246,4.682,0,53.3273717299,norm,0,12,12,12,262.255,262.27,262.287208549,262.287,262.289,262.292,down,1,1.76074637602,8.23925362398,001,328,1920_1200,Intel(R) Core(TM) i5-3570 CPU @ 3.40GHz,orientation_search,LEPPC096,Intel(R) HD Graphics 2500,2019_Jan_22_1744,testMonitor,
234.9,227.5,234.9,233.6,36,-60,239.4,241.0,233.6,234.9,7.991,8.345,7.863,7.613,8.408,7.827,8.03,5.068,-4.869,-7.791,1.519,-1.768,7.67,5.253,-4.561,-8.154,239.0,246.5,-8.294,239.1,233.5,234.5,238.5,246.9,36,229.5,0,5,probe,5,0,78,norm,36,-5.253,up,norm,237.482780583,234.9,239.5,239.8,239.6,4,235.2,239.3,241.4,10,6,8.401,5.168,1.371,-1.767,-4.892,-8.163,236.3,2,159.5,-8.204,-8.441,-30,-7.973,-7.97,-4.772,-4.491,-5.281,-5.073,4.985,7.909,4,-2.099,1.511,5.142,7.524,-7.631,-8.15,-1.669,1.9,232.4,235.1,236.5,241.7,231.5,243.4,242.8,230.3,230.8,,0,norm,1.943,1.649,-1.334,-1.879,-4.652,-4.706,-1.68,-1.397,-1.866,-1.232,1.149,-1.745,247.5,236.4,-4.74,-8.008,1.883,-1.421,7.669,5.004,-4.869,-8.35,3,5.215,4.511,4.83,5.295,2.079,1.576,1.952,1.694,3,4.873,4.468,-30,188.789190752,norm,0,13,13,13,264.095,264.104,264.111040276,264.111,264.113,264.115,up,1,1.39345387567,8.60654612433,001,328,1920_1200,Intel(R) Core(TM) i5-3570 CPU @ 3.40GHz,orientation_search,LEPPC096,Intel(R) HD Graphics 2500,2019_Jan_22_1744,testMonitor,
248.3,255.6,253.1,256.7,36,-60,255.4,257.7,255.1,254.1,7.505,8.216,8.23,7.753,8.126,8.247,7.611,4.588,-4.763,-8.252,1.921,-1.152,7.947,4.678,-4.619,-8.199,255.5,259.9,-8.121,250.3,252.6,254.1,249.9,247.2,36,259.6,2,5,probe,5,0,96,norm,36,-4.413,up,norm,255.482780583,265.5,,260.5,253.0,4,255.6,260.7,253.5,10,6,8.288,5.013,1.135,-1.257,-4.825,-8.062,259.9,2,159.5,-7.864,-8.338,-30,-7.823,-8.179,-5.11,-4.411,-5.262,-5.065,4.968,8.456,16,-2.078,1.392,5.225,8.026,-8.062,-8.287,-1.202,1.207,257.5,261.2,255.9,258.2,260.8,254.1,245.5,252.7,248.7,246.8,1,norm,1.856,1.869,-1.643,-1.725,-5.174,-4.753,-1.685,-1.261,-1.892,-1.602,1.701,-2.063,263.1,252.8,-4.762,-8.109,1.123,-1.25,8.455,5.233,-4.97,-8.091,3,5.163,4.854,5.0,4.433,1.164,1.982,1.367,1.999,3,5.164,4.705,-30,188.789190752,norm,0,14,14,14,265.542,265.551,265.560543892,265.561,265.562,265.565,up,1,1.49990114285,8.50009885715,001,328,1920_1200,Intel(R) Core(TM) i5-3570 CPU @ 3.40GHz,orientation_search,LEPPC096,Intel(R) HD Graphics 2500,2019_Jan_22_1744,testMonitor,
27.2,-1.1,-12.8,-5.9,36,0,12.0,-9.2,8.0,3.5,8.1,7.723,7.784,7.813,8.31,8.079,7.568,4.826,-4.475,-7.592,2.068,-1.258,8.011,4.894,-4.712,-7.912,3.7,-1.7,-7.869,14.1,13.5,12.3,8.0,6.4,36,11.1,0,5,prime,10,0,84,norm,36,-4.321,down,norm,7.21069932326,11.8,4.3,12.3,-8.3,1,10.0,-3.7,19.3,10,6,7.883,4.47,1.287,-1.744,-4.765,-7.968,-9.8,6,91.2,-8.323,-7.894,0,-8.377,-7.623,-4.44,-4.947,-5.12,-4.87,4.512,8.219,1,-1.827,2.068,4.457,7.595,-7.506,-8.018,-1.369,1.86,16.8,0.0,3.5,5.5,,16.2,11.0,9.3,9.6,-2.7,0,norm,1.538,1.224,-1.732,-1.548,-4.663,-4.549,-1.183,-1.604,-1.214,-2.056,1.874,-1.993,8.3,5.4,-4.685,-7.922,1.913,-2.065,7.525,4.593,-5.045,-8.144,4,5.179,5.198,4.953,4.524,1.279,1.942,1.6,1.663,4,5.232,4.676,-60,188.789190752,norm,0,15,15,15,267.106,267.126,267.138699752,267.139,267.141,267.144,down,1,1.18765562455,8.81234437545,001,328,1920_1200,Intel(R) Core(TM) i5-3570 CPU @ 3.40GHz,orientation_search,LEPPC096,Intel(R) HD Graphics 2500,2019_Jan_22_1744,testMonitor,
-4.1,14.3,8.5,9.5,36,0,14.8,17.6,-4.7,,7.669,8.394,8.083,8.329,8.483,8.289,7.957,4.554,-4.875,-7.609,2.025,-1.124,7.625,4.304,-5.268,-8.332,6.5,12.5,-8.457,5.6,4.2,-1.5,12.2,2.0,36,17.0,4,5,prime,10,0,60,norm,36,-4.545,up,norm,7.21069932326,21.7,6.1,14.3,9.4,5,6.4,-2.2,-10.3,10,6,7.936,4.803,2.021,-1.676,-5.247,-8.165,7.2,6,67.2,-7.585,-8.33,0,-8.367,-7.838,-4.953,-5.178,-4.977,-5.022,4.913,8.034,29,-1.128,1.518,4.566,7.814,-7.612,-8.244,-1.983,1.102,8.5,-12.8,1.6,15.7,6.8,7.7,13.1,-1.2,3.6,26.1,1,norm,1.388,1.651,-1.185,-1.889,-5.101,-4.531,-1.439,-1.586,-1.618,-1.468,2.098,-1.956,17.9,12.4,-5.258,-8.386,2.024,-1.628,8.072,4.724,-4.539,-8.367,4,4.625,4.597,5.254,4.834,1.106,1.141,1.92,1.702,4,5.249,4.425,-60,188.789190752,norm,0,16,16,16,268.369,268.382,268.402270726,268.402,268.405,268.408,up,1,2.30827825254,7.69172174746,001,328,1920_1200,Intel(R) Core(TM) i5-3570 CPU @ 3.40GHz,orientation_search,LEPPC096,Intel(R) HD Graphics 2500,2019_Jan_22_1744,testMonitor,
10.3,23.3,20.0,11.9,36,0,16.8,13.8,-8.1,3.9,8.472,8.149,8.409,7.647,8.12,8.113,7.965,5.214,-4.675,-8.296,1.952,-1.938,7.526,4.323,-5.26,-7.52,-0.5,11.1,-7.919,1.1,9.4,7.7,25.3,9.8,36,13.5,2,5,prime,10,0,84,norm,36,-4.448,down,norm,7.21069932326,19.1,8.5,-3.0,10.0,0,-12.8,21.5,,10,6,7.679,4.856,1.644,-2.019,-5.062,-8.371,8.5,6,91.2,-7.665,-8.045,0,-8.429,-7.68,-4.951,-4.387,-4.726,-4.73,5.21,7.907,12,-1.752,1.731,4.846,7.635,-8.266,-7.928,-1.772,1.21,8.7,-6.3,-4.9,2.6,5.4,-5.1,27.2,7.2,2.7,-0.6,2,norm,1.27,1.373,-1.389,-1.816,-4.645,-4.367,-1.574,-1.402,-2.051,-1.723,1.309,-1.309,3.9,23.2,-4.312,-8.249,1.355,-1.326,7.544,4.639,-4.539,-8.238,4,4.574,5.298,5.284,5.173,1.926,1.266,1.939,1.109,4,4.735,4.596,-60,188.789190752,norm,0,17,17,17,270.756,270.765,270.774204532,270.774,270.776,270.779,up,0,1.83962200648,-10,001,328,1920_1200,Intel(R) Core(TM) i5-3570 CPU @ 3.40GHz,orientation_search,LEPPC096,Intel(R) HD Graphics 2500,2019_Jan_22_1744,testMonitor,
-0.5,18.5,7.7,-4.3,36,0,7.2,4.8,-0.3,7.7,8.142,7.937,8.17,8.068,8.059,8.059,7.801,5.052,-4.734,-8.241,1.999,-1.792,8.397,4.906,-4.988,-8.039,20.5,8.5,-8.366,10.4,,-10.7,5.5,-4.7,36,17.9,5,5,prime,10,0,70,norm,36,-4.416,down,norm,7.21069932326,6.9,2.0,9.0,4.4,0,-2.4,20.0,14.3,10,6,7.983,4.792,1.413,-1.331,-5.001,-8.327,-2.0,6,77.2,-7.764,-8.345,0,-8.003,-7.76,-5.166,-4.787,-4.699,-4.68,4.357,8.296,30,-1.385,1.167,4.664,8.066,-8.191,-7.92,-1.173,1.818,21.7,15.4,2.5,27.2,4.2,11.6,8.5,20.4,-5.9,2.3,3,norm,1.545,1.96,-2.025,-1.734,-4.965,-5.141,-1.593,-2.083,-1.469,-1.762,1.66,-1.783,10.3,-12.8,-4.55,-7.757,1.281,-1.757,8.161,4.807,-4.595,-7.5,4,4.846,4.594,4.305,4.703,1.537,1.483,1.895,1.731,4,5.035,4.886,-60,188.789190752,norm,0,18,18,18,273.693,273.702,273.719153626,273.719,273.721,273.724,down,1,2.38509584314,7.61490415686,001,328,1920_1200,Intel(R) Core(TM) i5-3570 CPU @ 3.40GHz,orientation_search,LEPPC096,Intel(R) HD Graphics 2500,2019_Jan_22_1744,testMonitor,
,-1.4,9.1,-7.2,36,0,6.4,4.7,3.3,14.2,8.129,8.001,8.384,8.357,7.597,7.635,7.913,4.512,-4.489,-7.993,1.203,-2.064,8.314,4.41,-4.649,-7.6,10.6,-12.8,-7.56,20.0,-1.4,-9.5,-3.7,1.4,36,1.4,3,5,prime,10,0,116,norm,36,-5.14,up,norm,7.21069932326,21.1,5.7,18.0,-5.5,4,-11.7,20.7,0.3,10,6,8.239,5.039,2.0,-2.07,-4.352,-7.711,1.9,6,123.2,-8.407,-8.258,0,-7.896,-8.399,-4.897,-4.419,-5.255,-4.305,5.293,8.17,22,-1.257,1.256,4.474,7.98,-7.62,-7.995,-1.705,1.42,27.2,4.4,-2.6,-7.0,2.0,-3.1,4.6,8.1,4.4,-0.2,4,norm,1.163,1.553,-1.546,-1.411,-4.618,-4.905,-1.77,-1.289,-1.714,-1.95,1.719,-2.055,11.9,8.8,-4.765,-8.331,1.855,-1.511,8.434,4.649,-5.165,-7.908,4,5.154,5.268,4.84,5.245,1.161,1.325,1.57,1.948,4,4.884,4.43,-60,188.789190752,norm,0,19,19,19,276.142,276.151,276.168237062,276.168,276.17,276.173,up,1,1.47138530714,8.52861469286,001,328,1920_1200,Intel(R) Core(TM) i5-3570 CPU @ 3.40GHz,orientation_search,LEPPC096,Intel(R) HD Graphics 2500,2019_Jan_22_1744,testMonitor,
19.1,27.2,-10.2,25.3,36,0,8.5,3.5,-3.4,-3.9,8.406,8.303,7.965,7.936,7.63,7.699,7.526,4.678,-4.615,-8.099,1.324,-1.382,7.889,5.008,-4.953,-8.034,4.3,9.8,-7.653,0.0,13.7,-8.2,2.3,13.0,36,,4,5,prime,10,0,82,norm,36,-4.751,up,norm,7.21069932326,-6.9,-0.5,7.0,-1.7,3,-5.3,1.1,11.2,10,6,7.621,5.161,1.114,-1.859,-4.34,-7.771,-12.8,6,89.2,-8.229,-7.613,0,-8.249,-7.722,-4.811,-4.703,-4.59,-4.947,4.451,8.02,27,-1.775,1.889,4.654,7.547,-7.782,-7.683,-1.441,1.328,24.2,6.4,8.9,3.8,9.6,7.2,5.9,4.8,13.4,-7.5,5,norm,1.654,1.231,-2.09,-1.203,-4.364,-4.406,-1.469,-1.183,-1.357,-1.153,1.268,-1.961,-1.7,-0.9,-4.698,-7.786,1.69,-1.972,7.577,4.3,-4.768,-7.913,4,5.068,4.889,4.95,4.414,1.574,1.948,1.844,1.459,4,4.452,4.733,-60,188.789190752,norm,0,20,20,20,277.682,277.692,277.698240282,277.698,277.7,277.703,up,1,1.4322952276,8.5677047724,001,328,1920_1200,Intel(R) Core(TM) i5-3570 CPU @ 3.40GHz,orientation_search,LEPPC096,Intel(R) HD Graphics 2500,2019_Jan_22_1744,testMonitor,
93.8,102.6,102.2,97.5,36,-80,102.6,96.3,97.9,104.7,8.209,8.112,8.129,8.348,8.481,7.903,7.946,4.86,-4.448,-7.881,2.052,-1.304,8.336,4.419,-4.998,-7.552,98.8,91.0,-8.122,96.8,95.1,100.3,96.1,98.3,36,98.9,0,5,probe,5,0,90,norm,36,-4.707,down,norm,100.71666012,95.2,95.0,99.2,100.0,2,104.8,101.0,95.1,10,6,8.047,4.956,1.552,-1.278,-4.534,-8.204,107.5,2,10.7,-7.729,-7.781,0,-8.026,-7.937,-4.593,-4.657,-5.281,-5.013,5.134,7.686,2,-1.495,1.537,4.983,8.268,-7.906,-7.842,-1.968,2.08,106.1,94.3,96.4,,90.7,110.7,109.1,96.6,96.5,101.8,0,norm,1.638,1.667,-1.724,-1.346,-4.674,-5.143,-1.501,-1.558,-1.543,-1.792,1.317,-1.947,103.6,103.7,-5.067,-8.33,1.311,-1.453,8.037,4.632,-4.394,-7.727,5,5.291,4.548,4.954,4.45,2.074,1.913,1.249,1.827,5,4.468,5.296,0,7.21069932326,norm,0,21,21,21,279.168,279.178,279.194632072,279.195,279.196,279.199,down,1,1.17638922973,8.82361077027,001,328,1920_1200,Intel(R) Core(TM) i5-3570 CPU @ 3.40GHz,orientation_search,LEPPC096,Intel(R) HD Graphics 2500,2019_Jan_22_1744,testMonitor,
107.9,113.5,101.3,101.1,36,-80,119.7,106.9,107.3,111.5,7.924,8.222,7.848,7.887,7.61,7.848,8.076,4.923,-4.825,-8.072,1.754,-1.118,7.749,5.034,-4.57,-8.031,117.6,107.5,-7.69,116.7,103.1,108.2,108.9,114.2,36,99.7,0,5,probe,5,0,99,norm,36,-5.027,down,norm,109.71666012,109.1,106.9,105.9,113.2,2,100.9,102.2,110.8,10,6,7.802,4.874,2.038,-2.078,-4.44,-7.659,115.7,2,10.7,-7.698,-8.068,0,-8.331,-8.014,-4.371,-5.109,-4.602,-4.88,5.23,7.628,2,-1.413,1.818,4.468,8.006,-7.937,-7.794,-1.765,1.824,115.7,116.7,115.4,,113.3,101.5,107.6,113.3,114.3,103.7,1,norm,1.867,1.265,-1.722,-1.132,-4.466,-5.15,-1.386,-1.596,-2.074,-2.011,1.64,-1.567,109.8,109.7,-4.933,-7.991,1.912,-1.716,8.418,4.727,-4.654,-8.357,5,5.1,5.279,5.03,4.665,1.833,1.339,1.884,1.647,5,4.441,4.679,0,7.21069932326,norm,0,22,22,22,280.412,280.421,280.428150774,280.428,280.43,280.433,down,1,1.15566424308,8.84433575692,001,328,1920_1200,Intel(R) Core(TM) i5-3570 CPU @ 3.40GHz,orientation_search,LEPPC096,Intel(R) HD Graphics 2500,2019_Jan_22_1744,testMonitor,
165.7,186.2,173.9,,36,60,176.4,177.8,175.1,160.3,8.358,7.659,7.818,7.631,8.347,7.976,8.294,5.075,-4.397,-7.915,1.62,-1.936,7.953,5.046,-4.655,-7.828,173.0,197.0,-7.752,157.0,182.3,163.1,192.0,163.8,36,181.6,3,5,prime,10,0,66,norm,36,-5.252,up,norm,176.96169809,166.8,171.8,189.2,186.7,3,187.7,173.2,173.7,10,6,8.145,4.995,1.365,-1.685,-4.84,-8.216,164.3,6,243.0,-8.056,-8.43,60,-8.005,-8.004,-5.267,-4.836,-4.84,-4.313,4.936,7.739,21,-1.289,1.413,4.891,7.873,-8.368,-7.553,-1.43,1.87,187.3,168.4,171.1,172.5,185.1,179.2,173.3,173.4,162.7,169.1,0,norm,1.228,1.703,-1.144,-1.369,-5.295,-4.667,-1.781,-1.13,-1.159,-1.559,1.155,-1.701,169.0,169.5,-4.399,-7.792,1.236,-1.337,8.203,4.461,-4.774,-7.966,6,5.021,4.979,5.112,5.138,1.403,1.278,1.405,1.796,6,5.266,4.797,-80,7.21069932326,norm,0,23,23,23,281.629,281.651,281.662035624,281.662,281.664,281.667,up,1,1.59160043238,8.40839956762,001,328,1920_1200,Intel(R) Core(TM) i5-3570 CPU @ 3.40GHz,orientation_search,LEPPC096,Intel(R) HD Graphics 2500,2019_Jan_22_1744,testMonitor,
174.9,178.9,173.2,164.7,36,60,190.2,176.9,184.0,179.8,8.28,7.502,8.445,8.116,8.456,8.32,8.3,4.995,-4.558,-7.794,1.888,-1.401,8.354,5.255,-4.419,-8.1,197.0,188.0,-7.599,161.1,169.5,177.1,175.2,181.8,36,176.9,2,5,prime,10,0,93,norm,36,-5.262,up,norm,176.96169809,172.6,,167.9,190.9,4,187.3,189.2,165.9,10,6,7.942,4.688,2.019,-1.695,-4.865,-7.51,164.7,6,270.0,-8.306,-8.334,60,-7.942,-8.211,-4.808,-4.988,-4.638,-5.209,5.166,8.329,16,-1.695,1.925,4.872,7.959,-8.169,-7.594,-1.561,1.309,175.5,165.7,169.3,188.7,181.4,176.1,193.3,186.0,174.5,162.2,1,norm,1.409,1.352,-2.086,-1.987,-4.679,-5.127,-1.419,-1.359,-1.523,-1.415,1.687,-1.648,174.0,175.0,-4.78,-8.1,1.916,-1.958,7.87,4.409,-4.708,-7.544,6,5.016,5.121,4.329,4.624,1.666,1.36,1.508,1.723,6,5.089,4.45,-80,7.21069932326,norm,0,24,24,24,283.298,283.307,283.314322575,283.315,283.316,283.319,up,1,2.15624923593,7.84375076407,001,328,1920_1200,Intel(R) Core(TM) i5-3570 CPU @ 3.40GHz,orientation_search,LEPPC096,Intel(R) HD Graphics 2500,2019_Jan_22_1744,testMonitor,
195.3,,164.1,188.2,36,60,171.0,175.7,176.6,175.2,7.874,8.279,7.848,8.026,7.716,7.57,7.5,4.629,-4.699,-8.027,1.11,-1.302,7.772,4.572,-4.822,-8.067,177.2,169.5,-8.232,163.9,170.5,161.5,184.4,193.2,36,182.3,3,5,prime,10,0,63,norm,36,-4.788,up,norm,176.96169809,177.2,182.1,180.9,164.6,5,174.0,184.5,179.2,10,6,8.153,5.273,1.294,-1.413,-4.975,-8.012,166.5,6,240.0,-8.345,-7.993,60,-7.761,-7.62,-4.472,-5.142,-4.447,-4.6,4.711,8.177,23,-1.362,1.593,5.138,8.183,-8.461,-8.226,-1.488,2.061,167.2,174.8,168.0,162.1,163.7,197.0,157.0,185.3,182.2,187.1,2,norm,1.264,1.604,-1.209,-1.758,-5.109,-4.824,-1.896,-1.33,-1.854,-1.54,2.081,-1.801,172.0,192.5,-5.241,-7.825,1.242,-1.516,8.241,5.195,-5.269,-8.367,6,4.822,4.795,5.035,4.899,1.182,1.44,1.925,1.12,6,4.7,4.569,-80,7.21069932326,norm,0,25,25,25,285.513,285.522,285.529272432,285.529,285.531,285.534,up,1,1.92935803826,8.07064196174,001,328,1920_1200,Intel(R) Core(TM) i5-3570 CPU @ 3.40GHz,orientation_search,LEPPC096,Intel(R) HD Graphics 2500,2019_Jan_22_1744,testMonitor,
175.4,169.3,187.7,185.1,36,60,182.5,180.6,183.6,,7.973,7.666,7.894,7.59,7.937,7.507,8.133,5.021,-5.235,-8.276,1.699,-1.401,8.096,4.658,-4.331,-8.117,183.3,162.4,-8.399,184.9,168.7,192.5,179.7,161.4,36,197.0,4,5,prime,10,0,117,norm,36,-4.804,up,norm,176.96169809,168.2,192.3,170.3,172.8,5,175.9,157.0,177.5,10,6,7.798,5.058,1.682,-1.272,-4.762,-8.087,179.7,6,294.0,-8.362,-7.931,60,-8.074,-8.173,-5.171,-5.035,-4.389,-5.16,4.484,8.258,29,-1.581,1.753,4.389,7.997,-8.027,-7.577,-1.378,1.561,175.5,166.4,170.0,165.5,175.6,184.4,179.6,178.6,186.9,171.3,3,norm,1.974,1.902,-1.311,-2.072,-4.828,-4.881,-1.153,-2.093,-1.737,-1.768,1.238,-2.078,169.4,184.1,-5.061,-7.557,1.737,-1.898,8.055,5.139,-5.1,-8.012,6,4.519,5.286,4.544,5.259,1.706,1.463,1.586,1.634,6,5.194,5.063,-80,7.21069932326,norm,0,26,26,26,287.48,287.491,287.496160569,287.496,287.498,287.502,up,1,1.95414869504,8.04585130496,001,328,1920_1200,Intel(R) Core(TM) i5-3570 CPU @ 3.40GHz,orientation_search,LEPPC096,Intel(R) HD Graphics 2500,2019_Jan_22_1744,testMonitor,
176.0,182.9,177.9,176.7,36,60,177.6,197.0,,175.0,8.074,8.044,8.46,7.519,7.935,7.714,8.049,5.175,-4.301,-8.257,1.158,-1.547,7.6,5.182,-4.545,-8.489,182.4,191.6,-7.547,179.7,173.5,186.0,171.3,170.2,36,167.7,4,5,prime,10,0,111,norm,36,-5.264,up,norm,176.96169809,185.4,157.4,172.3,181.2,4,183.9,167.3,172.4,10,6,7.656,5.121,1.757,-1.668,-4.779,-8.34,180.7,6,288.0,-7.654,-8.494,60,-7.65,-8.4,-4.869,-5.018,-4.436,-4.907,4.768,7.533,28,-1.351,1.131,5.064,8.272,-7.996,-7.53,-1.952,1.823,157.0,173.4,175.0,162.6,178.3,182.3,161.8,172.3,171.8,167.1,4,norm,1.522,1.503,-1.526,-1.473,-4.628,-4.703,-1.716,-2.024,-1.685,-1.466,1.871,-1.475,158.7,161.8,-5.069,-7.931,1.151,-1.521,7.512,4.484,-4.395,-8.487,6,4.338,5.299,5.12,4.602,1.346,1.626,1.623,1.143,6,4.842,4.66,-80,7.21069932326,norm,0,27,27,27,289.472,289.483,289.488376361,289.489,289.49,289.493,up,1,2.32870410198,7.67129589802,001,328,1920_1200,Intel(R) Core(TM) i5-3570 CPU @ 3.40GHz,orientation_search,LEPPC096,Intel(R) HD Graphics 2500,2019_Jan_22_1744,testMonitor,
172.2,179.8,170.0,157.8,36,60,188.4,173.8,183.3,176.6,7.827,7.926,8.197,7.997,7.804,7.62,7.963,5.03,-4.981,-8.456,1.482,-2.082,8.138,4.574,-4.878,-8.408,177.5,186.7,-8.065,175.9,173.0,188.0,159.2,182.5,36,180.6,0,5,prime,10,0,106,norm,36,-4.423,up,norm,176.96169809,162.4,186.9,172.2,169.1,3,180.2,158.8,178.9,10,6,8.039,4.986,1.594,-1.559,-5.095,-7.618,184.8,6,283.0,-7.648,-8.142,60,-7.803,-8.046,-4.801,-4.614,-4.978,-4.914,5.033,8.189,3,-1.693,1.398,4.979,8.386,-8.434,-8.424,-1.316,1.994,173.5,175.0,,184.1,157.0,187.4,164.1,164.8,163.8,190.0,5,norm,1.123,1.627,-1.689,-1.494,-4.934,-4.491,-1.468,-1.25,-1.44,-1.656,1.658,-1.802,171.0,197.0,-5.163,-8.421,1.128,-1.156,8.335,4.972,-4.343,-7.596,6,5.184,4.539,4.434,4.825,1.95,1.223,1.678,1.832,6,4.947,4.715,-80,7.21069932326,norm,0,28,28,28,291.863,291.883,291.895413058,291.896,291.898,291.9,up,1,2.07380478686,7.92619521314,001,328,1920_1200,Intel(R) Core(TM) i5-3570 CPU @ 3.40GHz,orientation_search,LEPPC096,Intel(R) HD Graphics 2500,2019_Jan_22_1744,testMonitor,
313.1,310.9,307.8,320.2,36,-10,317.4,316.1,309.9,315.1,7.951,7.982,8.413,8.338,7.865,8.296,7.75,5.169,-4.796,-7.532,1.817,-1.769,7.905,5.063,-4.678,-7.837,312.3,314.7,-7.84,306.1,320.2,312.5,309.9,307.8,36,314.3,2,5,probe,5,0,84,norm,36,-4.643,down,norm,312.66188141,318.8,315.2,308.5,,2,315.5,311.9,315.8,10,6,7.974,4.826,1.367,-1.462,-4.641,-7.909,314.8,1,228.7,-8.29,-8.211,60,-8.036,-8.062,-4.905,-4.944,-4.625,-4.974,4.722,8.326,14,-1.494,2.088,4.644,7.91,-8.069,-8.274,-1.139,1.374,305.2,310.0,303.7,311.4,322.7,314.7,315.1,302.7,312.2,310.1,0,norm,1.404,1.687,-1.961,-2.039,-4.812,-4.816,-1.201,-1.678,-1.952,-1.703,1.483,-1.723,315.2,312.3,-4.986,-8.221,1.93,-1.686,7.799,4.43,-4.628,-7.531,7,5.182,4.42,5.109,4.491,1.825,1.738,2.084,1.875,7,4.649,4.673,60,176.96169809,norm,0,29,29,29,294.016,294.036,294.048157469,294.048,294.05,294.053,down,1,1.39878521918,8.60121478082,001,328,1920_1200,Intel(R) Core(TM) i5-3570 CPU @ 3.40GHz,orientation_search,LEPPC096,Intel(R) HD Graphics 2500,2019_Jan_22_1744,testMonitor,
349.0,369.4,357.0,349.0,36,-80,352.8,,355.9,344.2,7.593,7.593,7.763,8.266,8.299,8.319,7.662,4.906,-4.925,-8.081,2.003,-1.467,8.378,4.509,-4.806,-8.409,344.7,361.1,-7.512,357.9,351.6,360.8,349.1,371.4,36,344.5,4,5,prime,10,0,96,norm,36,-4.524,down,norm,354.298077326,361.5,359.8,355.8,358.1,1,334.3,364.8,350.0,10,6,8.305,4.903,1.678,-1.745,-4.622,-8.275,362.9,6,450.3,-8.197,-8.354,-80,-8.48,-8.398,-5.212,-4.799,-4.35,-4.789,4.381,8.474,25,-1.837,1.83,4.535,8.422,-8.099,-7.565,-1.858,1.829,337.3,342.1,351.3,343.7,347.5,345.0,374.3,351.1,358.0,339.9,0,norm,1.998,2.072,-1.243,-1.601,-4.347,-4.877,-1.39,-1.215,-1.832,-1.445,1.914,-1.228,355.4,366.0,-4.579,-7.772,1.387,-1.603,7.506,4.315,-4.552,-8.336,8,4.786,4.762,4.982,5.227,1.208,1.414,1.404,1.588,8,4.782,5.056,-10,176.96169809,norm,0,30,30,30,295.485,295.495,295.511880215,295.512,295.514,295.516,down,1,2.87006095336,7.12993904664,001,328,1920_1200,Intel(R) Core(TM) i5-3570 CPU @ 3.40GHz,orientation_search,LEPPC096,Intel(R) HD Graphics 2500,2019_Jan_22_1744,testMonitor,
336.0,357.9,362.1,358.6,36,-80,356.4,359.4,357.7,345.9,8.465,8.49,8.21,8.484,7.665,8.378,7.881,4.629,-4.8,-8.488,1.43,-1.542,8.081,5.168,-4.771,-7.513,352.4,355.0,-7.922,345.9,366.8,360.4,361.2,365.3,36,353.5,2,5,prime,10,0,93,norm,36,-4.804,down,norm,354.298077326,374.3,355.2,366.9,,2,341.8,353.2,356.2,10,6,8.214,5.005,1.973,-1.648,-4.611,-8.244,349.1,6,447.3,-7.867,-7.704,-80,-7.625,-8.091,-5.036,-4.42,-5.224,-4.389,4.951,7.91,14,-1.996,2.022,5.055,8.115,-7.998,-7.922,-1.901,1.674,343.9,348.5,353.0,352.9,352.1,334.3,353.0,357.1,358.3,348.5,1,norm,1.893,1.626,-1.527,-1.724,-4.391,-4.52,-1.645,-1.821,-1.129,-1.242,1.784,-1.574,352.2,362.4,-5.225,-8.047,1.216,-1.492,8.249,4.819,-4.378,-8.262,8,4.945,4.335,4.981,5.232,2.061,2.076,1.284,1.944,8,4.381,4.661,-10,176.96169809,norm,0,31,31,31,298.42,298.434,298.452680629,298.453,298.455,298.457,down,1,1.87570924346,8.12429075654,001,328,1920_1200,Intel(R) Core(TM) i5-3570 CPU @ 3.40GHz,orientation_search,LEPPC096,Intel(R) HD Graphics 2500,2019_Jan_22_1744,testMonitor,
351.1,355.2,368.2,344.9,36,-80,365.8,363.4,354.4,344.3,7.961,8.047,7.946,8.414,8.197,8.378,7.524,4.726,-4.918,-8.346,1.633,-2.09,7.522,4.744,-5.15,-8.15,362.7,366.9,-8.032,350.4,355.5,349.4,344.7,360.4,36,358.5,0,5,prime,10,0,92,norm,36,-4.867,up,norm,354.298077326,334.3,361.6,370.5,368.6,5,356.4,346.0,349.0,10,6,8.104,4.435,1.463,-1.595,-5.155,-7.771,343.2,6,446.3,-7.595,-7.625,-80,-8.324,-8.042,-4.712,-5.245,-4.62,-4.422,4.901,8.452,5,-1.776,1.256,5.101,7.773,-8.263,-7.561,-1.116,1.566,349.0,361.3,341.2,362.0,346.1,351.8,361.8,350.6,,364.7,2,norm,1.701,1.14,-1.945,-1.396,-5.013,-4.633,-1.287,-2.087,-1.842,-2.049,1.425,-1.234,351.8,374.3,-5.008,-8.158,1.225,-1.523,7.505,4.641,-4.345,-7.7,8,5.167,4.336,4.995,5.086,1.859,1.587,1.893,1.747,8,4.58,4.487,-10,176.96169809,norm,0,32,32,32,300.35,300.361,300.365939289,300.366,300.368,300.371,up,1,2.71453465751,7.28546534249,001,328,1920_1200,Intel(R) Core(TM) i5-3570 CPU @ 3.40GHz,orientation_search,LEPPC096,Intel(R) HD Graphics 2500,2019_Jan_22_1744,testMonitor,
374.3,348.8,350.6,334.3,36,-80,360.7,343.0,347.6,367.2,8.177,7.513,7.871,7.821,7.581,8.245,7.643,5.077,-5.207,-7.662,1.13,-1.508,8.436,4.807,-4.628,-7.881,345.1,351.5,-7.609,357.3,356.5,359.2,346.9,342.0,36,364.9,1,5,prime,10,0,111,norm,36,-5.279,down,norm,354.298077326,353.8,355.0,351.7,346.9,1,353.7,355.2,358.8,10,6,7.915,4.761,2.07,-1.533,-5.163,-7.516,361.6,6,465.3,-8.131,-7.559,-80,-7.865,-8.211,-5.068,-5.05,-4.434,-4.344,4.506,8.158,7,-1.725,1.218,5.197,7.981,-7.82,-7.823,-1.121,1.11,356.1,357.1,359.9,361.0,357.6,358.1,,366.0,365.9,362.4,3,norm,1.458,1.723,-1.772,-1.844,-4.933,-5.246,-1.833,-1.773,-1.724,-1.273,1.971,-1.286,349.1,365.0,-4.632,-8.374,1.97,-1.725,8.407,4.967,-4.808,-7.935,8,4.995,4.86,4.556,5.258,1.428,1.925,1.527,1.716,8,4.958,4.837,-10,176.96169809,norm,0,33,33,33,303.125,303.134,303.141320448,303.142,303.143,303.146,down,1,1.14389103557,8.85610896443,001,328,1920_1200,Intel(R) Core(TM) i5-3570 CPU @ 3.40GHz,orientation_search,LEPPC096,Intel(R) HD Graphics 2500,2019_Jan_22_1744,testMonitor,
,363.3,361.0,353.5,36,-80,348.2,359.7,350.5,347.9,7.952,7.863,8.079,8.334,7.652,7.907,8.175,4.946,-5.044,-7.73,1.311,-1.931,7.729,4.443,-4.857,-7.769,356.4,360.8,-7.688,358.3,358.4,348.8,352.6,335.8,36,340.0,3,5,prime,10,0,103,norm,36,-4.683,up,norm,354.298077326,356.4,342.3,343.5,361.2,4,353.5,371.1,334.3,10,6,8.287,4.77,1.576,-1.709,-4.59,-7.561,347.4,6,457.3,-8.456,-7.731,-80,-7.559,-7.55,-4.729,-4.574,-4.538,-4.529,4.612,7.817,22,-1.822,1.306,4.686,7.561,-7.752,-7.519,-1.267,1.412,347.1,364.4,349.8,361.0,357.1,363.2,352.1,369.4,351.3,365.9,4,norm,1.269,1.876,-1.258,-2.059,-5.189,-4.934,-1.407,-1.767,-1.154,-1.849,1.412,-1.789,352.7,374.3,-4.459,-7.708,2.083,-1.141,8.461,5.159,-4.411,-7.901,8,4.927,4.887,4.994,4.831,1.411,1.593,1.942,1.109,8,4.361,4.386,-10,176.96169809,norm,0,34,34,34,304.326,304.336,304.343394727,304.344,304.345,304.348,down,0,2.13745762349,-10,001,328,1920_1200,Intel(R) Core(TM) i5-3570 CPU @ 3.40GHz,orientation_search,LEPPC096,Intel(R) HD Graphics 2500,2019_Jan_22_1744,testMonitor,
354.5,340.5,353.8,341.7,36,-80,358.1,352.5,366.5,363.0,7.921,8.022,8.056,7.57,8.242,7.837,8.076,4.949,-4.612,-8.071,1.644,-1.674,7.578,4.712,-4.352,-7.627,363.3,335.9,-8.257,368.3,374.3,356.2,347.1,,36,347.6,4,5,prime,10,0,66,norm,36,-5.196,down,norm,354.298077326,356.5,334.3,355.7,335.7,2,359.1,351.9,360.5,10,6,7.95,4.905,1.822,-1.869,-5.199,-8.321,357.3,6,420.3,-7.842,-8.051,-80,-7.62,-8.347,-4.581,-4.824,-5.186,-4.651,5.137,7.557,26,-1.341,1.463,4.586,8.094,-8.415,-8.351,-1.207,1.585,351.5,350.6,343.8,352.8,368.8,354.0,346.6,347.7,349.8,342.6,5,norm,1.908,1.331,-1.98,-1.979,-5.249,-5.258,-2.09,-1.387,-2.054,-1.471,1.605,-1.398,357.4,348.5,-4.446,-7.718,1.653,-1.691,7.636,4.831,-4.385,-7.583,8,4.769,5.001,5.283,4.725,1.371,1.759,1.634,1.658,8,4.888,4.31,-10,176.96169809,norm,0,35,35,35,307.56,307.569,307.586043604,307.586,307.588,307.59,down,1,1.15874496394,8.84125503606,001,328,1920_1200,Intel(R) Core(TM) i5-3570 CPU @ 3.40GHz,orientation_search,LEPPC096,Intel(R) HD Graphics 2500,2019_Jan_22_1744,testMonitor,
,358.6,360.9,354.1,36,60,366.5,367.1,358.5,358.1,7.71,8.445,8.287,7.627,8.122,7.687,8.424,5.223,-4.988,-7.95,2.0,-1.952,7.579,4.33,-4.604,-8.432,364.3,351.9,-8.351,358.3,360.3,362.8,353.3,358.7,36,361.4,3,5,probe,5,0,88,norm,36,-4.722,up,norm,357.075129611,357.3,361.8,358.9,358.2,4,362.8,359.9,350.3,10,6,7.82,4.715,2.033,-1.303,-4.302,-8.166,347.1,1,269.1,-7.873,-7.503,-80,-7.666,-8.147,-5.252,-4.694,-4.622,-5.076,4.614,8.275,22,-1.478,1.957,4.414,7.668,-7.735,-7.999,-1.948,1.291,359.8,359.8,355.5,364.8,359.1,351.1,353.5,349.4,361.3,353.1,0,norm,1.55,2.06,-1.242,-1.145,-4.309,-4.967,-1.527,-1.346,-1.48,-1.475,1.601,-1.128,353.6,363.8,-4.474,-7.983,1.51,-1.723,8.291,4.452,-4.338,-8.392,9,4.621,4.702,5.177,4.855,1.911,1.929,1.373,1.991,9,4.655,4.824,-80,354.298077326,norm,0,36,36,36,308.788,308.798,308.81827339,308.818,308.82,308.823,up,1,1.24589169301,8.75410830699,001,328,1920_1200,Intel(R) Core(TM) i5-3570 CPU @ 3.40GHz,orientation_search,LEPPC096,Intel(R) HD Graphics 2500,2019_Jan_22_1744,testMonitor,
58.1,,36.4,68.0,36,80,48.1,33.8,40.3,63.7,8.047,8.126,7.978,8.08,8.137,7.965,7.992,4.688,-4.599,-8.278,1.406,-2.092,7.837,4.414,-5.08,-8.014,60.2,53.1,-7.934,64.0,46.8,33.4,48.4,66.6,36,49.6,3,5,prime,10,0,78,norm,36,-4.361,up,norm,48.9399884411,39.4,54.2,42.0,49.3,5,50.4,28.9,57.2,10,6,8.408,4.504,1.879,-1.898,-4.684,-7.765,55.5,6,126.9,-8.1,-8.329,80,-8.059,-7.864,-4.658,-5.045,-4.996,-4.978,4.913,7.805,23,-1.547,1.847,4.716,7.811,-7.902,-7.899,-1.496,1.198,60.5,49.8,68.9,53.4,55.4,54.6,57.3,44.1,40.4,48.5,0,norm,1.73,1.129,-1.894,-1.84,-5.187,-4.703,-2.082,-1.858,-1.384,-1.964,1.927,-2.005,34.1,33.7,-4.442,-8.047,1.162,-1.801,8.228,4.892,-5.165,-7.648,10,4.842,4.732,5.138,4.619,1.825,1.507,1.268,1.246,10,4.685,5.044,60,354.298077326,norm,0,37,37,37,310.102,310.112,310.128655262,310.129,310.131,310.133,up,1,2.26444936869,7.73555063131,001,328,1920_1200,Intel(R) Core(TM) i5-3570 CPU @ 3.40GHz,orientation_search,LEPPC096,Intel(R) HD Graphics 2500,2019_Jan_22_1744,testMonitor,
46.3,48.0,56.4,36.8,36,80,40.7,62.4,,51.0,8.2,7.544,8.236,8.036,8.457,8.092,8.267,4.434,-4.809,-8.451,1.931,-2.031,8.142,5.254,-4.837,-8.392,48.8,55.1,-8.03,42.4,54.8,59.6,53.2,55.1,36,50.7,4,5,prime,10,0,94,norm,36,-5.046,up,norm,48.9399884411,62.3,47.2,54.2,62.4,4,46.9,68.9,45.5,10,6,8.316,4.372,1.259,-1.741,-4.854,-7.697,44.3,6,142.9,-8.112,-7.815,80,-7.785,-7.775,-4.918,-5.126,-4.742,-4.822,4.737,8.416,28,-1.439,1.724,4.645,8.249,-7.796,-8.108,-1.336,1.859,47.2,44.3,62.7,60.4,53.5,43.1,64.2,41.2,51.6,45.8,1,norm,1.931,1.87,-1.186,-1.382,-5.112,-4.903,-1.262,-1.788,-1.656,-1.291,2.064,-1.763,28.9,47.8,-4.345,-7.754,1.17,-1.836,7.845,4.914,-4.914,-8.074,10,4.584,5.123,4.706,5.174,1.38,1.599,1.453,1.434,10,4.349,4.842,60,354.298077326,norm,0,38,38,38,312.431,312.442,312.446764594,312.447,312.449,312.452,up,1,1.99082122673,8.00917877327,001,328,1920_1200,Intel(R) Core(TM) i5-3570 CPU @ 3.40GHz,orientation_search,LEPPC096,Intel(R) HD Graphics 2500,2019_Jan_22_1744,testMonitor,
58.0,47.4,66.5,34.8,36,80,62.9,45.6,45.1,59.4,8.06,7.911,7.747,7.774,7.637,8.467,8.205,4.779,-4.831,-7.634,1.85,-1.422,8.342,5.262,-4.677,-8.106,,43.2,-7.505,39.7,48.5,68.9,43.1,49.3,36,49.4,5,5,prime,10,0,82,norm,36,-4.45,up,norm,48.9399884411,54.6,34.0,63.0,63.9,5,60.4,60.8,53.7,10,6,8.01,4.777,1.908,-1.422,-4.596,-8.336,51.1,6,130.9,-7.847,-7.622,80,-8.078,-8.016,-4.662,-5.09,-5.057,-4.794,4.822,7.915,35,-2.08,1.763,4.613,8.013,-7.507,-8.197,-1.375,1.534,48.3,50.0,28.9,37.8,50.8,36.4,44.7,50.1,39.7,65.6,2,norm,1.742,1.83,-1.577,-1.134,-4.325,-4.387,-1.871,-1.911,-1.295,-1.352,1.509,-1.832,44.4,63.0,-5.283,-8.084,2.035,-1.672,7.908,4.428,-4.694,-7.812,10,4.426,4.971,5.194,4.451,1.383,1.328,1.313,1.23,10,4.625,4.535,60,354.298077326,norm,0,39,39,39,314.476,314.486,314.49668006,314.497,314.499,314.501,up,1,1.43751397961,8.56248602039,001,328,1920_1200,Intel(R) Core(TM) i5-3570 CPU @ 3.40GHz,orientation_search,LEPPC096,Intel(R) HD Graphics 2500,2019_Jan_22_1744,testMonitor,
57.6,45.1,54.7,59.8,36,80,31.6,49.3,37.1,45.1,7.58,7.915,8.069,8.474,7.554,8.194,7.652,4.774,-4.6,-8.165,1.799,-1.467,8.37,4.534,-4.713,-8.232,34.3,43.0,-8.244,46.4,54.1,58.0,65.5,42.7,36,52.9,2,5,prime,10,0,72,norm,36,-4.557,down,norm,48.9399884411,62.3,64.8,68.9,,2,54.5,52.0,28.9,10,6,7.721,4.746,1.686,-1.666,-4.538,-8.482,41.3,6,120.9,-7.666,-7.958,80,-7.658,-8.178,-5.118,-4.536,-4.709,-4.788,5.047,8.256,14,-1.678,2.066,4.786,8.216,-7.583,-8.221,-1.29,1.123,43.2,45.5,51.3,36.8,45.5,57.5,51.4,50.7,58.9,54.6,3,norm,1.725,1.569,-1.498,-1.78,-4.473,-4.347,-1.111,-1.293,-2.094,-1.948,1.679,-1.625,34.6,48.8,-4.414,-8.264,2.036,-1.511,8.283,4.549,-4.452,-8.266,10,4.873,4.918,4.535,4.455,1.545,1.873,1.221,1.665,10,5.01,5.178,60,354.298077326,norm,0,40,40,40,315.98,316.001,316.012542633,316.013,316.015,316.018,down,1,1.10527396109,8.89472603891,001,328,1920_1200,Intel(R) Core(TM) i5-3570 CPU @ 3.40GHz,orientation_search,LEPPC096,Intel(R) HD Graphics 2500,2019_Jan_22_1744,testMonitor,
56.8,62.1,29.8,46.7,36,80,56.2,55.1,58.0,40.3,8.432,7.512,7.658,7.632,7.736,7.871,7.636,4.974,-4.549,-7.637,1.68,-1.328,8.01,4.54,-4.672,-8.324,53.9,59.9,-8.29,45.8,,28.9,56.4,57.2,36,51.3,5,5,prime,10,0,61,norm,36,-4.716,down,norm,48.9399884411,46.0,46.5,53.8,55.3,0,48.9,49.8,67.7,10,6,7.831,4.776,1.483,-1.366,-4.552,-8.088,50.1,6,109.9,-7.935,-7.629,80,-8.348,-7.703,-4.777,-4.738,-4.633,-4.585,5.176,7.56,30,-1.291,1.909,4.463,8.108,-8.085,-7.762,-1.664,1.893,43.2,43.1,51.8,56.8,53.7,38.5,48.3,32.9,45.4,68.9,4,norm,1.808,1.953,-1.809,-1.116,-4.553,-5.109,-1.864,-1.865,-1.626,-1.787,1.493,-1.706,41.2,30.6,-4.916,-7.634,1.407,-1.778,7.59,4.478,-4.556,-7.718,10,4.604,4.881,5.236,4.461,1.138,1.862,1.744,1.678,10,5.227,4.66,60,354.298077326,norm,0,41,41,41,317.165,317.174,317.195415081,317.196,317.197,317.2,down,1,1.48844669305,8.51155330695,001,328,1920_1200,Intel(R) Core(TM) i5-3570 CPU @ 3.40GHz,orientation_search,LEPPC096,Intel(R) HD Graphics 2500,2019_Jan_22_1744,testMonitor,
33.3,64.2,52.3,44.2,36,80,44.9,65.2,,43.9,8.001,8.149,8.319,8.156,7.981,7.862,8.338,4.638,-4.627,-8.308,1.666,-1.55,8.232,4.735,-4.662,-7.756,37.5,48.0,-7.754,57.3,49.0,55.5,63.0,37.1,36,36.3,4,5,prime,10,0,61,norm,36,-5.046,up,norm,48.9399884411,51.3,54.2,33.4,68.9,4,50.2,57.5,48.2,10,6,7.605,5.128,1.87,-1.106,-5.071,-8.029,55.5,6,109.9,-7.873,-7.852,80,-8.388,-7.804,-4.359,-5.082,-4.934,-4.401,4.928,8.18,28,-1.959,1.763,5.289,7.899,-7.652,-8.394,-1.912,1.205,45.7,55.6,40.3,63.5,58.7,40.2,32.2,44.7,53.7,46.6,5,norm,1.301,1.328,-1.96,-1.511,-4.923,-5.166,-1.354,-1.367,-1.242,-1.134,1.929,-1.956,28.9,38.1,-5.026,-8.482,1.39,-1.441,8.07,4.599,-5.041,-7.78,10,4.649,4.81,5.122,4.672,1.878,2.077,1.433,1.581,10,4.669,4.808,60,354.298077326,norm,0,42,42,42,318.725,318.734,318.74168068,318.742,318.744,318.746,up,1,1.96855014442,8.03144985558,001,328,1920_1200,Intel(R) Core(TM) i5-3570 CPU @ 3.40GHz,orientation_search,LEPPC096,Intel(R) HD Graphics 2500,2019_Jan_22_1744,testMonitor,
203.7,200.7,205.7,194.9,36,40,197.5,206.5,192.0,194.9,7.518,7.922,7.953,8.128,8.484,8.188,8.389,4.895,-4.51,-8.332,1.459,-1.624,7.557,4.52,-4.912,-7.746,196.1,197.9,-8.479,194.4,199.7,209.6,201.1,206.6,36,200.5,2,5,probe,5,0,65,norm,36,-5.013,up,norm,200.777805739,,197.5,191.8,200.7,5,210.6,198.0,194.4,10,6,8.242,4.77,2.097,-1.883,-5.039,-7.87,200.9,1,135.8,-7.614,-7.855,80,-7.663,-8.057,-4.923,-4.524,-5.129,-5.016,5.251,7.779,17,-1.542,1.215,4.553,8.433,-8.444,-7.582,-2.018,1.114,198.5,202.5,200.4,200.0,199.5,199.6,206.9,200.9,207.6,210.8,0,norm,1.508,1.9,-1.205,-1.655,-4.407,-5.296,-1.142,-1.411,-1.8,-1.702,2.028,-1.487,200.6,206.4,-4.906,-7.879,1.86,-1.216,7.568,4.326,-5.112,-8.351,11,4.916,4.523,4.833,5.099,2.061,1.363,1.213,1.582,11,4.407,4.683,80,48.9399884411,norm,0,43,43,43,320.753,320.763,320.770116525,320.77,320.772,320.775,up,1,1.02818107974,8.97181892026,001,328,1920_1200,Intel(R) Core(TM) i5-3570 CPU @ 3.40GHz,orientation_search,LEPPC096,Intel(R) HD Graphics 2500,2019_Jan_22_1744,testMonitor,
285.5,285.4,289.0,,36,30,291.6,296.7,286.3,282.3,8.281,7.712,8.29,7.633,8.399,8.366,8.323,4.519,-4.979,-8.316,1.224,-1.141,8.472,4.65,-4.347,-7.909,276.6,302.5,-7.82,292.4,296.7,303.5,289.2,307.9,36,299.6,3,5,prime,10,0,62,norm,36,-4.39,up,norm,293.778842235,296.9,298.5,284.4,273.8,3,281.4,294.3,283.7,10,6,7.66,4.51,1.748,-1.406,-5.068,-7.658,313.8,6,355.8,-7.943,-8.019,30,-8.408,-7.844,-4.392,-4.528,-4.51,-4.47,4.948,8.336,21,-1.818,1.751,4.578,8.242,-7.647,-7.821,-1.836,2.033,284.2,287.4,284.5,302.3,298.7,295.9,297.1,300.1,281.6,289.9,0,norm,1.957,1.867,-1.606,-1.737,-4.631,-4.957,-1.123,-1.25,-1.551,-1.308,2.017,-1.203,293.5,299.2,-5.183,-7.994,1.72,-1.534,8.193,4.54,-4.695,-7.913,12,4.532,4.359,5.257,4.999,1.386,1.704,1.303,1.243,12,4.711,4.774,40,48.9399884411,norm,0,44,44,44,321.845,321.854,321.861183128,321.861,321.863,321.866,down,0,1.0553255932,-10,001,328,1920_1200,Intel(R) Core(TM) i5-3570 CPU @ 3.40GHz,orientation_search,LEPPC096,Intel(R) HD Graphics 2500,2019_Jan_22_1744,testMonitor,
297.6,289.5,286.9,280.4,36,30,280.5,296.7,288.4,282.9,8.215,7.764,7.614,8.016,8.126,8.413,7.574,4.583,-4.711,-8.332,1.772,-1.204,7.652,4.697,-4.326,-7.502,289.0,305.6,-7.967,285.9,292.7,298.7,301.8,285.2,36,287.9,0,5,prime,10,0,83,norm,36,-4.629,up,norm,293.778842235,295.8,295.3,287.9,309.1,4,303.0,273.8,290.2,10,6,7.896,4.631,1.954,-1.935,-4.768,-7.936,313.8,6,376.8,-7.846,-7.504,30,-8.449,-7.678,-5.119,-5.052,-5.035,-5.05,5.181,8.47,4,-1.694,1.929,4.774,8.46,-8.027,-7.869,-1.967,1.286,288.8,307.2,297.8,300.0,296.0,283.4,286.1,287.6,294.5,,1,norm,1.93,1.336,-1.976,-1.698,-4.538,-4.957,-1.443,-1.184,-1.41,-1.817,1.825,-1.354,291.9,288.8,-5.203,-7.849,1.666,-1.386,8.122,4.791,-5.145,-7.846,12,5.288,4.848,5.224,4.889,1.348,1.523,1.689,1.986,12,4.557,4.543,40,48.9399884411,norm,0,45,45,45,323.972,323.982,323.996926825,323.997,323.999,324.001,up,1,1.54935688518,8.45064311482,001,328,1920_1200,Intel(R) Core(TM) i5-3570 CPU @ 3.40GHz,orientation_search,LEPPC096,Intel(R) HD Graphics 2500,2019_Jan_22_1744,testMonitor,
291.5,285.1,313.8,283.3,36,30,306.8,283.5,293.9,296.9,7.687,7.561,8.457,7.851,7.9,7.855,8.456,4.912,-4.45,-8.035,1.211,-2.065,8.042,4.915,-5.188,-8.312,273.8,290.6,-7.904,296.0,304.8,287.9,303.6,283.4,36,289.8,0,5,prime,10,0,91,norm,36,-5.195,up,norm,293.778842235,293.5,292.9,298.5,302.8,5,290.2,276.3,297.2,10,6,8.048,4.975,1.194,-1.123,-4.779,-8.275,289.5,6,384.8,-8.111,-8.265,30,-8.36,-7.638,-4.571,-4.902,-5.267,-4.906,5.053,7.934,5,-1.187,1.826,4.545,7.97,-8.112,-7.849,-1.939,2.056,289.4,282.2,298.9,279.1,308.6,313.4,305.8,309.0,,287.8,2,norm,1.714,1.841,-1.606,-2.063,-4.958,-4.667,-1.465,-1.634,-1.438,-1.567,2.094,-1.54,292.1,298.9,-4.406,-8.227,1.727,-1.496,7.518,5.269,-4.971,-8.352,12,4.651,4.72,4.985,4.661,1.927,1.634,1.352,1.787,12,5.029,4.419,40,48.9399884411,norm,0,46,46,46,325.589,325.598,325.606920423,325.607,325.609,325.611,up,1,3.0593082535,6.9406917465,001,328,1920_1200,Intel(R) Core(TM) i5-3570 CPU @ 3.40GHz,orientation_search,LEPPC096,Intel(R) HD Graphics 2500,2019_Jan_22_1744,testMonitor,
283.0,301.9,296.6,273.8,36,30,293.7,289.3,301.2,,7.813,7.754,8.064,8.312,8.003,8.457,8.193,4.791,-5.228,-8.176,1.378,-1.619,7.675,4.745,-4.727,-8.423,301.2,277.0,-7.701,290.3,297.6,279.0,300.3,278.8,36,298.9,4,5,prime,10,0,81,norm,36,-4.453,up,norm,293.778842235,302.8,281.6,285.4,289.7,5,300.1,279.3,295.6,10,6,7.569,5.15,1.696,-1.8,-4.474,-7.604,287.2,6,374.8,-8.02,-7.577,30,-7.946,-7.881,-4.614,-5.111,-5.187,-4.379,5.267,8.223,29,-1.465,1.688,4.971,7.608,-7.668,-7.838,-1.342,1.943,288.5,296.3,287.6,295.3,286.5,281.6,296.3,313.8,306.7,290.7,3,norm,1.433,2.033,-1.933,-1.888,-4.38,-4.399,-1.229,-1.159,-1.584,-1.611,2.062,-1.16,288.4,273.8,-5.19,-7.579,1.668,-2.088,7.593,4.967,-4.579,-7.694,12,4.685,5.204,4.822,4.744,1.559,1.594,1.873,1.627,12,4.936,4.977,40,48.9399884411,norm,0,47,47,47,328.708,328.718,328.724764788,328.725,328.727,328.729,up,1,2.76702705003,7.23297294997,001,328,1920_1200,Intel(R) Core(TM) i5-3570 CPU @ 3.40GHz,orientation_search,LEPPC096,Intel(R) HD Graphics 2500,2019_Jan_22_1744,testMonitor,
291.1,286.3,302.7,287.6,36,30,294.4,291.1,285.3,298.2,8.26,8.281,8.147,8.445,7.729,7.596,8.284,4.326,-5.189,-7.617,1.372,-1.938,7.861,4.415,-5.267,-8.146,307.5,295.3,-7.583,294.4,293.4,286.6,294.6,296.8,36,287.0,0,5,prime,10,0,99,norm,36,-4.852,down,norm,293.778842235,299.5,300.4,307.5,286.2,0,295.2,303.5,294.6,10,6,7.553,4.739,1.844,-1.354,-5.096,-8.3,289.4,6,392.8,-8.401,-7.874,30,-7.695,-7.546,-4.859,-4.597,-5.243,-4.757,5.203,7.99,0,-1.591,1.349,4.691,7.936,-7.901,-7.925,-1.858,1.697,299.0,299.5,287.3,313.8,302.0,,273.8,295.3,310.3,307.2,4,norm,2.03,1.596,-1.34,-1.255,-4.64,-4.858,-1.583,-1.615,-1.515,-2.082,1.798,-1.841,293.2,280.9,-5.067,-7.55,1.151,-1.131,7.583,4.87,-4.629,-7.515,12,4.602,5.168,4.562,4.368,1.681,1.514,2.024,1.941,12,4.41,4.379,40,48.9399884411,norm,0,48,48,48,331.532,331.541,331.548413592,331.549,331.55,331.553,down,1,1.36090497005,8.63909502995,001,328,1920_1200,Intel(R) Core(TM) i5-3570 CPU @ 3.40GHz,orientation_search,LEPPC096,Intel(R) HD Graphics 2500,2019_Jan_22_1744,testMonitor,
288.3,,289.7,285.4,36,30,295.7,303.3,291.9,296.4,8.302,7.563,7.603,8.357,8.28,7.535,8.306,4.503,-4.702,-7.552,1.717,-1.977,7.701,4.394,-4.548,-8.055,293.7,295.1,-7.77,287.2,301.1,285.8,296.0,290.6,36,286.8,3,5,prime,10,0,107,norm,36,-4.597,up,norm,293.778842235,283.2,284.0,286.6,299.6,5,313.8,295.1,296.4,10,6,8.302,5.177,1.77,-1.467,-4.54,-8.428,280.6,6,400.8,-7.515,-7.785,30,-8.378,-8.416,-5.159,-4.595,-5.151,-4.544,5.073,8.268,23,-2.05,1.75,5.272,7.837,-7.515,-8.377,-1.667,1.432,282.7,286.1,285.6,290.1,273.8,296.3,286.3,283.5,299.2,296.9,5,norm,1.889,1.43,-1.64,-1.132,-4.527,-4.895,-1.525,-1.767,-1.291,-1.662,1.139,-1.695,290.7,279.2,-4.828,-7.751,1.883,-1.31,8.017,5.092,-5.14,-7.827,12,4.776,5.285,5.222,4.572,1.681,1.272,1.563,1.245,12,4.703,4.682,40,48.9399884411,norm,0,49,49,49,332.947,332.957,332.966782186,332.967,332.969,332.971,up,1,1.24483218584,8.75516781416,001,328,1920_1200,Intel(R) Core(TM) i5-3570 CPU @ 3.40GHz,orientation_search,LEPPC096,Intel(R) HD Graphics 2500,2019_Jan_22_1744,testMonitor,
401.9,,391.2,403.5,36,-20,387.1,397.3,387.0,398.8,8.08,8.272,7.866,8.079,7.616,8.055,7.725,4.913,-5.06,-8.421,1.555,-1.989,7.63,4.565,-4.479,-7.793,396.2,391.3,-7.933,383.8,392.3,388.7,388.6,388.6,36,393.3,3,5,probe,5,0,68,norm,36,-4.386,up,norm,393.474405095,399.0,388.6,391.9,392.0,5,384.7,393.8,383.5,10,6,7.815,4.652,1.644,-2.027,-4.359,-8.482,393.9,2,325.5,-7.637,-8.305,30,-7.824,-7.684,-4.436,-4.908,-4.527,-4.699,4.304,7.908,23,-2.098,1.218,4.923,8.439,-7.632,-8.032,-1.149,2.003,387.1,390.8,395.1,395.0,389.3,398.9,390.2,386.3,393.1,390.2,0,norm,1.808,1.571,-1.111,-1.688,-5.233,-5.279,-2.071,-2.097,-1.783,-1.293,2.076,-1.967,398.3,388.6,-4.681,-8.106,1.63,-1.511,7.676,4.308,-4.418,-7.734,13,5.09,4.372,4.957,5.201,1.422,1.165,1.973,1.389,13,4.726,5.232,30,293.778842235,norm,0,50,50,50,334.249,334.259,334.27706988,334.277,334.279,334.282,up,1,1.96668468734,8.03331531266,001,328,1920_1200,Intel(R) Core(TM) i5-3570 CPU @ 3.40GHz,orientation_search,LEPPC096,Intel(R) HD Graphics 2500,2019_Jan_22_1744,testMonitor,
397.5,387.5,386.9,377.5,36,-20,392.9,391.6,,389.9,8.165,8.349,8.285,7.933,8.197,7.711,7.647,5.188,-4.573,-7.668,1.814,-2.083,7.737,4.529,-4.627,-8.261,387.7,391.4,-8.138,394.4,395.7,387.7,390.4,379.9,36,382.7,4,5,probe,5,0,62,norm,36,-4.858,up,norm,387.474405095,385.4,389.8,381.0,381.1,4,383.1,383.3,389.9,10,6,8.241,4.991,1.711,-1.21,-5.2,-7.559,389.2,2,325.5,-7.72,-7.859,30,-7.643,-8.077,-5.1,-4.695,-4.552,-4.882,4.302,8.107,28,-1.79,1.534,4.824,7.568,-7.86,-7.828,-1.326,1.342,391.5,381.7,384.8,391.1,381.4,384.7,382.5,380.1,386.7,386.3,1,norm,1.831,1.243,-1.778,-1.581,-4.518,-4.619,-1.461,-1.273,-2.026,-2.053,1.646,-1.905,385.9,387.8,-4.953,-8.039,2.045,-1.814,8.373,4.43,-4.888,-8.409,13,4.873,4.367,4.852,5.077,1.696,1.406,1.101,1.278,13,4.365,5.003,30,293.778842235,norm,0,51,51,51,336.28,336.293,336.313084672,336.313,336.315,336.317,up,1,1.4892137038,8.5107862962,001,328,1920_1200,Intel(R) Core(TM) i5-3570 CPU @ 3.40GHz,orientation_search,LEPPC096,Intel(R) HD Graphics 2500,2019_Jan_22_1744,testMonitor,
101.7,109.3,86.8,104.4,36,20,95.0,119.3,86.0,96.8,8.111,7.791,7.549,8.361,7.922,7.969,7.986,4.59,-4.631,-7.813,1.859,-1.68,7.942,5.202,-4.56,-8.032,116.6,104.0,-8.194,107.8,93.4,118.5,91.2,102.0,36,84.7,1,5,prime,10,0,74,norm,36,-4.507,up,norm,99.2685563083,105.8,92.5,85.9,114.6,4,101.9,94.1,94.7,10,6,8.452,4.719,1.515,-1.951,-4.507,-8.446,,6,173.3,-8.091,-8.416,20,-7.669,-7.982,-4.674,-4.501,-4.436,-5.076,4.843,7.833,10,-1.707,1.659,5.104,8.229,-7.788,-7.805,-1.459,1.621,112.7,117.1,95.3,83.2,109.6,87.1,101.8,98.9,94.1,79.3,0,norm,2.009,1.418,-1.609,-1.308,-4.692,-4.821,-1.993,-1.884,-1.569,-1.185,1.604,-1.467,89.7,86.6,-4.797,-7.676,1.885,-1.686,7.957,5.018,-4.53,-8.238,14,4.413,4.937,5.192,4.418,1.535,2.1,2.073,1.187,14,4.625,4.657,-20,293.778842235,norm,0,52,52,52,337.84,337.853,337.873040553,337.873,337.875,337.878,up,1,2.53409424664,7.46590575336,001,328,1920_1200,Intel(R) Core(TM) i5-3570 CPU @ 3.40GHz,orientation_search,LEPPC096,Intel(R) HD Graphics 2500,2019_Jan_22_1744,testMonitor,
88.8,79.3,119.3,,36,20,98.3,104.0,87.7,116.1,8.377,8.325,8.101,7.911,7.528,7.934,8.359,4.846,-5.065,-7.68,1.467,-1.519,8.291,4.868,-5.217,-8.154,102.8,115.4,-8.259,98.2,97.2,103.8,104.6,92.9,36,104.4,3,5,prime,10,0,116,norm,36,-4.795,up,norm,99.2685563083,113.5,101.3,106.4,110.5,3,114.9,97.6,90.3,10,6,8.386,4.909,1.105,-1.496,-4.51,-7.92,104.9,6,215.3,-7.542,-8.014,20,-8.272,-7.703,-5.242,-4.778,-5.123,-4.749,4.829,7.777,21,-1.416,1.184,4.992,7.851,-8.492,-7.845,-1.239,1.774,92.5,118.8,95.1,86.6,102.3,96.7,112.6,104.5,101.9,113.8,1,norm,1.871,1.682,-1.246,-1.205,-5.244,-5.177,-1.14,-1.233,-1.293,-1.688,1.826,-1.395,90.5,111.5,-4.975,-7.518,1.558,-1.86,7.578,4.896,-4.46,-8.106,14,4.944,4.697,4.847,5.003,1.144,1.663,1.836,1.81,14,5.175,4.984,-20,293.778842235,norm,0,53,53,53,340.445,340.458,340.478223807,340.478,340.48,340.483,up,1,1.47607279629,8.52392720371,001,328,1920_1200,Intel(R) Core(TM) i5-3570 CPU @ 3.40GHz,orientation_search,LEPPC096,Intel(R) HD Graphics 2500,2019_Jan_22_1744,testMonitor,
119.3,88.9,113.7,110.0,36,20,79.4,,90.4,98.0,7.529,7.874,8.432,7.836,8.188,8.118,8.219,4.972,-5.185,-7.588,1.185,-1.355,7.895,4.761,-4.358,-8.196,103.0,96.3,-7.939,105.1,87.1,107.6,100.8,94.1,36,100.5,4,5,prime,10,0,114,norm,36,-4.488,down,norm,99.2685563083,91.3,96.5,104.4,111.4,1,101.7,96.0,109.5,10,6,7.519,5.276,1.356,-1.352,-4.97,-8.496,106.9,6,213.3,-7.503,-7.861,20,-7.813,-7.585,-4.999,-4.968,-4.917,-4.46,4.418,8.266,25,-1.862,1.209,4.97,8.009,-8.054,-8.473,-1.892,1.392,79.3,83.0,89.6,92.0,92.9,110.1,107.2,110.8,113.8,101.2,2,norm,1.695,1.427,-1.812,-1.112,-4.565,-4.598,-1.616,-2.045,-1.124,-1.262,1.92,-1.169,99.1,88.6,-5.181,-7.934,1.554,-1.437,8.128,5.063,-4.42,-7.648,14,5.234,4.88,4.59,4.956,1.454,1.915,1.228,1.595,14,4.342,5.283,-20,293.778842235,norm,0,54,54,54,341.999,342.009,342.017788854,342.018,342.02,342.022,down,1,1.44715670232,8.55284329768,001,328,1920_1200,Intel(R) Core(TM) i5-3570 CPU @ 3.40GHz,orientation_search,LEPPC096,Intel(R) HD Graphics 2500,2019_Jan_22_1744,testMonitor,
99.0,98.9,91.2,92.7,36,20,118.1,102.9,101.7,94.9,7.808,8.121,8.407,7.747,8.293,7.814,7.542,5.07,-4.94,-8.473,1.612,-1.76,8.203,4.628,-5.133,-7.83,86.9,100.7,-7.855,104.7,100.2,101.4,106.7,98.4,36,111.4,1,5,prime,10,0,96,norm,36,-4.497,up,norm,99.2685563083,79.3,92.5,106.3,107.9,5,,104.4,109.6,10,6,8.046,4.647,1.777,-1.166,-4.73,-8.482,110.4,6,195.3,-7.908,-7.655,20,-7.585,-7.973,-5.194,-5.036,-5.212,-5.254,4.367,8.226,11,-1.679,1.634,5.128,8.019,-8.436,-8.286,-2.032,1.169,80.2,113.6,91.0,119.3,105.8,87.0,88.8,100.6,103.2,80.2,3,norm,1.741,1.447,-1.422,-1.156,-4.343,-4.364,-1.583,-2.066,-1.305,-1.489,2.048,-1.574,92.5,105.4,-5.085,-7.705,1.581,-1.726,8.167,4.613,-5.228,-8.086,14,4.928,4.704,4.909,5.071,1.305,1.175,1.381,2.03,14,5.193,5.112,-20,293.778842235,norm,0,55,55,55,343.503,343.516,343.535629476,343.536,343.537,343.54,up,1,0.973331208281,9.02666879172,001,328,1920_1200,Intel(R) Core(TM) i5-3570 CPU @ 3.40GHz,orientation_search,LEPPC096,Intel(R) HD Graphics 2500,2019_Jan_22_1744,testMonitor,
106.3,117.7,108.8,103.4,36,20,99.6,103.1,99.6,103.6,7.85,8.45,8.492,7.6,7.589,7.973,8.045,5.115,-4.844,-7.74,1.732,-1.911,7.945,5.283,-4.845,-7.593,,85.5,-8.362,104.1,119.3,107.9,93.8,102.3,36,92.3,5,5,prime,10,0,89,norm,36,-4.425,up,norm,99.2685563083,92.6,90.1,84.6,104.6,5,103.7,109.9,103.8,10,6,7.752,5.004,1.693,-1.168,-4.639,-7.707,103.6,6,188.3,-7.882,-7.853,20,-8.481,-8.283,-5.1,-5.005,-4.99,-4.541,4.307,7.692,35,-1.899,1.989,5.241,8.483,-8.077,-8.223,-1.816,1.502,113.1,114.4,94.0,91.7,90.9,90.9,109.9,89.8,91.3,109.6,4,norm,1.233,1.971,-1.951,-1.881,-4.361,-4.485,-2.043,-1.679,-1.333,-1.178,1.192,-1.794,99.3,111.5,-4.313,-7.792,1.787,-1.91,7.569,4.963,-4.748,-8.091,14,4.464,4.341,4.991,4.391,1.882,1.296,1.129,2.094,14,4.425,4.36,-20,293.778842235,norm,0,56,56,56,344.546,344.555,344.572846854,344.573,344.575,344.578,up,1,1.88404705178,8.11595294822,001,328,1920_1200,Intel(R) Core(TM) i5-3570 CPU @ 3.40GHz,orientation_search,LEPPC096,Intel(R) HD Graphics 2500,2019_Jan_22_1744,testMonitor,
112.0,99.8,108.5,85.4,36,20,101.7,86.3,109.7,99.6,7.97,8.163,8.487,8.083,8.381,7.992,8.39,4.438,-4.518,-7.837,1.289,-1.716,8.063,5.143,-4.715,-7.714,94.7,91.5,-8.423,116.6,96.4,90.7,92.1,119.3,36,111.1,1,5,prime,10,0,87,norm,36,-5.248,down,norm,99.2685563083,98.9,98.5,104.5,88.6,1,97.3,79.3,117.6,10,6,7.616,4.604,1.791,-1.972,-5.278,-7.982,86.8,6,186.3,-8.135,-7.642,20,-8.386,-7.527,-5.079,-4.367,-4.39,-4.351,5.23,7.985,7,-1.548,1.804,4.685,8.354,-8.344,-7.613,-1.662,1.939,101.8,88.2,100.0,97.3,83.0,102.6,,108.4,88.8,95.0,5,norm,1.672,1.849,-1.372,-1.918,-4.922,-4.368,-1.503,-1.966,-1.838,-1.9,1.512,-1.985,92.0,102.6,-4.731,-8.112,1.101,-1.692,8.445,5.083,-4.4,-8.206,14,5.035,4.409,4.95,4.664,1.519,1.17,1.663,1.354,14,5.109,4.623,-20,293.778842235,norm,0,57,57,57,346.495,346.505,346.522790422,346.523,346.525,346.527,down,1,1.83025457452,8.16974542548,001,328,1920_1200,Intel(R) Core(TM) i5-3570 CPU @ 3.40GHz,orientation_search,LEPPC096,Intel(R) HD Graphics 2500,2019_Jan_22_1744,testMonitor,
230.2,235.5,234.1,228.2,36,-30,218.5,235.6,222.3,226.7,8.302,7.746,8.367,8.124,8.065,7.647,7.923,5.209,-4.943,-7.534,1.316,-1.684,7.869,4.4,-4.993,-7.727,232.7,229.9,-7.938,231.1,232.3,218.1,226.0,231.7,36,224.5,1,5,probe,5,0,110,norm,36,-4.534,up,norm,228.127000752,231.0,228.8,230.1,221.8,4,234.8,238.1,230.9,10,6,7.698,4.416,1.261,-1.559,-5.018,-7.981,,2,118.1,-7.85,-8.163,20,-7.907,-8.208,-4.519,-4.855,-5.071,-5.166,4.916,8.473,10,-1.726,1.433,4.488,8.08,-7.848,-7.92,-1.936,1.975,224.4,218.7,225.7,224.9,234.7,226.5,231.5,233.0,221.9,232.4,0,norm,1.166,1.265,-1.509,-1.719,-4.586,-5.183,-1.935,-1.623,-2.048,-1.741,1.245,-2.023,222.5,230.2,-5.124,-7.76,1.134,-1.537,7.604,4.421,-4.427,-8.236,15,4.745,5.207,4.421,4.385,1.615,1.445,1.967,1.15,15,4.608,4.969,20,99.2685563083,norm,0,58,58,58,348.395,348.405,348.411660193,348.412,348.414,348.416,up,1,0.996506041152,9.00349395885,001,328,1920_1200,Intel(R) Core(TM) i5-3570 CPU @ 3.40GHz,orientation_search,LEPPC096,Intel(R) HD Graphics 2500,2019_Jan_22_1744,testMonitor,
229.6,,228.1,230.0,36,-30,235.5,225.6,231.0,228.7,7.891,7.898,7.694,7.592,8.462,7.883,8.267,4.614,-4.799,-8.099,2.006,-1.853,7.505,4.717,-4.553,-7.66,225.7,219.1,-7.922,217.8,227.2,224.9,236.1,224.9,36,226.9,3,5,probe,5,0,108,norm,36,-4.386,up,norm,226.127000752,225.6,235.3,220.6,222.2,5,216.1,223.0,223.4,10,6,7.637,4.952,1.583,-1.15,-5.293,-7.998,224.5,2,118.1,-7.927,-7.673,20,-8.486,-7.989,-4.942,-5.043,-4.364,-5.064,4.765,7.98,23,-1.337,1.63,5.041,8.006,-8.442,-8.265,-1.984,1.412,228.1,222.2,227.9,228.0,227.0,219.4,231.8,230.8,232.4,230.8,1,norm,1.364,1.967,-1.158,-1.738,-4.326,-4.949,-1.994,-1.29,-1.636,-1.565,1.644,-1.279,226.4,233.5,-4.88,-8.125,1.992,-1.512,8.164,5.021,-5.274,-7.599,15,5.266,4.47,4.984,4.402,1.67,1.453,1.845,1.933,15,5.298,4.575,20,99.2685563083,norm,0,59,59,59,349.446,349.459,349.486781365,349.487,349.489,349.491,up,1,0.958664731181,9.04133526882,001,328,1920_1200,Intel(R) Core(TM) i5-3570 CPU @ 3.40GHz,orientation_search,LEPPC096,Intel(R) HD Graphics 2500,2019_Jan_22_1744,testMonitor,
169.0,179.5,181.4,183.3,36,40,161.4,174.5,180.7,190.8,8.147,8.005,7.678,7.689,8.165,7.512,8.103,5.035,-5.179,-8.047,2.034,-1.582,7.642,4.362,-4.694,-8.41,171.1,166.6,-8.235,169.0,167.2,158.7,175.1,189.6,36,179.3,0,5,prime,10,0,71,norm,36,-4.392,up,norm,170.800197096,177.8,172.2,171.5,175.5,5,168.0,173.6,150.8,10,6,7.916,5.069,1.468,-1.867,-4.976,-7.589,179.0,6,241.8,-8.123,-7.536,40,-7.539,-7.882,-5.273,-4.891,-4.797,-4.639,4.303,8.078,5,-1.502,1.741,5.103,8.131,-8.102,-7.59,-1.845,1.456,155.5,172.5,159.7,164.4,165.4,169.5,177.0,156.3,,177.8,0,norm,1.728,1.923,-1.388,-1.922,-4.774,-4.712,-1.163,-1.311,-1.475,-1.438,1.292,-1.245,186.5,159.2,-4.433,-7.821,1.134,-1.904,7.724,4.43,-4.755,-8.262,16,4.552,4.832,4.312,4.929,1.832,1.158,1.996,1.304,16,4.382,5.232,-30,99.2685563083,norm,0,60,60,60,350.486,350.495,350.502059398,350.502,350.504,350.506,up,1,1.79770234851,8.20229765149,001,328,1920_1200,Intel(R) Core(TM) i5-3570 CPU @ 3.40GHz,orientation_search,LEPPC096,Intel(R) HD Graphics 2500,2019_Jan_22_1744,testMonitor,
167.5,174.2,165.9,160.6,36,40,160.0,,164.1,161.5,7.595,7.937,7.959,7.528,8.26,8.0,7.964,5.05,-4.447,-7.855,1.155,-1.637,8.285,4.572,-5.001,-8.313,168.8,175.4,-8.429,181.5,181.6,177.3,162.4,168.5,36,171.1,4,5,prime,10,0,65,norm,36,-4.763,down,norm,170.800197096,172.9,159.2,182.2,186.9,1,168.2,153.4,155.1,10,6,7.669,4.444,2.025,-1.92,-4.77,-7.785,162.8,6,235.8,-8.314,-7.785,40,-8.472,-7.579,-5.111,-4.859,-5.089,-4.776,5.03,8.087,25,-1.875,1.348,4.465,8.438,-7.925,-8.172,-1.513,1.434,183.8,170.9,190.8,164.0,171.9,166.3,182.8,167.4,177.9,150.8,1,norm,1.336,1.369,-1.193,-2.096,-4.689,-4.452,-1.352,-1.791,-1.934,-1.963,1.671,-1.87,155.6,157.7,-4.606,-8.253,1.754,-1.536,8.273,4.981,-4.721,-8.101,16,5.275,5.173,4.84,4.969,1.732,1.752,1.741,1.986,16,4.429,4.431,-30,99.2685563083,norm,0,61,61,61,352.337,352.348,352.357053012,352.357,352.359,352.362,down,1,1.1527721809,8.8472278191,001,328,1920_1200,Intel(R) Core(TM) i5-3570 CPU @ 3.40GHz,orientation_search,LEPPC096,Intel(R) HD Graphics 2500,2019_Jan_22_1744,testMonitor,
159.0,189.5,183.3,166.6,36,40,176.1,186.8,184.9,190.0,8.075,7.71,7.596,8.414,7.928,8.059,7.901,4.413,-4.403,-8.485,1.739,-1.553,8.07,5.241,-4.356,-8.315,158.5,164.5,-7.515,178.4,181.4,165.2,,188.6,36,150.8,5,5,prime,10,0,97,norm,36,-4.499,down,norm,170.800197096,173.5,176.4,169.5,186.7,2,170.4,170.2,190.8,10,6,8.431,5.225,1.22,-1.115,-4.356,-7.91,179.5,6,267.8,-7.604,-8.444,40,-7.526,-8.013,-4.81,-4.974,-5.255,-5.004,4.715,7.877,32,-1.169,1.129,4.699,8.231,-7.568,-8.005,-1.706,1.662,168.0,168.5,156.4,164.7,172.6,169.7,177.8,157.3,179.7,165.6,2,norm,2.042,1.464,-1.921,-2.014,-4.69,-4.908,-1.709,-1.81,-1.663,-1.935,1.957,-1.347,178.2,160.3,-4.895,-8.439,1.43,-1.691,8.373,5.256,-4.573,-7.543,16,5.089,4.815,4.626,5.072,1.867,2.019,2.023,1.215,16,4.405,4.803,-30,99.2685563083,norm,0,62,62,62,353.547,353.557,353.573915718,353.574,353.576,353.578,down,1,1.41926087451,8.58073912549,001,328,1920_1200,Intel(R) Core(TM) i5-3570 CPU @ 3.40GHz,orientation_search,LEPPC096,Intel(R) HD Graphics 2500,2019_Jan_22_1744,testMonitor,
169.9,178.8,163.6,154.0,36,40,150.8,169.2,178.3,190.8,8.234,7.569,8.108,7.56,7.772,7.799,8.269,4.928,-5.152,-7.518,1.533,-1.662,8.34,4.534,-4.403,-7.632,176.1,158.4,-7.544,178.0,161.5,178.9,185.1,160.2,36,166.0,1,5,prime,10,0,78,norm,36,-4.832,down,norm,170.800197096,177.5,169.5,184.6,178.1,0,165.3,184.3,156.4,10,6,8.323,4.556,1.769,-1.251,-4.894,-8.223,165.5,6,248.8,-8.059,-8.344,40,-7.792,-7.809,-5.194,-5.218,-4.385,-4.316,4.981,7.722,6,-2.062,1.568,5.02,7.881,-8.035,-8.006,-1.737,1.228,164.6,181.7,170.8,179.6,184.3,181.2,176.3,,188.2,174.8,3,norm,1.84,1.884,-1.597,-1.696,-5.25,-5.152,-1.758,-1.781,-1.685,-2.02,1.561,-1.703,174.4,163.0,-4.515,-7.96,2.073,-1.599,8.414,4.414,-4.888,-7.571,16,4.81,4.449,5.041,5.147,1.826,2.097,1.492,1.966,16,4.339,4.645,-30,99.2685563083,norm,0,63,63,63,355.031,355.044,355.063894018,355.064,355.066,355.068,down,1,1.9462582342,8.0537417658,001,328,1920_1200,Intel(R) Core(TM) i5-3570 CPU @ 3.40GHz,orientation_search,LEPPC096,Intel(R) HD Graphics 2500,2019_Jan_22_1744,testMonitor,
177.7,166.4,190.4,179.3,36,40,167.4,164.3,169.3,173.3,7.557,7.562,7.772,8.319,7.929,8.247,8.43,5.179,-4.778,-7.507,1.167,-1.817,8.455,4.409,-4.744,-8.21,161.2,180.3,-8.093,156.2,164.0,183.2,167.9,175.4,36,190.8,1,5,prime,10,0,86,norm,36,-5.011,down,norm,170.800197096,161.9,189.5,173.4,150.8,1,155.0,153.4,164.1,10,6,7.674,5.108,1.721,-1.102,-4.608,-8.394,165.8,6,256.8,-7.515,-7.953,40,-7.654,-8.113,-4.553,-4.337,-5.161,-5.275,5.206,8.397,7,-1.208,1.747,4.75,8.409,-8.367,-7.872,-1.836,1.358,176.0,154.3,170.8,166.5,182.1,173.1,,172.7,171.6,181.9,4,norm,1.61,1.185,-1.941,-1.331,-4.999,-4.987,-1.902,-1.584,-1.14,-1.55,1.374,-1.336,172.8,164.6,-4.837,-7.544,1.531,-1.42,8.299,4.933,-5.179,-8.284,16,4.307,4.967,5.076,4.576,1.722,1.198,1.833,1.161,16,5.135,4.528,-30,99.2685563083,norm,0,64,64,64,357.053,357.063,357.069460807,357.07,357.071,357.074,down,1,0.844851927081,9.15514807292,001,328,1920_1200,Intel(R) Core(TM) i5-3570 CPU @ 3.40GHz,orientation_search,LEPPC096,Intel(R) HD Graphics 2500,2019_Jan_22_1744,testMonitor,
172.5,188.8,163.7,,36,40,158.4,185.5,176.5,159.7,8.483,8.074,7.779,7.643,7.814,7.911,7.73,4.521,-5.203,-7.753,1.852,-1.922,8.462,4.557,-5.203,-7.769,179.2,173.9,-8.489,174.4,176.1,184.4,175.6,181.3,36,178.5,3,5,prime,10,0,77,norm,36,-4.75,up,norm,170.800197096,175.5,164.2,184.6,175.4,3,179.8,171.8,170.6,10,6,8.333,4.684,1.911,-1.11,-5.159,-8.356,171.3,6,247.8,-8.056,-7.874,40,-7.662,-7.655,-4.303,-5.287,-4.471,-5.047,5.178,8.068,21,-2.085,1.619,4.906,7.941,-8.072,-8.018,-2.038,1.132,155.0,190.8,178.3,150.8,176.5,166.2,166.1,173.6,173.2,181.5,5,norm,1.802,1.254,-1.753,-1.175,-4.315,-5.035,-1.691,-1.119,-1.383,-1.323,1.684,-1.211,157.3,169.0,-4.494,-7.649,1.924,-1.147,7.731,4.993,-4.302,-8.156,16,5.276,5.094,4.802,5.15,1.172,1.12,1.974,1.203,16,4.954,4.56,-30,99.2685563083,norm,0,65,65,65,357.958,357.967,357.97419119,357.974,357.976,357.979,up,1,1.22321854132,8.77678145868,001,328,1920_1200,Intel(R) Core(TM) i5-3570 CPU @ 3.40GHz,orientation_search,LEPPC096,Intel(R) HD Graphics 2500,2019_Jan_22_1744,testMonitor,
266.9,267.3,275.3,262.3,36,20,269.8,267.8,273.7,268.0,8.199,8.403,8.412,7.609,7.761,7.737,8.489,4.437,-4.389,-8.291,2.017,-1.489,8.413,4.329,-4.767,-8.302,262.4,271.7,-7.998,272.9,270.1,273.3,278.9,265.3,36,272.8,2,5,probe,5,0,62,norm,36,-5.05,down,norm,270.816348863,274.5,269.1,260.8,268.1,0,262.5,271.5,,10,6,8.375,4.882,1.263,-2.076,-4.334,-8.427,265.8,1,208.8,-7.91,-7.925,40,-7.906,-8.031,-5.034,-4.737,-4.42,-4.671,4.566,8.189,12,-1.805,1.465,4.928,7.714,-7.639,-8.221,-1.511,1.568,270.8,279.1,268.6,275.5,280.8,268.9,271.6,262.2,270.6,267.7,0,norm,1.463,1.19,-1.663,-1.191,-5.185,-4.625,-1.534,-1.703,-1.387,-1.726,1.544,-1.305,277.1,274.6,-5.156,-7.534,1.613,-1.2,8.16,4.708,-4.461,-8.294,17,5.052,4.608,5.25,4.91,1.71,1.676,1.997,1.761,17,4.457,4.573,40,170.800197096,norm,0,66,66,66,359.237,359.249,359.28332218,359.284,359.286,359.289,down,1,1.01838380783,8.98161619217,001,328,1920_1200,Intel(R) Core(TM) i5-3570 CPU @ 3.40GHz,orientation_search,LEPPC096,Intel(R) HD Graphics 2500,2019_Jan_22_1744,testMonitor,
341.7,354.8,338.4,337.1,36,80,351.3,340.6,336.2,345.5,7.637,8.022,7.675,8.337,8.449,7.658,7.989,4.835,-4.912,-8.195,1.736,-1.722,8.247,5.244,-4.681,-8.496,330.9,319.5,-8.099,329.4,326.3,339.8,344.4,326.4,36,358.6,0,5,prime,10,0,102,norm,36,-4.909,up,norm,338.613193171,340.6,345.0,339.5,336.5,3,351.9,323.1,346.1,10,5,7.989,5.251,1.563,-1.264,-4.366,-8.001,348.3,5,440.6,-7.955,-7.729,80,-8.046,-7.776,-4.364,-4.658,-4.585,-4.715,5.163,8.027,3,-1.293,1.406,4.838,8.187,-8.246,-8.121,-1.933,1.136,329.3,334.7,,343.9,349.6,348.4,330.8,326.6,329.8,342.4,0,norm,1.115,1.527,-1.785,-1.817,-4.98,-4.415,-1.739,-1.501,-1.784,-1.447,1.856,-1.348,338.7,318.6,-5.142,-7.525,1.957,-1.147,7.687,5.266,-4.948,-7.951,18,4.338,4.377,4.79,4.926,1.448,1.305,2.018,2.036,18,4.334,5.23,20,170.800197096,norm,0,67,67,67,360.345,366.252,366.272072991,366.272,366.274,366.277,up,1,2.96344820987,7.03655179013,001,328,1920_1200,Intel(R) Core(TM) i5-3570 CPU @ 3.40GHz,orientation_search,LEPPC096,Intel(R) HD Graphics 2500,2019_Jan_22_1744,testMonitor,
341.9,337.5,344.9,331.4,36,80,340.5,340.0,349.0,336.4,7.726,8.052,8.161,8.332,7.827,7.516,8.441,4.443,-4.406,-7.974,1.473,-1.747,7.755,4.392,-4.847,-8.231,338.7,345.0,-7.917,324.9,355.1,347.0,335.1,358.6,36,337.7,1,5,prime,10,0,111,norm,36,-4.884,up,norm,338.613193171,318.6,342.4,343.8,339.5,3,343.1,353.5,338.1,10,5,8.353,5.279,1.301,-1.899,-4.788,-7.918,336.8,5,449.6,-7.524,-8.451,80,-8.308,-7.726,-5.268,-5.213,-4.571,-4.749,4.871,7.911,9,-1.385,1.766,4.895,7.712,-7.847,-8.013,-1.622,1.403,,346.8,337.5,349.1,336.5,336.6,346.3,333.4,356.9,326.5,1,norm,1.185,1.22,-1.104,-1.921,-5.035,-4.842,-1.448,-1.839,-1.327,-1.28,1.282,-1.297,338.6,344.2,-5.011,-8.112,1.396,-1.109,8.132,4.694,-5.041,-8.49,18,4.657,4.977,4.642,4.549,1.429,1.312,1.976,1.939,18,4.654,5.219,20,170.800197096,norm,0,68,68,68,369.274,369.286,369.306402532,369.307,369.308,369.311,down,0,2.34581408637,-10,001,328,1920_1200,Intel(R) Core(TM) i5-3570 CPU @ 3.40GHz,orientation_search,LEPPC096,Intel(R) HD Graphics 2500,2019_Jan_22_1744,testMonitor,
344.3,346.1,339.6,342.4,36,80,344.1,337.0,350.3,346.5,8.014,7.693,8.25,8.216,7.53,8.022,8.44,5.126,-4.461,-8.223,2.024,-1.209,7.984,5.165,-5.188,-8.1,354.1,341.5,-7.718,343.6,326.4,341.6,327.4,,36,323.9,4,5,prime,10,0,62,norm,36,-4.634,down,norm,338.613193171,329.8,328.9,333.2,348.9,2,326.2,318.6,332.1,10,5,8.25,4.45,1.26,-1.973,-4.348,-7.609,323.1,5,400.6,-7.979,-8.054,80,-7.735,-7.913,-4.851,-4.304,-4.918,-4.546,4.721,7.648,26,-1.692,1.283,4.861,7.501,-8.281,-8.09,-1.747,1.567,347.4,358.6,338.4,338.3,328.5,319.3,347.3,354.6,350.6,332.6,2,norm,1.283,1.218,-1.473,-2.058,-4.795,-5.05,-1.544,-1.682,-1.84,-1.562,1.567,-1.605,321.3,344.6,-4.846,-8.163,1.508,-1.362,8.074,4.686,-4.471,-8.385,18,4.862,4.342,4.593,5.08,1.939,1.378,1.483,1.537,18,4.678,4.737,20,170.800197096,norm,0,69,69,69,372.724,372.733,372.745882185,372.746,372.748,372.75,down,1,1.01495927538,8.98504072462,001,328,1920_1200,Intel(R) Core(TM) i5-3570 CPU @ 3.40GHz,orientation_search,LEPPC096,Intel(R) HD Graphics 2500,2019_Jan_22_1744,testMonitor,
348.4,334.5,341.8,332.1,36,80,340.4,339.1,318.6,325.5,7.579,8.415,7.703,8.229,8.323,7.834,8.216,4.628,-4.939,-8.097,1.381,-1.165,7.743,4.604,-4.996,-8.298,354.8,321.5,-8.402,341.0,341.4,345.2,330.7,335.6,36,350.9,2,5,prime,10,0,93,norm,36,-4.728,up,norm,338.613193171,346.2,346.9,,345.1,3,331.9,334.2,330.2,10,5,8.468,4.92,2.092,-1.537,-4.615,-8.057,336.6,5,431.6,-7.616,-8.072,80,-7.987,-8.47,-5.145,-4.544,-4.935,-4.467,4.364,7.751,15,-1.756,1.816,5.013,8.383,-7.545,-8.179,-1.337,1.775,356.2,348.2,331.5,358.6,329.4,334.8,323.5,355.5,329.6,354.6,3,norm,1.123,1.142,-1.686,-1.954,-5.17,-4.383,-1.2,-1.478,-1.574,-1.873,1.281,-2.062,340.3,342.5,-4.638,-8.199,1.882,-2.019,8.021,5.284,-5.065,-8.026,18,4.81,5.269,4.998,4.817,1.831,1.693,1.127,1.409,18,4.517,4.792,20,170.800197096,norm,0,70,70,70,373.808,373.829,373.840507646,373.841,373.843,373.846,up,1,1.31488915472,8.68511084528,001,328,1920_1200,Intel(R) Core(TM) i5-3570 CPU @ 3.40GHz,orientation_search,LEPPC096,Intel(R) HD Graphics 2500,2019_Jan_22_1744,testMonitor,
340.2,,347.1,335.1,36,80,339.6,332.9,349.6,329.0,7.56,8.373,8.283,7.981,8.471,8.379,8.071,4.312,-4.901,-7.952,1.51,-1.728,8.303,5.208,-4.55,-7.905,332.2,341.0,-8.016,342.7,324.3,341.3,326.3,348.5,36,343.3,3,5,prime,10,0,75,norm,36,-4.445,up,norm,338.613193171,355.5,340.3,318.6,342.0,5,341.7,335.4,337.1,10,5,8.381,5.256,1.927,-1.949,-4.928,-8.36,328.2,5,413.6,-7.693,-7.709,80,-7.787,-8.26,-4.619,-5.084,-4.613,-4.726,4.451,7.811,23,-2.01,1.411,4.997,8.248,-7.986,-7.808,-2.088,1.654,342.0,322.9,323.0,329.1,333.5,331.7,334.9,358.6,323.4,342.6,4,norm,1.705,1.323,-1.733,-1.322,-4.439,-4.57,-1.217,-1.233,-2.067,-1.149,1.245,-1.589,331.1,352.4,-5.053,-8.272,1.183,-2.061,7.854,4.58,-4.396,-8.016,18,4.663,4.69,4.393,4.501,1.753,2.015,2.074,1.679,18,4.655,5.227,20,170.800197096,norm,0,71,71,71,375.196,375.207,375.211881211,375.212,375.214,375.217,up,1,1.8293348257,8.1706651743,001,328,1920_1200,Intel(R) Core(TM) i5-3570 CPU @ 3.40GHz,orientation_search,LEPPC096,Intel(R) HD Graphics 2500,2019_Jan_22_1744,testMonitor,
535.5,532.4,549.0,547.6,36,-60,539.2,536.7,541.2,535.4,8.007,8.489,8.423,8.426,7.904,8.253,8.418,4.532,-5.193,-8.333,1.265,-1.361,8.194,5.127,-4.914,-7.617,545.4,550.5,-8.253,543.3,552.4,535.5,551.1,542.4,36,541.8,1,5,probe,5,0,115,norm,36,-4.988,down,norm,542.355647357,543.2,544.5,543.8,538.0,2,543.2,534.4,539.2,10,5,8.318,4.631,1.26,-1.53,-4.877,-8.347,543.6,2,427.4,-7.779,-7.898,80,-7.852,-8.368,-4.544,-4.851,-4.872,-5.028,5.229,8.485,8,-1.831,1.864,4.843,7.983,-8.237,-8.322,-1.979,1.289,546.1,,547.1,543.2,548.1,544.7,547.7,533.4,541.3,544.9,0,norm,1.479,1.899,-1.988,-1.467,-5.081,-4.836,-1.205,-1.239,-1.669,-1.893,1.666,-1.772,534.8,543.9,-4.778,-8.464,2.033,-1.4,8.327,4.809,-5.128,-7.515,19,4.888,4.341,5.105,5.283,1.542,1.865,1.846,1.124,19,5.073,4.445,80,338.613193171,norm,0,72,72,72,377.08,377.089,377.099066034,377.099,377.101,377.103,down,1,0.964604612145,9.03539538785,001,328,1920_1200,Intel(R) Core(TM) i5-3570 CPU @ 3.40GHz,orientation_search,LEPPC096,Intel(R) HD Graphics 2500,2019_Jan_22_1744,testMonitor,
512.9,501.2,520.4,505.1,36,-60,500.4,512.6,502.3,509.1,7.96,7.713,7.613,7.642,7.782,8.195,8.218,5.288,-5.21,-8.145,1.591,-1.876,8.044,5.149,-4.903,-8.044,507.5,506.4,-8.019,514.8,,512.4,506.1,514.0,36,509.8,5,5,probe,5,0,83,norm,36,-4.905,down,norm,510.355647357,513.8,505.4,506.9,504.4,0,507.3,505.9,508.4,10,5,8.164,4.819,2.076,-1.309,-5.019,-8.45,510.1,2,427.4,-7.791,-7.627,80,-8.185,-7.852,-4.378,-4.34,-5.166,-4.44,4.826,7.825,30,-2.039,1.651,4.683,7.638,-7.629,-8.246,-1.959,1.554,509.7,508.5,507.5,513.6,502.5,509.2,515.2,511.3,513.3,507.4,1,norm,1.845,1.714,-2.037,-1.421,-5.184,-4.864,-1.965,-2.016,-1.623,-1.217,1.323,-1.695,512.8,507.6,-4.694,-7.913,1.56,-1.181,8.045,5.258,-5.081,-8.387,19,4.437,5.206,4.575,4.396,1.636,1.542,1.891,1.563,19,4.417,4.339,80,338.613193171,norm,0,73,73,73,378.101,378.11,378.127706535,378.128,378.13,378.132,down,1,1.20624469303,8.79375530697,001,328,1920_1200,Intel(R) Core(TM) i5-3570 CPU @ 3.40GHz,orientation_search,LEPPC096,Intel(R) HD Graphics 2500,2019_Jan_22_1744,testMonitor,
,92.0,98.3,107.3,36,10,116.0,98.4,101.1,117.0,7.779,8.214,8.242,8.163,8.402,8.075,8.305,5.028,-5.244,-7.943,1.587,-1.687,7.996,4.811,-5.154,-8.16,120.2,97.7,-7.867,91.3,101.2,114.0,95.1,105.5,36,109.3,3,5,prime,10,0,66,norm,36,-4.553,up,norm,105.292901914,91.5,99.2,100.7,99.8,4,100.4,107.3,99.7,10,6,7.92,4.866,1.52,-1.672,-4.772,-8.378,111.8,6,171.3,-8.389,-8.05,10,-7.591,-7.888,-4.744,-4.646,-4.618,-4.355,4.837,7.532,22,-1.537,1.135,5.216,8.083,-8.499,-7.524,-1.948,1.979,108.4,107.7,110.0,124.1,85.3,104.9,116.2,92.4,104.5,101.0,0,norm,1.677,1.216,-1.518,-1.219,-4.786,-4.676,-1.363,-1.433,-1.645,-2.062,2.094,-1.312,92.5,99.0,-5.088,-7.788,1.708,-1.453,7.597,4.454,-5.087,-7.595,20,5.073,4.933,5.295,4.475,1.217,1.994,1.72,1.69,20,5.001,4.717,-60,338.613193171,norm,0,74,74,74,379.376,379.386,379.393483155,379.394,379.395,379.398,up,1,1.87760518778,8.12239481222,001,328,1920_1200,Intel(R) Core(TM) i5-3570 CPU @ 3.40GHz,orientation_search,LEPPC096,Intel(R) HD Graphics 2500,2019_Jan_22_1744,testMonitor,
89.9,88.7,85.3,106.0,36,10,106.1,109.5,107.4,103.5,7.523,8.356,7.924,7.952,8.305,7.887,7.711,5.011,-5.08,-7.708,1.545,-1.617,7.823,4.719,-4.902,-8.181,95.1,107.9,-7.6,106.5,110.3,113.2,106.1,,36,91.0,4,5,prime,10,0,64,norm,36,-4.497,down,norm,105.292901914,107.2,118.2,111.8,108.9,2,105.1,92.7,98.8,10,6,7.564,5.181,1.146,-1.888,-5.117,-7.834,118.9,6,169.3,-7.984,-7.774,10,-7.66,-7.824,-4.857,-4.582,-5.109,-4.695,4.822,7.892,26,-1.851,1.714,4.689,7.812,-7.612,-7.612,-1.226,1.328,125.3,89.6,99.3,120.4,87.6,116.3,100.8,97.3,107.5,99.6,1,norm,1.947,2.037,-2.053,-1.749,-4.877,-4.922,-1.295,-1.604,-1.157,-1.228,1.911,-1.335,86.1,91.5,-4.532,-7.569,1.831,-1.684,7.827,4.974,-5.044,-7.789,20,5.262,5.211,4.423,5.098,1.571,1.681,1.913,1.757,20,4.729,5.273,-60,338.613193171,norm,0,75,75,75,381.311,381.322,381.326863699,381.327,381.329,381.332,down,1,1.64225845878,8.35774154122,001,328,1920_1200,Intel(R) Core(TM) i5-3570 CPU @ 3.40GHz,orientation_search,LEPPC096,Intel(R) HD Graphics 2500,2019_Jan_22_1744,testMonitor,
91.2,104.9,104.9,110.2,36,10,104.9,103.8,85.3,115.0,7.785,7.707,8.465,7.794,7.852,8.187,7.889,4.891,-5.13,-7.735,1.816,-1.524,8.343,5.163,-4.32,-7.993,102.6,123.2,-7.549,110.1,119.5,107.3,110.8,104.8,36,111.3,2,5,prime,10,0,104,norm,36,-5.206,up,norm,105.292901914,105.8,107.7,,113.2,3,114.6,111.6,87.4,10,6,8.108,4.756,1.542,-1.225,-5.148,-7.55,106.5,6,209.3,-7.666,-7.791,10,-8.482,-7.717,-5.102,-4.397,-5.005,-5.052,5.062,7.884,15,-2.076,1.947,4.976,7.725,-7.844,-7.843,-1.338,1.995,92.7,103.4,97.6,125.3,117.9,108.9,115.6,96.3,91.6,106.7,2,norm,1.775,1.931,-1.826,-1.565,-4.325,-4.516,-1.649,-1.491,-1.973,-1.347,1.916,-1.353,88.4,104.8,-4.604,-7.882,1.145,-1.776,7.897,5.12,-5.25,-8.115,20,4.931,4.801,4.35,4.657,1.974,1.389,1.535,1.43,20,4.856,4.956,-60,338.613193171,norm,0,76,76,76,383.011,383.02,383.027506134,383.028,383.03,383.032,up,1,2.59014398733,7.40985601267,001,328,1920_1200,Intel(R) Core(TM) i5-3570 CPU @ 3.40GHz,orientation_search,LEPPC096,Intel(R) HD Graphics 2500,2019_Jan_22_1744,testMonitor,
111.3,87.7,106.4,85.3,36,10,109.8,109.9,101.1,109.6,7.698,7.884,8.335,7.575,8.347,7.55,8.29,5.144,-4.985,-8.174,1.535,-2.057,8.177,4.603,-4.332,-8.487,101.8,99.5,-8.043,104.1,96.3,100.6,101.5,102.6,36,,4,5,prime,10,0,63,norm,36,-4.876,up,norm,105.292901914,105.9,125.3,113.1,110.8,3,108.0,107.5,116.7,10,6,8.427,5.008,1.939,-1.261,-5.098,-8.148,98.4,6,168.3,-7.84,-7.888,10,-8.384,-7.814,-4.961,-4.406,-5.225,-4.593,4.973,7.931,27,-1.81,1.798,4.644,7.733,-7.95,-8.194,-1.835,1.217,94.6,114.2,102.0,109.5,100.5,100.0,115.7,96.8,108.8,110.1,3,norm,1.254,1.673,-1.819,-1.449,-4.602,-4.805,-1.917,-1.752,-1.218,-1.132,1.686,-1.614,88.4,103.6,-4.346,-8.424,1.879,-1.252,8.127,4.969,-5.071,-8.103,20,4.795,4.707,5.281,4.774,1.815,1.643,1.753,1.629,20,5.285,4.312,-60,338.613193171,norm,0,77,77,77,385.664,385.684,385.696275817,385.696,385.698,385.701,up,1,1.54884222429,8.45115777571,001,328,1920_1200,Intel(R) Core(TM) i5-3570 CPU @ 3.40GHz,orientation_search,LEPPC096,Intel(R) HD Graphics 2500,2019_Jan_22_1744,testMonitor,
110.4,107.2,103.0,109.4,36,10,89.0,104.7,99.6,112.4,8.09,8.049,7.588,8.074,8.4,8.382,7.993,4.803,-4.881,-7.793,1.632,-1.933,8.306,4.601,-4.406,-8.205,,97.2,-8.252,119.4,108.1,125.3,94.5,95.7,36,101.8,5,5,prime,10,0,105,norm,36,-4.705,up,norm,105.292901914,106.5,89.9,115.1,124.1,5,104.5,109.5,103.7,10,6,8.27,4.661,1.759,-1.704,-5.027,-7.883,107.2,6,210.3,-8.011,-7.544,10,-8.414,-7.901,-4.963,-4.819,-5.009,-5.208,4.397,7.911,35,-1.758,1.107,5.255,7.995,-7.887,-8.377,-1.145,1.8,114.8,106.7,99.1,85.3,107.9,102.9,99.8,109.1,102.8,97.9,4,norm,1.566,1.783,-1.855,-1.53,-4.875,-4.953,-2.042,-1.249,-1.599,-1.504,1.912,-1.652,102.8,108.5,-4.382,-8.174,1.84,-1.792,7.526,4.394,-4.854,-7.839,20,5.066,5.244,4.864,4.34,1.876,2.023,1.698,2.042,20,4.88,4.755,-60,338.613193171,norm,0,78,78,78,387.266,387.278,387.282810537,387.283,387.285,387.288,up,1,4.66424459101,5.33575540899,001,328,1920_1200,Intel(R) Core(TM) i5-3570 CPU @ 3.40GHz,orientation_search,LEPPC096,Intel(R) HD Graphics 2500,2019_Jan_22_1744,testMonitor,
96.4,103.5,106.0,107.8,36,10,118.9,113.5,99.4,95.2,7.596,7.731,7.557,7.602,7.601,8.334,7.612,5.213,-4.669,-7.77,1.296,-1.357,7.818,4.636,-4.988,-8.404,106.1,96.2,-7.577,103.2,118.4,121.4,102.5,109.6,36,125.3,0,5,prime,10,0,118,norm,36,-5.212,up,norm,105.292901914,102.3,101.9,85.3,109.2,5,110.5,107.8,106.4,10,6,7.874,4.623,1.765,-1.799,-4.486,-8.361,86.5,6,223.3,-8.454,-8.185,10,-7.866,-8.154,-5.139,-4.745,-4.736,-4.614,4.502,8.353,5,-1.61,1.554,5.095,8.41,-7.953,-8.448,-1.931,1.822,116.6,107.1,108.1,115.0,108.7,108.8,92.2,107.0,,99.6,5,norm,1.333,1.207,-1.423,-1.904,-4.881,-4.796,-1.693,-1.458,-1.394,-2.008,1.401,-2.033,104.3,112.4,-4.979,-8.052,1.633,-1.802,7.986,4.905,-4.373,-7.647,20,4.989,4.456,4.993,4.462,1.63,1.985,1.818,2.056,20,5.167,5.147,-60,338.613193171,norm,0,79,79,79,391.986,392.0,392.018185188,392.018,392.02,392.023,down,0,1.44177676033,-10,001,328,1920_1200,Intel(R) Core(TM) i5-3570 CPU @ 3.40GHz,orientation_search,LEPPC096,Intel(R) HD Graphics 2500,2019_Jan_22_1744,testMonitor,
203.9,205.7,206.6,203.4,36,-10,,213.3,208.1,205.3,7.571,7.739,8.087,8.124,7.926,8.199,7.681,5.23,-4.656,-7.828,1.516,-1.82,8.216,4.634,-4.877,-7.546,203.2,204.0,-7.512,207.5,205.9,209.6,203.1,217.0,36,203.7,4,5,probe,5,0,95,norm,36,-4.662,down,norm,206.963644703,201.0,197.0,210.2,205.9,0,216.1,199.3,206.0,10,6,7.529,4.345,1.778,-1.946,-4.676,-8.432,207.3,2,112.0,-7.954,-7.564,10,-7.53,-7.505,-4.942,-5.074,-5.195,-5.223,5.259,7.626,24,-1.728,1.276,4.814,7.68,-8.031,-8.451,-1.636,1.204,206.0,202.2,206.0,204.0,206.8,213.4,205.2,212.2,202.1,205.3,0,norm,2.05,1.682,-1.613,-1.577,-5.184,-4.551,-1.167,-1.461,-1.142,-1.165,1.202,-1.155,202.3,208.3,-4.416,-8.051,2.072,-1.251,8.135,5.083,-5.181,-8.348,21,4.641,4.848,4.885,4.41,1.432,1.945,1.27,1.659,21,4.95,5.074,10,105.292901914,norm,0,80,80,80,394.532,394.542,394.554363434,394.555,394.556,394.559,down,1,1.11920361283,8.88079638717,001,328,1920_1200,Intel(R) Core(TM) i5-3570 CPU @ 3.40GHz,orientation_search,LEPPC096,Intel(R) HD Graphics 2500,2019_Jan_22_1744,testMonitor,
199.4,209.7,204.5,206.8,36,-10,212.8,204.4,,207.4,8.382,7.736,8.416,8.484,8.372,7.543,7.745,4.782,-4.863,-8.237,2.032,-1.541,8.163,4.82,-5.128,-7.669,217.7,208.2,-8.261,199.0,208.3,203.8,210.8,209.4,36,208.1,4,5,probe,5,0,97,norm,36,-4.515,up,norm,208.963644703,205.7,214.8,210.8,207.3,4,207.8,214.2,204.2,10,6,8.233,4.74,1.613,-1.876,-4.464,-7.762,207.1,2,112.0,-7.677,-7.623,10,-7.538,-7.885,-4.985,-4.425,-4.925,-4.324,4.508,8.22,28,-1.171,1.553,4.459,7.61,-7.596,-8.051,-2.093,1.548,202.2,216.0,212.6,212.0,210.3,207.5,206.3,219.0,213.9,207.5,1,norm,1.251,1.156,-1.325,-2.091,-4.69,-4.954,-1.219,-1.615,-1.435,-1.37,1.723,-1.206,209.0,213.3,-4.881,-8.414,1.832,-1.773,7.989,5.079,-4.59,-7.855,21,5.292,5.154,4.755,4.87,1.313,1.947,1.752,1.533,21,4.38,4.357,10,105.292901914,norm,0,81,81,81,395.695,395.705,395.724221149,395.724,395.726,395.729,up,1,0.949902818138,9.05009718186,001,328,1920_1200,Intel(R) Core(TM) i5-3570 CPU @ 3.40GHz,orientation_search,LEPPC096,Intel(R) HD Graphics 2500,2019_Jan_22_1744,testMonitor,
296.9,304.1,321.2,299.9,36,-40,318.6,318.5,321.6,310.2,7.59,8.422,8.033,7.7,8.076,7.756,7.555,5.288,-4.564,-8.443,1.756,-1.926,7.501,4.959,-4.598,-7.835,333.8,320.8,-8.391,315.4,328.1,315.7,336.9,322.6,36,315.0,2,5,prime,10,0,92,norm,36,-4.726,up,norm,316.915455776,316.0,326.1,,329.0,3,303.9,310.9,329.9,10,5,7.608,4.57,2.079,-1.671,-4.965,-7.667,317.0,5,408.9,-7.958,-7.54,-40,-7.576,-7.624,-4.797,-4.759,-5.075,-5.039,5.158,7.801,15,-1.536,1.179,4.914,7.82,-7.636,-7.984,-1.736,1.572,323.5,329.6,320.0,312.3,331.4,331.6,313.3,318.8,305.5,322.6,0,norm,1.124,1.83,-1.112,-1.371,-4.348,-4.446,-1.458,-1.744,-1.582,-1.31,1.401,-1.977,319.6,329.8,-4.788,-7.717,1.249,-1.846,8.469,4.932,-5.118,-8.104,22,4.599,4.716,5.254,4.753,1.198,1.606,1.315,1.999,22,4.434,4.501,-10,105.292901914,norm,0,82,82,82,396.712,396.722,396.72783102,396.728,396.73,396.733,up,1,1.11684341722,8.88315658278,001,328,1920_1200,Intel(R) Core(TM) i5-3570 CPU @ 3.40GHz,orientation_search,LEPPC096,Intel(R) HD Graphics 2500,2019_Jan_22_1744,testMonitor,
320.6,305.0,322.0,336.9,36,-40,315.6,303.9,324.4,302.4,7.685,8.238,8.201,8.298,8.283,8.043,7.72,4.87,-5.232,-8.492,2.007,-2.024,8.077,4.622,-4.535,-7.683,311.6,307.6,-7.803,304.3,315.6,333.6,316.5,330.1,36,323.6,2,5,prime,10,0,80,norm,36,-4.443,down,norm,316.915455776,313.0,316.7,296.9,321.9,0,314.1,326.6,,10,5,8.238,4.823,1.306,-1.742,-4.611,-7.73,330.9,5,396.9,-7.797,-8.441,-40,-8.415,-7.846,-4.741,-4.767,-4.507,-4.318,5.048,8.041,12,-1.523,1.951,5.033,8.111,-8.371,-8.15,-1.253,1.851,328.5,330.6,315.9,326.3,318.2,326.8,308.9,324.7,311.3,310.6,1,norm,1.577,1.196,-1.971,-1.195,-4.665,-4.488,-1.517,-1.823,-1.668,-1.423,1.876,-1.157,320.7,326.3,-5.226,-7.892,1.493,-1.352,7.709,5.02,-4.675,-8.048,22,4.414,4.306,4.9,4.613,2.04,1.719,1.743,1.708,22,4.84,4.967,-10,105.292901914,norm,0,83,83,83,397.883,397.893,397.899218229,397.899,397.901,397.904,down,1,1.36576693076,8.63423306924,001,328,1920_1200,Intel(R) Core(TM) i5-3570 CPU @ 3.40GHz,orientation_search,LEPPC096,Intel(R) HD Graphics 2500,2019_Jan_22_1744,testMonitor,
330.0,299.9,311.7,321.1,36,-40,320.2,333.5,316.3,309.1,7.93,7.994,8.314,7.852,7.574,8.195,8.372,5.084,-4.493,-8.296,1.758,-1.321,7.934,4.837,-5.2,-8.221,331.7,322.1,-8.241,297.3,330.1,320.4,336.9,307.3,36,320.4,1,5,prime,10,0,76,norm,36,-4.936,down,norm,316.915455776,334.7,315.2,308.8,307.1,2,327.4,326.6,315.5,10,5,8.062,4.554,1.436,-1.828,-4.322,-8.425,314.5,5,392.9,-7.904,-8.302,-40,-8.436,-7.559,-4.891,-5.064,-4.969,-5.166,4.396,7.911,8,-1.611,1.88,4.655,8.384,-8.356,-7.78,-1.553,1.825,296.9,,331.1,328.9,308.6,325.9,318.6,322.1,309.3,316.1,2,norm,1.64,1.193,-1.601,-1.666,-4.941,-4.378,-1.338,-1.303,-1.942,-1.683,1.487,-1.176,315.8,313.0,-4.735,-8.018,1.706,-1.585,7.634,4.383,-4.961,-8.495,22,4.698,4.312,4.772,4.687,1.773,1.657,1.343,1.424,22,4.333,4.472,-10,105.292901914,norm,0,84,84,84,399.303,399.316,399.335788613,399.336,399.338,399.34,up,0,0.916079787228,-10,001,328,1920_1200,Intel(R) Core(TM) i5-3570 CPU @ 3.40GHz,orientation_search,LEPPC096,Intel(R) HD Graphics 2500,2019_Jan_22_1744,testMonitor,
329.4,335.6,313.4,309.3,36,-40,311.5,304.7,302.5,318.8,7.55,7.947,8.418,7.845,7.711,8.033,8.491,4.677,-4.733,-7.845,1.896,-1.709,8.4,5.04,-4.768,-7.898,305.0,334.1,-7.793,296.9,324.3,320.4,301.6,309.6,36,318.6,1,5,prime,10,0,113,norm,36,-5.237,down,norm,316.915455776,308.8,320.5,306.4,320.1,1,319.8,326.4,309.1,10,5,8.083,4.627,1.945,-1.941,-5.231,-7.506,315.5,5,429.9,-8.016,-8.221,-40,-7.931,-7.909,-4.686,-5.167,-5.097,-5.093,4.874,7.889,7,-1.741,1.438,4.777,8.396,-8.445,-7.725,-1.995,1.972,321.8,336.9,335.5,317.5,305.2,317.7,,330.9,318.0,317.1,3,norm,1.641,1.189,-1.954,-1.314,-4.46,-4.697,-1.72,-1.287,-1.58,-1.56,1.626,-1.643,315.2,324.6,-4.933,-8.469,1.342,-1.851,7.525,5.066,-5.0,-8.244,22,4.687,4.806,4.787,5.215,1.228,1.866,1.271,1.869,22,4.838,5.005,-10,105.292901914,norm,0,85,85,85,401.329,401.339,401.355723648,401.356,401.358,401.36,down,1,1.26049357338,8.73950642662,001,328,1920_1200,Intel(R) Core(TM) i5-3570 CPU @ 3.40GHz,orientation_search,LEPPC096,Intel(R) HD Graphics 2500,2019_Jan_22_1744,testMonitor,
315.5,324.1,313.8,305.3,36,-40,307.3,321.8,306.8,320.1,8.366,8.314,8.22,8.252,7.927,8.356,7.867,4.577,-4.449,-7.577,1.875,-1.585,8.378,4.32,-4.736,-8.495,336.9,320.8,-7.66,335.2,323.7,327.3,316.9,335.2,36,323.6,2,5,prime,10,0,84,norm,36,-5.218,up,norm,316.915455776,,311.3,335.4,323.9,5,296.9,312.7,325.2,10,5,8.406,4.821,2.069,-1.34,-5.041,-7.92,326.7,5,400.9,-8.149,-8.422,-40,-7.964,-8.465,-4.841,-4.642,-4.411,-4.744,4.674,7.979,17,-2.07,1.628,4.687,7.998,-7.626,-8.202,-1.972,1.706,324.1,327.6,305.1,303.0,307.4,321.7,327.9,313.3,328.8,320.9,4,norm,1.752,1.375,-1.648,-2.083,-4.986,-4.886,-1.741,-1.673,-1.781,-1.156,1.327,-1.859,326.7,323.4,-4.4,-7.952,1.538,-1.201,7.769,4.904,-5.082,-8.224,22,5.259,4.482,4.516,4.475,1.708,1.536,1.661,2.082,22,4.742,5.009,-10,105.292901914,norm,0,86,86,86,402.654,402.664,402.681671824,402.682,402.684,402.686,up,1,0.859677179333,9.14032282067,001,328,1920_1200,Intel(R) Core(TM) i5-3570 CPU @ 3.40GHz,orientation_search,LEPPC096,Intel(R) HD Graphics 2500,2019_Jan_22_1744,testMonitor,
358.0,355.3,347.6,359.3,36,-20,,347.1,359.4,359.1,8.358,7.871,8.239,7.71,8.177,7.509,7.774,4.761,-4.978,-7.788,1.251,-1.287,7.991,4.622,-4.665,-8.19,356.6,359.8,-8.451,346.6,352.9,356.4,352.7,359.8,36,362.5,4,5,probe,5,0,76,norm,36,-4.385,down,norm,356.603978391,366.3,360.1,348.5,366.6,0,362.8,351.1,358.6,10,5,7.837,4.754,1.692,-2.009,-4.898,-8.122,361.9,2,280.6,-7.803,-7.513,-40,-7.703,-7.875,-4.537,-4.638,-5.074,-4.494,4.748,7.563,24,-1.641,1.482,4.533,8.005,-7.821,-8.323,-1.475,1.552,360.1,366.0,351.1,361.8,356.5,355.9,354.0,357.8,357.7,353.9,0,norm,1.472,1.2,-2.027,-1.424,-5.172,-4.854,-1.644,-1.68,-1.645,-1.652,1.282,-1.15,354.4,361.1,-4.554,-8.03,1.462,-1.371,7.509,5.139,-4.948,-7.946,23,4.447,4.337,4.676,5.048,2.059,1.493,1.466,1.201,23,4.584,4.325,-40,316.915455776,norm,0,87,87,87,403.58,403.589,403.602026164,403.602,403.604,403.606,down,1,1.01636199044,8.98363800956,001,328,1920_1200,Intel(R) Core(TM) i5-3570 CPU @ 3.40GHz,orientation_search,LEPPC096,Intel(R) HD Graphics 2500,2019_Jan_22_1744,testMonitor,
,365.5,368.4,368.9,36,-20,357.1,366.2,355.6,362.6,7.531,8.355,8.024,8.094,8.5,8.133,7.602,4.968,-5.26,-8.076,1.294,-1.396,8.114,4.403,-5.233,-8.216,371.3,360.7,-7.524,360.3,365.6,365.1,370.1,363.9,36,371.0,3,5,probe,5,0,85,norm,36,-5.239,up,norm,365.603978391,374.4,366.8,362.1,364.3,4,362.5,364.1,373.6,10,5,7.766,4.499,1.464,-1.529,-4.795,-7.925,357.2,2,280.6,-8.324,-8.251,-40,-7.802,-8.305,-4.538,-5.01,-5.049,-4.969,5.284,8.455,22,-1.465,2.02,5.114,7.768,-8.474,-7.572,-1.478,1.912,365.2,369.9,364.9,364.0,375.6,358.5,361.2,369.7,366.2,365.5,1,norm,1.343,2.093,-1.414,-1.543,-5.024,-4.567,-1.794,-1.265,-1.732,-1.159,1.797,-1.592,373.5,361.9,-4.896,-7.661,2.096,-1.557,8.116,5.251,-4.969,-7.921,23,4.624,4.383,4.743,4.97,1.456,1.678,1.749,1.333,23,4.658,5.222,-40,316.915455776,norm,0,88,88,88,404.664,404.676,404.69668,404.697,404.699,404.702,up,1,0.873342708916,9.12665729108,001,328,1920_1200,Intel(R) Core(TM) i5-3570 CPU @ 3.40GHz,orientation_search,LEPPC096,Intel(R) HD Graphics 2500,2019_Jan_22_1744,testMonitor,
343.3,352.6,355.8,352.6,36,30,338.8,340.2,324.7,343.5,8.171,8.024,8.282,8.291,8.227,7.861,8.495,5.014,-5.11,-7.92,2.078,-2.054,7.876,5.213,-4.714,-7.679,333.0,338.6,-7.977,335.8,,346.6,340.1,348.1,36,345.2,5,5,prime,10,0,80,norm,36,-4.512,down,norm,342.357720058,362.4,350.2,337.2,333.9,0,344.7,339.5,334.8,10,5,7.643,4.741,1.238,-1.847,-4.866,-8.04,344.8,5,422.4,-7.587,-8.302,30,-8.418,-8.124,-4.901,-4.57,-4.613,-5.075,5.155,7.528,30,-1.772,1.757,4.955,8.222,-7.922,-8.434,-1.346,1.987,354.3,341.8,335.1,322.4,356.3,346.9,334.1,346.6,337.6,341.9,0,norm,1.231,1.32,-1.829,-1.154,-5.262,-4.308,-1.938,-1.181,-1.842,-1.462,1.453,-1.775,341.2,328.4,-5.126,-7.584,1.889,-1.366,8.049,4.815,-5.019,-7.858,24,4.351,5.243,4.656,5.041,1.479,1.757,1.885,2.044,24,4.829,4.51,-20,316.915455776,norm,0,89,89,89,405.609,405.619,405.630013755,405.63,405.632,405.635,down,1,0.861515771414,9.13848422859,001,328,1920_1200,Intel(R) Core(TM) i5-3570 CPU @ 3.40GHz,orientation_search,LEPPC096,Intel(R) HD Graphics 2500,2019_Jan_22_1744,testMonitor,
333.4,334.8,344.3,344.0,36,30,340.5,323.6,362.4,342.4,7.638,8.064,8.122,8.092,7.678,8.35,8.322,4.316,-4.448,-8.414,1.981,-1.594,7.66,5.26,-5.016,-8.294,351.8,349.3,-7.769,334.4,338.0,357.2,343.6,362.1,36,329.4,3,5,prime,10,0,108,norm,36,-4.555,down,norm,342.357720058,347.3,348.1,347.4,343.3,0,326.7,322.4,358.8,10,5,8.469,4.599,1.991,-1.283,-5.04,-7.579,336.5,5,450.4,-7.549,-8.118,30,-8.438,-7.736,-4.718,-4.341,-4.356,-4.694,4.911,8.411,18,-1.663,1.619,4.353,7.98,-8.043,-7.829,-1.24,1.995,338.8,330.9,352.2,344.0,326.0,351.5,331.2,346.0,337.4,330.4,1,norm,1.357,1.788,-2.031,-1.383,-4.605,-5.244,-1.434,-1.331,-2.056,-1.251,1.438,-1.248,328.2,,-4.637,-8.303,1.918,-1.365,7.961,4.844,-4.59,-7.938,24,4.401,5.199,4.461,5.224,1.353,1.257,1.75,1.317,24,5.013,5.058,-20,316.915455776,norm,0,90,90,90,406.535,406.545,406.551679651,406.552,406.554,406.556,down,1,2.32813148514,7.67186851486,001,328,1920_1200,Intel(R) Core(TM) i5-3570 CPU @ 3.40GHz,orientation_search,LEPPC096,Intel(R) HD Graphics 2500,2019_Jan_22_1744,testMonitor,
349.9,332.9,336.2,345.9,36,30,340.3,328.7,342.9,353.0,7.53,7.744,8.391,8.162,8.061,7.725,7.863,5.052,-5.204,-8.094,1.172,-2.037,8.245,4.667,-4.54,-7.645,342.2,333.6,-7.79,336.4,347.8,322.4,334.9,339.4,36,332.8,0,5,prime,10,0,111,norm,36,-5.297,down,norm,342.357720058,338.3,330.3,348.3,335.2,0,343.3,341.3,359.6,10,5,7.918,4.413,1.664,-1.729,-5.291,-7.999,362.4,5,453.4,-7.815,-7.544,30,-8.352,-8.333,-4.86,-5.194,-5.132,-4.903,5.232,7.561,0,-1.871,1.947,4.636,8.495,-8.019,-7.848,-1.715,1.606,360.9,355.2,356.4,337.6,354.5,,338.8,356.6,342.3,331.6,2,norm,1.751,1.262,-1.518,-1.965,-4.628,-4.63,-1.57,-2.028,-1.566,-1.121,1.648,-1.977,346.7,342.8,-5.154,-8.061,1.895,-1.892,7.508,4.968,-4.581,-8.212,24,4.983,4.667,5.265,5.168,1.82,2.026,1.317,1.545,24,4.747,4.648,-20,316.915455776,norm,0,91,91,91,408.917,408.927,408.937017581,408.937,408.939,408.941,down,1,1.70468878712,8.29531121288,001,328,1920_1200,Intel(R) Core(TM) i5-3570 CPU @ 3.40GHz,orientation_search,LEPPC096,Intel(R) HD Graphics 2500,2019_Jan_22_1744,testMonitor,
326.3,350.2,325.4,357.3,36,30,347.3,333.5,332.3,358.2,7.8,8.019,7.939,7.57,7.544,8.089,7.686,4.733,-4.58,-7.744,1.395,-1.706,8.148,4.368,-4.701,-8.263,355.6,357.7,-8.35,343.1,359.3,330.4,326.6,362.4,36,,4,5,prime,10,0,86,norm,36,-5.024,up,norm,342.357720058,349.2,347.0,353.6,350.1,3,332.6,339.4,331.4,10,5,8.232,4.729,1.165,-1.871,-4.394,-7.651,359.3,5,428.4,-8.411,-8.08,30,-8.101,-7.592,-4.758,-4.903,-4.816,-5.047,4.936,8.017,27,-1.281,1.677,4.604,7.588,-7.563,-8.443,-1.409,1.986,322.4,358.6,339.2,343.8,359.2,349.3,344.5,337.9,342.1,361.3,3,norm,1.852,1.979,-1.394,-1.15,-4.304,-5.117,-1.229,-1.145,-1.571,-1.885,1.169,-1.314,350.5,327.5,-4.605,-8.271,1.215,-1.738,7.921,5.061,-5.091,-7.743,24,4.445,5.237,4.887,5.029,1.459,1.36,1.747,1.823,24,4.51,4.654,-20,316.915455776,norm,0,92,92,92,410.669,410.679,410.699916477,410.7,410.702,410.704,up,1,1.43133170996,8.56866829004,001,328,1920_1200,Intel(R) Core(TM) i5-3570 CPU @ 3.40GHz,orientation_search,LEPPC096,Intel(R) HD Graphics 2500,2019_Jan_22_1744,testMonitor,
347.7,345.4,350.5,337.2,36,30,341.7,336.7,322.4,349.9,8.311,8.255,8.058,7.54,8.357,8.131,8.342,4.698,-4.821,-8.42,2.028,-1.434,7.99,5.224,-5.257,-7.806,362.4,340.5,-8.287,346.9,348.1,341.5,345.2,348.3,36,335.3,2,5,prime,10,0,81,norm,36,-5.076,down,norm,342.357720058,341.4,333.1,333.1,339.5,1,342.4,,348.6,10,5,7.866,4.961,1.268,-1.931,-4.716,-8.291,329.2,5,423.4,-7.96,-8.28,30,-8.242,-8.444,-4.393,-4.952,-5.168,-5.285,4.829,7.633,13,-1.396,2.055,4.4,8.209,-8.087,-7.806,-1.61,2.016,356.8,339.5,336.8,345.7,344.6,339.6,332.8,346.0,355.5,342.4,4,norm,1.417,1.686,-1.866,-1.95,-4.34,-5.005,-2.088,-1.446,-1.21,-1.244,1.806,-2.05,350.0,350.8,-4.494,-8.24,1.721,-1.226,7.739,4.91,-4.607,-7.59,24,4.583,4.986,5.011,5.225,1.351,1.647,1.102,1.449,24,5.055,4.567,-20,316.915455776,norm,0,93,93,93,412.153,412.162,412.181879047,412.182,412.184,412.186,up,0,2.01864128921,-10,001,328,1920_1200,Intel(R) Core(TM) i5-3570 CPU @ 3.40GHz,orientation_search,LEPPC096,Intel(R) HD Graphics 2500,2019_Jan_22_1744,testMonitor,
437.8,451.9,449.1,444.7,36,10,435.2,439.2,445.2,440.2,8.355,7.771,8.372,7.689,7.832,8.466,8.026,4.335,-4.541,-8.495,1.878,-1.142,7.752,4.887,-4.371,-8.08,447.6,434.0,-7.886,439.9,449.5,435.5,454.0,449.4,36,443.0,2,5,probe,5,0,69,norm,36,-4.506,up,norm,443.95447237,,444.7,445.7,450.1,5,449.5,439.4,439.5,10,5,7.573,4.674,2.094,-2.052,-4.887,-7.821,436.8,2,375.0,-7.515,-8.092,30,-8.339,-8.097,-4.497,-4.361,-5.259,-4.615,4.371,7.507,17,-1.348,1.88,4.643,7.8,-8.397,-8.081,-1.81,1.657,446.0,446.6,453.6,443.1,440.1,452.6,440.0,443.5,448.3,446.3,0,norm,1.242,1.327,-1.594,-1.649,-4.38,-4.633,-1.261,-1.813,-1.102,-1.814,1.495,-2.023,445.0,453.1,-4.567,-7.779,1.726,-1.911,7.679,5.127,-4.801,-7.823,25,4.396,5.274,4.961,5.258,2.04,1.55,1.61,2.085,25,4.552,4.657,30,342.357720058,norm,0,94,94,94,415.276,415.285,415.301837596,415.302,415.304,415.306,up,1,1.43355093981,8.56644906019,001,328,1920_1200,Intel(R) Core(TM) i5-3570 CPU @ 3.40GHz,orientation_search,LEPPC096,Intel(R) HD Graphics 2500,2019_Jan_22_1744,testMonitor,
453.5,450.4,450.4,451.0,36,10,466.1,448.2,457.9,463.5,8.194,8.352,8.279,7.639,7.697,7.669,8.007,4.709,-5.216,-7.879,1.755,-1.177,8.055,4.317,-5.279,-8.023,454.2,448.0,-7.776,465.3,457.2,460.1,451.7,447.0,36,458.2,1,5,probe,5,0,82,norm,36,-5.163,down,norm,456.95447237,460.5,456.6,458.9,456.4,2,458.0,463.5,458.1,10,5,8.063,4.779,1.262,-1.351,-5.249,-7.931,450.5,2,375.0,-7.767,-8.483,30,-8.151,-7.947,-4.722,-5.089,-4.961,-4.463,4.544,8.16,8,-1.17,1.485,5.069,8.305,-8.316,-8.019,-1.773,1.88,449.9,,458.7,464.7,467.0,457.0,455.6,462.4,459.2,456.7,1,norm,1.321,1.226,-2.029,-1.112,-4.832,-4.697,-1.911,-1.938,-1.809,-1.987,1.202,-1.116,454.5,461.2,-4.383,-7.782,1.72,-1.678,7.559,4.375,-5.08,-8.098,25,4.657,5.03,5.194,4.631,1.228,1.907,1.593,1.521,25,4.833,5.04,30,342.357720058,norm,0,95,95,95,416.773,416.783,416.799254481,416.799,416.801,416.804,down,1,1.2020932964,8.7979067036,001,328,1920_1200,Intel(R) Core(TM) i5-3570 CPU @ 3.40GHz,orientation_search,LEPPC096,Intel(R) HD Graphics 2500,2019_Jan_22_1744,testMonitor,
