d_ori_22,d_ori_23,d_ori_20,d_ori_21,set_size,ctpd,d_ori_24,d_ori_25,d_ori_28,d_ori_29,stim_pos_x_30,stim_pos_x_31,stim_pos_x_32,stim_pos_x_33,stim_pos_x_34,stim_pos_x_35,stim_pos_y_11,stim_pos_y_10,stim_pos_y_13,stim_pos_y_12,stim_pos_y_15,stim_pos_y_14,stim_pos_y_17,stim_pos_y_16,stim_pos_y_19,stim_pos_y_18,d_ori_35,d_ori_34,stim_pos_x_3,d_ori_31,d_ori_30,d_ori_33,d_ori_32,d_ori_26,test_set_size,d_ori_27,targetCol,dsd_test,seq_type,dsd,blockRepN,targetDist,dtype_test,prime_set_size,stim_pos_y_25,correctResponse,dtype,distrMean,d_ori_17,d_ori_16,d_ori_15,d_ori_14,targetRow,d_ori_11,d_ori_13,d_ori_12,dsd_prime,streak_length_prime,stim_pos_y_35,stim_pos_y_34,stim_pos_y_33,stim_pos_y_32,stim_pos_y_31,stim_pos_y_30,d_ori_10,nextProbe,targetOri,stim_pos_x_1,stim_pos_x_2,ctpd_prime,stim_pos_x_4,stim_pos_x_5,stim_pos_x_6,stim_pos_x_7,stim_pos_x_8,stim_pos_x_9,stim_pos_y_28,stim_pos_y_29,targetPos,stim_pos_y_20,stim_pos_y_21,stim_pos_y_22,stim_pos_y_23,stim_pos_y_24,stim_pos_x_0,stim_pos_y_26,stim_pos_y_27,d_ori_9,d_ori_8,d_ori_3,d_ori_2,d_ori_1,d_ori_0,d_ori_7,d_ori_6,d_ori_5,d_ori_4,trialN,dtype_prime,stim_pos_x_18,stim_pos_x_19,stim_pos_x_12,stim_pos_x_13,stim_pos_x_10,stim_pos_x_11,stim_pos_x_16,stim_pos_x_17,stim_pos_x_14,stim_pos_x_15,stim_pos_y_9,stim_pos_y_8,d_ori_19,d_ori_18,stim_pos_y_1,stim_pos_y_0,stim_pos_y_3,stim_pos_y_2,stim_pos_y_5,stim_pos_y_4,stim_pos_y_7,stim_pos_y_6,totBlockN,stim_pos_x_27,stim_pos_x_26,stim_pos_x_25,stim_pos_x_24,stim_pos_x_23,stim_pos_x_22,stim_pos_x_21,stim_pos_x_20,blockN,stim_pos_x_29,stim_pos_x_28,prevDistrCTPD,prevDistrMean,prevDistrType,trials.thisRepN,trials.thisTrialN,trials.thisN,trials.thisIndex,timeStart,timeBeforeDraw,timeDraw,timeAfterSaving,timeAfterWritingToTemp,timeAfterPreparingNext,answer,correct,rt,trialScore,session,participant,resolution,cpu_info,expName,pc_name,graphic_card,date,monitorName,
187.0,206.1,196.3,201.2,36,-60,181.5,170.7,190.0,188.7,7.967,7.784,7.525,8.296,7.639,7.665,8.064,4.549,-5.047,-7.755,1.153,-1.444,8.135,5.212,-4.446,-8.428,187.7,185.7,-7.661,197.2,182.9,172.2,195.8,181.9,36,185.5,3,5,prime,10,0,114,norm,36,-4.873,down,norm,186.137876851,179.1,166.1,184.6,203.9,1,172.4,196.3,185.7,10,6,8.193,4.971,1.909,-1.112,-4.549,-7.669,184.5,6,300.1,-8.082,-8.26,-60,-8.35,-8.122,-5.215,-4.965,-5.293,-5.282,4.833,7.575,19,-2.075,1.349,4.41,7.539,-8.19,-7.751,-1.892,1.201,177.0,183.5,197.4,183.3,190.5,192.6,194.0,195.3,195.7,205.5,0,norm,1.181,1.181,-2.044,-1.722,-4.884,-4.307,-1.207,-1.301,-2.054,-1.2,1.441,-1.489,,177.8,-4.977,-8.037,1.632,-1.813,7.625,5.182,-4.404,-7.641,0,5.096,4.508,4.696,5.248,1.368,1.789,1.832,1.368,0,4.801,5.124,,,,0,0,0,0,316.058,316.091,316.111471114,316.112,316.112,316.114,down,1,1.17178945945,8.82821054055,001,020,1920_1200,Intel(R) Core(TM) i5-3570 CPU @ 3.40GHz,orientation_search,LEPPC096,Intel(R) HD Graphics 2500,2018_Dec_12_1535,testMonitor,
166.1,182.2,191.0,183.8,36,-60,204.1,195.7,198.4,182.8,7.758,7.662,7.579,7.975,7.848,7.758,8.269,4.818,-4.71,-8.488,2.08,-1.747,8.217,4.633,-5.189,-7.58,191.4,185.4,-8.293,187.9,181.2,189.0,188.9,174.3,36,196.3,1,5,prime,10,0,94,norm,36,-5.064,down,norm,186.137876851,204.1,181.3,191.6,172.8,2,179.1,195.4,206.1,10,6,8.343,4.736,2.009,-1.213,-4.872,-8.129,172.1,6,280.1,-8.357,-7.73,-60,-7.612,-7.927,-4.699,-4.673,-4.737,-5.027,5.062,7.71,8,-1.66,1.336,4.392,7.759,-8.332,-8.048,-1.793,1.223,193.3,,181.9,202.4,196.2,191.3,174.9,189.8,183.1,173.4,1,norm,1.205,1.855,-1.697,-1.641,-4.773,-4.7,-1.451,-1.511,-1.206,-1.239,1.777,-1.787,189.0,187.1,-4.348,-8.337,1.756,-1.197,7.984,5.01,-4.831,-7.959,0,4.31,4.32,5.067,4.505,1.9,1.814,1.441,1.778,0,5.072,4.42,,,,0,1,1,1,317.32,317.328,317.338239853,317.338,317.339,317.342,down,1,1.4185890534,8.5814109466,001,020,1920_1200,Intel(R) Core(TM) i5-3570 CPU @ 3.40GHz,orientation_search,LEPPC096,Intel(R) HD Graphics 2500,2018_Dec_12_1535,testMonitor,
187.5,183.3,199.4,203.5,36,-60,194.1,168.2,177.8,177.1,8.307,8.352,7.953,7.897,8.261,7.544,8.089,4.378,-4.965,-7.608,1.366,-1.401,8.42,4.824,-4.788,-7.619,166.1,172.6,-8.319,189.8,193.7,206.1,190.4,190.0,36,175.3,2,5,prime,10,0,97,norm,36,-4.383,up,norm,186.137876851,,194.9,198.3,187.7,5,189.6,175.2,195.2,10,6,7.898,4.924,1.205,-1.358,-4.713,-8.357,182.3,6,283.1,-8.349,-8.23,-60,-8.034,-8.185,-4.528,-5.028,-4.622,-5.028,5.156,7.697,17,-1.914,1.561,4.587,8.288,-7.609,-7.946,-1.632,1.772,169.8,190.0,183.6,193.6,193.5,181.3,178.0,170.0,181.4,198.0,2,norm,2.047,1.104,-1.129,-1.127,-4.564,-4.708,-1.54,-1.907,-1.683,-1.772,1.87,-1.483,171.0,174.5,-4.888,-7.747,1.412,-1.995,8.171,4.556,-4.903,-8.127,0,4.955,5.126,5.294,4.339,1.404,1.1,2.032,1.493,0,5.285,4.706,,,,0,2,2,2,318.794,318.803,318.820317549,318.821,318.822,318.825,up,1,1.65562873328,8.34437126672,001,020,1920_1200,Intel(R) Core(TM) i5-3570 CPU @ 3.40GHz,orientation_search,LEPPC096,Intel(R) HD Graphics 2500,2018_Dec_12_1535,testMonitor,
181.8,189.6,194.1,191.7,36,-60,201.1,206.1,202.6,166.1,8.444,7.894,8.289,8.413,7.619,8.035,7.69,4.749,-4.815,-7.933,1.326,-1.349,8.374,4.442,-4.714,-7.648,187.5,197.9,-7.793,191.9,176.7,185.9,185.4,,36,192.1,4,5,prime,10,0,87,norm,36,-5.117,down,norm,186.137876851,190.1,188.9,191.4,196.0,2,185.6,195.9,181.5,10,6,8.221,4.524,2.001,-1.285,-4.603,-7.574,198.0,6,273.1,-8.238,-8.174,-60,-7.532,-7.568,-4.8,-5.164,-5.225,-4.777,4.512,7.947,26,-1.659,1.486,4.587,8.137,-7.536,-8.298,-1.254,1.795,172.6,201.5,190.0,194.6,188.6,184.4,184.4,176.9,198.1,183.6,3,norm,1.558,1.671,-1.816,-1.518,-5.05,-4.963,-1.882,-1.588,-2.026,-1.164,1.379,-1.538,180.7,174.4,-4.531,-8.161,1.993,-1.562,7.511,4.544,-4.703,-8.434,0,5.191,4.333,5.264,5.24,1.395,2.032,1.265,1.73,0,4.513,4.949,,,,0,3,3,3,320.522,320.541,320.554434597,320.555,320.557,320.56,down,1,1.6718388114,8.3281611886,001,020,1920_1200,Intel(R) Core(TM) i5-3570 CPU @ 3.40GHz,orientation_search,LEPPC096,Intel(R) HD Graphics 2500,2018_Dec_12_1535,testMonitor,
169.2,204.5,184.1,185.0,36,-60,189.5,185.9,197.2,187.3,7.739,7.507,8.154,8.416,8.473,8.385,7.676,4.701,-4.315,-8.258,1.386,-2.092,8.373,4.792,-4.959,-8.389,180.6,191.4,-8.435,,187.6,176.9,186.1,166.3,36,181.8,5,5,prime,10,0,77,norm,36,-4.795,down,norm,186.137876851,181.1,181.1,166.1,182.0,1,185.5,194.6,190.0,10,6,7.654,4.502,1.852,-1.498,-4.595,-7.721,174.7,6,263.1,-7.818,-7.813,-60,-8.445,-8.2,-4.63,-4.465,-5.175,-5.006,4.773,8.383,31,-1.631,1.578,4.877,7.9,-7.856,-7.642,-1.755,1.879,194.9,203.8,182.0,193.3,192.0,195.7,187.7,192.8,168.3,192.7,4,norm,1.312,1.708,-1.668,-1.776,-4.44,-4.797,-1.87,-1.566,-1.393,-1.108,1.494,-1.201,177.7,206.1,-4.97,-8.107,1.43,-1.751,7.726,5.124,-5.043,-8.406,0,5.264,4.821,4.679,5.157,1.35,1.697,1.729,1.587,0,5.175,4.829,,,,0,4,4,4,322.265,322.274,322.283185413,322.283,322.285,322.288,down,1,2.0181865709,7.9818134291,001,020,1920_1200,Intel(R) Core(TM) i5-3570 CPU @ 3.40GHz,orientation_search,LEPPC096,Intel(R) HD Graphics 2500,2018_Dec_12_1535,testMonitor,
189.1,176.6,183.9,186.9,36,-60,190.2,184.3,204.6,181.3,7.828,7.721,8.274,8.228,7.809,8.027,7.742,5.265,-5.097,-8.02,1.716,-2.028,7.822,4.402,-4.315,-7.982,206.1,195.4,-7.549,191.8,166.1,182.0,195.2,170.4,36,183.8,2,5,prime,10,0,70,norm,36,-4.545,up,norm,186.137876851,193.1,,194.2,189.9,4,180.8,183.4,192.6,10,6,7.805,4.432,2.008,-1.894,-4.394,-8.17,186.5,6,256.1,-7.731,-7.763,-60,-7.825,-8.256,-4.912,-5.172,-4.368,-4.659,4.994,7.731,16,-1.357,1.305,4.382,8.19,-7.736,-8.162,-1.367,1.542,180.8,194.4,181.3,189.0,168.0,182.8,180.9,203.6,191.3,178.9,5,norm,1.575,1.251,-1.411,-1.437,-4.505,-4.964,-1.67,-1.176,-1.329,-1.243,1.948,-1.69,184.7,177.2,-4.519,-8.258,1.252,-2.069,7.664,5.281,-5.162,-7.567,0,4.736,4.911,5.109,5.02,1.333,1.685,1.432,1.199,0,4.762,4.893,,,,0,5,5,5,324.339,324.35,324.357906077,324.358,324.36,324.362,up,1,2.05886887745,7.94113112255,001,020,1920_1200,Intel(R) Core(TM) i5-3570 CPU @ 3.40GHz,orientation_search,LEPPC096,Intel(R) HD Graphics 2500,2018_Dec_12_1535,testMonitor,
231.4,234.7,229.3,233.4,36,20,235.0,236.8,230.4,233.9,7.788,7.971,8.182,8.312,8.142,7.682,8.241,5.143,-4.99,-7.583,1.929,-1.325,8.202,4.72,-4.478,-7.773,228.2,229.8,-7.607,228.6,235.4,237.1,228.6,230.5,36,,4,5,probe,5,0,108,norm,36,-4.699,up,norm,232.114768207,234.1,231.5,228.0,228.9,3,231.1,234.9,222.1,10,6,8.294,4.325,1.907,-2.041,-4.67,-8.273,224.1,2,124.1,-8.484,-8.307,-60,-7.579,-7.508,-4.353,-4.792,-5.13,-5.135,5.129,8.263,27,-1.883,1.693,4.378,8.181,-7.747,-7.976,-1.259,1.121,235.6,233.2,234.4,235.0,242.1,234.4,232.3,230.3,231.5,237.3,0,norm,1.965,1.732,-1.81,-1.393,-4.513,-5.1,-1.795,-1.979,-1.734,-2.099,1.167,-1.308,230.5,228.4,-4.638,-8.425,2.053,-1.311,8.185,5.192,-4.525,-8.36,1,4.594,4.561,4.97,5.297,1.36,2.073,1.552,1.869,1,5.246,5.069,-60,186.137876851,norm,0,6,6,6,326.455,326.467,326.487586098,326.488,326.489,326.492,up,1,1.38521385392,8.61478614608,001,020,1920_1200,Intel(R) Core(TM) i5-3570 CPU @ 3.40GHz,orientation_search,LEPPC096,Intel(R) HD Graphics 2500,2018_Dec_12_1535,testMonitor,
190.6,192.7,,194.3,36,20,189.4,179.7,198.1,190.0,7.642,7.64,7.949,8.349,8.43,8.345,7.918,5.145,-4.989,-7.846,1.988,-1.544,7.581,4.589,-5.214,-7.696,181.2,190.3,-7.717,194.7,184.8,178.1,183.9,182.7,36,184.0,3,5,probe,5,0,64,norm,36,-4.341,down,norm,188.114768207,190.1,187.9,196.0,181.2,2,184.8,191.5,185.0,10,6,8.44,4.589,2.079,-1.884,-4.727,-8.408,181.0,2,124.1,-7.607,-7.701,-60,-7.664,-7.9,-4.709,-4.365,-4.313,-4.892,4.873,7.902,20,-1.601,1.838,4.381,7.604,-7.91,-7.753,-1.235,1.287,194.1,194.5,184.9,187.5,178.2,189.0,197.3,183.6,190.3,182.0,1,norm,1.904,1.864,-1.573,-1.972,-4.962,-4.977,-1.694,-1.997,-1.298,-1.466,2.016,-1.98,190.7,193.9,-4.473,-8.184,1.822,-1.313,8.314,5.099,-5.255,-8.242,1,5.027,4.726,4.803,5.102,1.793,1.905,1.581,1.691,1,4.983,4.373,-60,186.137876851,norm,0,7,7,7,327.915,327.924,327.931424635,327.932,327.933,327.936,down,1,1.38641309122,8.61358690878,001,020,1920_1200,Intel(R) Core(TM) i5-3570 CPU @ 3.40GHz,orientation_search,LEPPC096,Intel(R) HD Graphics 2500,2018_Dec_12_1535,testMonitor,
119.2,99.7,111.3,108.4,36,30,93.9,107.3,114.4,,8.49,7.929,7.833,8.379,8.008,8.379,8.012,5.157,-4.367,-7.997,1.766,-1.278,7.907,4.323,-4.72,-8.275,119.3,97.6,-7.84,127.2,109.1,118.3,110.7,120.3,36,114.4,4,5,prime,10,0,71,norm,36,-4.618,up,norm,113.103177082,107.3,118.1,101.1,108.5,5,127.1,95.5,118.0,10,6,7.659,5.034,1.398,-1.54,-4.867,-8.457,117.2,6,184.1,-8.239,-8.144,30,-8.058,-8.0,-4.565,-4.639,-4.31,-5.145,4.35,7.861,29,-1.305,1.196,5.136,7.57,-7.649,-7.729,-1.959,1.369,116.9,133.1,127.3,93.5,110.5,93.1,122.1,112.8,99.9,93.5,0,norm,1.329,1.872,-1.376,-1.113,-4.81,-5.088,-1.93,-1.898,-1.271,-1.442,1.708,-1.799,118.4,114.0,-5.199,-8.401,1.458,-1.229,7.841,4.687,-4.931,-7.727,2,4.84,5.269,4.977,4.653,1.935,1.757,1.934,1.734,2,4.32,4.305,20,186.137876851,norm,0,8,8,8,329.354,329.364,329.380980151,329.381,329.383,329.386,up,1,4.46495090915,5.53504909085,001,020,1920_1200,Intel(R) Core(TM) i5-3570 CPU @ 3.40GHz,orientation_search,LEPPC096,Intel(R) HD Graphics 2500,2018_Dec_12_1535,testMonitor,
116.5,116.7,125.9,124.6,36,30,113.8,110.6,112.8,121.2,7.6,7.672,8.327,7.636,8.195,7.95,8.02,4.542,-4.326,-8.21,1.577,-1.715,7.651,4.49,-5.256,-8.091,109.7,123.1,-8.383,121.8,113.2,117.1,110.1,114.0,36,113.6,1,5,prime,10,0,92,norm,36,-4.334,down,norm,113.103177082,117.5,110.7,110.6,133.1,0,116.7,106.9,128.0,10,6,8.215,4.782,1.395,-2.031,-5.136,-8.073,114.8,6,205.1,-8.005,-7.591,30,-8.4,-8.017,-5.088,-4.75,-4.765,-4.403,4.496,8.187,6,-1.716,1.365,4.937,7.924,-7.866,-8.341,-1.884,1.158,117.4,97.3,121.5,117.4,95.4,102.3,93.1,,127.3,103.7,1,norm,1.257,1.518,-1.69,-1.513,-5.216,-5.034,-1.82,-1.426,-1.765,-1.671,1.99,-1.38,123.2,111.4,-4.695,-7.555,1.148,-1.844,8.441,4.821,-4.509,-8.07,2,4.734,4.403,4.765,4.836,1.24,1.818,1.879,1.38,2,5.071,5.226,20,186.137876851,norm,0,9,9,9,333.89,333.899,333.908762884,333.909,333.911,333.913,down,1,1.79295966512,8.20704033488,001,020,1920_1200,Intel(R) Core(TM) i5-3570 CPU @ 3.40GHz,orientation_search,LEPPC096,Intel(R) HD Graphics 2500,2018_Dec_12_1535,testMonitor,
109.9,117.4,113.1,109.3,36,30,122.1,133.1,129.7,131.6,7.507,7.678,7.855,7.886,8.25,7.84,8.336,4.648,-5.195,-7.978,1.821,-1.148,7.589,4.318,-5.216,-8.475,101.6,113.6,-8.197,117.3,114.6,105.9,115.7,111.7,36,100.5,1,5,prime,10,0,107,norm,36,-5.249,up,norm,113.103177082,102.8,97.4,105.1,127.5,3,120.9,108.8,129.1,10,6,7.857,5.237,1.32,-1.733,-4.315,-7.708,104.2,6,220.1,-7.545,-8.125,30,-7.775,-7.84,-4.45,-4.886,-4.909,-4.536,4.542,7.807,9,-1.156,1.637,4.632,8.067,-8.244,-7.526,-1.788,2.005,,118.0,111.6,113.8,100.0,95.9,93.1,115.7,93.3,106.4,2,norm,1.513,1.402,-1.421,-1.484,-4.695,-5.27,-1.174,-1.135,-1.411,-1.154,1.667,-1.527,100.6,111.0,-4.814,-7.879,1.991,-1.446,8.033,4.596,-5.182,-7.954,2,4.574,4.795,4.37,5.044,1.764,2.066,2.021,1.289,2,5.148,4.366,20,186.137876851,norm,0,10,10,10,335.746,335.756,335.76230652,335.762,335.764,335.767,up,1,1.36769466628,8.63230533372,001,020,1920_1200,Intel(R) Core(TM) i5-3570 CPU @ 3.40GHz,orientation_search,LEPPC096,Intel(R) HD Graphics 2500,2018_Dec_12_1535,testMonitor,
101.4,100.6,94.8,,36,30,127.8,117.3,109.7,107.6,8.02,8.486,7.975,7.898,8.218,8.038,7.729,5.011,-5.013,-8.259,1.605,-1.843,8.229,4.786,-4.343,-8.106,111.0,120.4,-8.352,128.4,133.1,114.0,106.2,110.6,36,111.2,3,5,prime,10,0,94,norm,36,-4.433,up,norm,113.103177082,121.2,127.8,119.3,94.5,3,102.1,96.9,102.4,10,6,7.822,4.52,1.175,-2.083,-5.209,-7.66,106.0,6,207.1,-7.626,-8.119,30,-8.167,-8.408,-5.109,-4.888,-4.803,-4.717,5.045,7.563,21,-1.807,1.504,4.435,8.202,-8.202,-8.283,-1.14,2.083,93.1,99.8,122.1,116.0,112.2,102.8,110.0,109.5,105.5,111.6,3,norm,1.657,1.266,-1.814,-1.749,-4.379,-5.277,-1.453,-1.636,-1.946,-1.719,1.547,-2.094,119.3,126.3,-5.086,-7.594,1.618,-1.67,8.269,5.046,-5.237,-8.483,2,4.613,4.963,4.429,4.987,1.886,1.677,1.891,1.148,2,5.037,5.103,20,186.137876851,norm,0,11,11,11,337.166,337.189,337.19891643,337.199,337.201,337.204,up,1,1.15739589531,8.84260410469,001,020,1920_1200,Intel(R) Core(TM) i5-3570 CPU @ 3.40GHz,orientation_search,LEPPC096,Intel(R) HD Graphics 2500,2018_Dec_12_1535,testMonitor,
111.9,125.3,110.0,110.8,36,30,129.2,130.1,115.0,93.1,7.525,7.631,8.016,7.832,7.588,7.553,8.051,4.757,-5.042,-7.687,1.547,-1.403,7.932,4.524,-5.152,-8.435,126.9,111.4,-8.286,109.4,103.7,104.7,109.0,103.9,36,110.0,0,5,prime,10,0,116,norm,36,-5.221,up,norm,113.103177082,106.1,99.1,113.3,123.0,5,96.6,113.6,125.9,10,6,7.569,4.53,1.208,-1.878,-4.894,-8.169,113.2,6,229.1,-8.236,-8.197,30,-8.19,-7.826,-4.34,-4.421,-4.957,-4.506,4.416,7.602,5,-1.769,1.135,4.98,7.909,-8.334,-7.691,-2.082,1.428,102.9,133.1,124.4,111.6,123.2,115.7,123.6,98.7,,94.9,4,norm,1.188,1.861,-1.169,-1.102,-5.073,-5.224,-1.463,-1.235,-1.235,-2.054,1.266,-1.556,93.8,120.1,-4.611,-7.552,1.325,-1.295,7.89,4.393,-4.979,-7.798,2,5.287,4.79,4.616,4.511,1.801,2.024,1.466,1.406,2,5.004,4.546,20,186.137876851,norm,0,12,12,12,338.377,338.388,338.397380392,338.398,338.399,338.402,down,0,1.53191893965,-10,001,020,1920_1200,Intel(R) Core(TM) i5-3570 CPU @ 3.40GHz,orientation_search,LEPPC096,Intel(R) HD Graphics 2500,2018_Dec_12_1535,testMonitor,
113.0,101.8,112.2,121.6,36,30,,104.7,120.1,114.8,8.029,7.635,8.293,7.746,8.156,7.625,7.542,4.927,-4.659,-7.61,1.104,-1.674,8.361,4.606,-5.101,-7.862,120.8,104.3,-8.152,115.4,118.8,106.7,111.2,111.1,36,93.1,4,5,prime,10,0,115,norm,36,-4.58,down,norm,113.103177082,111.8,107.6,123.2,106.2,0,125.5,102.1,96.1,10,6,7.58,4.305,1.462,-1.163,-4.789,-7.659,101.9,6,228.1,-7.568,-7.567,30,-8.138,-7.753,-4.534,-5.026,-5.078,-4.374,4.507,8.435,24,-1.128,1.148,5.042,8.012,-7.956,-7.799,-1.207,1.351,108.5,105.9,110.4,120.9,102.5,123.5,121.3,106.9,115.9,111.2,5,norm,1.168,1.496,-2.084,-1.766,-4.887,-5.023,-1.732,-1.29,-1.526,-1.379,1.966,-1.295,133.1,114.4,-4.733,-8.407,1.902,-1.924,7.73,4.762,-5.126,-7.87,2,4.667,4.705,4.612,4.738,1.7,1.272,1.9,1.755,2,4.891,4.513,20,186.137876851,norm,0,13,13,13,341.007,341.017,341.033686102,341.034,341.036,341.038,down,1,1.41847012577,8.58152987423,001,020,1920_1200,Intel(R) Core(TM) i5-3570 CPU @ 3.40GHz,orientation_search,LEPPC096,Intel(R) HD Graphics 2500,2018_Dec_12_1535,testMonitor,
228.9,224.7,230.9,222.2,36,-10,229.3,225.4,234.9,224.0,8.028,8.101,7.585,7.68,7.722,7.583,7.508,4.954,-5.082,-8.232,1.972,-1.604,8.455,4.548,-5.043,-8.452,233.0,216.6,-8.256,227.4,,228.9,229.4,223.4,36,231.1,5,5,probe,5,0,82,norm,36,-4.996,down,norm,226.565821742,227.9,231.4,226.9,228.2,0,235.7,220.0,231.6,10,6,8.263,5.01,1.49,-1.749,-5.193,-7.908,228.3,2,144.6,-8.369,-8.089,30,-7.878,-8.275,-4.865,-4.467,-5.143,-4.768,4.727,8.346,30,-1.531,1.59,4.58,8.468,-8.119,-7.985,-1.725,1.559,228.7,225.3,224.1,227.8,224.0,226.5,234.5,220.1,228.9,236.6,0,norm,2.099,1.53,-1.804,-1.254,-5.197,-4.6,-1.414,-1.187,-1.548,-1.627,1.527,-1.665,222.3,225.3,-5.164,-7.87,2.097,-1.249,8.334,5.132,-4.895,-8.037,3,4.927,5.076,5.16,4.834,1.464,1.557,1.705,1.246,3,4.674,4.985,30,113.103177082,norm,0,14,14,14,342.489,342.5,342.505192519,342.505,342.507,342.51,down,1,1.66027204244,8.33972795756,001,020,1920_1200,Intel(R) Core(TM) i5-3570 CPU @ 3.40GHz,orientation_search,LEPPC096,Intel(R) HD Graphics 2500,2018_Dec_12_1535,testMonitor,
218.7,227.9,230.6,210.6,36,-10,218.3,225.9,222.9,221.8,8.342,8.468,8.491,7.719,7.739,8.484,8.092,5.044,-4.673,-8.005,1.575,-1.464,8.18,4.41,-5.05,-7.548,222.2,224.4,-7.886,219.2,222.7,218.1,219.7,226.4,36,,4,5,probe,5,0,76,norm,36,-4.699,up,norm,220.565821742,222.4,223.7,221.7,221.9,3,219.5,223.8,217.8,10,6,7.628,4.318,1.477,-1.709,-5.006,-7.616,218.9,2,144.6,-8.056,-7.632,30,-7.881,-8.088,-4.442,-4.427,-4.601,-4.467,4.428,8.205,27,-1.472,1.447,5.151,7.624,-7.65,-7.737,-1.345,1.959,217.7,218.6,215.2,221.4,219.2,223.0,217.3,224.7,217.1,215.3,1,norm,1.621,1.242,-2.064,-1.864,-5.117,-4.549,-1.646,-2.006,-1.305,-1.871,1.652,-1.7,222.7,228.4,-5.189,-7.94,1.915,-1.52,7.578,4.484,-4.944,-7.936,3,4.447,4.842,4.704,4.567,1.654,2.081,1.642,1.935,3,4.63,4.308,30,113.103177082,norm,0,15,15,15,344.204,344.214,344.219813585,344.22,344.222,344.225,up,1,1.29394474212,8.70605525788,001,020,1920_1200,Intel(R) Core(TM) i5-3570 CPU @ 3.40GHz,orientation_search,LEPPC096,Intel(R) HD Graphics 2500,2018_Dec_12_1535,testMonitor,
40.0,45.1,48.1,58.5,36,30,49.0,53.2,28.8,50.8,7.863,8.45,7.655,7.537,8.413,7.691,7.792,5.017,-4.93,-8.151,1.121,-1.381,8.358,4.302,-4.754,-7.897,41.3,54.3,-8.296,25.6,52.7,35.5,44.8,,36,30.9,4,5,prime,10,0,83,norm,36,-4.527,down,norm,45.5865417529,58.5,47.8,59.9,54.3,2,43.8,65.6,54.4,10,5,8.112,4.557,1.131,-2.079,-4.547,-7.589,33.6,5,128.6,-7.934,-7.691,30,-8.158,-8.247,-4.753,-5.062,-4.9,-4.761,5.039,8.278,26,-1.564,1.369,5.04,8.029,-8.386,-8.293,-1.952,2.04,43.4,37.1,53.5,53.7,48.1,44.5,36.8,44.9,36.1,53.7,0,norm,1.334,1.747,-1.155,-1.927,-5.089,-5.249,-1.778,-1.228,-1.375,-1.839,1.98,-1.169,59.0,29.8,-4.842,-8.225,1.955,-1.81,8.145,4.34,-4.384,-8.374,4,4.844,4.327,4.836,5.03,1.599,2.051,1.6,2.032,4,4.302,4.507,-10,113.103177082,norm,0,16,16,16,345.558,345.568,345.574508616,345.575,345.577,345.579,down,1,1.24585209688,8.75414790312,001,020,1920_1200,Intel(R) Core(TM) i5-3570 CPU @ 3.40GHz,orientation_search,LEPPC096,Intel(R) HD Graphics 2500,2018_Dec_12_1535,testMonitor,
34.0,38.3,30.2,59.7,36,30,43.7,49.5,50.3,53.6,8.1,8.337,7.535,7.598,7.807,7.545,8.223,4.606,-4.54,-8.101,1.742,-1.605,8.079,5.176,-5.263,-8.068,57.9,42.2,-7.921,53.3,26.8,43.7,56.7,49.8,36,40.4,2,5,prime,10,0,90,norm,36,-5.28,down,norm,45.5865417529,61.5,35.8,48.9,46.2,1,36.9,,45.0,10,5,8.412,4.617,1.356,-2.026,-5.298,-8.196,40.0,5,135.6,-8.155,-7.651,30,-7.53,-8.448,-4.609,-4.889,-5.053,-4.495,4.581,7.806,13,-1.215,1.625,5.23,8.015,-7.913,-8.243,-1.302,1.629,65.6,55.6,62.9,61.3,48.1,62.4,46.5,57.8,29.3,39.0,1,norm,1.833,1.825,-1.293,-1.636,-4.49,-5.103,-1.127,-1.898,-1.456,-1.471,1.633,-1.68,56.0,25.6,-4.366,-8.316,2.027,-1.53,8.14,4.574,-5.145,-8.312,4,4.883,5.157,4.697,4.627,1.733,1.89,1.97,1.539,4,5.284,4.88,-10,113.103177082,norm,0,17,17,17,346.859,346.872,346.891400355,346.892,346.893,346.896,down,1,0.982928752988,9.01707124701,001,020,1920_1200,Intel(R) Core(TM) i5-3570 CPU @ 3.40GHz,orientation_search,LEPPC096,Intel(R) HD Graphics 2500,2018_Dec_12_1535,testMonitor,
39.5,54.2,50.5,50.1,36,30,43.1,42.4,,50.3,8.432,7.77,8.362,8.117,8.038,7.918,8.247,4.843,-5.087,-8.221,1.439,-1.508,7.622,4.581,-4.331,-7.882,31.4,48.1,-8.282,58.4,25.6,55.9,35.0,56.5,36,33.1,4,5,prime,10,0,72,norm,36,-4.703,up,norm,45.5865417529,35.9,39.9,56.1,43.5,4,52.3,40.5,45.2,10,5,8.316,4.539,2.066,-1.138,-5.116,-7.761,45.8,5,117.6,-8.228,-7.88,30,-8.439,-7.814,-4.705,-4.543,-4.723,-4.695,5.096,7.57,28,-1.247,1.907,4.515,7.85,-7.821,-7.914,-1.277,1.412,29.8,40.5,33.8,65.6,59.2,46.6,35.9,60.9,47.1,48.0,2,norm,1.241,1.852,-1.732,-1.524,-5.085,-4.61,-1.281,-1.348,-1.741,-1.881,1.306,-1.322,47.7,49.2,-4.864,-8.044,1.447,-1.531,7.888,4.591,-4.319,-8.33,4,4.862,4.631,5.248,5.057,2.009,1.654,2.027,2.032,4,4.768,4.654,-10,113.103177082,norm,0,18,18,18,347.898,347.907,347.914159301,347.914,347.916,347.919,up,1,0.722126486482,9.27787351352,001,020,1920_1200,Intel(R) Core(TM) i5-3570 CPU @ 3.40GHz,orientation_search,LEPPC096,Intel(R) HD Graphics 2500,2018_Dec_12_1535,testMonitor,
36.4,45.8,65.4,45.5,36,30,65.6,41.7,51.8,25.6,8.402,8.005,7.846,8.148,8.389,7.819,8.088,5.218,-4.311,-7.887,1.708,-1.234,8.006,5.003,-4.567,-7.891,,47.1,-8.339,45.4,39.3,25.8,36.0,62.0,36,38.1,5,5,prime,10,0,86,norm,36,-4.32,up,norm,45.5865417529,42.7,38.2,39.5,39.1,5,48.8,48.8,43.6,10,5,8.349,5.173,2.064,-1.141,-5.03,-7.82,47.9,5,131.6,-8.187,-8.398,30,-7.971,-7.712,-5.212,-5.25,-4.512,-4.357,4.864,7.992,35,-1.402,1.276,4.399,7.721,-7.907,-7.965,-1.261,1.425,40.3,51.3,39.1,44.6,61.4,44.5,40.3,51.2,30.9,44.9,3,norm,1.108,1.767,-1.41,-1.537,-4.675,-4.396,-2.013,-1.213,-1.168,-1.203,1.584,-1.497,63.0,46.3,-4.99,-8.261,1.214,-1.395,8.003,4.592,-5.122,-8.499,4,5.106,4.481,4.425,5.13,1.983,2.099,1.946,1.791,4,4.75,4.906,-10,113.103177082,norm,0,19,19,19,348.678,348.687,348.694150119,348.694,348.696,348.698,up,1,0.947399272973,9.05260072703,001,020,1920_1200,Intel(R) Core(TM) i5-3570 CPU @ 3.40GHz,orientation_search,LEPPC096,Intel(R) HD Graphics 2500,2018_Dec_12_1535,testMonitor,
37.4,36.4,46.3,30.5,36,30,40.6,60.0,46.5,51.5,7.825,7.865,7.852,8.123,8.418,7.922,7.699,5.056,-4.785,-8.479,1.119,-1.983,8.327,4.64,-5.189,-7.923,52.8,46.6,-7.605,54.9,41.7,55.7,25.6,51.5,36,63.4,2,5,prime,10,0,107,norm,36,-4.695,down,norm,45.5865417529,45.2,45.0,47.0,,2,50.1,38.1,35.6,10,5,8.085,4.378,1.667,-1.611,-4.768,-7.872,65.6,5,152.6,-7.589,-8.15,30,-7.519,-8.127,-4.946,-4.6,-5.244,-4.553,5.007,8.324,14,-1.696,1.347,5.123,8.411,-8.415,-7.836,-1.796,1.645,38.0,60.5,31.6,40.9,37.3,39.3,46.2,39.3,29.3,60.0,4,norm,1.156,1.384,-1.492,-1.415,-5.188,-4.49,-1.964,-1.326,-1.56,-1.265,1.909,-1.447,48.7,51.3,-4.877,-8.044,2.028,-1.122,8.124,5.169,-4.468,-7.714,4,4.823,5.176,4.464,4.655,2.057,1.176,1.578,2.054,4,5.293,4.691,-10,113.103177082,norm,0,20,20,20,349.679,349.69,349.695259104,349.695,349.697,349.7,down,1,0.793322786807,9.20667721319,001,020,1920_1200,Intel(R) Core(TM) i5-3570 CPU @ 3.40GHz,orientation_search,LEPPC096,Intel(R) HD Graphics 2500,2018_Dec_12_1535,testMonitor,
172.1,167.5,168.4,159.9,36,10,164.5,164.8,169.6,162.8,8.334,8.039,7.847,8.039,7.569,7.774,8.281,5.185,-5.052,-7.807,1.422,-1.906,7.678,4.845,-4.653,-7.883,166.8,165.3,-8.03,178.3,,171.0,170.2,167.1,36,168.5,5,5,probe,5,0,89,norm,36,-4.572,down,norm,168.299334432,168.7,165.2,168.6,168.5,0,164.1,177.4,159.8,10,5,8.392,4.941,1.327,-1.288,-4.721,-7.932,158.3,1,79.3,-8.397,-8.163,30,-7.918,-8.181,-4.997,-4.31,-4.894,-4.612,4.702,7.577,30,-1.4,1.787,4.923,7.54,-7.65,-8.383,-1.666,1.5,167.7,166.3,168.1,168.5,170.9,176.5,172.6,169.5,164.8,164.8,0,norm,2.003,1.211,-1.681,-1.826,-5.09,-4.986,-1.628,-1.3,-2.001,-1.213,1.543,-1.394,169.2,165.1,-5.107,-8.243,2.034,-1.201,8.139,4.908,-5.219,-8.171,5,4.763,4.98,4.396,5.046,1.88,1.175,1.399,1.924,5,4.416,5.268,30,45.5865417529,norm,0,21,21,21,350.534,350.543,350.551669982,350.552,350.554,350.556,down,1,1.54836445827,8.45163554173,001,020,1920_1200,Intel(R) Core(TM) i5-3570 CPU @ 3.40GHz,orientation_search,LEPPC096,Intel(R) HD Graphics 2500,2018_Dec_12_1535,testMonitor,
239.1,231.9,229.9,215.9,36,-20,249.0,227.0,226.8,227.4,8.476,7.652,7.837,8.01,8.038,8.36,8.217,4.949,-4.823,-7.789,1.898,-1.822,7.68,4.397,-5.168,-8.234,225.9,226.5,-7.679,234.4,209.0,227.6,225.6,229.9,36,244.6,2,5,prime,10,0,88,norm,36,-5.196,up,norm,229.022080787,238.5,,229.2,230.9,4,238.7,238.3,231.4,10,5,7.882,5.08,1.424,-1.779,-5.255,-7.861,213.7,5,317.0,-8.4,-7.909,-20,-8.005,-7.799,-4.954,-4.453,-5.08,-5.108,4.628,7.903,16,-1.948,1.381,4.544,7.845,-7.804,-7.938,-1.385,1.103,209.8,226.7,236.0,213.3,230.1,242.1,224.9,226.7,218.6,219.5,0,norm,1.862,1.706,-1.817,-1.826,-4.906,-4.715,-1.776,-1.869,-1.307,-2.048,1.796,-1.811,220.8,230.9,-4.593,-7.942,1.123,-1.309,8.139,4.613,-4.385,-7.568,6,5.244,5.28,4.618,5.17,2.074,1.364,1.738,1.346,6,4.639,4.713,10,45.5865417529,norm,0,22,22,22,352.138,352.147,352.155956086,352.156,352.158,352.16,up,1,0.998049767895,9.0019502321,001,020,1920_1200,Intel(R) Core(TM) i5-3570 CPU @ 3.40GHz,orientation_search,LEPPC096,Intel(R) HD Graphics 2500,2018_Dec_12_1535,testMonitor,
221.8,217.5,209.0,222.2,36,-20,243.2,225.7,227.0,224.2,8.366,7.996,8.496,7.798,7.84,8.368,8.421,4.835,-4.872,-8.07,1.98,-1.4,7.552,4.574,-4.816,-8.304,240.7,232.5,-7.543,235.9,235.5,227.0,226.1,242.8,36,224.1,0,5,prime,10,0,115,norm,36,-4.461,up,norm,229.022080787,233.3,233.1,222.7,236.6,5,211.7,249.0,218.0,10,5,7.779,4.983,1.207,-1.152,-4.521,-8.431,228.1,5,344.0,-7.756,-7.711,-20,-7.6,-7.897,-4.571,-4.824,-4.799,-4.554,5.241,7.61,5,-1.262,1.863,5.016,8.341,-8.152,-7.919,-1.276,1.845,220.6,225.5,223.6,225.2,215.9,224.4,225.4,237.3,,237.1,1,norm,1.403,1.612,-1.699,-1.116,-4.852,-5.078,-1.152,-1.118,-1.59,-1.605,1.325,-1.909,225.1,238.9,-4.641,-8.38,1.631,-1.364,8.04,4.823,-4.923,-7.672,6,4.467,5.21,4.557,4.31,1.111,1.118,1.633,1.943,6,4.615,4.866,10,45.5865417529,norm,0,23,23,23,353.202,353.211,353.218051706,353.218,353.22,353.223,up,1,1.31124358161,8.68875641839,001,020,1920_1200,Intel(R) Core(TM) i5-3570 CPU @ 3.40GHz,orientation_search,LEPPC096,Intel(R) HD Graphics 2500,2018_Dec_12_1535,testMonitor,
238.0,221.7,222.9,246.5,36,-20,216.5,239.1,228.9,217.5,8.036,8.122,7.503,8.218,7.844,7.692,7.781,5.098,-5.067,-8.162,1.886,-1.114,7.618,4.946,-4.967,-8.221,209.0,232.3,-7.532,221.2,228.5,234.6,215.8,232.3,36,235.2,0,5,prime,10,0,74,norm,36,-4.516,up,norm,229.022080787,232.6,226.6,231.9,238.7,5,236.3,213.9,230.8,10,5,7.808,4.811,1.487,-2.055,-4.934,-7.77,214.1,5,303.0,-7.829,-8.136,-20,-8.253,-8.266,-4.663,-5.252,-4.434,-4.314,5.262,7.718,5,-1.295,2.037,5.176,8.354,-8.466,-7.571,-1.531,1.985,234.6,243.3,224.1,219.5,229.7,235.5,221.4,225.6,,221.2,2,norm,1.299,1.1,-2.05,-1.603,-5.115,-5.079,-1.707,-1.272,-1.985,-1.543,1.632,-1.345,234.5,249.0,-4.785,-7.533,1.418,-1.246,8.422,4.425,-4.319,-7.981,6,4.756,4.721,5.068,4.547,1.341,1.228,1.446,1.82,6,5.06,5.176,10,45.5865417529,norm,0,24,24,24,354.575,354.595,354.607696972,354.608,354.61,354.613,up,1,0.840138318272,9.15986168173,001,020,1920_1200,Intel(R) Core(TM) i5-3570 CPU @ 3.40GHz,orientation_search,LEPPC096,Intel(R) HD Graphics 2500,2018_Dec_12_1535,testMonitor,
249.0,242.6,212.1,232.8,36,-20,239.4,228.0,217.6,223.4,7.562,7.848,7.876,7.585,8.001,7.51,7.914,4.608,-5.194,-8.282,1.123,-2.05,7.949,4.548,-4.456,-8.199,224.1,224.7,-8.014,217.3,209.0,241.7,228.0,234.6,36,245.1,0,5,prime,10,0,66,norm,36,-4.879,up,norm,229.022080787,236.8,224.0,238.5,216.5,4,216.0,235.7,238.7,10,5,7.716,4.778,1.709,-1.141,-4.938,-7.764,219.8,5,295.0,-8.251,-7.943,-20,-7.807,-8.309,-5.254,-4.575,-4.502,-5.172,5.027,7.76,4,-2.006,1.866,5.092,8.283,-7.969,-8.085,-1.434,2.055,226.7,220.2,221.2,235.3,241.0,220.0,226.5,226.9,227.0,,3,norm,1.22,1.954,-2.034,-1.354,-5.056,-4.392,-1.324,-1.698,-1.958,-2.046,1.927,-1.154,214.9,233.7,-4.664,-7.721,2.036,-1.822,7.737,4.741,-4.67,-7.584,6,5.169,4.652,4.832,5.075,1.615,1.391,1.934,1.981,6,5.254,4.794,10,45.5865417529,norm,0,25,25,25,355.495,355.517,355.528087297,355.528,355.53,355.533,up,1,1.2096751555,8.7903248445,001,020,1920_1200,Intel(R) Core(TM) i5-3570 CPU @ 3.40GHz,orientation_search,LEPPC096,Intel(R) HD Graphics 2500,2018_Dec_12_1535,testMonitor,
232.2,231.7,223.4,226.6,36,-20,228.7,216.8,216.5,242.4,8.302,7.808,7.828,7.921,8.211,8.123,8.223,4.703,-4.935,-8.189,1.922,-1.123,7.868,5.195,-5.295,-8.353,234.7,231.5,-7.738,217.0,240.2,247.7,235.7,225.2,36,,4,5,prime,10,0,107,norm,36,-4.44,up,norm,229.022080787,238.6,233.2,209.0,216.0,3,231.0,216.6,210.8,10,5,8.488,4.94,1.943,-1.865,-4.786,-8.418,217.7,5,336.0,-8.251,-8.205,-20,-8.461,-8.055,-5.289,-4.822,-4.456,-4.841,4.555,8.271,27,-1.454,1.314,4.513,8.405,-8.119,-7.892,-1.99,1.908,226.3,227.3,240.1,231.2,224.5,237.0,234.9,226.4,221.3,235.1,4,norm,1.764,1.499,-1.836,-2.078,-4.576,-4.672,-1.925,-1.379,-1.566,-1.34,1.422,-1.406,222.0,249.0,-4.795,-8.419,1.711,-1.152,8.269,4.368,-4.45,-8.052,6,4.688,4.524,4.759,4.451,1.521,1.832,1.508,1.758,6,4.931,4.378,10,45.5865417529,norm,0,26,26,26,356.76,356.771,356.775932186,356.776,356.778,356.781,up,1,1.36142440292,8.63857559708,001,020,1920_1200,Intel(R) Core(TM) i5-3570 CPU @ 3.40GHz,orientation_search,LEPPC096,Intel(R) HD Graphics 2500,2018_Dec_12_1535,testMonitor,
289.1,297.4,279.6,284.3,36,-30,284.8,286.7,286.8,283.5,7.921,8.256,8.363,8.214,7.804,7.863,7.788,4.96,-4.73,-7.896,1.114,-1.963,7.972,5.113,-5.053,-8.371,292.7,293.4,-7.766,288.8,278.1,282.9,288.7,281.8,36,277.4,0,5,probe,5,0,77,norm,36,-4.847,up,norm,287.38231382,286.3,297.2,282.9,287.6,5,287.2,287.8,283.6,10,5,7.907,4.353,1.501,-1.44,-4.356,-8.025,280.1,1,210.4,-8.142,-7.536,-20,-7.898,-8.471,-4.678,-4.674,-4.545,-4.394,4.698,7.668,5,-1.356,1.901,4.438,8.015,-8.292,-7.884,-1.381,1.326,286.9,289.7,286.6,279.4,284.8,283.4,280.7,294.5,,284.0,0,norm,1.334,1.394,-1.628,-1.708,-4.797,-4.654,-1.419,-1.665,-1.869,-1.538,1.544,-1.672,291.8,280.8,-5.091,-7.773,1.391,-1.233,7.506,5.189,-4.979,-8.388,7,5.09,4.774,4.363,4.687,1.883,1.971,1.586,1.673,7,4.638,4.913,-20,229.022080787,norm,0,27,27,27,358.178,358.19,358.194271914,358.194,358.197,358.2,up,1,1.18939165496,8.81060834504,001,020,1920_1200,Intel(R) Core(TM) i5-3570 CPU @ 3.40GHz,orientation_search,LEPPC096,Intel(R) HD Graphics 2500,2018_Dec_12_1535,testMonitor,
317.2,327.5,328.4,314.8,36,-60,308.3,338.5,325.9,342.4,7.738,7.847,8.297,8.21,8.496,7.912,7.776,4.681,-5.154,-7.705,1.614,-1.765,7.591,5.136,-4.762,-7.669,312.3,314.4,-8.256,324.4,325.8,322.5,326.1,328.2,36,324.7,0,5,prime,10,0,85,norm,36,-4.891,up,norm,324.159115764,344.2,318.4,324.8,331.3,4,323.5,304.2,308.9,10,5,8.157,5.199,1.26,-1.651,-5.158,-8.175,337.0,5,409.2,-8.471,-7.557,-60,-8.143,-7.751,-4.625,-5.084,-4.828,-5.136,4.873,8.409,4,-1.577,1.703,4.373,7.913,-7.987,-8.238,-1.392,2.086,321.6,324.3,338.9,323.4,308.1,323.0,318.7,319.0,329.7,,0,norm,1.718,1.237,-1.194,-1.572,-4.862,-4.993,-2.034,-1.912,-1.182,-1.878,1.437,-1.759,315.6,340.4,-4.682,-8.04,1.15,-2.041,8.499,4.622,-5.196,-8.095,8,4.446,5.036,4.443,5.275,1.834,1.292,1.981,1.103,8,5.288,5.254,-30,229.022080787,norm,0,28,28,28,359.426,359.437,359.45647807,359.457,359.459,359.462,up,1,1.44928928664,8.55071071336,001,020,1920_1200,Intel(R) Core(TM) i5-3570 CPU @ 3.40GHz,orientation_search,LEPPC096,Intel(R) HD Graphics 2500,2018_Dec_12_1535,testMonitor,
324.1,308.6,320.6,314.6,36,-60,336.4,320.0,332.7,333.7,8.464,8.069,7.943,7.759,7.957,8.114,7.727,4.708,-5.201,-8.241,1.781,-1.378,7.544,4.502,-4.859,-8.453,333.6,344.2,-7.892,336.1,314.3,325.0,317.9,324.4,36,335.1,1,5,prime,10,0,107,norm,36,-4.745,up,norm,324.159115764,316.9,319.3,304.2,317.3,4,321.0,334.6,324.7,10,5,7.869,5.158,1.647,-1.439,-4.467,-7.587,,5,431.2,-8.166,-8.203,-60,-7.889,-7.619,-4.961,-4.421,-4.748,-4.54,4.86,8.158,10,-1.416,1.635,4.854,7.697,-8.489,-8.277,-1.247,1.988,330.6,331.8,341.0,327.7,326.9,324.9,333.0,318.8,334.5,321.3,1,norm,1.81,1.268,-1.658,-1.575,-4.88,-4.63,-1.794,-1.688,-1.111,-2.069,1.987,-1.803,318.6,310.3,-4.722,-7.948,1.996,-1.121,7.811,4.541,-4.636,-7.975,8,4.719,4.71,5.188,5.232,1.4,1.384,1.948,1.891,8,5.041,4.512,-30,229.022080787,norm,0,29,29,29,360.955,360.977,360.987764942,360.988,360.99,360.993,up,1,0.761969658965,9.23803034104,001,020,1920_1200,Intel(R) Core(TM) i5-3570 CPU @ 3.40GHz,orientation_search,LEPPC096,Intel(R) HD Graphics 2500,2018_Dec_12_1535,testMonitor,
331.3,317.8,312.1,321.6,36,-60,334.7,320.7,317.9,319.0,7.921,7.801,8.333,8.25,8.173,7.86,7.733,4.67,-4.863,-8.337,2.089,-1.342,8.031,4.805,-5.123,-8.301,,344.2,-7.871,312.0,308.6,326.8,335.7,321.8,36,313.7,5,5,prime,10,0,97,norm,36,-4.89,up,norm,324.159115764,314.3,330.3,326.0,304.2,5,335.0,331.2,338.9,10,5,7.661,4.302,1.383,-1.696,-4.384,-8.481,323.3,5,421.2,-7.583,-8.478,-60,-7.886,-8.197,-4.312,-4.374,-4.873,-4.949,4.341,7.55,35,-1.648,1.941,4.413,8.443,-8.073,-8.348,-1.856,1.129,330.1,312.0,317.6,341.0,322.9,339.1,339.8,318.5,338.5,325.8,2,norm,1.629,1.369,-1.298,-1.501,-4.928,-4.662,-1.907,-1.927,-1.586,-1.455,1.138,-1.793,319.4,311.2,-4.737,-7.818,1.719,-1.57,7.93,5.227,-4.901,-8.438,8,4.491,4.925,5.176,5.126,1.651,1.306,1.641,1.127,8,4.613,4.995,-30,229.022080787,norm,0,30,30,30,361.798,361.818,361.830210577,361.83,361.832,361.835,up,1,0.913330429568,9.08666957043,001,020,1920_1200,Intel(R) Core(TM) i5-3570 CPU @ 3.40GHz,orientation_search,LEPPC096,Intel(R) HD Graphics 2500,2018_Dec_12_1535,testMonitor,
335.7,319.5,325.2,,36,-60,319.6,339.9,312.6,304.8,8.044,7.899,8.266,8.246,8.257,7.971,8.17,4.99,-5.053,-8.237,1.141,-1.364,8.015,4.498,-4.692,-8.444,330.3,336.1,-7.666,339.2,327.8,343.7,320.2,321.5,36,317.4,3,5,prime,10,0,105,norm,36,-4.694,up,norm,324.159115764,321.7,313.1,336.2,320.6,3,321.5,328.7,330.4,10,5,8.332,5.09,1.376,-1.78,-4.369,-8.087,324.0,5,429.2,-7.761,-8.01,-60,-7.692,-8.444,-4.468,-4.586,-4.326,-4.424,4.384,8.49,21,-1.899,1.101,4.972,7.713,-7.777,-7.666,-1.212,1.284,321.1,336.8,331.3,333.2,325.7,328.3,304.2,320.1,342.2,319.9,3,norm,1.844,1.744,-1.132,-1.66,-5.242,-4.824,-1.142,-2.091,-1.211,-1.794,2.013,-1.824,326.7,308.6,-5.038,-8.345,1.767,-1.388,8.225,5.292,-4.777,-7.766,8,4.98,4.34,4.717,4.519,1.526,1.554,1.353,1.302,8,4.641,4.731,-30,229.022080787,norm,0,31,31,31,362.765,362.778,362.798675436,362.799,362.801,362.804,up,1,1.4996967949,8.5003032051,001,020,1920_1200,Intel(R) Core(TM) i5-3570 CPU @ 3.40GHz,orientation_search,LEPPC096,Intel(R) HD Graphics 2500,2018_Dec_12_1535,testMonitor,
325.2,305.8,309.6,320.8,36,-60,312.6,320.0,330.7,320.8,7.76,8.368,8.319,8.134,7.576,8.217,8.164,5.241,-5.16,-7.846,2.1,-1.714,7.95,5.295,-5.077,-8.309,339.9,324.3,-7.63,314.1,322.3,320.5,,304.2,36,316.4,5,5,prime,10,0,85,norm,36,-4.861,down,norm,324.159115764,337.8,332.0,318.1,323.4,2,344.2,312.5,315.6,10,5,7.994,4.994,1.474,-1.537,-5.117,-7.983,333.8,5,409.2,-7.776,-8.029,-60,-8.301,-8.013,-5.203,-5.24,-4.638,-4.739,4.988,7.811,32,-2.004,1.417,4.851,8.393,-8.396,-7.569,-1.962,1.261,329.9,342.6,332.2,341.3,337.4,323.8,327.8,328.7,339.9,331.8,4,norm,1.612,1.558,-1.817,-1.202,-5.266,-5.146,-1.798,-1.379,-1.37,-1.905,2.025,-1.557,320.8,323.6,-5.07,-8.42,1.293,-1.343,8.403,5.238,-4.632,-7.701,8,5.034,4.839,5.293,4.451,1.262,1.219,1.555,2.063,8,4.729,4.493,-30,229.022080787,norm,0,32,32,32,364.337,364.347,364.354519356,364.355,364.357,364.359,down,1,0.942337604163,9.05766239584,001,020,1920_1200,Intel(R) Core(TM) i5-3570 CPU @ 3.40GHz,orientation_search,LEPPC096,Intel(R) HD Graphics 2500,2018_Dec_12_1535,testMonitor,
324.2,326.7,327.6,329.3,36,-80,334.7,322.7,332.0,330.5,7.665,8.312,8.4,8.052,8.418,7.881,8.082,4.966,-5.058,-8.321,1.283,-1.33,8.318,4.613,-4.719,-8.398,333.0,332.4,-8.494,330.8,318.1,324.0,328.9,327.3,36,327.5,0,5,probe,5,0,62,norm,36,-4.386,down,norm,328.089551968,328.8,328.9,331.6,333.9,1,332.6,328.7,338.1,10,5,8.038,4.729,2.081,-1.516,-4.497,-8.307,326.5,2,266.1,-8.339,-7.883,-60,-8.044,-7.724,-5.154,-4.715,-4.305,-5.064,4.857,8.41,1,-1.336,1.371,4.683,7.643,-8.169,-7.579,-1.192,2.092,323.9,328.4,333.2,324.3,,328.7,328.1,324.5,322.5,322.2,0,norm,1.197,2.087,-1.215,-1.594,-4.833,-5.265,-1.314,-1.623,-1.535,-1.598,1.656,-1.544,323.8,337.1,-4.487,-7.8,1.99,-1.998,7.883,4.82,-4.692,-8.13,9,4.9,5.135,4.391,4.677,1.781,1.778,1.416,1.344,9,5.194,4.92,-60,324.159115764,norm,0,33,33,33,365.334,365.344,365.353023101,365.353,365.355,365.358,down,1,0.775969011202,9.2240309888,001,020,1920_1200,Intel(R) Core(TM) i5-3570 CPU @ 3.40GHz,orientation_search,LEPPC096,Intel(R) HD Graphics 2500,2018_Dec_12_1535,testMonitor,
373.1,380.9,387.8,375.7,36,-80,384.6,381.3,383.2,386.5,8.272,7.692,7.54,7.861,7.831,8.239,7.727,5.114,-4.402,-7.524,1.778,-1.39,7.607,4.447,-4.626,-8.011,381.0,385.4,-7.639,380.2,379.5,380.7,379.6,383.2,36,374.6,3,5,probe,5,0,117,norm,36,-5.181,down,norm,383.089551968,383.5,386.5,386.5,386.6,1,386.3,382.7,375.0,10,5,8.051,4.709,1.622,-1.822,-4.73,-7.959,385.6,2,266.1,-7.548,-8.396,-60,-7.6,-8.347,-4.825,-4.709,-4.449,-4.849,4.958,7.691,19,-1.586,1.249,4.713,7.657,-7.642,-8.476,-1.791,1.102,393.1,386.1,379.0,391.4,380.7,382.0,385.6,386.3,382.4,374.2,1,norm,1.388,1.702,-1.415,-1.589,-4.773,-5.295,-1.387,-1.912,-1.899,-1.915,1.436,-1.615,,386.1,-4.779,-7.84,1.211,-1.934,8.165,4.504,-4.478,-8.071,9,4.842,4.774,4.602,4.413,2.06,1.421,1.435,1.86,9,4.673,5.226,-60,324.159115764,norm,0,34,34,34,366.15,366.16,366.179775722,366.18,366.182,366.184,down,1,0.786386649437,9.21361335056,001,020,1920_1200,Intel(R) Core(TM) i5-3570 CPU @ 3.40GHz,orientation_search,LEPPC096,Intel(R) HD Graphics 2500,2018_Dec_12_1535,testMonitor,
208.0,217.3,208.0,214.6,36,-40,195.4,210.3,188.4,201.3,8.204,8.322,7.769,7.782,8.329,7.624,8.015,4.93,-5.22,-7.791,1.416,-1.965,7.707,4.808,-4.879,-7.619,203.0,210.9,-7.873,189.8,197.8,215.5,203.5,204.1,36,194.8,2,5,prime,10,0,88,norm,36,-5.064,down,norm,201.969649558,220.6,208.0,207.6,,2,205.1,212.1,193.9,10,5,8.043,4.492,1.66,-1.163,-4.576,-8.102,214.5,5,290.0,-8.275,-7.913,-40,-7.838,-8.305,-5.264,-4.991,-4.564,-5.146,4.5,8.397,14,-1.286,1.46,4.924,8.162,-7.598,-7.966,-1.54,2.072,188.5,204.3,211.1,219.4,191.1,197.2,205.2,210.5,222.0,199.6,0,norm,1.318,1.659,-1.994,-1.391,-4.537,-5.235,-1.912,-1.797,-1.719,-1.494,2.074,-1.389,209.9,182.0,-4.963,-8.05,1.139,-1.176,7.527,4.315,-5.213,-7.739,10,4.802,5.123,4.536,4.566,1.972,1.175,1.124,1.604,10,4.702,4.756,-80,324.159115764,norm,0,35,35,35,367.007,367.016,367.023317664,367.024,367.025,367.028,down,1,0.793947307813,9.20605269219,001,020,1920_1200,Intel(R) Core(TM) i5-3570 CPU @ 3.40GHz,orientation_search,LEPPC096,Intel(R) HD Graphics 2500,2018_Dec_12_1535,testMonitor,
215.9,198.0,208.5,213.9,36,-40,203.4,209.5,,190.6,8.186,8.153,7.737,7.548,7.844,7.906,7.58,5.059,-5.188,-8.393,1.36,-1.172,8.474,4.323,-5.176,-7.787,211.4,190.5,-7.631,182.0,222.0,202.6,208.6,194.5,36,205.1,4,5,prime,10,0,91,norm,36,-4.495,up,norm,201.969649558,206.0,194.3,188.9,196.6,4,204.7,193.8,207.6,10,5,8.314,5.214,1.71,-2.061,-5.042,-7.565,201.5,5,293.0,-7.636,-7.814,-40,-8.26,-7.833,-4.881,-4.455,-5.04,-5.171,4.552,7.86,28,-2.001,1.268,4.781,7.582,-7.901,-8.34,-1.327,1.585,209.4,218.8,194.7,212.0,199.3,202.9,204.2,188.8,189.1,192.9,1,norm,1.33,1.9,-1.714,-1.961,-4.854,-4.789,-1.538,-1.652,-1.829,-1.252,1.121,-1.517,213.6,204.8,-4.934,-8.303,2.011,-1.44,8.059,4.563,-4.877,-7.752,10,4.436,4.468,4.521,4.328,1.219,1.302,1.437,1.26,10,4.478,4.887,-80,324.159115764,norm,0,36,36,36,367.856,367.868,367.888016954,367.888,367.89,367.893,up,1,1.57125108552,8.42874891448,001,020,1920_1200,Intel(R) Core(TM) i5-3570 CPU @ 3.40GHz,orientation_search,LEPPC096,Intel(R) HD Graphics 2500,2018_Dec_12_1535,testMonitor,
197.9,189.2,204.1,208.5,36,-40,192.5,194.3,214.4,198.1,7.581,7.641,8.317,8.321,7.795,8.112,8.272,4.537,-4.536,-8.489,1.675,-1.764,7.74,4.399,-4.712,-8.34,206.9,194.1,-7.771,209.6,208.3,206.3,200.0,200.1,36,208.3,0,5,prime,10,0,76,norm,36,-4.439,down,norm,201.969649558,201.2,209.4,189.2,194.8,0,197.0,216.1,222.0,10,5,7.906,4.908,1.683,-1.464,-5.263,-8.308,199.1,5,278.0,-8.132,-7.718,-40,-7.556,-7.555,-5.042,-4.817,-4.795,-4.414,5.021,7.904,0,-1.134,1.569,5.14,7.856,-7.797,-8.372,-1.982,1.726,199.1,210.3,207.3,207.6,182.0,,220.6,201.1,207.3,193.8,2,norm,1.458,1.602,-1.963,-1.418,-5.01,-4.861,-1.995,-1.429,-1.869,-1.448,1.299,-1.95,204.8,195.7,-4.503,-7.513,1.159,-1.421,8.225,4.739,-4.755,-8.128,10,4.428,5.101,4.697,4.99,1.175,1.843,1.328,1.393,10,5.261,4.759,-80,324.159115764,norm,0,37,37,37,369.503,369.513,369.521247146,369.521,369.523,369.526,down,1,0.803984619095,9.19601538091,001,020,1920_1200,Intel(R) Core(TM) i5-3570 CPU @ 3.40GHz,orientation_search,LEPPC096,Intel(R) HD Graphics 2500,2018_Dec_12_1535,testMonitor,
198.0,204.8,191.9,200.2,36,-40,189.5,191.2,202.6,200.3,8.332,7.655,8.45,7.546,8.267,8.217,7.815,4.731,-5.12,-8.142,1.129,-1.338,7.866,5.021,-4.869,-8.117,184.6,194.2,-7.982,182.0,214.5,197.9,184.7,202.9,36,221.6,2,5,prime,10,0,94,norm,36,-4.893,up,norm,201.969649558,197.3,,201.2,207.3,4,211.4,205.6,196.7,10,5,7.535,5.104,1.96,-1.292,-4.453,-7.828,208.1,5,296.0,-8.121,-7.952,-40,-8.012,-8.328,-5.252,-5.116,-4.514,-4.312,4.514,8.151,16,-1.343,1.148,4.567,7.995,-8.213,-7.887,-1.546,1.946,195.9,191.9,198.0,188.4,192.8,209.8,199.5,185.2,203.3,222.0,3,norm,1.521,1.157,-1.588,-1.668,-4.653,-4.43,-1.766,-1.188,-1.786,-1.205,1.435,-1.355,197.4,212.7,-5.154,-7.899,1.927,-1.846,7.875,4.698,-4.646,-8.398,10,5.12,4.727,4.844,4.993,1.228,1.767,1.751,2.001,10,5.05,5.031,-80,324.159115764,norm,0,38,38,38,370.346,370.356,370.37591486,370.376,370.378,370.38,up,1,1.0671467238,8.9328532762,001,020,1920_1200,Intel(R) Core(TM) i5-3570 CPU @ 3.40GHz,orientation_search,LEPPC096,Intel(R) HD Graphics 2500,2018_Dec_12_1535,testMonitor,
206.4,,200.8,195.9,36,-40,187.9,194.5,206.8,182.0,7.912,7.928,7.653,7.627,8.254,7.948,8.37,5.069,-5.234,-8.187,1.706,-2.054,7.624,5.051,-4.837,-7.798,198.9,193.8,-8.455,202.9,199.6,199.6,183.6,222.0,36,192.1,3,5,prime,10,0,76,norm,36,-4.598,up,norm,201.969649558,205.9,202.3,210.9,187.6,5,219.7,195.4,201.2,10,5,8.304,4.338,1.99,-2.046,-5.054,-7.74,207.5,5,278.0,-8.082,-7.606,-40,-8.275,-7.975,-5.256,-5.152,-4.63,-4.599,5.017,8.212,23,-1.865,1.559,5.212,7.54,-7.599,-7.692,-2.084,1.416,198.4,185.5,218.5,195.5,205.6,220.7,205.5,200.3,211.9,212.2,4,norm,1.137,1.791,-1.544,-1.861,-5.291,-5.19,-1.257,-1.388,-1.788,-1.16,1.296,-1.146,196.5,187.3,-4.919,-8.27,1.58,-1.745,8.382,4.822,-4.876,-7.922,10,4.448,5.222,4.465,4.938,1.593,1.243,1.801,1.253,10,4.904,5.233,-80,324.159115764,norm,0,39,39,39,371.485,371.506,371.517367208,371.518,371.519,371.522,up,1,2.18366109367,7.81633890633,001,020,1920_1200,Intel(R) Core(TM) i5-3570 CPU @ 3.40GHz,orientation_search,LEPPC096,Intel(R) HD Graphics 2500,2018_Dec_12_1535,testMonitor,
255.2,258.5,258.3,268.7,36,-10,252.8,255.8,252.6,257.2,8.487,8.474,7.87,8.46,7.542,8.202,7.806,4.673,-4.919,-7.509,1.743,-1.47,7.61,4.375,-4.941,-8.441,266.7,258.6,-8.327,251.0,254.5,259.4,254.9,257.4,36,258.1,3,5,probe,5,0,100,norm,36,-4.957,down,norm,258.653154493,260.4,258.8,259.5,260.2,0,261.5,256.1,260.9,10,5,7.99,5.28,1.555,-1.661,-5.278,-7.825,257.0,2,158.7,-7.97,-8.405,-40,-7.886,-8.333,-4.924,-4.402,-4.692,-4.391,4.98,8.067,18,-1.314,1.957,4.933,8.439,-7.627,-8.163,-1.786,1.835,258.6,264.5,256.4,258.0,260.6,267.8,258.8,263.1,252.7,262.8,0,norm,1.926,1.877,-1.599,-1.62,-4.759,-5.205,-1.681,-1.856,-1.865,-1.108,1.509,-1.921,253.5,,-4.362,-7.726,1.994,-1.713,8.355,5.218,-5.198,-8.396,11,4.637,4.673,4.728,4.566,1.178,1.382,1.696,1.342,11,5.132,5.21,-40,201.969649558,norm,0,40,40,40,373.747,373.768,373.779303211,373.779,373.781,373.784,down,1,0.861721872934,9.13827812707,001,020,1920_1200,Intel(R) Core(TM) i5-3570 CPU @ 3.40GHz,orientation_search,LEPPC096,Intel(R) HD Graphics 2500,2018_Dec_12_1535,testMonitor,
227.3,228.6,234.8,243.7,36,-10,236.2,233.5,226.3,230.1,7.814,8.353,7.54,8.456,7.854,8.249,7.607,5.149,-4.759,-7.905,1.308,-1.946,8.115,4.59,-4.808,-8.326,225.4,235.9,-8.202,228.8,232.4,242.9,227.9,226.3,36,232.9,0,5,probe,5,0,75,norm,36,-4.713,down,norm,233.653154493,234.9,228.2,241.2,226.3,1,232.8,236.9,234.4,10,5,8.051,4.478,1.884,-1.112,-4.417,-7.807,228.0,2,158.7,-8.13,-8.12,-40,-8.249,-7.617,-4.512,-5.023,-5.268,-4.423,4.921,7.525,1,-1.132,1.602,4.648,7.664,-7.502,-7.698,-1.896,1.452,238.5,230.9,231.0,223.7,,232.0,234.4,237.3,240.9,228.4,1,norm,1.264,2.081,-1.295,-1.273,-4.72,-4.835,-1.719,-1.707,-1.227,-1.581,1.929,-1.394,229.7,229.0,-4.916,-7.801,2.071,-1.106,8.173,5.263,-4.48,-7.954,11,4.703,5.13,4.704,4.324,1.821,1.117,2.071,1.244,11,4.604,4.581,-40,201.969649558,norm,0,41,41,41,374.682,374.691,374.698199997,374.698,374.7,374.703,up,0,1.24295376401,-10,001,020,1920_1200,Intel(R) Core(TM) i5-3570 CPU @ 3.40GHz,orientation_search,LEPPC096,Intel(R) HD Graphics 2500,2018_Dec_12_1535,testMonitor,
58.8,56.4,79.0,,36,40,57.9,82.6,86.3,56.6,7.96,8.335,8.357,8.173,8.237,8.105,8.49,5.118,-4.762,-8.332,1.164,-1.406,7.679,4.742,-4.877,-7.658,57.1,66.2,-7.621,81.4,48.7,81.1,67.2,84.3,36,68.8,3,5,prime,10,0,80,norm,36,-4.62,up,norm,68.7074813125,68.6,50.9,82.2,60.7,3,70.3,51.8,65.4,10,5,8.371,4.505,1.516,-1.197,-5.202,-7.897,60.9,5,148.7,-8.481,-8.096,40,-7.726,-8.443,-5.263,-5.06,-5.231,-5.06,4.423,7.625,21,-1.982,1.794,5.036,8.351,-8.409,-7.628,-1.775,1.609,57.0,74.7,64.7,67.1,72.2,88.7,74.1,72.8,55.5,66.0,0,norm,1.584,1.454,-1.47,-2.05,-4.499,-4.692,-1.153,-1.872,-1.192,-1.996,2.025,-1.479,63.4,78.6,-5.265,-7.616,1.48,-1.484,8.268,4.346,-4.384,-7.554,12,4.893,4.605,4.958,4.492,1.406,1.241,1.342,1.801,12,4.957,5.292,-10,201.969649558,norm,0,42,42,42,377.011,377.02,377.036937293,377.037,377.039,377.041,up,1,1.08205312564,8.91794687436,001,020,1920_1200,Intel(R) Core(TM) i5-3570 CPU @ 3.40GHz,orientation_search,LEPPC096,Intel(R) HD Graphics 2500,2018_Dec_12_1535,testMonitor,
82.4,66.1,55.9,66.4,36,40,75.9,88.7,59.1,62.5,8.215,7.846,7.763,7.882,8.339,7.917,8.15,4.921,-4.978,-7.764,1.556,-1.489,8.046,4.597,-5.181,-8.083,65.1,53.3,-7.514,65.0,48.7,72.6,74.2,74.7,36,68.0,2,5,prime,10,0,60,norm,36,-5.271,down,norm,68.7074813125,72.8,63.8,78.1,67.6,0,71.1,87.2,,10,5,7.901,4.463,1.124,-1.506,-5.259,-7.936,84.5,5,128.7,-7.845,-8.348,40,-8.338,-7.967,-5.194,-4.594,-4.554,-4.877,4.342,8.072,12,-2.073,2.014,4.864,8.272,-8.193,-7.696,-2.048,2.011,80.3,60.2,71.7,72.3,72.5,73.2,58.0,79.7,70.4,69.1,1,norm,1.919,1.168,-1.845,-1.525,-4.652,-5.125,-1.483,-2.001,-1.443,-1.824,1.746,-1.872,73.3,68.8,-4.491,-7.575,1.22,-1.21,7.643,4.412,-4.4,-7.895,12,4.778,4.7,5.276,5.14,1.751,1.855,1.402,1.821,12,5.159,4.368,-10,201.969649558,norm,0,43,43,43,378.157,378.167,378.175628045,378.176,378.177,378.18,down,1,1.18647128728,8.81352871272,001,020,1920_1200,Intel(R) Core(TM) i5-3570 CPU @ 3.40GHz,orientation_search,LEPPC096,Intel(R) HD Graphics 2500,2018_Dec_12_1535,testMonitor,
64.8,51.2,81.7,71.7,36,40,88.7,61.6,71.7,67.9,8.273,8.352,8.301,8.466,7.714,8.235,8.283,4.74,-5.103,-7.58,1.181,-1.971,8.373,4.343,-4.997,-7.589,75.3,48.7,-7.859,77.6,80.3,76.4,64.5,82.9,36,65.2,3,5,prime,10,0,90,norm,36,-4.912,down,norm,68.7074813125,65.0,56.5,68.9,72.2,0,58.4,60.5,77.6,10,5,8.137,5.076,1.972,-1.399,-4.351,-8.156,57.2,5,158.7,-7.518,-7.635,40,-8.252,-8.353,-5.08,-4.563,-5.036,-5.177,4.798,7.56,18,-1.672,1.872,5.06,8.156,-8.4,-7.817,-1.618,1.232,78.1,70.3,56.4,71.3,82.4,78.6,72.1,69.1,60.4,72.0,2,norm,1.438,1.292,-1.444,-1.947,-4.648,-4.677,-1.784,-1.201,-1.332,-1.873,1.444,-1.333,77.9,,-4.787,-8.477,1.374,-1.759,8.439,4.619,-4.408,-8.107,12,4.334,4.963,5.059,5.068,1.883,1.905,1.218,1.249,12,4.711,4.407,-10,201.969649558,norm,0,44,44,44,379.409,379.431,379.441821295,379.442,379.444,379.447,down,1,0.99978297216,9.00021702784,001,020,1920_1200,Intel(R) Core(TM) i5-3570 CPU @ 3.40GHz,orientation_search,LEPPC096,Intel(R) HD Graphics 2500,2018_Dec_12_1535,testMonitor,
58.7,79.4,73.2,67.4,36,40,51.8,50.5,80.7,76.7,8.139,8.102,8.339,7.862,8.395,7.666,8.23,4.67,-4.838,-8.171,2.065,-1.534,7.845,4.986,-4.494,-8.472,61.9,48.7,-8.379,67.4,81.3,64.4,69.3,88.7,36,63.3,3,5,prime,10,0,102,norm,36,-4.625,down,norm,68.7074813125,58.8,70.5,58.5,58.5,1,75.3,74.1,86.4,10,5,8.042,4.921,1.204,-1.682,-4.526,-7.544,60.5,5,170.7,-7.568,-8.46,40,-8.226,-8.274,-5.015,-4.66,-5.266,-5.018,4.632,7.523,19,-1.662,1.668,4.307,7.781,-7.627,-8.27,-2.001,1.327,63.2,58.2,86.5,57.7,83.2,62.7,71.5,55.4,67.0,71.0,3,norm,1.473,1.979,-1.493,-2.018,-4.813,-5.077,-1.32,-1.313,-1.358,-1.388,1.917,-1.793,,72.0,-5.066,-7.997,1.814,-1.566,7.522,5.282,-4.429,-8.047,12,4.987,4.481,5.168,4.665,1.364,1.971,1.515,1.516,12,4.816,4.69,-10,201.969649558,norm,0,45,45,45,380.48,380.49,380.499835946,380.5,380.502,380.504,down,1,1.03474709314,8.96525290686,001,020,1920_1200,Intel(R) Core(TM) i5-3570 CPU @ 3.40GHz,orientation_search,LEPPC096,Intel(R) HD Graphics 2500,2018_Dec_12_1535,testMonitor,
71.1,88.0,67.0,73.8,36,40,77.9,66.4,73.2,54.1,7.578,7.71,7.736,7.905,7.979,7.595,7.516,4.549,-4.998,-8.407,1.902,-1.822,8.316,4.652,-4.333,-7.681,88.7,67.7,-8.434,63.2,87.3,84.8,73.9,,36,65.7,4,5,prime,10,0,80,norm,36,-4.359,down,norm,68.7074813125,76.2,77.0,48.7,81.6,2,65.5,68.6,62.5,10,5,7.625,4.343,1.303,-2.089,-4.374,-8.429,73.2,5,148.7,-7.846,-7.621,40,-8.326,-8.472,-4.847,-4.64,-4.836,-4.651,4.756,7.93,26,-1.687,1.948,4.898,7.76,-7.664,-7.613,-1.471,2.048,73.8,58.4,75.3,88.5,74.8,67.8,78.0,65.9,59.0,75.8,4,norm,1.355,1.48,-1.936,-1.879,-4.679,-4.708,-2.081,-1.915,-1.386,-1.679,1.504,-1.28,86.0,55.3,-4.522,-8.416,1.156,-1.455,7.512,5.084,-4.88,-7.743,12,4.518,4.892,4.532,4.506,1.158,1.937,1.383,1.894,12,4.706,4.921,-10,201.969649558,norm,0,46,46,46,381.572,381.582,381.591910083,381.592,381.594,381.596,down,1,0.87994345806,9.12005654194,001,020,1920_1200,Intel(R) Core(TM) i5-3570 CPU @ 3.40GHz,orientation_search,LEPPC096,Intel(R) HD Graphics 2500,2018_Dec_12_1535,testMonitor,
198.3,197.4,204.6,199.7,36,80,198.4,195.2,199.1,199.0,7.6,7.8,8.217,8.421,8.221,8.277,8.02,4.314,-4.593,-7.602,1.579,-1.27,7.714,5.222,-4.563,-8.148,197.9,203.7,-8.179,200.9,204.2,202.3,202.0,202.6,36,202.2,1,5,probe,5,0,82,norm,36,-5.2,up,norm,200.397376177,198.3,193.7,198.0,200.1,5,,210.0,190.4,10,5,7.516,4.791,1.559,-1.286,-4.785,-8.247,193.2,1,118.4,-7.963,-8.398,40,-8.019,-8.295,-5.252,-4.575,-4.647,-4.37,5.161,7.58,11,-1.348,1.543,4.891,7.959,-8.149,-8.213,-1.268,2.006,204.5,195.9,198.2,201.0,203.8,193.8,208.8,206.8,203.3,210.4,0,norm,1.186,1.684,-1.474,-2.067,-5.132,-4.366,-1.117,-1.309,-1.877,-1.786,1.62,-2.085,203.9,210.3,-4.536,-7.765,1.319,-1.374,7.701,4.777,-4.885,-7.815,13,4.355,4.324,4.619,4.493,1.833,1.814,1.807,1.253,13,5.112,4.756,40,68.7074813125,norm,0,47,47,47,382.513,382.522,382.529033586,382.529,382.531,382.533,up,1,0.755000318448,9.24499968155,001,020,1920_1200,Intel(R) Core(TM) i5-3570 CPU @ 3.40GHz,orientation_search,LEPPC096,Intel(R) HD Graphics 2500,2018_Dec_12_1535,testMonitor,
316.1,291.2,300.0,290.3,36,-20,305.3,312.3,305.8,306.0,7.728,8.022,7.724,8.053,8.128,7.637,7.723,4.509,-4.975,-7.992,1.677,-2.031,8.479,4.769,-4.948,-8.362,299.1,295.5,-7.978,303.3,285.5,296.9,294.9,298.4,36,289.3,3,5,prime,10,0,63,norm,36,-4.675,down,norm,296.140484644,295.3,276.1,301.6,299.1,1,299.7,285.0,294.2,10,6,8.047,4.585,1.486,-1.731,-5.269,-7.613,305.2,6,359.1,-7.962,-8.218,-20,-7.877,-8.076,-4.466,-4.473,-4.971,-4.966,4.926,8.232,19,-1.623,1.861,4.712,7.776,-7.678,-8.042,-2.075,1.527,295.3,292.0,297.6,277.6,299.9,297.5,287.7,293.6,298.1,278.9,0,norm,1.336,1.248,-1.229,-1.557,-4.315,-5.275,-1.208,-2.038,-1.245,-2.013,1.746,-1.347,,299.3,-5.05,-7.728,1.446,-1.273,8.239,4.863,-4.43,-8.441,14,4.855,4.784,4.929,4.974,1.506,1.492,1.132,1.328,14,4.755,4.387,80,68.7074813125,norm,0,48,48,48,383.322,383.331,383.338887918,383.339,383.341,383.343,down,1,1.27892031818,8.72107968182,001,020,1920_1200,Intel(R) Core(TM) i5-3570 CPU @ 3.40GHz,orientation_search,LEPPC096,Intel(R) HD Graphics 2500,2018_Dec_12_1535,testMonitor,
312.3,309.3,310.5,308.7,36,-20,297.0,300.2,287.4,279.8,8.412,7.594,7.766,7.647,8.287,7.666,7.863,4.995,-4.603,-8.113,1.442,-1.584,7.602,5.047,-4.812,-7.799,311.2,295.1,-8.278,296.9,289.9,306.5,290.0,300.8,36,308.7,2,5,prime,10,0,100,norm,36,-5.032,down,norm,296.140484644,276.1,293.0,294.9,,2,293.5,295.6,300.1,10,6,7.589,5.299,1.298,-1.408,-4.367,-7.719,300.5,6,396.1,-7.551,-8.332,-20,-7.523,-7.584,-4.598,-5.247,-4.671,-4.312,5.27,7.578,14,-1.164,1.792,4.646,8.27,-7.854,-7.807,-1.198,1.429,293.9,301.9,316.1,296.0,282.0,308.8,283.8,297.7,304.5,291.4,1,norm,1.919,1.727,-1.235,-2.081,-4.613,-4.627,-2.024,-1.54,-2.019,-1.127,1.655,-1.648,294.7,305.2,-5.076,-7.591,1.984,-1.781,7.825,4.59,-4.33,-7.906,14,4.502,4.946,4.94,5.18,1.288,1.19,1.579,1.551,14,4.71,5.079,80,68.7074813125,norm,0,49,49,49,384.656,384.669,384.688626322,384.689,384.691,384.693,up,0,1.38395485096,-10,001,020,1920_1200,Intel(R) Core(TM) i5-3570 CPU @ 3.40GHz,orientation_search,LEPPC096,Intel(R) HD Graphics 2500,2018_Dec_12_1535,testMonitor,
309.1,286.4,295.5,303.0,36,-20,299.2,285.4,307.0,298.3,8.183,8.319,7.611,7.87,8.44,8.022,8.154,4.356,-5.114,-8.14,1.534,-1.378,7.81,4.49,-5.212,-8.075,292.7,276.1,-8.329,297.3,301.7,290.8,301.2,287.7,36,291.2,3,5,prime,10,0,67,norm,36,-5.177,down,norm,296.140484644,300.1,281.3,296.7,299.1,1,283.1,277.9,287.2,10,6,8.4,4.702,1.419,-1.45,-4.579,-8.393,316.1,6,363.1,-8.304,-8.095,-20,-7.703,-7.601,-5.272,-5.047,-4.665,-4.897,4.505,7.781,19,-1.203,1.342,5.18,8.381,-8.182,-7.994,-1.473,1.548,315.7,301.2,282.5,300.7,301.5,289.3,282.0,307.8,311.5,292.9,2,norm,1.932,1.943,-1.944,-1.279,-4.557,-4.842,-1.157,-1.332,-1.205,-1.242,1.8,-1.326,,305.5,-5.076,-7.695,1.113,-1.309,7.774,4.429,-4.497,-8.197,14,5.187,4.98,4.655,5.222,1.924,2.072,1.77,1.182,14,4.369,5.127,80,68.7074813125,norm,0,50,50,50,387.15,387.16,387.176430052,387.177,387.178,387.181,down,1,1.28691654148,8.71308345852,001,020,1920_1200,Intel(R) Core(TM) i5-3570 CPU @ 3.40GHz,orientation_search,LEPPC096,Intel(R) HD Graphics 2500,2018_Dec_12_1535,testMonitor,
276.1,294.8,301.5,290.1,36,-20,294.1,299.1,285.0,295.2,8.096,7.874,8.413,8.393,8.243,7.599,8.134,4.403,-4.988,-8.276,1.194,-1.193,7.765,5.28,-4.853,-7.693,299.7,316.1,-7.549,296.2,307.7,314.4,310.1,296.5,36,284.6,1,5,prime,10,0,86,norm,36,-4.694,up,norm,296.140484644,286.7,290.1,295.6,294.7,3,306.1,278.8,288.5,10,6,7.826,4.781,2.045,-1.289,-4.598,-8.481,301.7,6,382.1,-7.944,-7.898,-20,-8.085,-7.915,-4.892,-5.047,-5.265,-4.573,4.341,7.621,9,-1.729,1.207,4.448,8.451,-7.9,-7.887,-1.758,1.196,,295.1,290.5,303.7,301.6,296.4,292.8,295.1,286.5,292.0,3,norm,1.318,1.284,-2.084,-1.904,-4.65,-4.775,-1.958,-1.568,-1.499,-1.347,2.074,-1.931,300.7,277.5,-4.687,-7.782,1.344,-1.192,7.913,4.517,-5.042,-8.005,14,5.034,5.226,4.958,4.444,1.511,1.109,1.268,1.854,14,5.111,5.114,80,68.7074813125,norm,0,51,51,51,388.503,388.515,388.519112788,388.519,388.521,388.525,up,1,2.10872400609,7.89127599391,001,020,1920_1200,Intel(R) Core(TM) i5-3570 CPU @ 3.40GHz,orientation_search,LEPPC096,Intel(R) HD Graphics 2500,2018_Dec_12_1535,testMonitor,
281.5,299.5,284.7,291.4,36,-20,287.7,316.1,295.5,298.8,7.935,8.43,7.713,7.665,8.004,8.238,8.289,4.82,-4.812,-8.492,1.91,-1.766,8.01,4.531,-4.824,-8.104,289.6,287.5,-7.573,291.1,307.3,280.8,296.1,284.5,36,283.3,0,5,prime,10,0,90,norm,36,-5.291,down,norm,296.140484644,294.8,289.6,281.9,297.5,1,289.7,301.1,305.8,10,6,8.205,5.194,1.583,-1.862,-4.586,-8.221,279.0,6,386.1,-7.568,-7.952,-20,-7.767,-7.602,-4.96,-4.445,-4.446,-4.781,4.471,7.792,1,-1.79,1.906,5.251,8.201,-8.126,-8.472,-2.004,1.862,302.8,301.8,291.8,293.1,,299.3,294.7,289.3,300.8,295.1,4,norm,1.306,1.855,-1.648,-1.684,-4.788,-5.111,-1.407,-2.086,-1.794,-1.783,1.69,-1.3,302.1,298.1,-4.458,-8.083,1.338,-1.598,8.344,5.196,-5.092,-7.767,14,5.233,4.964,4.8,5.112,2.082,1.958,1.301,1.389,14,4.97,4.729,80,68.7074813125,norm,0,52,52,52,390.671,390.685,390.704560211,390.705,390.707,390.711,down,1,0.755952343221,9.24404765678,001,020,1920_1200,Intel(R) Core(TM) i5-3570 CPU @ 3.40GHz,orientation_search,LEPPC096,Intel(R) HD Graphics 2500,2018_Dec_12_1535,testMonitor,
292.1,292.0,283.2,306.7,36,-20,284.0,308.1,297.3,306.5,7.661,8.491,8.048,7.716,8.315,7.617,8.399,4.565,-4.719,-7.88,1.41,-1.586,7.767,5.038,-4.386,-7.796,316.1,302.7,-8.138,290.5,,284.2,291.8,301.6,36,305.6,5,5,prime,10,0,71,norm,36,-5.087,down,norm,296.140484644,285.5,276.1,289.2,296.2,0,289.8,305.7,297.2,10,6,7.696,5.225,1.193,-1.999,-4.604,-7.79,305.5,6,367.1,-7.853,-8.255,-20,-7.924,-7.527,-5.271,-4.97,-4.485,-4.67,5.008,7.654,30,-1.943,1.568,4.508,7.525,-8.417,-7.951,-1.761,1.19,285.3,287.7,303.5,297.4,284.3,298.4,288.0,293.4,298.3,289.8,5,norm,1.665,1.422,-1.558,-1.536,-5.278,-5.097,-1.694,-1.157,-1.132,-1.356,1.248,-1.208,284.6,305.5,-5.088,-8.205,1.693,-1.504,8.03,4.745,-5.291,-7.543,14,4.366,4.342,4.874,4.96,1.928,1.738,1.474,2.039,14,4.965,4.382,80,68.7074813125,norm,0,53,53,53,391.501,391.513,391.544148866,391.544,391.547,391.55,down,1,0.792266323044,9.20773367696,001,020,1920_1200,Intel(R) Core(TM) i5-3570 CPU @ 3.40GHz,orientation_search,LEPPC096,Intel(R) HD Graphics 2500,2018_Dec_12_1535,testMonitor,
350.4,345.8,342.0,339.7,36,60,347.1,343.4,342.0,350.6,7.947,7.989,7.972,7.94,7.843,8.063,8.252,4.473,-4.424,-8.441,1.854,-1.919,8.281,5.013,-4.602,-7.666,348.4,342.0,-7.564,340.9,346.1,347.9,335.2,340.4,36,346.0,1,5,probe,5,0,68,norm,36,-4.996,up,norm,345.207145262,355.2,344.2,352.8,345.8,4,342.8,348.8,341.3,10,6,7.505,4.34,2.053,-1.15,-4.678,-7.617,,1,277.2,-7.725,-8.018,-20,-8.149,-7.972,-4.798,-5.018,-5.293,-4.594,4.653,8.421,10,-1.25,1.495,4.913,8.146,-8.209,-8.187,-1.623,1.68,346.0,347.9,344.4,351.0,342.2,350.3,346.0,343.7,347.8,347.6,0,norm,1.953,1.32,-1.72,-1.608,-4.671,-5.154,-1.406,-1.171,-1.105,-1.517,1.669,-1.474,342.5,350.4,-4.813,-8.032,1.863,-2.043,8.157,4.55,-4.743,-8.024,15,5.009,4.698,5.12,5.062,1.596,1.85,1.485,1.775,15,4.782,4.875,-20,296.140484644,norm,0,54,54,54,392.376,392.386,392.402093126,392.402,392.404,392.407,up,1,0.666607504696,9.3333924953,001,020,1920_1200,Intel(R) Core(TM) i5-3570 CPU @ 3.40GHz,orientation_search,LEPPC096,Intel(R) HD Graphics 2500,2018_Dec_12_1535,testMonitor,
72.8,,62.4,73.1,36,-40,53.0,62.1,64.1,58.0,8.447,7.86,7.688,8.272,7.954,8.444,8.069,4.441,-4.991,-8.22,1.9,-1.163,8.485,5.295,-4.335,-7.784,69.1,54.6,-8.113,74.1,61.9,56.6,60.9,44.7,36,72.1,3,5,prime,10,0,100,norm,36,-5.025,up,norm,64.7114955082,84.7,66.0,59.1,60.0,5,68.4,54.2,68.8,10,6,7.92,4.704,1.625,-1.409,-5.159,-7.695,67.2,6,164.7,-8.446,-7.957,-40,-8.348,-7.752,-4.494,-4.809,-5.234,-5.203,4.714,7.687,23,-1.761,1.983,5.071,8.245,-8.326,-8.113,-1.564,1.276,70.7,58.6,60.5,77.9,55.0,62.0,73.6,47.1,81.3,75.6,0,norm,1.731,1.271,-1.922,-1.817,-5.299,-4.855,-1.668,-1.891,-2.099,-1.911,1.206,-1.198,62.2,58.0,-4.448,-7.713,1.927,-1.461,7.535,5.065,-4.445,-7.876,16,4.462,4.526,4.694,4.825,1.11,1.601,1.814,1.681,16,4.338,5.035,60,296.140484644,norm,0,55,55,55,393.09,393.1,393.119771297,393.12,393.122,393.124,up,1,0.778319793995,9.221680206,001,020,1920_1200,Intel(R) Core(TM) i5-3570 CPU @ 3.40GHz,orientation_search,LEPPC096,Intel(R) HD Graphics 2500,2018_Dec_12_1535,testMonitor,
55.5,64.5,53.2,53.8,36,-40,68.8,64.8,69.3,62.1,7.614,7.559,8.288,8.092,7.866,7.772,7.805,4.705,-4.452,-7.517,1.654,-1.22,7.572,4.837,-5.153,-8.047,44.7,59.0,-8.275,57.4,68.1,67.7,54.2,54.0,36,65.6,3,5,prime,10,0,116,norm,36,-4.935,down,norm,64.7114955082,57.3,70.5,75.2,56.3,1,58.0,76.7,63.1,10,6,8.055,4.566,2.033,-1.522,-4.665,-8.183,49.3,6,180.7,-8.458,-8.371,-40,-8.402,-8.321,-5.273,-4.505,-5.225,-4.877,5.048,7.699,19,-1.135,1.885,4.75,7.81,-8.133,-8.385,-1.623,1.963,58.8,76.3,59.3,83.6,77.2,63.6,62.0,73.3,73.9,57.0,1,norm,1.85,1.86,-1.294,-1.904,-4.841,-4.508,-1.312,-1.617,-1.848,-1.938,1.982,-1.548,,64.5,-4.456,-8.222,1.87,-1.5,8.383,4.488,-4.606,-8.327,16,4.378,4.889,5.264,4.745,1.243,1.816,1.197,1.825,16,5.14,4.808,60,296.140484644,norm,0,56,56,56,393.935,393.945,393.962155053,393.962,393.964,393.967,down,1,0.653406235369,9.34659376463,001,020,1920_1200,Intel(R) Core(TM) i5-3570 CPU @ 3.40GHz,orientation_search,LEPPC096,Intel(R) HD Graphics 2500,2018_Dec_12_1535,testMonitor,
59.2,51.5,77.0,68.4,36,-40,70.1,54.4,84.7,50.9,8.498,8.016,7.862,7.561,7.829,7.742,7.981,4.949,-4.51,-8.228,1.788,-1.917,8.071,4.492,-5.227,-8.491,57.0,54.0,-8.335,76.3,74.4,69.8,70.0,,36,44.7,4,5,prime,10,0,85,norm,36,-4.99,down,norm,64.7114955082,64.4,61.4,62.5,63.7,2,74.1,56.3,58.7,10,6,8.053,4.792,1.597,-1.218,-4.588,-7.534,72.4,6,149.7,-8.348,-8.165,-40,-8.111,-7.55,-5.0,-4.759,-4.852,-4.328,4.582,8.464,26,-1.212,1.542,4.376,8.461,-7.843,-8.446,-1.34,1.98,50.9,62.9,55.0,79.6,64.8,50.6,65.9,83.2,66.1,59.2,2,norm,1.77,2.058,-1.421,-1.968,-5.216,-5.059,-1.428,-1.946,-1.469,-1.335,1.938,-1.956,68.0,73.0,-4.844,-7.861,1.335,-2.003,8.05,4.632,-5.19,-7.881,16,4.968,4.873,4.995,4.39,1.459,1.782,2.072,1.766,16,4.703,4.871,60,296.140484644,norm,0,57,57,57,394.653,394.662,394.679703128,394.68,394.682,394.684,down,1,1.97112020475,8.02887979525,001,020,1920_1200,Intel(R) Core(TM) i5-3570 CPU @ 3.40GHz,orientation_search,LEPPC096,Intel(R) HD Graphics 2500,2018_Dec_12_1535,testMonitor,
69.5,84.7,62.1,63.1,36,-40,62.4,46.3,67.4,,7.635,8.153,7.693,7.898,7.767,8.372,7.848,4.875,-4.825,-7.85,1.549,-1.694,8.255,4.805,-5.284,-7.839,68.1,64.9,-7.572,60.8,63.6,60.8,50.8,44.7,36,60.7,4,5,prime,10,0,108,norm,36,-5.057,up,norm,64.7114955082,64.2,69.8,75.5,60.3,5,54.0,52.2,54.7,10,6,7.617,5.212,1.101,-1.51,-4.346,-7.818,60.3,6,172.7,-8.026,-8.116,-40,-7.74,-8.273,-5.269,-5.244,-4.739,-4.324,4.595,8.48,29,-2.029,1.771,4.576,8.031,-8.161,-7.795,-1.248,2.013,60.7,50.6,60.1,84.7,76.8,72.2,58.4,62.7,61.6,70.3,3,norm,1.109,1.806,-1.789,-1.956,-4.965,-5.18,-1.212,-1.806,-1.951,-1.819,1.698,-1.153,68.3,67.2,-4.366,-7.738,1.107,-1.317,8.166,4.301,-5.098,-8.275,16,4.908,4.502,4.733,5.255,1.782,1.268,1.184,1.82,16,4.843,4.802,60,296.140484644,norm,0,58,58,58,396.693,396.706,396.725850672,396.726,396.728,396.732,up,1,2.46409456981,7.53590543019,001,020,1920_1200,Intel(R) Core(TM) i5-3570 CPU @ 3.40GHz,orientation_search,LEPPC096,Intel(R) HD Graphics 2500,2018_Dec_12_1535,testMonitor,
68.5,69.1,66.4,,36,-40,52.7,65.6,44.7,60.5,8.193,8.36,8.148,7.749,7.703,7.937,7.553,5.265,-4.752,-8.174,1.648,-1.818,7.902,4.335,-4.367,-7.739,64.2,57.1,-8.303,65.6,61.0,69.6,81.2,64.3,36,77.0,3,5,prime,10,0,83,norm,36,-4.526,up,norm,64.7114955082,63.4,84.7,61.0,64.5,3,48.8,81.2,52.8,10,6,7.965,5.279,1.207,-1.382,-4.639,-8.442,58.1,6,147.7,-7.743,-7.686,-40,-7.716,-7.739,-5.003,-4.624,-4.307,-4.657,4.972,7.94,21,-1.488,1.895,4.876,8.39,-8.468,-7.959,-1.608,1.69,59.6,72.1,61.2,62.0,61.8,74.2,51.7,66.2,61.9,72.3,4,norm,1.944,1.181,-1.347,-1.214,-4.924,-5.265,-1.864,-1.834,-1.903,-1.359,1.761,-1.249,62.1,49.5,-4.958,-8.294,2.036,-1.359,8.496,4.596,-4.855,-7.951,16,4.308,5.115,5.139,5.262,1.896,1.264,1.281,1.241,16,5.243,5.094,60,296.140484644,norm,0,59,59,59,399.229,399.239,399.25035716,399.251,399.252,399.255,up,1,1.62585788631,8.37414211369,001,020,1920_1200,Intel(R) Core(TM) i5-3570 CPU @ 3.40GHz,orientation_search,LEPPC096,Intel(R) HD Graphics 2500,2018_Dec_12_1535,testMonitor,
66.7,,70.5,67.8,36,-40,61.5,83.9,76.9,57.0,8.314,8.421,7.9,8.34,8.358,7.728,7.545,4.843,-4.885,-8.256,1.303,-1.62,7.959,5.117,-4.669,-8.399,79.0,71.8,-8.452,63.4,56.8,73.4,64.7,67.4,36,59.5,3,5,prime,10,0,65,norm,36,-5.087,up,norm,64.7114955082,59.9,67.2,62.5,59.7,5,67.7,58.8,64.9,10,6,8.003,4.781,1.371,-1.723,-4.742,-7.704,61.7,6,129.7,-7.683,-7.876,-40,-8.2,-7.897,-5.004,-5.223,-5.14,-4.995,5.145,7.927,23,-1.41,1.733,4.655,7.814,-8.104,-8.403,-1.68,2.035,63.3,75.9,44.7,80.3,84.7,55.4,58.2,65.1,62.8,71.2,5,norm,1.889,1.22,-2.025,-1.753,-5.192,-5.291,-1.265,-2.013,-1.874,-2.02,1.719,-1.525,75.2,61.6,-5.112,-8.072,1.459,-1.708,8.349,4.961,-4.688,-7.825,16,5.26,5.089,5.254,4.684,1.632,1.871,1.657,1.137,16,5.274,4.625,60,296.140484644,norm,0,60,60,60,400.92,400.939,400.953253893,400.953,400.955,400.958,up,1,1.22729817844,8.77270182156,001,020,1920_1200,Intel(R) Core(TM) i5-3570 CPU @ 3.40GHz,orientation_search,LEPPC096,Intel(R) HD Graphics 2500,2018_Dec_12_1535,testMonitor,
91.1,90.5,99.7,89.7,36,40,89.4,102.5,94.3,96.5,7.521,7.927,7.779,7.798,7.896,7.759,7.618,5.038,-5.024,-7.997,1.897,-1.185,8.375,4.905,-4.503,-7.963,,105.0,-8.355,104.0,99.4,97.9,99.5,106.4,36,100.3,5,5,probe,5,0,80,norm,36,-5.094,up,norm,99.3659689883,96.4,99.4,109.4,101.8,5,91.7,95.2,98.7,10,6,7.774,4.562,1.227,-1.237,-5.221,-8.443,101.9,1,19.4,-8.014,-8.325,-40,-7.694,-7.52,-4.457,-4.408,-4.726,-5.097,4.936,8.135,35,-1.12,1.725,4.465,7.697,-8.349,-7.933,-1.93,1.396,99.9,91.9,91.7,103.0,95.9,100.6,93.8,99.2,97.9,99.2,0,norm,1.557,1.263,-1.539,-1.854,-4.927,-5.076,-1.954,-1.768,-1.694,-1.121,1.309,-1.19,91.1,104.6,-4.44,-8.28,2.027,-1.795,7.554,4.954,-4.901,-7.784,17,5.122,4.781,4.766,4.878,1.595,1.844,1.102,2.009,17,4.333,4.646,-40,64.7114955082,norm,0,61,61,61,402.219,402.228,402.245323865,402.246,402.247,402.25,up,1,1.8456587942,8.1543412058,001,020,1920_1200,Intel(R) Core(TM) i5-3570 CPU @ 3.40GHz,orientation_search,LEPPC096,Intel(R) HD Graphics 2500,2018_Dec_12_1535,testMonitor,
96.4,101.5,84.5,110.7,36,60,96.4,106.6,104.2,82.3,7.608,7.598,7.53,8.033,7.975,8.156,7.927,4.464,-5.271,-8.395,1.683,-1.625,8.14,4.501,-4.608,-8.48,78.3,,-8.27,104.7,95.0,118.3,100.5,93.5,36,104.5,5,5,prime,10,0,119,norm,36,-5.135,up,norm,98.3123189475,95.1,108.2,92.1,106.1,4,99.6,89.7,103.8,10,6,7.533,5.079,1.688,-1.672,-4.767,-7.621,106.7,6,217.3,-8.283,-7.971,60,-8.225,-8.032,-5.254,-4.626,-4.418,-4.766,4.746,7.513,34,-1.781,1.632,4.535,8.146,-8.171,-8.298,-1.568,1.757,110.7,87.5,115.6,82.2,93.4,99.8,107.9,101.5,112.4,92.6,0,norm,1.726,1.491,-1.143,-1.472,-4.877,-4.92,-1.337,-1.598,-1.332,-1.201,1.58,-1.179,106.0,97.1,-5.17,-7.667,1.779,-1.35,8.3,4.636,-5.019,-8.245,18,4.973,4.885,5.278,4.641,1.382,1.507,1.964,1.971,18,4.729,4.407,40,64.7114955082,norm,0,62,62,62,404.129,442.815,442.834824909,442.835,442.837,442.839,up,1,0.772490226957,9.22750977304,001,020,1920_1200,Intel(R) Core(TM) i5-3570 CPU @ 3.40GHz,orientation_search,LEPPC096,Intel(R) HD Graphics 2500,2018_Dec_12_1535,testMonitor,
105.0,110.2,101.8,105.0,36,60,86.9,96.6,118.3,101.1,8.305,7.707,8.308,7.529,7.543,7.92,7.584,5.032,-4.97,-7.938,1.373,-1.648,7.991,4.344,-5.27,-7.594,104.7,100.1,-7.997,110.3,107.3,104.3,102.0,93.5,36,106.3,2,5,prime,10,0,70,norm,36,-5.006,up,norm,98.3123189475,,81.7,78.3,110.3,5,89.4,96.0,99.0,10,6,8.198,4.784,1.314,-1.649,-4.396,-8.019,102.0,6,168.3,-8.364,-8.291,60,-7.678,-7.744,-4.696,-4.616,-4.777,-5.007,5.181,8.231,17,-1.553,1.783,5.255,7.592,-7.865,-8.109,-1.117,1.336,93.6,93.6,105.7,96.9,95.6,96.4,83.3,100.2,113.5,93.3,1,norm,1.17,1.137,-1.629,-1.497,-4.633,-5.194,-1.58,-1.998,-1.581,-1.103,1.338,-1.166,82.7,106.5,-4.628,-8.226,1.239,-1.494,8.321,4.997,-4.998,-7.726,18,4.905,5.041,4.948,4.466,1.611,1.804,1.398,1.393,18,4.351,5.015,40,64.7114955082,norm,0,63,63,63,443.631,443.64,443.647150159,443.647,443.649,443.652,up,1,0.842080098668,9.15791990133,001,020,1920_1200,Intel(R) Core(TM) i5-3570 CPU @ 3.40GHz,orientation_search,LEPPC096,Intel(R) HD Graphics 2500,2018_Dec_12_1535,testMonitor,
100.1,106.8,,105.4,36,60,95.8,102.3,90.3,97.2,7.974,7.718,8.2,8.015,7.937,8.496,8.132,4.471,-4.588,-8.496,1.257,-1.806,7.783,4.514,-4.327,-8.197,100.8,106.1,-7.674,88.2,93.1,109.9,95.3,105.9,36,101.2,3,5,prime,10,0,88,norm,36,-4.968,down,norm,98.3123189475,113.9,102.4,103.1,91.9,2,100.8,89.3,108.1,10,6,7.76,4.321,1.408,-1.108,-4.406,-7.786,94.3,6,186.3,-8.22,-8.487,60,-7.939,-8.234,-4.974,-4.533,-4.889,-4.73,4.5,7.69,20,-1.535,1.665,5.0,7.857,-7.984,-7.818,-1.196,1.484,109.5,118.3,78.3,86.4,84.5,104.8,79.8,96.7,96.8,86.3,2,norm,1.85,1.915,-1.28,-2.097,-5.126,-5.049,-1.714,-2.017,-1.926,-1.156,1.64,-2.04,104.7,103.2,-5.207,-8.205,1.793,-1.505,7.973,5.066,-4.906,-7.609,18,5.214,5.058,4.7,4.541,1.622,1.834,1.317,1.332,18,4.33,5.002,40,64.7114955082,norm,0,64,64,64,444.527,444.539,444.543260833,444.543,444.545,444.548,down,1,0.694833801648,9.30516619835,001,020,1920_1200,Intel(R) Core(TM) i5-3570 CPU @ 3.40GHz,orientation_search,LEPPC096,Intel(R) HD Graphics 2500,2018_Dec_12_1535,testMonitor,
92.4,105.2,101.5,105.8,36,60,89.3,108.7,112.6,105.5,8.25,8.197,7.741,7.53,8.464,8.375,7.634,4.86,-4.904,-8.071,1.953,-1.413,7.969,4.382,-4.652,-7.558,90.7,78.3,-8.109,91.7,97.8,92.3,107.7,97.7,36,87.8,2,5,prime,10,0,99,norm,36,-4.53,up,norm,98.3123189475,96.1,,104.5,86.8,4,93.3,84.1,114.5,10,6,7.935,5.136,1.455,-1.316,-5.058,-7.55,101.4,6,197.3,-8.418,-8.325,60,-7.836,-8.161,-4.485,-4.738,-4.739,-4.919,4.932,8.246,16,-1.599,1.947,4.576,7.831,-7.82,-7.668,-1.167,1.952,99.1,93.8,93.3,91.4,105.9,100.9,99.9,98.7,113.7,109.8,3,norm,1.364,1.783,-1.197,-1.616,-4.377,-4.503,-1.332,-1.824,-1.879,-1.361,1.758,-1.157,93.7,118.3,-5.223,-8.386,1.765,-1.821,7.966,5.11,-5.247,-7.878,18,4.35,4.715,4.793,4.614,1.966,1.508,1.286,1.513,18,4.785,4.812,40,64.7114955082,norm,0,65,65,65,445.285,445.31,445.33057868,445.331,445.333,445.335,up,1,0.656061581574,9.34393841843,001,020,1920_1200,Intel(R) Core(TM) i5-3570 CPU @ 3.40GHz,orientation_search,LEPPC096,Intel(R) HD Graphics 2500,2018_Dec_12_1535,testMonitor,
108.0,104.5,94.7,91.5,36,60,89.8,100.2,89.0,104.1,8.122,8.299,7.536,7.923,7.945,8.384,7.584,5.062,-5.131,-8.393,1.684,-1.396,8.325,4.696,-5.189,-7.909,,109.6,-8.067,94.9,112.3,87.6,97.6,103.2,36,103.0,5,5,prime,10,0,65,norm,36,-4.77,up,norm,98.3123189475,89.0,111.0,107.5,86.3,5,95.1,78.3,92.9,10,6,7.54,5.153,2.094,-1.239,-5.299,-8.395,95.6,6,163.3,-7.543,-8.049,60,-8.388,-7.844,-4.503,-5.018,-4.792,-5.079,4.975,8.47,35,-1.42,1.45,4.612,7.653,-7.674,-7.682,-1.642,1.886,97.3,108.8,112.5,114.6,118.3,100.0,90.6,111.8,94.7,109.2,4,norm,1.381,1.111,-1.248,-1.832,-5.073,-4.606,-1.37,-1.892,-1.481,-1.336,1.265,-1.592,87.9,88.0,-4.684,-7.613,1.919,-1.112,7.582,4.812,-5.061,-8.035,18,5.071,4.403,4.779,4.317,1.77,1.655,1.873,2.0,18,4.424,5.215,40,64.7114955082,norm,0,66,66,66,446.025,446.037,446.063744005,446.064,446.066,446.068,up,1,1.0814832389,8.9185167611,001,020,1920_1200,Intel(R) Core(TM) i5-3570 CPU @ 3.40GHz,orientation_search,LEPPC096,Intel(R) HD Graphics 2500,2018_Dec_12_1535,testMonitor,
97.9,104.5,107.3,109.5,36,60,98.6,94.1,114.1,100.8,7.747,7.951,7.541,7.691,8.139,8.495,8.371,4.999,-4.827,-7.607,1.883,-1.341,8.204,4.593,-4.702,-8.183,,96.8,-8.489,108.4,106.5,108.0,90.2,97.4,36,78.3,5,5,prime,10,0,77,norm,36,-5.25,up,norm,98.3123189475,115.8,100.1,94.6,102.3,5,100.6,118.3,92.8,10,6,7.74,5.152,1.436,-1.577,-4.875,-7.649,115.3,6,175.3,-7.664,-7.741,60,-8.031,-7.503,-4.529,-4.509,-4.538,-4.955,4.747,7.576,35,-2.087,1.425,5.172,8.375,-8.447,-7.666,-1.655,1.61,89.9,94.2,85.3,96.9,89.3,110.5,95.8,84.7,97.3,99.2,5,norm,1.225,1.455,-1.109,-1.512,-4.512,-5.096,-1.123,-1.279,-1.592,-1.121,1.875,-1.839,96.5,107.6,-4.866,-7.745,1.413,-1.628,8.18,4.501,-5.212,-8.013,18,4.498,5.013,4.777,4.965,1.38,1.713,1.51,1.263,18,4.575,4.436,40,64.7114955082,norm,0,67,67,67,447.187,447.197,447.203860983,447.204,447.206,447.208,up,1,1.88522758795,8.11477241205,001,020,1920_1200,Intel(R) Core(TM) i5-3570 CPU @ 3.40GHz,orientation_search,LEPPC096,Intel(R) HD Graphics 2500,2018_Dec_12_1535,testMonitor,
243.1,247.3,236.6,242.8,36,80,250.6,252.3,247.0,249.5,8.13,8.488,8.218,8.303,7.746,8.457,7.656,4.574,-4.302,-8.013,1.759,-1.333,8.118,4.71,-4.665,-7.791,238.7,243.6,-7.563,238.7,232.3,237.9,242.2,236.8,36,249.4,2,5,probe,5,0,88,norm,36,-5.259,up,norm,242.308135865,241.5,248.5,,241.7,3,250.6,239.9,236.7,10,6,8.438,4.39,1.719,-1.448,-5.123,-8.034,242.2,2,154.3,-8.132,-7.805,60,-8.384,-7.699,-5.061,-4.844,-4.541,-5.143,4.432,7.529,15,-1.707,1.298,4.664,8.233,-7.518,-7.535,-1.369,1.516,245.0,248.3,236.5,251.0,252.2,242.7,249.0,249.4,243.9,246.2,0,norm,1.541,1.381,-1.71,-1.264,-4.612,-4.323,-1.162,-1.49,-2.003,-1.883,1.979,-1.418,247.2,239.3,-4.957,-7.957,1.502,-1.862,7.884,4.682,-4.939,-8.408,19,4.806,4.743,4.568,4.6,1.477,1.777,1.229,2.093,19,4.957,5.14,60,98.3123189475,norm,0,68,68,68,449.126,449.136,449.142281823,449.142,449.144,449.147,up,1,0.977815166534,9.02218483347,001,020,1920_1200,Intel(R) Core(TM) i5-3570 CPU @ 3.40GHz,orientation_search,LEPPC096,Intel(R) HD Graphics 2500,2018_Dec_12_1535,testMonitor,
228.3,212.6,213.7,212.0,36,80,218.7,215.7,220.2,219.7,7.91,8.261,8.225,8.378,7.964,7.91,8.094,4.816,-5.231,-7.761,1.811,-1.147,7.99,5.097,-4.539,-7.936,216.5,220.8,-7.728,218.7,213.6,215.2,216.1,222.4,36,215.2,0,5,probe,5,0,64,norm,36,-4.844,down,norm,218.308135865,211.0,223.5,214.8,221.3,0,225.6,218.3,211.8,10,6,7.846,4.698,2.092,-1.204,-4.671,-7.535,208.3,2,154.3,-8.294,-8.375,60,-7.789,-8.379,-4.914,-4.653,-4.31,-4.924,4.649,7.547,0,-1.698,1.462,5.262,8.326,-8.09,-7.767,-1.885,1.978,221.7,219.0,218.9,218.4,211.7,,211.2,213.7,219.2,215.2,1,norm,1.747,1.226,-1.679,-1.955,-4.491,-4.414,-1.243,-1.386,-1.628,-1.615,1.31,-1.144,224.7,226.2,-5.066,-8.027,1.555,-2.081,7.715,4.319,-4.94,-7.904,19,5.038,4.604,4.859,4.898,1.306,1.727,1.158,1.815,19,5.118,5.178,60,98.3123189475,norm,0,69,69,69,450.167,450.176,450.183600724,450.184,450.186,450.188,down,1,0.776461625162,9.22353837484,001,020,1920_1200,Intel(R) Core(TM) i5-3570 CPU @ 3.40GHz,orientation_search,LEPPC096,Intel(R) HD Graphics 2500,2018_Dec_12_1535,testMonitor,
331.3,334.9,343.0,351.0,36,10,341.3,355.2,365.1,358.4,7.646,7.926,8.208,7.688,8.191,8.212,8.14,4.764,-4.95,-7.949,1.571,-1.109,7.737,4.413,-4.537,-8.061,352.0,343.5,-7.738,359.2,356.3,365.6,343.2,362.0,36,362.3,0,5,prime,10,0,100,norm,36,-4.365,up,norm,351.321136433,352.4,341.1,358.8,350.3,5,347.2,371.3,343.6,10,6,7.661,4.908,1.524,-1.909,-4.477,-8.186,357.1,6,451.3,-7.658,-7.769,10,-8.012,-8.047,-4.466,-5.156,-4.473,-5.076,5.104,7.586,5,-1.11,1.752,4.785,8.496,-7.871,-7.904,-1.95,1.98,353.4,343.6,341.8,360.2,365.8,362.5,359.1,363.4,,347.9,0,norm,1.63,1.86,-1.661,-1.379,-4.751,-5.127,-1.718,-1.299,-1.737,-1.661,1.364,-1.451,361.9,345.1,-4.846,-8.4,1.276,-1.632,7.567,5.057,-4.924,-7.604,20,5.093,4.425,4.802,4.964,1.4,1.645,1.843,1.327,20,4.522,4.372,80,98.3123189475,norm,0,70,70,70,450.998,451.007,451.024289913,451.024,451.026,451.029,up,1,0.793997414381,9.20600258562,001,020,1920_1200,Intel(R) Core(TM) i5-3570 CPU @ 3.40GHz,orientation_search,LEPPC096,Intel(R) HD Graphics 2500,2018_Dec_12_1535,testMonitor,
371.3,364.3,354.7,348.2,36,10,352.8,347.5,347.9,362.4,8.435,8.112,7.928,7.861,8.281,8.33,8.236,4.378,-4.303,-8.322,2.073,-1.667,7.592,4.975,-4.911,-8.383,351.6,,-8.264,352.4,352.5,349.4,353.3,350.1,36,361.7,5,5,prime,10,0,77,norm,36,-4.723,up,norm,351.321136433,331.5,341.7,369.4,353.5,4,365.0,346.3,344.4,10,6,8.071,4.589,2.045,-1.105,-4.62,-8.36,360.7,6,428.3,-8.427,-7.779,10,-8.37,-7.953,-4.703,-4.376,-4.316,-4.556,4.307,8.416,34,-1.604,1.598,5.166,7.798,-8.275,-8.023,-1.765,1.93,344.8,360.8,348.1,370.4,348.4,358.2,336.1,348.4,331.3,343.8,1,norm,1.991,1.812,-1.528,-1.771,-4.689,-4.856,-2.075,-2.007,-1.116,-1.618,2.081,-1.846,366.9,364.7,-4.324,-7.777,1.44,-1.417,8.351,4.633,-4.812,-7.718,20,4.311,5.081,4.358,4.479,1.425,1.364,1.247,2.016,20,5.223,4.812,80,98.3123189475,norm,0,71,71,71,451.856,451.866,451.882375136,451.883,451.884,451.887,down,0,1.2186300442,-10,001,020,1920_1200,Intel(R) Core(TM) i5-3570 CPU @ 3.40GHz,orientation_search,LEPPC096,Intel(R) HD Graphics 2500,2018_Dec_12_1535,testMonitor,
331.3,349.7,339.9,332.9,36,10,371.3,351.2,350.0,336.6,8.324,8.445,7.857,8.034,7.515,8.11,7.561,4.35,-4.74,-8.344,1.5,-2.038,8.305,4.725,-4.59,-8.226,,360.4,-7.577,368.9,350.4,349.7,353.4,350.2,36,357.9,5,5,prime,10,0,119,norm,36,-4.512,up,norm,351.321136433,336.3,360.3,361.6,352.9,5,334.1,353.8,363.8,10,6,7.634,5.062,1.12,-1.315,-5.16,-8.208,340.8,6,470.3,-7.804,-7.815,10,-7.794,-8.114,-5.045,-5.193,-4.889,-4.851,4.738,7.787,35,-1.342,1.317,5.057,7.667,-7.617,-8.237,-1.684,1.796,363.5,359.7,352.9,353.7,358.9,356.9,360.7,355.6,365.0,343.3,2,norm,1.975,2.063,-2.016,-1.377,-4.876,-4.51,-1.469,-1.638,-1.505,-1.44,1.695,-1.817,354.8,359.2,-4.527,-7.84,1.484,-1.197,8.328,4.969,-4.454,-7.974,20,4.591,4.693,5.15,4.997,1.801,2.096,2.061,2.011,20,5.27,4.376,80,98.3123189475,norm,0,72,72,72,454.18,454.19,454.206711624,454.207,454.209,454.211,up,1,1.41025657279,8.58974342721,001,020,1920_1200,Intel(R) Core(TM) i5-3570 CPU @ 3.40GHz,orientation_search,LEPPC096,Intel(R) HD Graphics 2500,2018_Dec_12_1535,testMonitor,
352.3,347.7,340.6,346.3,36,10,343.7,331.3,367.6,364.1,8.057,7.94,7.858,8.126,8.355,8.047,7.715,4.638,-4.887,-8.366,1.449,-1.819,8.477,4.428,-5.003,-7.747,354.2,351.6,-7.572,345.7,360.3,347.1,357.4,,36,350.3,4,5,prime,10,0,94,norm,36,-4.976,down,norm,351.321136433,360.4,351.9,361.8,352.6,2,341.8,340.6,337.0,10,6,7.834,5.215,1.977,-1.985,-5.109,-8.076,345.2,6,445.3,-7.793,-8.368,10,-8.251,-7.539,-4.618,-4.378,-4.667,-4.685,4.769,8.402,26,-1.186,1.822,4.923,8.398,-8.002,-7.616,-1.539,1.143,347.9,360.7,359.5,371.3,352.4,336.1,369.0,343.7,336.0,340.9,3,norm,1.563,1.584,-1.633,-2.019,-5.202,-4.528,-1.296,-1.441,-1.883,-1.655,1.652,-1.188,342.6,338.3,-4.336,-8.012,1.842,-1.632,7.855,4.784,-4.935,-8.39,20,4.916,4.329,4.853,5.126,1.927,1.359,1.782,1.203,20,4.352,5.141,80,98.3123189475,norm,0,73,73,73,455.659,455.668,455.675786967,455.676,455.678,455.68,down,1,1.26060938641,8.73939061359,001,020,1920_1200,Intel(R) Core(TM) i5-3570 CPU @ 3.40GHz,orientation_search,LEPPC096,Intel(R) HD Graphics 2500,2018_Dec_12_1535,testMonitor,
348.7,362.5,354.3,359.4,36,10,353.4,345.7,355.0,348.9,7.525,7.954,8.305,8.453,7.925,8.468,8.199,5.187,-4.558,-7.745,1.658,-1.123,7.714,5.224,-4.758,-7.988,359.0,343.9,-8.395,360.8,352.3,,350.4,348.4,36,351.0,5,5,prime,10,0,107,norm,36,-4.43,up,norm,351.321136433,353.2,356.6,371.3,354.2,3,358.8,354.9,358.4,10,6,8.277,5.146,1.772,-1.204,-4.774,-7.847,350.0,6,458.3,-7.794,-7.612,10,-8.205,-8.235,-4.37,-4.754,-4.939,-4.828,4.861,8.06,33,-1.573,1.811,5.0,7.817,-8.386,-8.415,-1.667,1.776,352.3,339.7,348.0,345.9,358.5,367.8,356.1,331.3,337.7,341.0,4,norm,1.111,1.305,-1.666,-2.039,-5.027,-4.942,-1.632,-1.396,-1.173,-1.647,1.913,-1.91,360.5,333.8,-4.976,-8.213,1.72,-1.931,7.754,4.91,-4.995,-7.977,20,4.933,4.969,5.209,4.649,1.701,1.396,1.847,1.324,20,4.989,4.907,80,98.3123189475,norm,0,74,74,74,456.985,457.006,457.01722368,457.017,457.019,457.022,down,0,1.05569163815,-10,001,020,1920_1200,Intel(R) Core(TM) i5-3570 CPU @ 3.40GHz,orientation_search,LEPPC096,Intel(R) HD Graphics 2500,2018_Dec_12_1535,testMonitor,
347.9,363.5,,340.8,36,10,355.8,358.6,354.2,337.2,8.085,8.406,8.458,8.146,7.957,7.712,7.806,4.636,-4.447,-8.401,1.945,-2.086,8.428,4.846,-4.628,-7.561,348.4,331.3,-8.282,334.6,337.3,353.1,356.9,336.9,36,371.3,3,5,prime,10,0,106,norm,36,-4.973,down,norm,351.321136433,337.9,344.6,347.3,356.7,2,356.1,363.3,356.2,10,6,8.265,4.54,1.772,-1.437,-4.809,-8.039,364.7,6,457.3,-7.7,-8.265,10,-8.151,-7.99,-5.266,-5.1,-4.961,-4.49,4.319,8.295,20,-2.04,1.636,4.518,8.31,-8.085,-8.437,-1.896,1.757,335.8,356.5,355.7,346.8,356.8,353.9,350.1,354.8,337.3,353.3,5,norm,1.692,1.101,-1.754,-1.439,-5.214,-4.854,-1.113,-2.008,-1.57,-1.275,1.802,-1.941,333.6,356.1,-4.479,-8.152,1.76,-1.49,8.369,4.408,-4.656,-7.865,20,5.104,5.288,4.585,4.915,1.444,1.303,1.777,1.312,20,4.761,5.183,80,98.3123189475,norm,0,75,75,75,459.145,459.155,459.167271417,459.167,459.169,459.172,down,1,1.69647252787,8.30352747213,001,020,1920_1200,Intel(R) Core(TM) i5-3570 CPU @ 3.40GHz,orientation_search,LEPPC096,Intel(R) HD Graphics 2500,2018_Dec_12_1535,testMonitor,
447.9,453.3,,450.4,36,0,451.0,439.0,447.6,453.5,8.094,8.178,7.838,8.256,8.4,7.662,7.64,4.535,-4.826,-8.113,1.341,-1.493,8.47,4.992,-4.49,-7.998,450.0,449.0,-7.875,441.3,441.7,444.9,448.3,447.4,36,443.5,3,5,probe,5,0,87,norm,36,-4.722,down,norm,446.611290458,444.1,451.7,450.1,448.2,2,436.6,444.2,442.2,10,6,8.419,4.523,1.226,-2.053,-5.19,-7.965,447.8,1,359.6,-7.732,-7.68,10,-8.139,-7.615,-4.443,-4.385,-4.518,-4.951,4.786,7.963,20,-1.806,1.421,4.704,8.282,-8.206,-7.794,-1.555,1.361,456.6,443.2,442.1,450.3,448.6,449.6,436.8,445.7,451.8,440.3,0,norm,1.212,1.765,-1.111,-1.565,-4.831,-5.032,-1.992,-1.235,-1.524,-1.901,1.152,-1.825,450.2,446.4,-4.506,-7.833,1.265,-1.627,7.891,4.406,-4.625,-8.171,21,4.771,4.811,5.191,4.738,1.484,1.694,2.074,1.736,21,4.761,4.34,10,351.321136433,norm,0,76,76,76,460.885,460.895,460.914380856,460.915,460.916,460.919,down,1,1.10030187697,8.89969812303,001,020,1920_1200,Intel(R) Core(TM) i5-3570 CPU @ 3.40GHz,orientation_search,LEPPC096,Intel(R) HD Graphics 2500,2018_Dec_12_1535,testMonitor,
297.5,312.0,274.0,,36,-30,296.4,286.8,286.9,295.4,8.48,8.261,7.882,7.701,7.79,8.49,7.608,5.255,-4.592,-8.222,1.487,-1.229,7.943,5.252,-4.577,-7.772,278.7,288.5,-8.478,299.9,292.4,293.3,283.4,291.2,36,283.0,3,5,prime,10,0,94,norm,36,-4.741,up,norm,291.98264174,298.1,292.5,296.6,298.4,3,295.9,289.2,272.0,10,6,7.968,5.103,1.228,-1.68,-5.233,-7.753,291.8,6,386.0,-7.801,-7.574,-30,-7.721,-8.228,-4.87,-5.142,-5.223,-4.588,4.363,8.145,21,-1.795,1.342,4.322,8.122,-7.543,-8.296,-1.874,1.812,290.5,299.5,309.1,295.0,282.1,275.7,285.3,276.9,297.6,299.5,0,norm,1.367,1.796,-1.443,-1.954,-4.576,-4.497,-1.539,-1.158,-1.995,-1.107,1.994,-1.386,285.8,311.0,-4.33,-7.672,1.47,-1.538,7.718,5.011,-5.189,-8.263,22,5.089,4.905,4.659,4.461,1.262,1.591,1.82,1.82,22,4.326,4.639,0,351.321136433,norm,0,77,77,77,462.038,462.047,462.054298012,462.054,462.056,462.059,up,1,1.01769093847,8.98230906153,001,020,1920_1200,Intel(R) Core(TM) i5-3570 CPU @ 3.40GHz,orientation_search,LEPPC096,Intel(R) HD Graphics 2500,2018_Dec_12_1535,testMonitor,
291.6,285.9,293.9,288.1,36,-30,291.6,280.7,286.6,272.1,8.029,7.708,8.382,8.292,8.243,8.356,7.811,4.652,-4.76,-8.008,1.707,-1.461,7.873,4.637,-4.719,-7.942,272.0,296.0,-7.526,298.9,275.1,306.4,292.9,280.3,36,295.1,3,5,prime,10,0,105,norm,36,-4.446,down,norm,291.98264174,306.6,274.7,290.7,300.1,1,301.2,297.8,286.7,10,6,8.041,4.487,1.267,-1.851,-4.727,-7.598,312.0,6,397.0,-7.72,-8.185,-30,-8.247,-8.287,-4.302,-4.349,-4.853,-4.892,5.033,7.644,19,-1.228,1.361,5.268,8.154,-8.271,-8.403,-1.15,1.75,292.5,303.0,279.4,286.0,276.8,287.8,294.7,305.9,302.0,290.7,1,norm,1.446,1.792,-1.435,-1.168,-4.576,-4.472,-1.756,-1.355,-1.201,-1.854,1.752,-1.647,,310.7,-4.486,-7.741,1.992,-1.428,7.95,4.973,-4.734,-7.695,22,4.665,4.548,4.302,4.859,1.538,1.696,1.566,1.872,22,4.718,5.252,0,351.321136433,norm,0,78,78,78,463.11,463.12,463.129389343,463.13,463.131,463.134,down,1,1.17226788661,8.82773211339,001,020,1920_1200,Intel(R) Core(TM) i5-3570 CPU @ 3.40GHz,orientation_search,LEPPC096,Intel(R) HD Graphics 2500,2018_Dec_12_1535,testMonitor,
303.3,303.0,298.1,289.8,36,-30,281.6,289.6,279.7,279.6,8.364,7.735,8.028,7.862,8.315,7.67,7.667,4.69,-5.068,-8.292,2.022,-1.355,7.961,4.362,-5.284,-8.28,280.4,285.8,-8.155,300.9,288.9,297.6,297.8,295.4,36,284.0,2,5,prime,10,0,87,norm,36,-4.45,down,norm,291.98264174,288.0,293.0,291.6,279.7,1,299.0,,282.7,10,6,8.272,5.177,1.619,-1.479,-4.504,-8.266,306.8,6,379.0,-8.167,-7.692,-30,-8.368,-7.678,-5.27,-5.002,-5.216,-4.902,5.034,7.696,13,-1.786,1.367,4.651,8.404,-8.181,-7.644,-1.72,1.958,306.3,274.0,298.3,289.9,312.0,294.3,293.4,302.8,287.3,272.0,2,norm,1.832,1.801,-2.009,-1.809,-4.881,-4.617,-2.009,-1.399,-1.123,-1.382,1.505,-1.966,287.2,302.4,-5.253,-7.598,1.696,-1.269,7.675,4.916,-5.007,-7.569,22,4.409,4.464,4.701,4.888,1.61,1.15,1.366,1.266,22,4.872,5.099,0,351.321136433,norm,0,79,79,79,464.347,464.356,464.363003062,464.363,464.365,464.367,down,1,2.03334924066,7.96665075934,001,020,1920_1200,Intel(R) Core(TM) i5-3570 CPU @ 3.40GHz,orientation_search,LEPPC096,Intel(R) HD Graphics 2500,2018_Dec_12_1535,testMonitor,
292.5,285.6,285.7,293.1,36,-30,291.6,295.7,305.9,274.5,8.226,8.447,7.75,8.349,7.883,7.57,8.031,5.035,-4.403,-7.501,1.736,-1.533,7.505,5.244,-5.051,-7.819,287.6,297.9,-8.104,283.5,289.4,288.5,272.0,285.6,36,293.8,0,5,prime,10,0,65,norm,36,-4.478,up,norm,291.98264174,307.9,285.7,283.9,290.5,3,289.4,293.6,283.4,10,6,8.082,5.231,1.997,-1.858,-4.699,-8.084,288.9,6,357.0,-7.655,-7.708,-30,-7.545,-8.45,-4.571,-4.864,-4.503,-4.735,4.409,7.744,3,-1.822,1.651,5.123,8.46,-8.488,-8.345,-1.809,1.731,285.6,295.2,,301.9,288.9,290.4,284.8,300.4,286.7,301.7,3,norm,1.914,1.295,-1.103,-1.694,-4.354,-4.936,-1.696,-1.586,-1.91,-1.771,1.732,-1.251,303.0,312.0,-4.726,-8.34,1.195,-1.556,7.902,4.302,-5.232,-8.119,22,5.062,4.876,4.424,4.974,1.884,1.215,2.099,1.228,22,4.599,4.719,0,351.321136433,norm,0,80,80,80,466.432,466.442,466.452066277,466.452,466.454,466.457,up,1,1.16957420586,8.83042579414,001,020,1920_1200,Intel(R) Core(TM) i5-3570 CPU @ 3.40GHz,orientation_search,LEPPC096,Intel(R) HD Graphics 2500,2018_Dec_12_1535,testMonitor,
286.0,295.0,297.6,288.0,36,-30,292.9,295.5,292.7,,7.943,7.846,8.099,7.571,7.701,7.612,8.125,4.931,-4.797,-7.68,1.315,-1.302,7.559,4.472,-4.336,-8.1,285.0,296.7,-7.885,290.2,279.7,277.5,284.2,312.0,36,301.2,4,5,prime,10,0,107,norm,36,-5.283,up,norm,291.98264174,294.6,294.9,310.4,292.3,5,296.6,292.1,293.5,10,6,7.641,4.325,2.068,-1.928,-4.571,-7.664,285.9,6,399.0,-8.003,-8.422,-30,-8.138,-8.035,-5.181,-4.625,-4.914,-4.61,4.506,7.778,29,-1.928,1.598,4.834,7.769,-7.524,-8.158,-2.02,1.671,299.2,272.0,302.4,298.3,289.8,272.8,277.5,273.2,292.2,296.0,4,norm,1.884,1.105,-1.625,-2.075,-4.613,-4.926,-1.998,-1.599,-1.956,-1.151,1.612,-1.155,299.1,290.6,-4.349,-7.612,1.309,-1.237,8.235,4.398,-5.101,-7.581,22,4.307,4.801,4.436,4.981,1.164,1.88,1.357,1.683,22,5.294,5.049,0,351.321136433,norm,0,81,81,81,467.66,467.673,467.692533125,467.693,467.694,467.697,up,1,0.898962824247,9.10103717575,001,020,1920_1200,Intel(R) Core(TM) i5-3570 CPU @ 3.40GHz,orientation_search,LEPPC096,Intel(R) HD Graphics 2500,2018_Dec_12_1535,testMonitor,
281.9,294.8,301.3,291.0,36,-30,277.4,300.1,272.0,305.6,7.73,8.241,7.58,7.631,8.055,8.49,8.445,4.509,-4.626,-7.73,1.354,-1.919,8.379,5.229,-5.282,-7.846,297.4,291.1,-8.365,286.6,304.3,293.6,279.1,290.3,36,302.4,0,5,prime,10,0,72,norm,36,-4.863,down,norm,291.98264174,284.6,306.4,301.1,305.7,1,310.8,282.2,281.5,10,6,7.592,5.116,1.906,-1.155,-5.146,-8.373,297.0,6,364.0,-8.314,-7.619,-30,-7.742,-8.384,-4.422,-4.476,-4.45,-5.127,5.179,7.76,1,-1.406,1.281,4.781,7.947,-7.97,-7.923,-1.507,1.394,291.6,301.0,298.1,300.2,,292.9,295.9,312.0,289.5,284.6,5,norm,2.033,1.209,-1.195,-1.378,-5.162,-4.908,-1.897,-1.704,-2.086,-1.985,1.348,-1.18,283.1,294.5,-4.592,-8.464,1.707,-1.902,8.354,4.787,-4.339,-7.731,22,5.285,5.089,4.576,4.651,1.537,1.205,1.217,1.906,22,5.233,4.675,0,351.321136433,norm,0,82,82,82,468.637,468.646,468.652937165,468.653,468.655,468.657,down,1,1.29439721045,8.70560278955,001,020,1920_1200,Intel(R) Core(TM) i5-3570 CPU @ 3.40GHz,orientation_search,LEPPC096,Intel(R) HD Graphics 2500,2018_Dec_12_1535,testMonitor,
364.5,367.1,369.3,,36,-80,368.3,365.8,361.9,358.4,7.944,7.994,8.163,7.861,8.481,8.442,7.783,5.096,-5.222,-8.45,1.733,-1.666,7.776,5.045,-4.956,-7.669,370.8,362.7,-7.752,364.2,368.2,368.2,365.1,367.8,36,366.2,3,5,probe,5,0,101,norm,36,-5.071,up,norm,365.75656329,358.0,367.1,364.3,366.3,3,370.9,365.5,369.1,10,6,8.435,5.266,1.869,-2.088,-4.692,-8.437,368.8,1,264.8,-8.44,-7.588,-30,-7.533,-7.684,-4.423,-4.562,-4.764,-5.234,4.671,8.459,21,-1.718,1.856,4.844,7.588,-8.417,-8.366,-1.27,1.883,368.0,369.8,368.7,366.0,360.3,361.7,370.8,367.7,375.8,355.8,0,norm,1.413,1.238,-2.064,-1.423,-4.77,-5.227,-1.683,-1.417,-1.597,-1.297,1.571,-1.493,372.5,369.0,-4.902,-7.829,1.275,-1.263,7.559,4.537,-4.908,-8.035,23,4.704,4.532,4.688,4.46,2.023,1.567,2.069,1.977,23,4.636,4.534,-30,291.98264174,norm,0,83,83,83,469.994,470.003,470.010032784,470.01,470.012,470.014,up,1,1.39485001082,8.60514998918,001,020,1920_1200,Intel(R) Core(TM) i5-3570 CPU @ 3.40GHz,orientation_search,LEPPC096,Intel(R) HD Graphics 2500,2018_Dec_12_1535,testMonitor,
200.8,177.3,185.3,192.0,36,0,208.9,193.0,198.8,201.8,8.436,7.725,8.493,7.985,7.659,8.041,7.829,4.936,-4.457,-7.965,1.219,-2.059,7.945,5.224,-4.771,-7.851,190.0,202.8,-7.671,194.9,205.2,213.2,186.0,194.5,36,193.3,1,5,prime,10,0,85,norm,36,-4.719,up,norm,195.135255326,215.1,181.5,205.9,195.0,5,,195.9,178.9,10,6,7.553,4.924,2.093,-1.956,-4.541,-8.315,201.9,6,280.1,-7.763,-7.585,0,-7.838,-8.073,-5.093,-4.631,-5.047,-4.793,5.138,8.071,11,-1.666,1.513,5.234,7.9,-7.829,-8.299,-1.132,1.279,201.0,204.7,214.4,201.1,197.1,202.2,185.4,181.6,186.5,175.1,0,norm,1.833,1.765,-1.146,-1.797,-5.293,-4.918,-1.356,-1.254,-1.846,-1.486,1.758,-1.848,209.5,203.4,-4.518,-8.466,1.754,-2.032,8.198,4.658,-5.21,-8.002,24,4.689,4.702,4.865,4.846,1.324,1.525,1.41,1.768,24,4.781,5.244,-80,291.98264174,norm,0,84,84,84,471.444,471.456,471.46075222,471.461,471.463,471.466,up,1,1.24405912696,8.75594087304,001,020,1920_1200,Intel(R) Core(TM) i5-3570 CPU @ 3.40GHz,orientation_search,LEPPC096,Intel(R) HD Graphics 2500,2018_Dec_12_1535,testMonitor,
192.4,208.4,183.3,202.0,36,0,202.7,,197.6,200.3,7.593,7.852,8.301,8.131,7.851,8.039,7.71,4.58,-5.215,-8.003,1.459,-1.317,8.394,4.919,-4.9,-7.953,193.4,198.7,-8.438,192.1,204.2,199.5,193.6,186.2,36,210.1,4,5,prime,10,0,71,norm,36,-5.176,down,norm,195.135255326,191.2,193.2,185.7,206.4,1,199.4,195.8,203.0,10,6,7.882,4.886,1.693,-1.807,-4.301,-8.079,191.8,6,266.1,-7.512,-8.478,0,-8.296,-7.683,-4.82,-4.333,-4.547,-5.26,5.18,7.734,25,-1.917,1.377,4.715,7.929,-7.86,-7.522,-1.555,1.851,183.2,215.1,197.7,205.4,199.4,191.2,201.5,175.1,194.8,189.0,1,norm,1.214,1.428,-1.716,-1.725,-4.982,-4.646,-1.847,-1.439,-1.213,-1.965,1.85,-1.747,184.9,183.5,-4.785,-8.268,1.29,-1.434,8.497,4.994,-4.816,-8.006,24,5.187,4.946,4.892,5.256,1.527,1.351,1.337,1.365,24,4.671,4.832,-80,291.98264174,norm,0,85,85,85,472.743,472.753,472.769743119,472.77,472.772,472.774,down,1,1.13722981316,8.86277018684,001,020,1920_1200,Intel(R) Core(TM) i5-3570 CPU @ 3.40GHz,orientation_search,LEPPC096,Intel(R) HD Graphics 2500,2018_Dec_12_1535,testMonitor,
192.7,187.4,208.1,175.5,36,0,215.1,211.5,199.7,200.5,8.438,7.993,8.293,8.094,8.064,8.126,7.678,4.328,-5.189,-7.849,1.901,-1.207,8.309,4.968,-4.784,-7.918,175.1,198.4,-8.3,209.1,182.4,199.2,192.2,208.3,36,195.3,1,5,prime,10,0,107,norm,36,-5.073,up,norm,195.135255326,212.4,201.4,176.0,192.5,5,,191.3,199.9,10,6,7.567,5.271,1.246,-1.228,-4.842,-8.435,192.7,6,302.1,-7.818,-8.217,0,-8.009,-8.287,-4.905,-4.807,-4.556,-4.749,5.13,8.067,11,-2.017,1.104,5.141,7.925,-7.827,-7.947,-1.618,1.849,201.0,213.0,206.8,187.1,179.1,196.5,184.7,200.1,190.4,195.5,2,norm,1.896,1.919,-1.167,-1.781,-4.4,-5.29,-1.454,-1.93,-1.81,-1.738,2.1,-1.281,185.1,187.3,-5.135,-7.919,1.408,-1.784,8.055,4.856,-4.339,-7.567,24,4.941,4.773,4.924,4.837,1.927,2.078,1.956,1.224,24,4.894,4.64,-80,291.98264174,norm,0,86,86,86,473.944,473.953,473.970886575,473.971,473.973,473.975,up,1,0.843494250874,9.15650574913,001,020,1920_1200,Intel(R) Core(TM) i5-3570 CPU @ 3.40GHz,orientation_search,LEPPC096,Intel(R) HD Graphics 2500,2018_Dec_12_1535,testMonitor,
211.2,182.3,215.1,207.7,36,0,189.1,189.6,187.1,198.1,8.044,8.053,8.349,7.844,7.543,8.027,7.721,4.73,-4.732,-7.717,1.797,-1.715,8.134,5.266,-5.23,-8.226,192.7,189.8,-7.682,191.8,182.6,194.6,196.4,200.5,36,187.4,1,5,prime,10,0,90,norm,36,-5.247,up,norm,195.135255326,189.0,194.5,180.1,188.2,3,193.9,210.5,200.7,10,6,7.583,4.63,2.06,-2.091,-5.227,-8.326,212.3,6,285.1,-8.247,-8.277,0,-8.408,-8.183,-5.245,-4.685,-4.94,-4.687,4.551,7.633,9,-1.161,1.324,4.791,8.198,-8.499,-8.496,-1.409,1.317,,203.9,175.8,196.8,205.8,197.3,203.2,183.2,175.1,198.0,3,norm,2.011,1.649,-1.404,-1.343,-4.6,-5.213,-1.517,-1.625,-2.022,-1.394,1.563,-1.542,189.9,187.5,-4.62,-8.115,1.463,-1.736,7.736,4.681,-5.185,-8.044,24,5.109,4.322,4.832,4.567,1.362,1.713,2.096,1.265,24,5.017,4.318,-80,291.98264174,norm,0,87,87,87,474.852,474.861,474.875839851,474.876,474.878,474.88,up,1,1.27180246905,8.72819753095,001,020,1920_1200,Intel(R) Core(TM) i5-3570 CPU @ 3.40GHz,orientation_search,LEPPC096,Intel(R) HD Graphics 2500,2018_Dec_12_1535,testMonitor,
211.3,205.3,205.4,186.4,36,0,206.8,,175.1,183.3,7.645,7.603,7.68,7.838,7.508,8.231,8.122,4.349,-4.857,-8.37,1.578,-1.859,7.553,4.432,-4.338,-8.417,215.1,201.0,-7.817,186.6,182.3,204.8,180.0,192.3,36,202.1,4,5,prime,10,0,105,norm,36,-4.326,down,norm,195.135255326,205.4,189.7,209.4,196.1,1,209.6,214.1,201.9,10,6,8.279,4.8,1.375,-1.66,-5.071,-7.531,198.5,6,300.1,-7.518,-7.759,0,-7.654,-8.345,-4.596,-4.869,-5.035,-4.606,4.93,7.99,25,-1.968,1.996,5.034,7.552,-8.38,-8.151,-1.266,1.373,178.5,206.6,189.2,184.2,192.8,194.8,185.3,176.1,187.4,177.9,4,norm,1.757,1.712,-1.226,-1.219,-4.911,-4.732,-1.508,-1.355,-1.488,-1.238,1.104,-1.121,179.2,192.9,-5.298,-8.08,1.409,-1.894,8.312,5.057,-4.97,-8.363,24,4.34,4.799,4.679,5.293,1.601,1.101,2.095,2.012,24,4.943,4.364,-80,291.98264174,norm,0,88,88,88,476.186,476.196,476.202157963,476.202,476.204,476.207,down,1,0.916728922568,9.08327107743,001,020,1920_1200,Intel(R) Core(TM) i5-3570 CPU @ 3.40GHz,orientation_search,LEPPC096,Intel(R) HD Graphics 2500,2018_Dec_12_1535,testMonitor,
198.6,200.7,189.8,200.9,36,0,201.2,203.4,193.6,181.1,8.392,7.654,7.912,7.616,7.904,7.819,8.37,5.192,-4.89,-8.154,1.995,-1.843,8.155,4.91,-4.44,-8.456,213.7,201.2,-8.472,198.4,175.1,183.5,193.1,191.7,36,197.7,2,5,prime,10,0,97,norm,36,-4.797,up,norm,195.135255326,198.2,,204.5,184.5,4,215.1,195.3,182.3,10,6,8.409,4.765,2.083,-1.119,-4.839,-7.84,202.0,6,292.1,-7.663,-8.492,0,-8.265,-7.87,-5.233,-5.066,-5.188,-4.485,4.526,7.644,16,-1.891,1.389,4.378,8.226,-8.47,-8.374,-1.704,1.868,205.7,202.4,193.8,191.2,181.8,188.2,194.1,205.4,184.3,196.5,5,norm,1.669,1.664,-1.737,-1.598,-5.288,-4.332,-1.568,-1.55,-1.984,-1.81,2.055,-2.044,208.9,193.3,-4.72,-8.463,1.633,-1.765,7.823,5.183,-4.542,-8.118,24,4.442,5.023,5.169,4.314,1.517,1.216,1.688,1.517,24,4.876,4.89,-80,291.98264174,norm,0,89,89,89,477.157,477.167,477.189706179,477.19,477.192,477.194,up,1,0.743806632117,9.25619336788,001,020,1920_1200,Intel(R) Core(TM) i5-3570 CPU @ 3.40GHz,orientation_search,LEPPC096,Intel(R) HD Graphics 2500,2018_Dec_12_1535,testMonitor,
288.4,295.5,294.0,295.3,36,20,292.1,288.9,289.8,298.3,8.234,8.416,8.191,8.181,8.079,7.55,7.535,4.316,-4.472,-8.442,1.18,-1.12,7.864,4.39,-4.353,-8.347,291.2,294.5,-7.997,289.7,293.0,290.3,295.9,295.6,36,291.9,2,5,probe,5,0,94,norm,36,-4.743,up,norm,293.794743678,,290.0,303.8,291.8,5,285.9,294.9,290.5,10,6,7.769,4.9,1.843,-1.381,-4.653,-8.23,303.1,2,199.8,-7.596,-8.128,0,-8.155,-7.666,-4.422,-5.175,-4.802,-4.772,5.055,7.88,17,-1.183,1.271,4.388,7.777,-8.482,-7.719,-1.351,1.454,299.0,293.4,297.5,297.0,289.0,292.3,289.3,294.0,283.8,294.3,0,norm,1.533,1.172,-1.339,-1.452,-4.792,-4.389,-1.431,-1.989,-2.063,-1.937,1.897,-1.652,290.0,293.7,-4.944,-7.683,1.545,-1.517,7.854,4.42,-4.85,-7.763,25,4.851,4.666,4.867,4.824,1.317,1.649,1.354,1.897,25,4.347,4.458,0,195.135255326,norm,0,90,90,90,477.969,477.98,477.987379786,477.988,477.989,477.992,down,0,1.76914546268,-10,001,020,1920_1200,Intel(R) Core(TM) i5-3570 CPU @ 3.40GHz,orientation_search,LEPPC096,Intel(R) HD Graphics 2500,2018_Dec_12_1535,testMonitor,
308.7,313.8,312.3,318.3,36,20,312.5,310.0,309.0,301.2,8.478,7.552,7.993,8.457,8.235,8.499,7.616,4.427,-4.321,-8.452,1.521,-1.178,7.655,4.635,-5.082,-8.171,315.6,309.9,-8.236,315.9,299.8,312.5,307.4,312.3,36,310.5,1,5,probe,5,0,110,norm,36,-4.718,up,norm,309.794743678,307.0,311.7,310.9,314.0,5,,319.8,314.9,10,6,8.158,5.064,2.091,-2.085,-5.009,-8.27,310.1,2,199.8,-8.325,-7.806,0,-7.912,-7.577,-4.61,-5.203,-5.286,-4.563,5.218,7.598,11,-1.68,1.882,4.365,7.522,-7.941,-7.623,-1.45,1.169,314.3,309.7,313.4,314.3,301.2,307.2,310.0,303.9,313.5,307.9,1,norm,1.551,2.049,-1.655,-1.67,-5.268,-4.806,-1.444,-1.415,-1.362,-1.379,1.163,-1.802,313.8,314.6,-5.178,-8.442,1.723,-1.2,8.141,4.686,-4.882,-8.497,25,5.049,4.389,5.242,4.615,1.918,1.198,1.645,1.725,25,5.143,4.342,0,195.135255326,norm,0,91,91,91,480.828,480.838,480.850303009,480.85,480.852,480.855,up,1,0.770576518311,9.22942348169,001,020,1920_1200,Intel(R) Core(TM) i5-3570 CPU @ 3.40GHz,orientation_search,LEPPC096,Intel(R) HD Graphics 2500,2018_Dec_12_1535,testMonitor,
349.7,369.2,351.7,352.7,36,20,363.7,360.1,336.2,356.3,8.258,7.908,7.843,8.399,8.393,7.865,8.074,4.342,-4.461,-8.37,1.184,-1.482,8.459,5.043,-4.414,-8.423,350.7,361.8,-7.518,332.1,332.7,339.0,360.8,363.5,36,351.5,1,5,prime,10,0,92,norm,36,-4.786,up,norm,349.159660899,342.2,350.4,355.6,356.3,5,,349.6,346.1,10,6,7.836,4.972,1.995,-1.234,-4.986,-7.988,351.1,6,441.2,-7.602,-8.451,20,-8.345,-7.692,-4.504,-5.206,-5.083,-4.451,5.077,8.332,11,-1.596,2.003,4.38,8.186,-8.404,-8.427,-2.063,1.254,336.2,362.5,345.3,329.2,338.3,337.6,344.3,348.8,366.3,360.0,0,norm,1.305,1.428,-1.811,-1.564,-4.899,-4.834,-1.294,-1.63,-1.588,-1.878,1.604,-1.865,337.1,354.5,-4.678,-7.82,1.909,-1.284,7.708,5.056,-4.92,-8.434,26,4.431,4.334,4.431,5.127,2.092,1.53,1.495,1.626,26,4.714,4.83,20,195.135255326,norm,0,92,92,92,481.663,481.684,481.695412744,481.696,481.7,481.705,up,1,1.23213104739,8.76786895261,001,020,1920_1200,Intel(R) Core(TM) i5-3570 CPU @ 3.40GHz,orientation_search,LEPPC096,Intel(R) HD Graphics 2500,2018_Dec_12_1535,testMonitor,
350.2,349.6,354.6,329.2,36,20,352.8,351.3,339.8,366.6,7.887,8.25,8.121,8.08,8.245,7.753,8.335,5.286,-4.786,-8.21,1.647,-2.033,8.385,4.825,-4.48,-7.591,334.8,329.2,-8.014,357.1,337.2,347.5,351.8,368.3,36,352.3,0,5,prime,10,0,91,norm,36,-5.102,down,norm,349.159660899,364.7,343.1,348.0,369.2,1,338.3,350.8,348.1,10,6,7.703,4.66,1.143,-1.2,-5.109,-7.774,348.5,6,440.2,-7.605,-7.87,20,-7.514,-8.164,-4.361,-5.111,-4.899,-4.608,4.979,8.177,1,-1.503,1.698,4.498,8.23,-7.922,-8.336,-1.784,1.984,338.8,344.0,340.2,360.9,,363.5,342.1,365.6,350.3,365.7,1,norm,1.588,1.661,-1.219,-1.226,-4.557,-4.313,-1.216,-1.617,-1.811,-2.093,1.58,-1.261,343.2,345.1,-4.317,-8.148,1.362,-1.808,8.486,4.932,-4.911,-8.093,26,4.721,5.028,4.798,4.605,1.498,1.758,2.034,1.935,26,5.107,5.215,20,195.135255326,norm,0,93,93,93,482.972,482.984,482.990714891,482.991,482.993,482.996,down,1,1.11987030247,8.88012969753,001,020,1920_1200,Intel(R) Core(TM) i5-3570 CPU @ 3.40GHz,orientation_search,LEPPC096,Intel(R) HD Graphics 2500,2018_Dec_12_1535,testMonitor,
,357.6,352.9,329.2,36,20,343.8,349.7,355.7,349.7,7.81,7.657,7.522,7.542,7.793,7.838,8.496,5.113,-5.052,-7.685,1.138,-1.494,7.708,4.816,-4.453,-8.411,364.6,340.0,-7.577,356.1,361.7,350.7,351.1,343.8,36,349.5,3,5,prime,10,0,72,norm,36,-5.284,up,norm,349.159660899,357.0,337.8,339.9,347.7,4,346.1,348.7,346.7,10,6,7.539,4.991,1.189,-1.414,-4.516,-7.705,349.8,6,421.2,-8.426,-8.333,20,-7.729,-7.92,-5.198,-4.541,-4.632,-4.701,4.82,8.112,22,-1.321,1.981,5.291,7.666,-7.751,-8.455,-1.185,1.745,358.5,369.2,351.1,349.0,348.9,359.2,338.0,346.4,365.1,351.8,2,norm,1.665,1.117,-1.532,-1.554,-4.897,-5.122,-1.409,-1.718,-1.859,-1.449,1.124,-1.929,360.1,335.6,-4.921,-7.765,1.188,-1.535,7.822,4.502,-4.533,-8.232,26,4.336,4.707,4.991,4.475,1.239,1.83,1.96,1.728,26,4.489,5.281,20,195.135255326,norm,0,94,94,94,484.158,484.168,484.174241059,484.174,484.176,484.179,up,1,1.08697020983,8.91302979017,001,020,1920_1200,Intel(R) Core(TM) i5-3570 CPU @ 3.40GHz,orientation_search,LEPPC096,Intel(R) HD Graphics 2500,2018_Dec_12_1535,testMonitor,
340.1,344.7,336.0,346.8,36,20,366.8,347.4,345.9,344.0,7.585,8.105,7.792,8.016,8.111,8.11,8.46,5.042,-4.533,-7.628,1.651,-1.614,7.527,5.199,-5.222,-7.705,366.8,353.0,-8.332,369.2,339.0,344.7,354.2,362.6,36,333.2,0,5,prime,10,0,76,norm,36,-4.723,down,norm,349.159660899,340.7,343.4,348.5,337.2,2,364.4,339.4,356.6,10,6,7.901,4.662,1.327,-1.214,-4.679,-7.608,354.8,6,425.2,-8.301,-7.838,20,-8.313,-8.086,-4.879,-4.806,-4.576,-4.512,5.043,8.456,2,-1.163,1.686,4.336,7.554,-8.283,-7.542,-1.683,1.887,335.5,353.4,364.0,,349.0,341.2,351.5,348.8,352.7,350.6,3,norm,1.59,1.772,-1.107,-2.033,-4.973,-5.27,-1.13,-1.682,-1.353,-1.842,2.025,-2.1,346.4,329.2,-5.223,-7.617,1.462,-1.206,7.751,4.501,-4.385,-8.439,26,4.404,5.034,4.603,4.909,2.014,1.959,1.893,1.164,26,4.744,5.063,20,195.135255326,norm,0,95,95,95,485.282,485.294,485.298639365,485.299,485.301,485.304,down,1,1.7625446771,8.2374553229,001,020,1920_1200,Intel(R) Core(TM) i5-3570 CPU @ 3.40GHz,orientation_search,LEPPC096,Intel(R) HD Graphics 2500,2018_Dec_12_1535,testMonitor,
