d_ori_22,d_ori_23,d_ori_20,d_ori_21,set_size,ctpd,d_ori_24,d_ori_25,d_ori_28,d_ori_29,stim_pos_x_30,stim_pos_x_31,stim_pos_x_32,stim_pos_x_33,stim_pos_x_34,stim_pos_x_35,stim_pos_y_11,stim_pos_y_10,stim_pos_y_13,stim_pos_y_12,stim_pos_y_15,stim_pos_y_14,stim_pos_y_17,stim_pos_y_16,stim_pos_y_19,stim_pos_y_18,d_ori_35,d_ori_34,stim_pos_x_3,d_ori_31,d_ori_30,d_ori_33,d_ori_32,d_ori_26,test_set_size,d_ori_27,targetCol,dsd_test,seq_type,dsd,blockRepN,targetDist,dtype_test,prime_set_size,stim_pos_y_25,correctResponse,dtype,distrMean,d_ori_17,d_ori_16,d_ori_15,d_ori_14,targetRow,d_ori_11,d_ori_13,d_ori_12,dsd_prime,streak_length_prime,stim_pos_y_35,stim_pos_y_34,stim_pos_y_33,stim_pos_y_32,stim_pos_y_31,stim_pos_y_30,d_ori_10,nextProbe,targetOri,stim_pos_x_1,stim_pos_x_2,ctpd_prime,stim_pos_x_4,stim_pos_x_5,stim_pos_x_6,stim_pos_x_7,stim_pos_x_8,stim_pos_x_9,stim_pos_y_28,stim_pos_y_29,targetPos,stim_pos_y_20,stim_pos_y_21,stim_pos_y_22,stim_pos_y_23,stim_pos_y_24,stim_pos_x_0,stim_pos_y_26,stim_pos_y_27,d_ori_9,d_ori_8,d_ori_3,d_ori_2,d_ori_1,d_ori_0,d_ori_7,d_ori_6,d_ori_5,d_ori_4,trialN,dtype_prime,stim_pos_x_18,stim_pos_x_19,stim_pos_x_12,stim_pos_x_13,stim_pos_x_10,stim_pos_x_11,stim_pos_x_16,stim_pos_x_17,stim_pos_x_14,stim_pos_x_15,stim_pos_y_9,stim_pos_y_8,d_ori_19,d_ori_18,stim_pos_y_1,stim_pos_y_0,stim_pos_y_3,stim_pos_y_2,stim_pos_y_5,stim_pos_y_4,stim_pos_y_7,stim_pos_y_6,totBlockN,stim_pos_x_27,stim_pos_x_26,stim_pos_x_25,stim_pos_x_24,stim_pos_x_23,stim_pos_x_22,stim_pos_x_21,stim_pos_x_20,blockN,stim_pos_x_29,stim_pos_x_28,prevDistrCTPD,prevDistrMean,prevDistrType,trials.thisRepN,trials.thisTrialN,trials.thisN,trials.thisIndex,timeStart,timeBeforeDraw,timeDraw,timeAfterSaving,timeAfterWritingToTemp,timeAfterPreparingNext,answer,correct,rt,trialScore,session,participant,resolution,cpu_info,expName,pc_name,graphic_card,date,monitorName,
101.0,97.5,76.3,96.0,36,60,111.4,77.5,89.0,86.5,8.066,8.155,7.95,8.366,7.858,7.995,8.364,5.194,-4.415,-7.609,2.034,-1.373,8.475,5.291,-5.207,-8.38,77.7,107.1,-8.008,,71.4,79.3,86.9,94.4,36,89.0,5,5,prime,10,0,95,norm,36,-4.615,down,norm,91.4065095097,88.9,88.6,88.7,109.8,1,81.9,84.6,92.2,10,6,8.49,4.844,1.498,-1.817,-5.178,-8.196,74.8,6,186.4,-8.357,-7.703,60,-7.688,-7.702,-4.659,-4.784,-4.972,-4.99,4.942,7.622,31,-1.254,1.629,4.852,8.494,-8.024,-7.809,-1.815,1.509,105.0,74.2,99.0,104.3,97.7,99.6,76.0,79.4,89.9,88.6,0,norm,1.385,1.972,-1.762,-1.619,-4.373,-5.299,-1.301,-1.172,-1.629,-1.124,1.323,-1.753,81.4,95.1,-5.004,-8.016,1.213,-1.376,7.911,5.003,-5.23,-7.565,0,5.282,4.806,4.378,4.752,1.407,1.274,1.821,1.484,0,4.377,5.031,,,,0,0,0,0,229.715,229.745,229.765065898,229.765,229.765,229.768,up,0,2.31515375065,-10,001,009,1920_1080,Intel(R) Core(TM) i5-3570 CPU @ 3.40GHz,orientation_search,LEPPC096,Intel(R) HD Graphics 2500,2018_Oct_24_1105,testMonitor,
93.9,99.3,84.2,103.7,36,60,85.8,79.5,92.3,102.7,7.866,8.293,7.636,7.757,8.408,7.877,7.775,4.962,-4.825,-8.463,1.755,-1.265,8.242,4.543,-4.999,-8.378,71.4,91.0,-7.576,93.2,86.3,97.3,93.3,111.4,36,90.7,1,5,prime,10,0,67,norm,36,-4.91,up,norm,91.4065095097,110.6,86.0,89.4,82.5,3,85.8,91.3,94.2,10,6,8.483,4.973,1.103,-1.134,-4.457,-7.713,90.9,6,158.4,-8.497,-8.14,60,-8.006,-8.214,-5.213,-5.138,-4.446,-4.74,4.448,8.213,9,-1.299,1.537,4.354,7.841,-8.409,-7.677,-1.241,1.288,,99.4,93.4,85.0,90.8,78.1,102.0,94.1,99.2,84.5,1,norm,1.882,1.112,-1.852,-1.758,-4.848,-5.253,-1.116,-1.188,-1.259,-1.888,1.222,-1.513,79.6,111.4,-4.99,-7.594,1.555,-2.039,8.291,4.742,-4.77,-8.181,0,5.279,4.466,4.335,4.326,1.513,1.457,1.304,1.849,0,5.245,5.229,,,,0,1,1,1,233.133,233.143,233.148976329,233.149,233.15,233.153,down,0,2.01209322627,-10,001,009,1920_1080,Intel(R) Core(TM) i5-3570 CPU @ 3.40GHz,orientation_search,LEPPC096,Intel(R) HD Graphics 2500,2018_Oct_24_1105,testMonitor,
94.2,86.4,93.6,101.1,36,60,108.3,91.7,88.7,104.8,7.54,7.903,7.789,7.528,7.814,8.327,7.706,5.082,-4.812,-7.953,2.095,-1.989,8.131,5.14,-4.853,-7.701,75.4,99.6,-8.299,84.7,99.2,82.0,71.4,82.3,36,81.0,2,5,prime,10,0,95,norm,36,-4.765,down,norm,91.4065095097,73.7,85.6,99.7,,2,92.9,107.8,111.4,10,6,7.98,5.105,1.78,-1.945,-5.153,-8.199,93.2,6,186.4,-7.992,-8.466,60,-7.789,-7.731,-4.984,-4.605,-4.948,-4.888,4.458,7.516,14,-1.559,2.085,4.855,8.014,-7.845,-7.638,-1.837,1.62,102.5,92.7,98.8,90.5,79.4,103.7,94.9,89.4,91.0,89.1,2,norm,1.91,1.728,-2.024,-1.3,-4.307,-4.504,-1.418,-1.629,-1.251,-1.149,1.328,-1.118,79.8,90.7,-4.48,-8.143,1.487,-1.647,7.833,4.634,-4.387,-8.131,0,5.148,4.434,4.876,4.395,1.998,1.977,1.468,1.215,0,4.956,4.842,,,,0,2,2,2,236.231,236.24,236.25236309,236.253,236.254,236.257,up,0,3.56551619428,-10,001,009,1920_1080,Intel(R) Core(TM) i5-3570 CPU @ 3.40GHz,orientation_search,LEPPC096,Intel(R) HD Graphics 2500,2018_Oct_24_1105,testMonitor,
89.6,85.0,89.9,80.4,36,60,88.2,71.4,85.9,93.0,7.638,7.704,8.056,8.339,7.752,8.248,8.324,5.076,-4.478,-7.713,2.031,-1.799,7.647,5.107,-4.794,-8.328,76.4,88.4,-8.174,110.8,79.4,73.4,98.0,89.8,36,92.4,0,5,prime,10,0,106,norm,36,-4.655,down,norm,91.4065095097,77.7,104.3,92.6,87.3,0,93.3,72.5,86.5,10,6,8.097,4.525,1.92,-1.533,-4.52,-8.193,71.7,6,197.4,-8.027,-7.768,60,-8.362,-8.268,-5.012,-4.849,-4.37,-4.742,4.616,7.998,0,-1.204,1.87,4.317,7.982,-8.12,-7.687,-1.635,1.504,86.7,89.3,93.0,110.4,77.9,,80.5,76.8,77.9,95.7,3,norm,1.746,2.096,-1.246,-1.327,-4.971,-4.645,-1.797,-1.627,-1.485,-1.924,1.193,-1.971,111.4,72.6,-4.819,-7.773,1.819,-2.096,8.089,4.763,-4.864,-8.21,0,4.848,4.93,5.094,5.242,1.629,1.25,1.625,1.114,0,4.756,4.518,,,,0,3,3,3,240.874,240.885,240.900994256,240.901,240.903,240.905,down,1,4.23607840675,5.76392159325,001,009,1920_1080,Intel(R) Core(TM) i5-3570 CPU @ 3.40GHz,orientation_search,LEPPC096,Intel(R) HD Graphics 2500,2018_Oct_24_1105,testMonitor,
86.1,84.2,93.0,88.1,36,60,79.3,96.6,88.2,84.1,7.533,8.439,7.524,8.239,7.766,8.325,8.278,4.933,-4.517,-7.901,1.461,-1.395,7.539,4.99,-4.926,-7.876,85.8,83.6,-8.457,102.9,106.9,93.3,92.8,90.9,36,93.9,3,5,prime,10,0,75,norm,36,-4.974,down,norm,91.4065095097,111.4,88.0,93.0,84.6,0,105.8,80.0,79.7,10,6,8.356,4.525,1.345,-1.226,-4.414,-7.847,94.7,6,166.4,-7.748,-8.227,60,-7.606,-7.556,-5.12,-5.035,-4.868,-4.404,4.662,7.875,18,-2.015,1.976,4.72,8.373,-7.674,-7.549,-1.259,1.6,100.2,71.4,105.4,81.8,77.3,83.9,91.8,90.8,82.7,83.8,4,norm,1.455,1.605,-2.084,-1.198,-5.06,-5.255,-1.359,-1.274,-1.513,-1.676,1.715,-1.275,94.0,,-5.212,-7.86,1.809,-1.988,7.639,4.832,-4.999,-7.681,0,5.118,4.676,4.903,5.236,1.865,2.06,1.135,1.339,0,5.074,4.44,,,,0,4,4,4,245.16,245.17,245.176057803,245.176,245.178,245.181,down,1,3.65251564401,6.34748435599,001,009,1920_1080,Intel(R) Core(TM) i5-3570 CPU @ 3.40GHz,orientation_search,LEPPC096,Intel(R) HD Graphics 2500,2018_Oct_24_1105,testMonitor,
94.7,107.4,93.2,101.9,36,60,97.3,71.4,111.4,89.9,7.549,8.162,7.803,7.713,7.714,7.907,8.128,4.554,-4.65,-7.743,1.874,-1.689,7.77,4.787,-4.761,-7.755,85.3,89.6,-8.098,94.1,82.2,87.8,83.6,,36,85.4,4,5,prime,10,0,78,norm,36,-4.847,down,norm,91.4065095097,82.8,98.9,96.6,98.4,2,99.9,104.7,102.4,10,6,8.219,4.963,1.873,-1.144,-4.661,-7.891,80.0,6,169.4,-7.577,-7.889,60,-8.299,-8.07,-5.015,-5.154,-4.994,-4.452,5.114,8.477,26,-1.531,1.614,4.411,8.355,-7.841,-7.709,-1.253,1.37,99.0,81.1,90.8,89.2,79.2,79.9,90.5,93.1,86.7,93.9,5,norm,1.556,1.778,-1.566,-1.623,-4.821,-4.917,-1.736,-1.935,-1.34,-1.808,1.816,-1.891,98.4,87.4,-4.444,-8.357,1.509,-2.03,8.138,4.501,-4.834,-7.655,0,4.753,4.446,5.137,4.607,2.051,1.773,1.958,1.151,0,4.851,4.95,,,,0,5,5,5,248.873,248.885,248.905503257,248.906,248.908,248.911,up,0,5.42421343772,-10,001,009,1920_1080,Intel(R) Core(TM) i5-3570 CPU @ 3.40GHz,orientation_search,LEPPC096,Intel(R) HD Graphics 2500,2018_Oct_24_1105,testMonitor,
231.1,234.1,231.5,231.0,36,-40,230.4,232.6,223.8,236.8,7.58,7.618,7.826,7.665,8.178,8.109,8.245,4.374,-5.032,-7.942,1.878,-1.291,8.438,5.06,-5.168,-8.038,229.7,225.2,-7.941,226.3,232.0,237.0,227.7,239.8,36,241.6,1,5,probe,5,0,71,norm,36,-5.282,down,norm,231.563922664,235.8,235.1,234.8,227.8,2,234.3,234.5,224.8,10,6,8.334,5.221,1.926,-1.442,-4.512,-8.368,229.4,2,160.6,-8.033,-7.641,60,-8.3,-8.174,-4.357,-4.438,-4.561,-4.897,5.255,8.232,8,-1.435,1.91,4.537,8.162,-7.701,-7.811,-1.472,1.477,223.0,,238.3,221.6,231.1,226.0,226.7,230.0,227.7,231.5,0,norm,1.263,2.072,-1.548,-2.004,-5.153,-4.644,-1.749,-1.932,-1.142,-1.924,1.181,-2.018,241.6,240.5,-5.135,-7.986,1.377,-1.909,7.657,5.235,-4.461,-8.414,1,4.896,4.813,4.903,4.715,1.335,1.466,1.417,1.688,1,5.006,4.973,60,91.4065095097,norm,0,6,6,6,255.401,255.41,255.423935738,255.424,255.426,255.428,down,1,1.23043777878,8.76956222122,001,009,1920_1080,Intel(R) Core(TM) i5-3570 CPU @ 3.40GHz,orientation_search,LEPPC096,Intel(R) HD Graphics 2500,2018_Oct_24_1105,testMonitor,
274.5,272.3,281.6,273.7,36,-40,276.9,283.6,267.8,276.1,8.47,8.34,8.194,8.291,8.052,7.982,7.882,4.653,-4.871,-7.829,1.431,-1.573,8.255,5.297,-4.892,-8.315,277.0,279.1,-8.136,271.9,270.9,273.1,266.5,271.5,36,277.7,2,5,probe,5,0,113,norm,36,-5.262,up,norm,273.563922664,270.1,269.0,,275.3,3,279.8,273.3,270.8,10,6,7.615,4.916,1.791,-1.251,-5.25,-7.868,281.3,2,160.6,-7.556,-7.53,60,-8.218,-8.445,-4.512,-5.126,-5.298,-4.466,4.657,7.502,15,-1.561,1.438,5.097,8.222,-8.114,-8.036,-1.279,1.87,278.8,263.6,266.7,276.0,270.3,278.6,274.0,273.4,269.7,271.8,1,norm,2.072,1.434,-1.588,-1.911,-4.38,-4.805,-1.113,-1.655,-1.147,-1.767,1.751,-1.923,275.1,273.1,-4.833,-7.712,1.789,-1.974,7.66,4.678,-4.381,-8.199,1,5.251,4.512,4.754,4.709,1.715,2.068,1.564,1.319,1,4.67,4.508,60,91.4065095097,norm,0,7,7,7,256.691,256.702,256.707259648,256.707,256.709,256.712,up,1,1.31250141491,8.68749858509,001,009,1920_1080,Intel(R) Core(TM) i5-3570 CPU @ 3.40GHz,orientation_search,LEPPC096,Intel(R) HD Graphics 2500,2018_Oct_24_1105,testMonitor,
208.4,219.9,209.7,209.3,36,-20,216.9,190.7,206.8,221.1,8.032,7.929,7.82,7.607,7.829,8.337,8.46,5.233,-4.935,-8.286,1.215,-1.747,8.323,4.791,-4.852,-7.834,201.0,216.4,-8.19,208.6,216.3,202.2,206.2,202.3,36,205.7,2,5,prime,10,0,105,norm,36,-5.294,down,norm,207.645289888,209.4,220.3,224.2,210.2,1,201.4,,212.8,10,6,8.049,4.652,1.142,-1.4,-5.032,-8.423,222.9,6,312.6,-7.839,-7.585,-20,-7.877,-7.901,-4.538,-4.795,-4.371,-5.084,4.344,7.7,13,-1.683,1.443,4.542,8.075,-7.901,-8.132,-1.631,2.069,209.4,213.2,204.7,194.5,212.4,191.9,214.0,187.6,192.2,201.4,0,norm,1.21,1.713,-1.949,-1.996,-5.188,-4.401,-1.16,-1.261,-1.167,-1.324,1.838,-1.446,205.0,227.6,-4.542,-8.049,1.463,-1.223,8.379,5.171,-5.133,-8.292,2,5.268,5.211,4.334,4.452,1.362,1.998,1.647,1.694,2,4.349,5.161,-40,91.4065095097,norm,0,8,8,8,258.045,258.054,258.061213808,258.061,258.063,258.066,down,1,1.21581808726,8.78418191274,001,009,1920_1080,Intel(R) Core(TM) i5-3570 CPU @ 3.40GHz,orientation_search,LEPPC096,Intel(R) HD Graphics 2500,2018_Oct_24_1105,testMonitor,
203.6,216.0,205.9,210.5,36,-20,208.7,212.5,189.3,192.4,7.628,7.625,8.363,8.486,8.05,7.834,7.508,4.736,-5.033,-7.652,1.115,-1.107,8.139,5.103,-4.901,-8.204,204.8,212.4,-7.722,207.8,227.6,225.6,193.5,197.7,36,194.3,2,5,prime,10,0,115,norm,36,-5.061,down,norm,207.645289888,225.6,187.6,216.9,211.4,1,212.1,,214.8,10,6,7.683,4.739,1.413,-1.777,-4.876,-8.372,217.5,6,322.6,-8.274,-7.638,-20,-7.889,-8.426,-4.875,-4.672,-4.847,-5.236,5.28,8.5,13,-1.693,1.978,4.415,7.67,-7.725,-8.164,-1.13,2.001,223.6,204.8,221.4,206.5,205.3,205.9,201.3,203.2,215.7,221.2,1,norm,1.275,1.511,-2.094,-1.493,-5.116,-4.735,-1.755,-1.619,-1.336,-1.548,2.025,-1.729,206.6,200.2,-4.981,-7.974,1.287,-1.491,7.91,5.15,-4.853,-7.857,2,4.788,4.671,4.987,4.434,1.898,1.628,1.902,1.691,2,4.611,4.692,-40,91.4065095097,norm,0,9,9,9,259.315,259.327,259.34679071,259.347,259.349,259.351,down,1,1.61194912417,8.38805087583,001,009,1920_1080,Intel(R) Core(TM) i5-3570 CPU @ 3.40GHz,orientation_search,LEPPC096,Intel(R) HD Graphics 2500,2018_Oct_24_1105,testMonitor,
219.4,215.4,213.8,215.9,36,-20,212.6,212.4,227.4,215.3,7.906,7.674,7.781,7.66,8.188,7.545,7.626,4.552,-4.39,-8.033,1.901,-2.09,8.018,5.254,-5.215,-7.663,192.7,,-8.068,210.8,208.7,221.3,204.7,205.1,36,216.4,5,5,prime,10,0,81,norm,36,-5.238,up,norm,207.645289888,204.9,206.3,198.0,214.5,4,200.3,195.0,200.8,10,6,7.932,5.002,1.2,-1.335,-4.669,-8.196,217.0,6,288.6,-7.784,-7.906,-20,-8.335,-7.7,-4.492,-4.369,-4.934,-4.827,4.911,8.427,34,-1.805,2.073,4.317,8.022,-8.478,-8.051,-1.41,1.876,214.8,227.6,215.6,208.2,201.8,192.4,187.6,191.5,206.6,205.4,2,norm,1.113,1.912,-1.977,-1.808,-4.655,-5.274,-1.854,-1.289,-1.123,-1.249,1.153,-1.626,207.4,216.8,-5.073,-8.494,1.688,-2.092,8.377,4.51,-4.705,-7.891,2,4.719,4.381,4.403,4.714,1.613,1.641,1.456,1.817,2,4.854,5.274,-40,91.4065095097,norm,0,10,10,10,260.98,260.989,261.008487957,261.009,261.01,261.013,up,1,1.7358850733,8.2641149267,001,009,1920_1080,Intel(R) Core(TM) i5-3570 CPU @ 3.40GHz,orientation_search,LEPPC096,Intel(R) HD Graphics 2500,2018_Oct_24_1105,testMonitor,
193.9,210.7,215.3,209.6,36,-20,200.9,216.5,187.7,212.9,8.261,7.978,8.353,7.933,7.89,7.973,7.561,4.701,-4.311,-8.182,1.765,-1.256,7.706,4.501,-4.616,-7.784,208.6,,-7.725,227.6,195.6,204.3,200.2,209.8,36,202.0,5,5,prime,10,0,119,norm,36,-4.667,up,norm,207.645289888,207.7,216.1,202.2,190.1,4,202.5,187.6,214.0,10,6,8.438,4.7,1.289,-2.035,-4.889,-7.708,210.3,6,326.6,-7.562,-7.653,-20,-7.752,-7.666,-5.115,-5.2,-4.399,-4.382,4.983,8.069,34,-1.624,1.895,4.958,8.134,-7.583,-7.638,-2.053,1.692,218.4,214.2,210.2,214.7,195.0,190.3,207.8,201.8,202.9,200.7,3,norm,1.221,1.165,-1.807,-1.114,-4.572,-5.22,-1.958,-1.903,-2.086,-1.228,1.962,-1.731,194.8,198.0,-4.719,-7.689,1.176,-1.612,7.764,4.321,-5.221,-7.593,2,5.004,4.913,4.744,5.123,1.699,1.101,1.453,1.142,2,4.699,4.881,-40,91.4065095097,norm,0,11,11,11,262.788,262.81,262.820230678,262.821,262.824,262.83,up,1,1.76112014474,8.23887985526,001,009,1920_1080,Intel(R) Core(TM) i5-3570 CPU @ 3.40GHz,orientation_search,LEPPC096,Intel(R) HD Graphics 2500,2018_Oct_24_1105,testMonitor,
194.6,189.9,210.7,194.5,36,-20,203.6,187.7,212.6,222.5,8.314,7.667,8.095,8.101,7.568,8.348,8.048,5.237,-4.638,-8.228,1.296,-2.072,7.842,4.345,-4.883,-7.993,227.6,207.0,-7.701,200.9,214.0,209.9,204.2,204.5,36,197.7,0,5,prime,10,0,88,norm,36,-4.932,up,norm,207.645289888,204.0,206.1,213.1,196.6,4,207.4,197.8,211.2,10,6,7.864,4.318,1.151,-1.849,-4.409,-8.379,202.7,6,295.6,-7.687,-8.346,-20,-8.273,-7.662,-4.748,-4.975,-5.187,-5.035,4.687,7.996,4,-1.267,1.846,5.075,7.998,-7.928,-8.147,-1.345,1.516,203.1,210.0,209.7,217.0,196.5,199.3,201.2,203.0,209.8,,4,norm,1.311,1.42,-1.561,-1.543,-4.656,-4.312,-1.951,-1.352,-2.081,-1.69,1.734,-1.955,187.6,205.3,-4.495,-7.907,1.195,-1.119,8.13,4.932,-4.435,-8.432,2,4.379,4.996,5.128,4.944,1.305,1.987,1.936,1.38,2,5.135,4.908,-40,91.4065095097,norm,0,12,12,12,264.624,264.634,264.643200322,264.643,264.645,264.648,up,1,1.82732591009,8.17267408991,001,009,1920_1080,Intel(R) Core(TM) i5-3570 CPU @ 3.40GHz,orientation_search,LEPPC096,Intel(R) HD Graphics 2500,2018_Oct_24_1105,testMonitor,
194.2,202.0,204.9,221.8,36,-20,222.9,212.1,192.7,221.1,8.054,7.839,8.198,7.602,7.756,7.762,7.751,4.515,-4.914,-8.396,1.947,-1.696,7.842,4.606,-5.206,-8.034,206.5,189.2,-7.922,204.1,203.8,192.6,201.9,222.4,36,191.3,1,5,prime,10,0,92,norm,36,-5.166,up,norm,207.645289888,210.9,218.1,197.8,199.4,5,,226.6,219.7,10,6,8.459,5.134,1.782,-1.127,-4.591,-7.608,209.2,6,299.6,-8.405,-7.742,-20,-8.421,-8.184,-4.96,-4.904,-4.438,-4.315,5.191,8.184,11,-1.706,1.628,5.178,7.93,-7.717,-8.21,-1.23,1.478,205.1,191.8,215.3,218.3,227.6,205.9,215.6,210.2,211.6,202.9,5,norm,2.082,1.796,-1.394,-1.48,-4.996,-5.047,-2.062,-1.175,-2.018,-1.414,1.578,-1.884,187.6,217.7,-5.153,-7.714,1.618,-1.177,7.617,4.941,-4.542,-7.903,2,4.323,4.801,4.497,4.94,1.56,1.346,1.458,1.215,2,5.13,4.684,-40,91.4065095097,norm,0,13,13,13,266.516,266.525,266.531675445,266.532,266.534,266.536,up,1,1.60579535511,8.39420464489,001,009,1920_1080,Intel(R) Core(TM) i5-3570 CPU @ 3.40GHz,orientation_search,LEPPC096,Intel(R) HD Graphics 2500,2018_Oct_24_1105,testMonitor,
271.1,266.6,265.0,269.9,36,-60,263.0,269.6,261.4,261.9,8.147,7.636,8.212,7.756,7.932,8.402,7.911,4.736,-5.066,-8.061,1.366,-1.2,7.818,4.396,-5.117,-8.131,265.9,265.8,-7.917,270.3,268.2,273.2,268.4,260.4,36,275.7,0,5,probe,5,0,81,norm,36,-4.453,down,norm,265.673319524,265.9,268.7,263.1,264.8,0,269.5,272.9,260.9,10,6,7.813,4.654,2.08,-1.424,-5.202,-7.762,263.2,1,184.7,-7.938,-8.277,-20,-8.335,-8.095,-4.608,-4.673,-4.634,-5.158,4.743,8.437,0,-1.92,1.186,4.565,7.843,-7.607,-7.62,-1.56,1.165,262.5,266.1,263.1,266.6,266.5,,256.2,267.4,256.8,255.7,0,norm,1.269,1.803,-1.27,-1.45,-5.178,-5.149,-1.254,-1.979,-1.782,-1.109,1.222,-1.744,261.1,260.2,-4.567,-7.896,1.327,-2.066,8.096,4.559,-4.993,-8.239,3,4.43,4.858,4.576,5.227,1.748,1.513,1.371,1.866,3,4.49,4.956,-20,207.645289888,norm,0,14,14,14,268.174,268.184,268.199804765,268.2,268.202,268.204,down,1,3.09081752129,6.90918247871,001,009,1920_1080,Intel(R) Core(TM) i5-3570 CPU @ 3.40GHz,orientation_search,LEPPC096,Intel(R) HD Graphics 2500,2018_Oct_24_1105,testMonitor,
114.4,96.1,105.2,92.9,36,20,89.5,83.9,108.7,95.5,8.323,7.703,8.375,7.63,8.489,7.64,8.386,5.228,-4.866,-8.309,1.51,-1.893,8.416,4.793,-4.458,-8.205,96.3,84.1,-8.046,93.0,98.9,104.1,91.1,86.6,36,106.9,0,5,prime,10,0,90,norm,36,-4.669,down,norm,100.470854389,100.8,112.5,104.8,117.8,0,98.2,87.8,111.3,10,5,8.462,4.929,1.582,-2.067,-4.756,-7.693,80.5,5,190.5,-7.99,-8.099,20,-7.818,-7.825,-4.436,-4.828,-4.571,-5.147,5.154,7.617,0,-1.315,1.239,4.617,7.833,-7.936,-7.795,-1.815,1.589,100.0,107.3,119.5,89.5,114.6,,103.2,120.5,105.2,120.3,0,norm,1.804,1.955,-1.321,-1.805,-5.225,-4.945,-1.461,-1.749,-1.145,-1.264,1.202,-1.757,86.0,100.2,-4.603,-7.732,1.881,-1.473,7.845,5.07,-5.022,-7.673,4,4.631,4.561,4.515,4.614,1.451,1.207,1.707,1.921,4,5.149,4.634,-60,207.645289888,norm,0,15,15,15,271.336,271.345,271.353504708,271.354,271.355,271.358,down,1,4.9008680838,5.0991319162,001,009,1920_1080,Intel(R) Core(TM) i5-3570 CPU @ 3.40GHz,orientation_search,LEPPC096,Intel(R) HD Graphics 2500,2018_Oct_24_1105,testMonitor,
101.5,101.7,94.8,95.6,36,20,107.0,87.1,95.4,97.3,7.608,7.954,8.21,8.444,7.651,8.277,7.858,5.256,-4.911,-7.506,1.133,-1.913,7.608,4.836,-4.621,-7.882,112.2,104.2,-7.828,108.8,95.7,93.2,83.2,96.2,36,107.5,1,5,prime,10,0,101,norm,36,-4.621,down,norm,100.470854389,87.8,80.5,102.2,103.4,1,109.5,107.6,94.7,10,5,8.366,4.702,1.847,-1.445,-4.695,-7.668,120.5,5,201.5,-8.178,-8.057,20,-7.6,-7.688,-4.586,-4.337,-4.587,-5.257,5.194,8.019,7,-1.313,1.211,4.944,8.369,-8.366,-8.303,-2.069,1.885,87.2,87.0,104.4,97.0,106.9,103.9,,104.7,98.2,111.7,1,norm,2.038,1.731,-2.009,-1.926,-4.669,-4.904,-1.762,-1.595,-1.389,-1.206,1.338,-1.246,99.9,113.8,-4.463,-7.868,1.695,-1.747,7.664,4.633,-4.748,-7.561,4,4.97,4.61,4.948,4.778,1.226,1.943,1.455,2.033,4,4.539,4.911,-60,207.645289888,norm,0,16,16,16,276.296,276.306,276.312313666,276.312,276.314,276.317,down,1,3.9968897613,6.0031102387,001,009,1920_1080,Intel(R) Core(TM) i5-3570 CPU @ 3.40GHz,orientation_search,LEPPC096,Intel(R) HD Graphics 2500,2018_Oct_24_1105,testMonitor,
105.6,102.9,109.2,104.8,36,20,80.8,97.2,106.9,92.9,8.098,8.396,7.88,8.272,7.801,7.786,8.052,4.941,-4.547,-8.242,1.417,-1.325,8.337,5.248,-4.76,-7.55,108.2,89.7,-8.301,91.0,102.2,114.9,98.8,111.8,36,80.5,0,5,prime,10,0,95,norm,36,-5.141,up,norm,100.470854389,113.9,104.4,103.0,85.6,3,112.6,112.3,106.2,10,5,8.431,4.924,2.06,-1.128,-5.135,-8.264,87.9,5,195.5,-8.477,-8.07,20,-7.67,-7.923,-4.537,-5.283,-4.468,-4.903,5.216,7.889,3,-1.801,1.133,5.25,7.741,-7.785,-7.938,-1.447,2.01,105.9,110.1,,100.4,91.7,98.0,100.1,98.5,101.1,93.3,2,norm,1.407,1.9,-1.794,-1.173,-5.225,-5.181,-1.308,-1.341,-2.021,-1.922,1.993,-1.751,107.3,120.5,-5.201,-8.225,1.825,-1.93,7.902,5.122,-5.22,-7.979,4,4.861,4.631,4.744,4.966,1.91,2.029,1.117,1.979,4,4.593,5.116,-60,207.645289888,norm,0,17,17,17,280.346,280.357,280.367257493,280.367,280.369,280.372,up,1,3.57125069689,6.42874930311,001,009,1920_1080,Intel(R) Core(TM) i5-3570 CPU @ 3.40GHz,orientation_search,LEPPC096,Intel(R) HD Graphics 2500,2018_Oct_24_1105,testMonitor,
110.5,103.4,96.3,96.5,36,20,120.5,93.9,94.1,111.3,7.939,7.649,8.079,8.351,8.117,8.004,7.835,4.488,-5.166,-8.392,2.044,-2.026,7.513,4.486,-4.53,-8.271,102.9,102.0,-8.128,96.8,95.6,93.8,88.0,80.5,36,109.4,1,5,prime,10,0,110,norm,36,-5.056,down,norm,100.470854389,106.7,95.7,111.3,107.0,1,98.8,89.0,93.4,10,5,7.793,4.769,1.805,-1.685,-4.968,-8.282,103.0,5,210.5,-8.481,-8.138,20,-8.479,-7.734,-4.936,-5.221,-4.75,-4.884,4.844,7.583,7,-1.923,1.65,4.39,8.489,-7.835,-8.476,-1.492,1.707,91.5,84.5,108.7,87.2,109.2,105.3,,95.7,84.1,105.6,3,norm,1.784,1.305,-1.891,-1.463,-5.094,-5.29,-1.845,-1.35,-1.503,-1.757,1.75,-1.897,107.6,81.8,-4.407,-7.553,1.633,-1.669,7.772,4.695,-4.305,-7.51,4,5.161,4.372,5.087,4.662,1.683,1.967,2.066,1.181,4,4.971,4.32,-60,207.645289888,norm,0,18,18,18,283.976,283.99,284.00821388,284.008,284.01,284.013,down,1,3.00989396392,6.99010603608,001,009,1920_1080,Intel(R) Core(TM) i5-3570 CPU @ 3.40GHz,orientation_search,LEPPC096,Intel(R) HD Graphics 2500,2018_Oct_24_1105,testMonitor,
105.8,100.2,81.7,87.9,36,20,120.5,102.4,92.5,106.0,8.365,8.392,8.007,8.089,7.667,8.43,8.156,4.419,-4.987,-8.185,1.486,-1.446,8.211,4.491,-5.033,-7.564,106.1,96.4,-7.679,89.5,118.4,107.2,97.6,114.9,36,110.2,1,5,prime,10,0,97,norm,36,-4.966,down,norm,100.470854389,98.8,100.2,113.5,120.1,0,96.3,110.9,87.1,10,5,8.065,4.81,1.469,-1.802,-4.849,-8.135,101.8,5,197.5,-7.513,-7.839,20,-8.187,-7.665,-4.614,-4.64,-5.136,-4.594,5.139,7.542,6,-1.865,1.905,5.206,7.992,-7.605,-7.871,-1.998,1.108,90.6,80.5,103.4,97.4,91.9,90.7,112.6,,85.1,84.2,4,norm,1.98,1.283,-1.254,-1.207,-4.611,-4.646,-1.796,-1.193,-2.018,-2.095,1.452,-1.933,94.5,93.6,-5.037,-8.034,1.657,-1.394,7.548,4.835,-4.801,-7.622,4,4.963,4.638,4.465,5.173,1.414,1.314,2.026,1.812,4,4.735,4.386,-60,207.645289888,norm,0,19,19,19,287.056,287.066,287.075045677,287.075,287.077,287.079,up,0,3.43095943197,-10,001,009,1920_1080,Intel(R) Core(TM) i5-3570 CPU @ 3.40GHz,orientation_search,LEPPC096,Intel(R) HD Graphics 2500,2018_Oct_24_1105,testMonitor,
217.1,210.2,220.4,218.0,36,-30,228.9,225.3,226.6,223.1,8.43,7.858,7.606,8.414,8.273,7.651,8.482,4.356,-4.412,-8.026,1.735,-1.738,8.468,4.69,-4.379,-8.362,213.5,212.9,-7.808,221.6,221.4,215.9,220.9,220.1,36,211.9,0,5,probe,5,0,102,norm,36,-4.461,up,norm,218.894632098,217.4,214.5,213.7,218.3,5,218.5,219.8,220.7,10,5,7.888,4.322,1.275,-1.148,-4.347,-7.728,224.3,2,116.9,-8.025,-8.055,20,-7.711,-7.59,-4.414,-5.033,-5.011,-5.126,4.76,8.075,5,-1.148,1.951,4.665,8.438,-8.083,-8.19,-1.448,1.473,228.4,219.6,220.4,221.4,224.4,216.9,208.9,219.0,,216.0,0,norm,1.492,1.992,-1.219,-1.271,-5.186,-4.422,-2.043,-1.821,-1.422,-1.555,1.392,-2.074,224.6,218.9,-4.571,-7.848,1.369,-1.568,8.384,5.254,-4.327,-8.176,5,4.975,4.33,5.079,4.975,1.896,1.933,1.954,1.839,5,4.348,5.153,20,100.470854389,norm,0,20,20,20,291.576,291.586,291.59886795,291.599,291.601,291.603,up,1,1.34703067889,8.65296932111,001,009,1920_1080,Intel(R) Core(TM) i5-3570 CPU @ 3.40GHz,orientation_search,LEPPC096,Intel(R) HD Graphics 2500,2018_Oct_24_1105,testMonitor,
218.6,213.0,221.0,213.9,36,-30,211.5,,226.2,227.2,8.319,7.965,7.71,8.408,7.88,8.157,8.441,4.535,-4.942,-8.444,1.47,-1.837,7.87,4.54,-4.634,-8.344,221.5,217.7,-8.007,223.0,225.9,226.3,218.4,222.6,36,217.3,4,5,probe,5,0,102,norm,36,-4.463,down,norm,218.894632098,228.9,214.8,214.4,216.3,1,208.9,216.2,225.6,10,5,7.547,4.946,1.318,-1.492,-4.64,-8.373,218.1,2,116.9,-7.963,-8.278,20,-8.127,-7.679,-4.649,-4.597,-4.586,-4.919,4.886,7.735,25,-2.026,1.751,5.046,7.728,-8.388,-8.465,-1.431,1.577,214.7,220.7,220.8,226.0,222.1,210.7,219.4,220.5,226.4,218.5,1,norm,1.482,1.551,-1.193,-1.192,-4.644,-4.48,-2.023,-1.374,-1.894,-1.394,1.482,-1.547,218.1,214.3,-4.68,-8.063,1.978,-1.976,7.766,4.591,-4.756,-8.148,5,4.777,4.947,5.169,4.727,1.581,1.267,1.309,1.8,5,5.156,4.405,20,100.470854389,norm,0,21,21,21,292.988,293.009,293.020505118,293.021,293.023,293.026,down,1,0.874214630015,9.12578536999,001,009,1920_1080,Intel(R) Core(TM) i5-3570 CPU @ 3.40GHz,orientation_search,LEPPC096,Intel(R) HD Graphics 2500,2018_Oct_24_1105,testMonitor,
206.8,178.0,206.1,212.2,36,-20,201.9,183.8,218.0,204.9,8.293,8.109,8.109,8.253,8.455,8.476,7.556,4.621,-5.146,-8.17,2.009,-1.897,8.141,4.315,-5.229,-7.836,186.4,210.4,-7.88,189.6,202.3,214.1,191.2,209.4,36,205.4,0,5,prime,10,0,117,norm,36,-5.237,up,norm,197.991854663,188.9,202.6,183.5,196.7,4,196.5,187.8,193.4,10,5,7.925,5.008,1.376,-1.317,-4.569,-8.274,205.1,5,315.0,-7.881,-7.526,-20,-7.801,-8.268,-4.475,-5.219,-4.836,-4.607,4.818,8.269,4,-1.567,1.735,5.126,8.223,-7.962,-8.495,-1.209,1.874,194.5,181.5,185.1,190.2,192.5,199.2,206.2,197.0,216.3,,0,norm,1.383,2.079,-1.195,-1.749,-4.766,-4.643,-1.717,-1.791,-1.246,-1.982,1.232,-1.553,199.2,191.8,-4.5,-8.253,1.945,-1.494,8.186,5.096,-5.262,-7.824,6,4.921,4.948,4.446,4.401,1.332,1.617,1.353,1.702,6,4.593,4.34,-30,100.470854389,norm,0,22,22,22,293.939,293.949,293.955338011,293.955,293.957,293.96,up,1,0.873768499114,9.12623150089,001,009,1920_1080,Intel(R) Core(TM) i5-3570 CPU @ 3.40GHz,orientation_search,LEPPC096,Intel(R) HD Graphics 2500,2018_Oct_24_1105,testMonitor,
200.3,184.1,202.4,192.6,36,-20,192.5,199.2,187.5,191.0,8.263,7.744,7.985,8.485,8.23,8.49,8.183,4.503,-4.728,-7.953,1.521,-1.569,8.187,4.569,-4.576,-8.444,178.0,218.0,-7.547,207.1,186.0,,196.5,197.1,36,186.2,5,5,prime,10,0,118,norm,36,-5.02,up,norm,197.991854663,207.9,187.7,188.3,199.4,3,190.7,209.9,198.4,10,5,8.375,4.733,1.336,-2.007,-5.3,-8.11,197.7,5,316.0,-8.425,-8.406,-20,-8.318,-7.911,-4.787,-4.728,-4.872,-4.595,4.456,8.358,33,-1.3,1.558,5.061,8.438,-7.526,-8.324,-1.125,1.292,192.1,189.7,188.4,191.3,190.4,190.3,204.9,215.5,190.1,202.4,1,norm,1.934,1.742,-1.576,-2.018,-4.802,-4.619,-1.556,-1.116,-1.603,-1.869,1.205,-1.7,199.6,196.4,-5.292,-7.877,1.355,-1.969,7.797,4.446,-4.407,-7.66,6,4.337,5.086,4.504,4.994,1.743,1.26,1.283,1.395,6,4.878,5.15,-30,100.470854389,norm,0,23,23,23,294.867,294.879,294.898865022,294.899,294.901,294.903,up,1,1.70850869427,8.29149130573,001,009,1920_1080,Intel(R) Core(TM) i5-3570 CPU @ 3.40GHz,orientation_search,LEPPC096,Intel(R) HD Graphics 2500,2018_Oct_24_1105,testMonitor,
200.9,204.4,186.7,201.5,36,-20,204.1,201.8,190.2,194.5,8.426,7.658,7.791,8.205,8.169,7.548,8.208,4.877,-5.001,-7.728,1.733,-1.797,7.991,4.539,-4.661,-7.707,190.4,178.0,-8.066,186.8,198.1,199.4,194.2,199.0,36,189.5,0,5,prime,10,0,70,norm,36,-5.191,up,norm,197.991854663,196.7,203.0,193.3,197.8,5,197.8,190.1,195.6,10,5,7.589,5.263,1.949,-1.443,-4.985,-7.716,201.2,5,268.0,-7.507,-8.238,-20,-7.736,-8.459,-4.369,-4.419,-4.851,-4.922,4.997,7.984,5,-1.232,1.265,4.885,8.223,-7.641,-7.822,-1.558,1.524,188.6,207.5,201.3,205.2,194.3,182.8,191.6,218.0,,192.5,2,norm,1.394,1.172,-1.661,-1.795,-4.678,-5.09,-1.399,-1.531,-1.394,-1.333,1.16,-1.817,203.6,184.2,-4.647,-8.207,1.366,-1.351,7.675,5.254,-5.214,-8.467,6,4.699,4.662,4.703,4.436,1.52,1.615,1.832,1.38,6,5.068,4.708,-30,100.470854389,norm,0,24,24,24,296.644,296.654,296.668535909,296.669,296.67,296.673,up,1,2.51877236126,7.48122763874,001,009,1920_1080,Intel(R) Core(TM) i5-3570 CPU @ 3.40GHz,orientation_search,LEPPC096,Intel(R) HD Graphics 2500,2018_Oct_24_1105,testMonitor,
187.7,207.9,203.6,200.6,36,-20,204.0,178.0,204.4,197.1,7.707,8.346,7.916,7.776,7.958,8.434,7.509,4.837,-4.318,-7.853,1.289,-1.622,7.708,5.135,-5.062,-8.499,216.3,191.7,-8.084,199.3,182.4,199.7,200.5,218.0,36,198.8,1,5,prime,10,0,99,norm,36,-5.272,up,norm,197.991854663,204.7,198.4,188.3,189.2,4,207.8,206.6,195.7,10,5,7.788,4.733,1.682,-1.354,-5.175,-8.471,,5,297.0,-7.879,-8.348,-20,-8.459,-8.404,-4.892,-5.267,-4.574,-5.153,4.674,8.162,10,-2.081,1.177,4.814,8.098,-8.377,-7.858,-1.16,1.839,206.2,189.5,185.5,205.0,202.1,187.1,187.4,196.6,186.8,194.8,3,norm,1.217,1.338,-1.579,-1.217,-4.948,-4.96,-1.525,-1.956,-2.004,-1.589,1.868,-1.421,194.7,188.2,-5.033,-8.082,1.305,-1.54,7.771,5.106,-4.796,-7.917,6,5.016,4.966,4.403,5.222,1.14,1.815,1.257,1.107,6,4.594,5.089,-30,100.470854389,norm,0,25,25,25,299.212,299.222,299.227965948,299.228,299.23,299.233,up,1,2.19560274307,7.80439725693,001,009,1920_1080,Intel(R) Core(TM) i5-3570 CPU @ 3.40GHz,orientation_search,LEPPC096,Intel(R) HD Graphics 2500,2018_Oct_24_1105,testMonitor,
201.4,187.5,196.7,208.2,36,-20,192.6,195.7,189.4,181.9,7.866,8.13,7.569,7.856,8.219,7.967,7.598,4.334,-4.656,-8.185,1.479,-1.67,8.035,4.845,-5.245,-7.966,212.5,183.4,-7.831,193.2,185.5,191.3,198.4,184.0,36,190.8,0,5,prime,10,0,109,norm,36,-4.432,down,norm,197.991854663,184.8,193.9,207.9,200.3,0,190.6,213.0,193.7,10,5,7.535,5.158,1.303,-2.074,-4.986,-8.208,198.0,5,307.0,-7.91,-7.874,-20,-8.489,-7.745,-5.126,-4.935,-4.466,-4.892,5.3,7.685,0,-2.058,1.458,4.921,8.394,-8.449,-8.031,-1.765,1.46,206.0,186.0,201.7,194.3,208.5,,218.0,180.8,203.6,194.1,4,norm,1.188,1.321,-1.293,-1.388,-5.173,-5.095,-1.446,-1.249,-1.331,-1.929,1.451,-1.855,207.8,206.9,-4.729,-7.813,1.455,-1.123,8.237,5.264,-4.752,-8.391,6,4.672,4.808,4.648,4.349,1.344,1.25,1.504,1.789,6,4.391,5.175,-30,100.470854389,norm,0,26,26,26,301.462,301.476,301.494186564,301.494,301.497,301.501,down,1,1.60506941139,8.39493058861,001,009,1920_1080,Intel(R) Core(TM) i5-3570 CPU @ 3.40GHz,orientation_search,LEPPC096,Intel(R) HD Graphics 2500,2018_Oct_24_1105,testMonitor,
237.7,228.2,240.6,231.7,36,30,230.7,241.6,241.9,235.3,8.023,8.126,8.497,8.195,8.037,7.669,8.259,4.403,-4.578,-8.063,1.355,-1.933,8.323,5.166,-4.826,-7.798,241.7,235.3,-7.538,232.9,237.4,242.7,242.8,243.6,36,230.9,3,5,probe,5,0,61,norm,36,-4.492,down,norm,238.157391245,232.3,238.9,241.1,233.4,1,235.4,239.6,228.7,10,5,7.969,4.419,1.115,-1.817,-4.483,-8.399,241.1,2,177.2,-8.16,-7.504,-20,-8.317,-8.321,-4.504,-4.855,-5.205,-5.148,5.165,7.65,19,-1.468,1.815,4.769,8.129,-8.453,-7.635,-1.919,2.006,235.4,231.7,239.4,237.6,248.2,239.9,237.4,239.8,242.8,236.5,0,norm,1.578,1.442,-1.587,-1.159,-5.16,-5.171,-1.799,-1.146,-1.875,-1.321,2.078,-1.908,,239.9,-4.638,-7.985,2.097,-1.456,8.054,4.638,-5.039,-7.57,7,4.807,4.924,4.658,4.842,1.985,1.377,1.833,1.84,7,4.974,5.073,-20,197.991854663,norm,0,27,27,27,303.139,303.153,303.173615855,303.174,303.176,303.178,down,1,4.24527419694,5.75472580306,001,009,1920_1080,Intel(R) Core(TM) i5-3570 CPU @ 3.40GHz,orientation_search,LEPPC096,Intel(R) HD Graphics 2500,2018_Oct_24_1105,testMonitor,
277.9,277.6,279.7,288.0,36,30,279.8,286.6,280.6,287.2,7.636,8.184,8.309,7.723,7.901,7.871,7.639,5.275,-5.01,-8.381,1.13,-1.822,8.367,4.679,-4.524,-8.49,277.2,283.9,-7.721,283.7,280.7,283.8,277.5,284.4,36,290.9,0,5,probe,5,0,107,norm,36,-5.275,up,norm,284.157391245,284.7,281.6,287.4,284.6,3,294.2,287.0,275.6,10,5,7.538,4.585,1.106,-1.624,-4.873,-8.092,279.9,2,177.2,-8.084,-8.124,-20,-7.786,-8.086,-4.506,-4.323,-5.059,-4.907,4.676,7.962,3,-1.327,1.241,5.063,8.219,-8.309,-7.658,-1.201,1.616,284.8,289.5,,288.9,290.6,286.9,274.2,288.2,282.6,278.8,1,norm,1.906,1.674,-1.545,-1.331,-4.526,-4.77,-2.052,-1.804,-1.988,-1.235,1.239,-1.356,282.4,283.1,-4.764,-7.612,1.448,-1.592,7.924,4.461,-4.939,-7.899,7,4.431,4.62,4.828,5.2,2.069,1.483,1.576,1.705,7,4.756,4.952,-20,197.991854663,norm,0,28,28,28,307.464,307.473,307.480038661,307.48,307.482,307.485,up,1,3.3851202365,6.6148797635,001,009,1920_1080,Intel(R) Core(TM) i5-3570 CPU @ 3.40GHz,orientation_search,LEPPC096,Intel(R) HD Graphics 2500,2018_Oct_24_1105,testMonitor,
1.0,22.3,22.9,21.7,36,60,15.8,22.2,32.1,29.2,8.01,7.84,7.638,7.598,7.683,8.062,7.518,4.539,-4.457,-7.934,1.411,-1.659,8.163,4.549,-4.638,-8.444,13.7,17.8,-8.033,29.7,14.6,39.6,16.9,18.3,36,23.7,1,5,prime,10,0,73,norm,36,-4.348,down,norm,19.5927329022,31.5,16.9,-0.4,20.2,0,22.6,31.5,17.2,10,5,8.179,5.041,1.184,-1.421,-4.841,-7.972,11.0,5,92.6,-8.317,-8.27,60,-7.913,-8.336,-5.202,-4.502,-4.478,-5.073,4.839,8.075,6,-1.205,1.892,4.887,8.045,-7.849,-7.919,-2.092,1.163,9.8,27.8,29.4,14.8,22.9,17.5,14.0,,16.8,11.8,0,norm,1.135,1.97,-1.484,-1.857,-4.517,-4.549,-1.85,-1.791,-1.192,-1.822,1.259,-1.206,13.9,13.9,-4.338,-8.024,1.166,-1.883,7.883,4.809,-5.191,-8.409,8,4.499,5.051,4.455,4.669,1.307,2.094,2.056,1.909,8,5.022,4.437,30,197.991854663,norm,0,29,29,29,310.911,310.921,310.927523047,310.928,310.929,310.932,up,0,3.68655138701,-10,001,009,1920_1080,Intel(R) Core(TM) i5-3570 CPU @ 3.40GHz,orientation_search,LEPPC096,Intel(R) HD Graphics 2500,2018_Oct_24_1105,testMonitor,
14.6,7.1,-0.4,25.3,36,60,20.6,3.4,22.5,37.7,8.464,8.106,7.56,7.968,7.885,7.825,8.014,5.18,-4.379,-8.297,1.661,-1.545,7.71,4.509,-4.895,-7.912,39.4,17.8,-7.867,,26.1,8.7,13.6,15.4,36,21.6,5,5,prime,10,0,67,norm,36,-4.914,down,norm,19.5927329022,17.2,25.4,39.6,35.3,1,5.8,24.1,2.5,10,5,7.875,4.88,1.495,-1.712,-4.818,-7.666,25.8,5,86.6,-7.683,-7.649,60,-7.966,-7.662,-5.097,-4.912,-4.664,-4.784,4.605,7.727,31,-1.987,1.619,4.584,7.999,-7.575,-7.606,-1.621,1.435,8.8,18.8,11.8,4.8,3.1,11.6,18.6,27.3,8.6,8.0,1,norm,1.612,1.652,-1.634,-1.317,-5.015,-4.305,-1.405,-1.272,-1.933,-1.3,1.504,-1.241,19.2,8.8,-5.185,-7.541,1.141,-1.831,8.127,4.699,-4.491,-7.537,8,4.71,4.627,5.259,4.741,1.905,1.669,1.661,1.562,8,4.643,4.318,30,197.991854663,norm,0,30,30,30,315.689,315.698,315.715503109,315.716,315.717,315.72,down,1,3.40285258151,6.59714741849,001,009,1920_1080,Intel(R) Core(TM) i5-3570 CPU @ 3.40GHz,orientation_search,LEPPC096,Intel(R) HD Graphics 2500,2018_Oct_24_1105,testMonitor,
13.5,15.1,8.8,12.0,36,60,15.6,17.0,19.3,26.1,8.187,8.258,7.648,7.785,7.841,7.857,8.194,4.736,-4.976,-7.536,1.895,-1.981,7.899,5.148,-5.136,-7.611,26.8,25.8,-7.851,10.6,25.2,24.9,-0.4,22.8,36,11.1,0,5,prime,10,0,78,norm,36,-4.414,down,norm,19.5927329022,24.2,31.2,21.8,15.7,1,4.3,19.1,39.6,10,5,8.144,4.833,1.324,-1.491,-4.469,-8.352,21.3,5,97.6,-8.413,-8.448,60,-7.859,-8.1,-4.995,-5.038,-5.1,-5.069,4.317,7.536,1,-1.321,1.931,4.566,7.785,-8.002,-8.334,-1.511,1.387,14.8,30.6,22.2,12.9,,20.7,15.0,20.1,12.9,33.8,2,norm,1.722,1.553,-1.806,-1.565,-4.804,-4.708,-1.364,-1.416,-2.064,-2.015,1.33,-1.152,27.6,16.5,-5.274,-7.616,1.862,-1.747,7.687,4.541,-5.118,-7.99,8,4.593,4.868,4.979,5.234,1.856,1.312,2.028,1.174,8,5.126,4.364,30,197.991854663,norm,0,31,31,31,319.163,319.173,319.179529353,319.18,319.181,319.184,down,1,1.59015028695,8.40984971305,001,009,1920_1080,Intel(R) Core(TM) i5-3570 CPU @ 3.40GHz,orientation_search,LEPPC096,Intel(R) HD Graphics 2500,2018_Oct_24_1105,testMonitor,
5.9,14.0,26.0,32.2,36,60,12.9,34.3,16.5,20.9,8.203,7.652,7.973,7.519,7.952,8.117,8.15,4.685,-4.621,-8.127,1.408,-1.187,7.637,4.95,-5.178,-7.877,28.3,30.0,-7.607,18.0,-0.4,17.5,21.2,21.3,36,21.2,2,5,prime,10,0,110,norm,36,-4.354,down,norm,19.5927329022,17.0,18.1,21.6,,2,19.5,10.6,29.0,10,5,8.411,4.378,2.029,-1.806,-4.409,-8.365,15.6,5,129.6,-7.505,-8.123,60,-7.829,-8.159,-4.475,-5.035,-4.691,-4.411,4.765,8.407,14,-1.242,1.355,4.365,8.336,-7.825,-8.12,-1.109,1.584,12.0,3.2,37.2,17.5,21.0,39.6,12.2,21.5,39.2,22.7,3,norm,1.894,1.969,-1.266,-1.831,-5.281,-4.997,-1.132,-1.449,-1.52,-1.659,1.236,-1.794,9.9,37.4,-4.51,-8.357,1.153,-1.884,7.733,4.63,-4.821,-8.291,8,4.392,4.733,4.919,4.672,1.544,1.604,1.979,1.479,8,4.466,5.092,30,197.991854663,norm,0,32,32,32,320.818,320.839,320.849652981,320.85,320.852,320.855,down,1,1.74241886862,8.25758113138,001,009,1920_1080,Intel(R) Core(TM) i5-3570 CPU @ 3.40GHz,orientation_search,LEPPC096,Intel(R) HD Graphics 2500,2018_Oct_24_1105,testMonitor,
13.6,23.6,29.7,5.9,36,60,14.4,12.1,17.6,8.8,7.814,7.988,8.175,8.074,7.716,7.542,7.802,4.77,-4.456,-8.064,1.241,-1.703,8.489,4.684,-4.633,-7.811,39.6,38.1,-8.064,19.8,24.9,34.1,17.3,32.0,36,6.8,1,5,prime,10,0,100,norm,36,-4.923,up,norm,19.5927329022,5.1,19.6,9.9,17.3,3,13.7,29.9,25.8,10,5,7.593,4.63,1.582,-1.371,-4.426,-8.316,-0.4,5,119.6,-7.99,-8.457,60,-7.55,-7.708,-4.702,-4.367,-4.665,-4.495,4.705,7.898,9,-1.128,1.178,4.868,7.636,-7.832,-8.416,-1.683,1.389,,20.6,18.8,27.2,16.3,33.7,19.9,5.5,24.2,6.3,4,norm,2.044,1.713,-1.226,-1.169,-4.674,-4.495,-1.38,-1.377,-1.7,-1.598,1.224,-1.491,13.0,35.7,-5.01,-8.26,1.957,-1.42,7.844,4.315,-4.476,-7.81,8,4.584,4.733,5.285,4.682,1.294,1.767,1.224,1.471,8,4.897,5.163,30,197.991854663,norm,0,33,33,33,322.63,322.639,322.657073242,322.657,322.659,322.662,up,1,1.29899644695,8.70100355305,001,009,1920_1080,Intel(R) Core(TM) i5-3570 CPU @ 3.40GHz,orientation_search,LEPPC096,Intel(R) HD Graphics 2500,2018_Oct_24_1105,testMonitor,
145.8,140.2,142.9,142.7,36,-30,149.0,147.5,145.9,145.0,8.149,8.261,7.784,8.109,7.722,7.696,7.996,5.14,-4.806,-8.46,2.09,-1.214,8.445,4.981,-4.911,-8.46,143.0,140.8,-8.064,136.0,147.2,147.2,136.3,144.2,36,139.8,0,5,probe,5,0,62,norm,36,-4.716,down,norm,141.793675476,136.5,140.0,141.4,142.5,0,131.8,140.7,138.6,10,5,8.375,4.721,2.06,-1.753,-5.103,-7.772,145.0,2,79.8,-7.691,-7.688,60,-8.172,-7.909,-4.766,-4.843,-5.251,-4.797,4.417,8.195,0,-1.859,1.92,4.78,8.166,-7.839,-7.769,-1.822,1.345,140.0,137.0,134.4,151.8,142.4,,135.7,141.0,140.6,145.2,0,norm,1.277,1.38,-1.963,-1.427,-4.301,-4.374,-1.38,-1.234,-1.26,-1.291,2.003,-2.074,142.2,140.1,-5.012,-8.307,2.063,-1.453,7.654,4.947,-5.191,-7.785,9,5.063,4.31,4.351,4.771,1.528,1.645,1.836,1.736,9,4.402,4.742,60,19.5927329022,norm,0,34,34,34,324.0,324.02,324.031923715,324.032,324.036,324.042,down,1,1.79334329229,8.20665670771,001,009,1920_1080,Intel(R) Core(TM) i5-3570 CPU @ 3.40GHz,orientation_search,LEPPC096,Intel(R) HD Graphics 2500,2018_Oct_24_1105,testMonitor,
193.3,190.2,197.7,200.1,36,-30,192.5,197.9,200.6,186.8,8.455,7.691,8.161,8.291,8.334,8.171,8.184,4.555,-5.239,-8.051,1.465,-1.515,7.715,4.469,-5.289,-7.56,188.8,190.8,-7.818,195.3,192.2,193.1,200.9,197.2,36,189.5,0,5,probe,5,0,117,norm,36,-5.094,up,norm,196.793675476,198.0,200.1,189.3,204.1,4,197.4,194.8,199.3,10,5,7.772,4.789,1.59,-1.213,-5.246,-7.716,198.9,2,79.8,-8.123,-8.361,60,-8.393,-8.452,-4.81,-4.813,-4.804,-4.508,4.719,7.568,4,-1.837,1.981,4.334,7.701,-8.303,-7.673,-1.466,1.692,189.6,204.5,187.5,194.4,194.8,191.5,206.8,190.7,196.2,,1,norm,1.917,1.567,-1.998,-1.56,-5.178,-5.166,-2.013,-1.476,-2.055,-1.878,1.269,-1.885,194.0,192.1,-5.15,-8.275,1.256,-1.735,7.819,5.212,-4.724,-7.925,9,5.058,5.036,4.59,4.688,1.663,1.976,1.985,1.298,9,4.489,4.761,60,19.5927329022,norm,0,35,35,35,325.856,325.865,325.871759703,325.872,325.874,325.876,up,1,2.24706747413,7.75293252587,001,009,1920_1080,Intel(R) Core(TM) i5-3570 CPU @ 3.40GHz,orientation_search,LEPPC096,Intel(R) HD Graphics 2500,2018_Oct_24_1105,testMonitor,
88.2,84.4,82.2,75.4,36,80,100.4,80.4,71.4,77.8,8.377,8.064,8.392,8.331,7.64,8.401,8.116,4.957,-5.199,-8.239,1.876,-1.835,7.716,5.069,-5.122,-8.412,98.3,86.5,-7.881,85.9,60.4,95.5,77.6,86.6,36,83.0,0,5,prime,10,0,61,norm,36,-4.703,up,norm,80.4113776542,84.3,94.5,72.4,92.5,3,62.6,69.9,88.6,10,6,7.969,5.202,1.782,-2.003,-4.786,-8.099,60.4,6,141.4,-8.475,-8.47,80,-8.253,-7.866,-5.002,-4.514,-5.297,-5.131,5.117,7.84,3,-1.817,1.779,4.478,7.943,-8.326,-8.176,-2.065,1.177,79.8,79.5,,83.7,80.9,61.1,72.5,85.0,86.7,73.8,0,norm,1.754,1.247,-1.372,-1.665,-5.268,-4.735,-1.668,-1.585,-1.884,-1.377,1.764,-1.694,72.4,72.7,-4.464,-8.488,1.12,-2.087,7.864,5.058,-5.183,-7.921,10,4.384,4.765,4.54,4.565,1.706,1.111,1.339,1.169,10,4.465,4.89,-30,19.5927329022,norm,0,36,36,36,328.164,328.176,328.180489832,328.181,328.183,328.186,up,1,2.63615972452,7.36384027548,001,009,1920_1080,Intel(R) Core(TM) i5-3570 CPU @ 3.40GHz,orientation_search,LEPPC096,Intel(R) HD Graphics 2500,2018_Oct_24_1105,testMonitor,
74.6,67.4,86.6,70.7,36,80,68.9,84.7,77.1,63.9,8.097,7.86,7.978,7.908,8.194,8.115,8.273,5.046,-5.017,-7.919,2.015,-1.698,8.005,5.12,-5.218,-7.612,60.4,81.0,-7.749,78.6,83.5,72.7,80.0,100.4,36,81.1,1,5,prime,10,0,118,norm,36,-4.81,down,norm,80.4113776542,95.1,83.0,86.1,76.7,0,88.6,87.8,76.0,10,6,8.238,4.622,1.129,-1.791,-4.844,-7.775,87.1,6,198.4,-7.852,-8.13,80,-8.226,-8.232,-5.054,-5.078,-4.774,-4.698,4.446,7.52,6,-2.013,1.762,5.087,7.651,-7.535,-7.671,-1.789,1.703,91.5,81.1,61.0,88.5,74.0,84.7,62.3,,94.2,86.2,1,norm,1.939,1.533,-1.668,-1.924,-4.887,-4.79,-1.212,-2.061,-1.983,-1.221,1.847,-1.959,74.8,81.0,-4.922,-7.829,1.182,-1.611,8.378,4.76,-5.133,-7.61,10,4.683,4.512,5.12,4.713,1.354,1.485,1.504,2.074,10,5.281,4.45,-30,19.5927329022,norm,0,37,37,37,330.863,330.873,330.879068039,330.879,330.881,330.884,down,1,4.19414210205,5.80585789795,001,009,1920_1080,Intel(R) Core(TM) i5-3570 CPU @ 3.40GHz,orientation_search,LEPPC096,Intel(R) HD Graphics 2500,2018_Oct_24_1105,testMonitor,
73.1,63.9,73.7,64.0,36,80,78.1,75.3,66.1,73.5,7.554,7.632,8.384,8.353,7.859,8.063,8.037,4.804,-4.329,-8.001,1.125,-1.473,7.74,4.426,-4.736,-8.35,100.4,81.4,-7.758,97.4,68.7,90.5,78.9,90.5,36,79.2,1,5,prime,10,0,77,norm,36,-4.492,up,norm,80.4113776542,88.9,72.8,84.9,68.6,5,,89.5,85.8,10,6,8.053,4.728,1.413,-1.818,-4.911,-7.747,80.4,6,157.4,-7.872,-7.825,80,-7.928,-7.775,-5.088,-5.174,-4.918,-4.93,4.796,7.901,11,-1.279,2.079,5.087,8.454,-7.616,-7.662,-1.458,1.523,77.6,84.2,83.8,79.4,82.2,76.2,72.6,96.2,84.3,60.4,2,norm,1.15,1.328,-1.539,-1.46,-5.206,-4.888,-1.454,-1.302,-1.837,-2.1,1.159,-1.101,82.2,83.7,-4.85,-8.386,1.834,-2.033,8.144,5.033,-4.523,-8.042,10,4.834,4.784,4.578,4.56,1.349,1.568,1.612,1.47,10,4.338,5.208,-30,19.5927329022,norm,0,38,38,38,335.11,335.12,335.136669696,335.137,335.139,335.141,up,1,1.97101175425,8.02898824575,001,009,1920_1080,Intel(R) Core(TM) i5-3570 CPU @ 3.40GHz,orientation_search,LEPPC096,Intel(R) HD Graphics 2500,2018_Oct_24_1105,testMonitor,
78.6,78.4,97.8,60.4,36,80,85.0,70.3,72.5,68.9,8.461,7.705,8.118,7.553,8.342,7.946,7.855,4.796,-4.513,-8.335,1.863,-1.418,7.561,4.459,-5.013,-7.626,86.7,72.1,-8.43,85.1,81.4,78.3,78.6,68.2,36,,4,5,prime,10,0,101,norm,36,-4.644,up,norm,80.4113776542,84.4,75.8,97.6,74.5,3,85.8,70.7,66.4,10,6,8.074,4.353,2.012,-1.752,-5.041,-7.659,93.2,6,181.4,-7.957,-7.766,80,-8.11,-7.805,-4.5,-5.126,-4.65,-4.318,5.189,7.675,27,-1.803,1.23,4.38,7.546,-8.265,-7.883,-1.677,1.281,81.0,95.0,84.0,92.3,83.5,77.2,99.2,100.4,66.0,85.4,3,norm,1.937,1.486,-1.735,-1.303,-4.391,-4.743,-1.166,-1.796,-1.744,-1.36,1.159,-1.258,80.7,69.3,-4.488,-8.38,1.402,-1.906,8.491,5.096,-4.385,-7.567,10,4.907,4.978,4.597,5.239,1.614,1.417,1.578,1.615,10,5.277,4.872,-30,19.5927329022,norm,0,39,39,39,337.145,337.154,337.164602984,337.165,337.166,337.169,up,1,2.67187645736,7.32812354264,001,009,1920_1080,Intel(R) Core(TM) i5-3570 CPU @ 3.40GHz,orientation_search,LEPPC096,Intel(R) HD Graphics 2500,2018_Oct_24_1105,testMonitor,
77.1,76.1,76.8,79.7,36,80,73.7,77.1,85.2,71.5,7.709,7.726,7.599,7.809,8.382,7.692,8.438,4.673,-5.054,-7.995,1.68,-1.123,7.794,4.584,-4.439,-7.632,80.0,88.5,-7.997,75.1,83.8,72.8,70.4,90.1,36,75.9,3,5,prime,10,0,66,norm,36,-4.634,down,norm,80.4113776542,98.5,78.1,83.8,80.9,1,78.9,60.4,94.1,10,6,8.076,5.063,1.691,-1.693,-4.944,-8.348,80.1,6,146.4,-8.367,-8.113,80,-8.21,-8.018,-5.02,-5.123,-4.442,-4.615,4.33,8.342,19,-1.305,2.092,5.158,7.743,-8.292,-7.76,-1.242,1.824,75.3,80.1,77.4,79.1,100.4,75.6,81.3,87.2,89.1,91.3,4,norm,1.357,1.276,-1.695,-1.734,-5.227,-4.47,-1.254,-1.781,-1.582,-1.703,1.764,-1.722,,92.8,-4.334,-8.223,1.295,-2.004,7.716,4.8,-4.513,-7.911,10,4.972,4.75,4.516,4.351,1.296,1.704,1.769,1.84,10,5.259,4.953,-30,19.5927329022,norm,0,40,40,40,339.874,339.884,339.894357229,339.895,339.896,339.899,down,1,2.33099471797,7.66900528203,001,009,1920_1080,Intel(R) Core(TM) i5-3570 CPU @ 3.40GHz,orientation_search,LEPPC096,Intel(R) HD Graphics 2500,2018_Oct_24_1105,testMonitor,
78.7,88.6,71.9,92.7,36,80,89.9,85.7,87.6,79.9,7.62,8.466,8.111,7.896,8.101,7.609,8.261,4.985,-4.636,-7.68,1.886,-1.149,7.598,4.434,-4.998,-7.828,77.3,75.4,-8.129,75.8,71.6,88.9,100.4,60.4,36,79.4,1,5,prime,10,0,93,norm,36,-5.253,up,norm,80.4113776542,94.9,81.7,83.0,97.2,4,97.7,89.4,84.1,10,6,8.315,4.637,1.793,-1.902,-4.745,-8.354,,6,173.4,-7.789,-7.548,80,-8.48,-8.096,-5.165,-4.41,-4.453,-4.51,5.192,7.806,10,-1.314,1.893,5.199,7.94,-8.071,-7.916,-1.88,1.658,84.4,73.9,71.8,75.5,82.8,85.0,83.8,96.5,84.7,89.9,5,norm,1.429,2.055,-1.977,-1.332,-4.777,-4.361,-1.973,-1.629,-1.153,-1.801,1.807,-1.537,66.3,79.9,-4.783,-8.003,1.102,-1.886,7.893,4.901,-4.596,-8.255,10,4.733,4.998,5.072,5.298,1.729,1.776,1.199,1.198,10,4.905,5.153,-30,19.5927329022,norm,0,41,41,41,342.266,342.275,342.283358019,342.284,342.285,342.288,up,1,2.48406500713,7.51593499287,001,009,1920_1080,Intel(R) Core(TM) i5-3570 CPU @ 3.40GHz,orientation_search,LEPPC096,Intel(R) HD Graphics 2500,2018_Oct_24_1105,testMonitor,
267.6,267.0,269.6,269.3,36,10,263.5,264.0,256.5,262.9,8.203,7.57,7.796,8.279,8.035,7.788,7.979,4.992,-5.152,-7.823,1.456,-1.459,8.324,4.448,-4.535,-8.338,263.5,264.8,-7.902,263.6,261.3,261.8,271.6,274.1,36,263.0,2,5,probe,5,0,108,norm,36,-4.755,down,norm,264.054664579,261.4,262.9,261.9,258.8,0,255.5,268.7,,10,6,8.47,5.206,1.456,-1.933,-4.907,-7.811,257.0,2,156.1,-8.094,-7.552,80,-8.008,-8.194,-4.839,-4.461,-4.373,-5.266,4.826,7.586,12,-1.585,1.126,4.61,8.241,-7.652,-8.21,-1.964,1.816,266.9,265.9,254.1,261.9,257.7,263.8,257.1,271.5,271.4,265.1,0,norm,1.778,1.919,-1.817,-1.124,-5.051,-4.84,-1.306,-1.17,-1.523,-1.466,1.858,-1.724,259.9,274.0,-4.518,-8.251,1.675,-1.147,8.056,4.335,-5.121,-7.823,11,4.592,4.876,4.83,4.51,1.953,1.487,1.2,1.453,11,4.316,5.019,80,80.4113776542,norm,0,42,42,42,344.805,344.814,344.82386251,344.824,344.826,344.828,down,1,2.5808319466,7.4191680534,001,009,1920_1080,Intel(R) Core(TM) i5-3570 CPU @ 3.40GHz,orientation_search,LEPPC096,Intel(R) HD Graphics 2500,2018_Oct_24_1105,testMonitor,
256.1,252.4,,250.0,36,10,241.1,246.8,249.7,243.9,7.923,8.492,8.384,7.609,8.223,7.9,7.695,4.642,-4.825,-7.755,1.789,-1.805,7.681,4.71,-4.863,-8.497,248.7,254.8,-8.27,245.6,236.1,246.5,245.5,255.1,36,242.3,3,5,probe,5,0,90,norm,36,-4.371,down,norm,246.054664579,242.6,247.8,246.9,253.0,2,238.9,245.3,239.6,10,6,8.296,5.239,2.064,-1.907,-4.484,-8.031,246.2,2,156.1,-8.219,-7.689,80,-8.024,-7.795,-4.58,-5.057,-4.924,-4.735,5.034,8.273,20,-1.122,1.894,4.717,7.944,-8.452,-7.878,-2.063,1.352,254.7,243.8,253.7,253.6,246.7,248.8,250.1,242.6,247.6,245.4,1,norm,1.402,1.48,-1.587,-1.188,-4.968,-5.236,-1.571,-1.305,-1.213,-1.838,1.151,-2.077,247.3,243.2,-4.805,-7.552,1.195,-1.616,7.945,5.024,-4.865,-7.839,11,4.458,4.895,4.722,5.221,1.31,1.321,1.103,1.699,11,4.579,5.174,80,80.4113776542,norm,0,43,43,43,347.442,347.452,347.460061172,347.46,347.462,347.465,down,1,1.89201036304,8.10798963696,001,009,1920_1080,Intel(R) Core(TM) i5-3570 CPU @ 3.40GHz,orientation_search,LEPPC096,Intel(R) HD Graphics 2500,2018_Oct_24_1105,testMonitor,
142.1,150.3,142.1,136.4,36,0,156.6,169.4,129.4,136.6,8.448,8.108,8.084,7.757,7.574,8.229,8.21,4.478,-5.221,-8.298,1.602,-1.138,8.156,5.101,-5.289,-7.74,143.3,151.2,-8.429,146.9,156.3,151.4,147.7,144.3,36,150.5,2,5,prime,10,0,75,norm,36,-4.69,down,norm,149.380747291,147.3,135.8,139.1,,2,150.7,163.9,154.6,10,6,7.51,4.627,1.583,-1.619,-5.075,-8.285,139.9,6,224.4,-8.092,-8.046,0,-7.983,-8.209,-5.216,-4.686,-4.412,-4.873,4.341,7.5,14,-1.622,1.448,5.27,8.322,-8.477,-7.544,-1.908,2.061,132.8,150.9,166.0,154.1,153.7,154.6,145.9,143.8,151.1,160.4,0,norm,1.439,2.049,-1.867,-1.244,-4.901,-4.646,-2.034,-1.769,-2.08,-1.307,1.662,-1.317,156.9,153.8,-4.45,-7.675,1.719,-1.43,8.241,4.709,-4.424,-7.574,12,4.868,4.757,5.155,4.685,1.241,1.11,1.287,1.636,12,4.418,4.939,10,80.4113776542,norm,0,44,44,44,349.395,349.404,349.411127133,349.411,349.413,349.416,down,1,1.11187803904,8.88812196096,001,009,1920_1080,Intel(R) Core(TM) i5-3570 CPU @ 3.40GHz,orientation_search,LEPPC096,Intel(R) HD Graphics 2500,2018_Oct_24_1105,testMonitor,
165.7,145.7,169.4,143.9,36,0,161.7,157.5,146.7,150.8,7.571,7.718,7.696,8.154,7.514,8.385,7.864,4.311,-4.401,-7.962,1.275,-1.211,8.439,5.096,-4.571,-7.856,133.3,154.1,-8.277,142.2,163.1,,129.4,165.4,36,161.5,5,5,prime,10,0,63,norm,36,-4.354,up,norm,149.380747291,154.1,152.9,141.9,150.1,3,149.4,155.6,134.5,10,6,7.514,4.462,1.222,-1.159,-4.957,-8.077,142.2,6,212.4,-8.225,-8.477,0,-8.313,-7.864,-4.645,-4.494,-4.734,-4.939,4.389,8.368,33,-1.155,2.02,4.502,8.438,-7.601,-8.046,-1.424,1.328,144.7,151.5,150.0,149.4,165.9,154.0,151.9,139.3,142.4,147.9,1,norm,1.108,1.453,-1.576,-1.606,-4.319,-4.623,-1.671,-1.291,-1.427,-1.375,1.677,-1.24,137.3,145.6,-4.883,-7.749,1.654,-1.317,7.785,4.472,-4.96,-8.476,12,4.876,5.25,5.054,5.104,1.471,1.826,1.632,1.636,12,5.108,4.875,10,80.4113776542,norm,0,45,45,45,350.566,350.575,350.582822934,350.583,350.585,350.587,up,1,1.31397926125,8.68602073875,001,009,1920_1080,Intel(R) Core(TM) i5-3570 CPU @ 3.40GHz,orientation_search,LEPPC096,Intel(R) HD Graphics 2500,2018_Oct_24_1105,testMonitor,
144.7,,137.6,145.1,36,0,162.4,143.2,150.4,151.1,7.734,8.248,7.517,8.194,7.918,8.094,8.19,4.416,-5.07,-8.329,1.373,-1.481,7.779,4.404,-5.298,-8.02,169.4,147.5,-8.122,146.0,129.4,144.3,139.0,158.5,36,157.4,3,5,prime,10,0,89,norm,36,-4.511,up,norm,149.380747291,146.2,165.4,161.8,149.9,5,147.6,139.1,144.5,10,6,8.061,4.369,1.913,-1.511,-4.315,-7.741,153.9,6,238.4,-7.576,-8.467,0,-7.744,-8.377,-4.447,-4.308,-4.459,-4.808,4.705,7.836,23,-1.64,1.252,5.241,7.845,-7.763,-7.767,-1.647,1.341,150.8,162.5,148.4,145.7,166.7,140.5,157.2,148.3,162.7,140.0,2,norm,1.675,2.099,-1.725,-1.119,-4.353,-5.238,-1.672,-1.743,-1.366,-1.908,1.359,-1.117,150.9,142.7,-4.543,-7.925,1.441,-1.186,7.925,4.468,-5.095,-8.301,12,4.493,4.404,4.848,5.183,1.491,1.874,1.128,1.451,12,4.571,4.867,10,80.4113776542,norm,0,46,46,46,351.934,351.944,351.95268326,351.953,351.955,351.957,up,1,1.92322896144,8.07677103856,001,009,1920_1080,Intel(R) Core(TM) i5-3570 CPU @ 3.40GHz,orientation_search,LEPPC096,Intel(R) HD Graphics 2500,2018_Oct_24_1105,testMonitor,
146.8,165.0,146.0,158.7,36,0,169.4,160.0,160.6,142.8,8.141,7.544,8.362,7.525,8.177,7.728,7.884,5.212,-4.323,-8.407,1.127,-1.119,7.686,4.573,-5.201,-8.04,157.6,130.4,-7.996,136.6,161.6,148.0,152.5,132.5,36,149.9,0,5,prime,10,0,66,norm,36,-5.152,up,norm,149.380747291,158.6,138.8,139.8,143.4,4,159.3,131.8,161.8,10,6,7.682,4.748,1.794,-1.104,-4.472,-8.401,143.3,6,215.4,-8.466,-7.537,0,-7.616,-7.882,-5.072,-4.525,-5.077,-4.343,5.132,8.051,4,-1.1,1.584,4.874,7.838,-7.595,-8.082,-1.505,1.403,160.8,154.4,129.4,150.1,161.9,151.7,147.9,160.1,153.4,,3,norm,1.487,1.966,-1.405,-1.794,-4.359,-4.484,-1.847,-1.512,-1.825,-1.167,1.745,-1.744,140.0,157.8,-4.9,-8.458,1.87,-1.946,8.243,4.724,-4.881,-7.587,12,4.635,5.037,4.865,4.467,1.357,1.325,1.935,1.252,12,4.768,4.352,10,80.4113776542,norm,0,47,47,47,353.913,353.923,353.933866376,353.934,353.936,353.938,up,1,1.29793877261,8.70206122739,001,009,1920_1080,Intel(R) Core(TM) i5-3570 CPU @ 3.40GHz,orientation_search,LEPPC096,Intel(R) HD Graphics 2500,2018_Oct_24_1105,testMonitor,
136.6,154.4,149.2,143.0,36,0,167.8,149.5,154.0,148.3,7.774,7.728,8.491,8.338,7.864,8.279,8.039,4.998,-4.946,-7.997,1.225,-1.491,7.715,4.371,-5.095,-8.275,164.9,135.7,-7.607,157.7,154.2,151.9,,139.0,36,159.3,5,5,prime,10,0,78,norm,36,-4.88,down,norm,149.380747291,145.4,149.5,148.6,141.0,2,143.6,138.8,163.1,10,6,8.374,4.364,1.198,-1.946,-4.805,-8.4,141.9,6,227.4,-8.161,-8.202,0,-8.481,-8.184,-5.291,-4.674,-4.521,-4.782,4.674,7.566,32,-1.16,1.893,5.08,7.604,-8.233,-7.963,-2.061,1.222,142.6,142.8,169.4,145.9,153.4,141.3,131.9,134.6,129.4,151.5,4,norm,1.732,1.195,-1.516,-1.482,-4.801,-4.823,-1.838,-1.234,-1.661,-1.368,1.968,-1.164,143.8,164.6,-5.061,-7.777,2.04,-1.564,7.597,4.698,-4.429,-8.148,12,4.328,5.286,5.154,4.437,1.274,1.345,1.933,1.162,12,5.268,5.023,10,80.4113776542,norm,0,48,48,48,355.276,355.285,355.292034632,355.292,355.294,355.296,down,1,1.11307999658,8.88692000342,001,009,1920_1080,Intel(R) Core(TM) i5-3570 CPU @ 3.40GHz,orientation_search,LEPPC096,Intel(R) HD Graphics 2500,2018_Oct_24_1105,testMonitor,
147.8,129.8,139.2,149.1,36,0,151.2,166.0,159.1,156.7,8.15,8.456,7.827,7.571,8.065,7.556,8.464,4.56,-4.412,-8.32,1.12,-1.344,7.789,4.311,-4.396,-8.28,146.9,159.1,-7.793,143.7,146.2,152.5,163.4,131.8,36,169.4,1,5,prime,10,0,78,norm,36,-4.953,up,norm,149.380747291,143.9,153.8,129.4,133.2,5,,157.4,158.0,10,6,7.902,5.139,1.108,-1.802,-4.662,-8.245,159.9,6,227.4,-7.542,-7.674,0,-7.519,-7.782,-4.933,-4.444,-4.33,-4.65,4.985,8.302,11,-1.965,1.865,4.558,8.483,-8.409,-7.973,-1.334,1.365,148.4,147.2,150.2,168.8,160.2,151.2,153.2,152.7,152.7,147.8,5,norm,1.456,2.073,-1.857,-1.112,-5.071,-4.9,-1.333,-1.505,-1.826,-1.735,1.683,-1.384,141.4,138.0,-4.842,-7.994,1.615,-1.794,8.025,4.466,-5.046,-8.17,12,4.415,5.185,4.751,4.574,2.046,1.274,1.738,1.548,12,4.901,4.351,10,80.4113776542,norm,0,49,49,49,356.446,356.456,356.461946211,356.462,356.464,356.466,up,1,2.55520477499,7.44479522501,001,009,1920_1080,Intel(R) Core(TM) i5-3570 CPU @ 3.40GHz,orientation_search,LEPPC096,Intel(R) HD Graphics 2500,2018_Oct_24_1105,testMonitor,
231.9,222.6,225.5,226.0,36,20,220.6,211.9,228.8,223.3,7.945,7.768,8.409,7.74,8.319,7.852,7.669,4.997,-5.185,-8.426,1.435,-1.496,8.385,4.311,-4.615,-7.805,221.0,226.0,-8.394,214.3,220.7,225.1,225.3,214.2,36,222.0,3,5,probe,5,0,73,norm,36,-5.215,down,norm,221.898333175,217.4,222.6,217.5,227.9,1,219.3,223.5,220.9,10,6,8.076,4.931,1.506,-1.319,-5.198,-7.783,221.3,1,148.9,-7.719,-7.775,0,-7.949,-7.851,-4.618,-5.003,-4.828,-4.719,4.315,8.405,19,-1.877,2.009,5.114,7.527,-8.08,-7.764,-1.361,1.821,220.6,223.6,225.4,220.4,223.1,216.2,216.0,230.3,229.7,217.0,0,norm,1.587,1.4,-1.512,-2.073,-4.805,-5.18,-2.048,-1.406,-1.71,-1.443,1.535,-1.929,,214.0,-4.83,-7.976,1.521,-1.766,8.446,5.047,-4.729,-8.008,13,4.685,4.449,4.846,4.931,1.648,1.707,1.755,1.873,13,4.711,5.18,0,149.380747291,norm,0,50,50,50,359.054,359.063,359.081658557,359.082,359.084,359.086,down,1,1.12755027349,8.87244972651,001,009,1920_1080,Intel(R) Core(TM) i5-3570 CPU @ 3.40GHz,orientation_search,LEPPC096,Intel(R) HD Graphics 2500,2018_Oct_24_1105,testMonitor,
121.9,136.3,123.1,123.0,36,-10,130.4,130.4,128.0,138.5,7.878,8.2,8.367,8.284,8.436,8.364,7.889,4.356,-5.09,-8.294,1.394,-1.146,8.461,5.082,-5.021,-7.996,109.2,110.4,-7.854,98.5,120.9,126.7,,107.8,36,114.7,5,5,prime,10,0,75,norm,36,-5.114,down,norm,118.523960556,103.9,132.1,117.9,114.7,2,107.4,112.0,126.4,10,5,7.585,5.027,1.802,-1.463,-5.28,-7.875,124.9,5,193.5,-7.799,-8.265,-10,-8.367,-8.002,-5.05,-4.34,-4.862,-5.127,4.35,7.907,32,-1.461,1.478,5.165,8.203,-8.19,-7.551,-2.043,1.641,130.3,118.7,131.7,118.6,133.9,112.9,109.4,124.8,118.4,115.9,0,norm,1.114,1.214,-1.594,-1.598,-4.447,-4.953,-1.988,-1.237,-1.705,-1.262,1.713,-1.153,124.0,132.1,-4.839,-8.167,1.143,-1.235,7.963,4.712,-4.383,-7.557,14,4.646,4.549,4.706,4.656,1.195,1.282,1.78,1.436,14,4.386,4.715,20,149.380747291,norm,0,51,51,51,360.252,360.261,360.268254768,360.268,360.27,360.273,up,0,1.16045197467,-10,001,009,1920_1080,Intel(R) Core(TM) i5-3570 CPU @ 3.40GHz,orientation_search,LEPPC096,Intel(R) HD Graphics 2500,2018_Oct_24_1105,testMonitor,
120.7,123.0,127.7,123.9,36,-10,127.0,123.9,119.0,102.6,8.466,8.016,7.861,8.375,7.834,8.321,7.53,5.096,-5.214,-7.509,1.236,-1.386,8.111,5.108,-4.438,-8.182,120.6,134.1,-7.93,119.3,118.3,138.5,113.0,117.6,36,126.2,1,5,prime,10,0,93,norm,36,-5.201,down,norm,118.523960556,117.6,128.8,110.8,129.5,0,114.2,104.9,129.7,10,5,7.591,4.376,2.028,-1.152,-5.061,-8.427,112.5,5,211.5,-8.05,-8.005,-10,-7.667,-8.481,-5.078,-4.78,-4.392,-5.259,5.242,7.603,6,-1.512,2.001,4.393,7.623,-8.133,-7.588,-1.467,1.263,133.2,125.8,127.6,126.6,107.2,128.0,98.5,,113.7,125.2,1,norm,1.793,1.208,-1.813,-1.401,-4.898,-4.571,-2.041,-1.174,-1.943,-1.242,1.525,-1.532,107.5,123.1,-4.426,-7.96,1.55,-1.515,8.109,4.606,-4.383,-7.727,14,5.035,5.229,5.171,5.163,1.785,1.803,1.825,2.064,14,5.112,5.062,20,149.380747291,norm,0,52,52,52,362.487,362.497,362.513686228,362.514,362.516,362.518,down,1,2.14453735652,7.85546264348,001,009,1920_1080,Intel(R) Core(TM) i5-3570 CPU @ 3.40GHz,orientation_search,LEPPC096,Intel(R) HD Graphics 2500,2018_Oct_24_1105,testMonitor,
126.3,113.5,112.9,116.1,36,-10,125.2,98.5,121.7,115.0,7.808,8.4,7.705,8.43,8.324,7.544,7.602,4.935,-4.915,-8.194,1.618,-1.462,8.109,4.824,-4.992,-8.036,138.5,128.1,-8.403,119.2,131.5,125.3,114.6,129.5,36,118.1,0,5,prime,10,0,113,norm,36,-4.531,up,norm,118.523960556,136.3,130.7,104.8,126.6,4,134.2,108.9,105.8,10,5,8.374,5.144,1.405,-1.124,-5.161,-7.717,124.4,5,231.5,-8.053,-8.082,-10,-8.358,-7.54,-4.417,-5.126,-4.407,-4.591,5.095,8.302,4,-1.235,1.325,5.098,8.356,-7.514,-8.427,-1.239,1.132,109.4,111.5,107.6,118.0,135.0,109.9,112.5,121.3,134.0,,2,norm,1.865,1.535,-1.203,-1.21,-5.239,-4.524,-1.863,-1.921,-1.821,-1.831,2.024,-1.892,104.7,116.3,-4.304,-7.892,1.371,-1.744,8.266,5.002,-4.419,-8.006,14,5.094,5.09,4.811,4.383,1.593,2.018,1.729,1.964,14,5.288,4.776,20,149.380747291,norm,0,53,53,53,364.698,364.707,364.715449984,364.716,364.717,364.72,up,1,1.46722643317,8.53277356683,001,009,1920_1080,Intel(R) Core(TM) i5-3570 CPU @ 3.40GHz,orientation_search,LEPPC096,Intel(R) HD Graphics 2500,2018_Oct_24_1105,testMonitor,
121.5,107.7,138.5,111.8,36,-10,,134.0,115.2,116.0,8.217,8.389,8.163,7.847,8.257,7.639,7.57,4.524,-4.78,-7.612,1.591,-1.964,7.561,5.236,-4.701,-8.278,104.3,128.5,-8.239,118.3,125.9,107.9,129.7,119.1,36,119.9,4,5,prime,10,0,103,norm,36,-5.299,down,norm,118.523960556,127.0,119.5,99.9,121.4,0,117.3,109.3,124.1,10,5,8.06,4.974,2.065,-1.202,-4.303,-7.501,133.7,5,221.5,-8.217,-7.553,-10,-8.393,-8.084,-4.594,-4.934,-4.984,-4.595,4.409,7.882,24,-1.22,1.459,4.72,7.854,-8.279,-8.421,-2.026,2.074,98.5,130.9,113.1,130.6,121.5,127.1,112.9,116.7,110.9,111.4,3,norm,1.871,1.902,-1.349,-1.44,-4.732,-4.617,-1.609,-1.101,-1.177,-1.73,1.376,-1.29,113.3,130.7,-4.812,-7.978,1.97,-1.675,8.354,4.436,-5.159,-8.0,14,4.394,4.687,4.779,4.438,1.985,2.001,1.104,1.355,14,4.554,4.368,20,149.380747291,norm,0,54,54,54,366.227,366.236,366.242707284,366.243,366.245,366.247,down,1,1.57200199582,8.42799800418,001,009,1920_1080,Intel(R) Core(TM) i5-3570 CPU @ 3.40GHz,orientation_search,LEPPC096,Intel(R) HD Graphics 2500,2018_Oct_24_1105,testMonitor,
121.4,119.7,117.1,107.2,36,-10,128.1,117.2,,123.1,8.219,8.234,7.913,8.099,7.506,8.286,8.453,4.791,-4.83,-7.854,1.114,-1.492,7.935,4.588,-4.855,-7.731,106.2,98.6,-7.601,117.9,121.1,107.9,121.0,117.3,36,99.9,4,5,prime,10,0,66,norm,36,-4.396,up,norm,118.523960556,138.5,126.0,107.2,116.8,4,123.8,129.2,117.9,10,5,7.86,4.427,1.859,-1.727,-4.48,-8.24,115.4,5,184.5,-7.635,-8.025,-10,-7.683,-8.04,-5.153,-4.911,-4.407,-4.695,4.933,8.187,28,-1.242,1.242,4.746,8.456,-7.855,-8.452,-1.273,1.641,117.3,118.5,98.5,113.0,107.2,112.5,104.0,116.0,110.0,118.4,4,norm,2.067,1.672,-1.448,-1.147,-4.923,-5.125,-1.95,-1.694,-1.364,-1.123,1.391,-2.075,121.3,120.9,-4.475,-7.639,1.463,-1.519,8.227,5.06,-4.971,-7.757,14,4.934,4.534,4.446,4.884,1.313,1.599,2.066,1.315,14,4.953,4.925,20,149.380747291,norm,0,55,55,55,367.852,367.867,367.885028626,367.885,367.888,367.892,up,1,1.64601475009,8.35398524991,001,009,1920_1080,Intel(R) Core(TM) i5-3570 CPU @ 3.40GHz,orientation_search,LEPPC096,Intel(R) HD Graphics 2500,2018_Oct_24_1105,testMonitor,
168.6,177.9,178.8,172.9,36,40,173.0,186.8,181.3,178.9,7.642,8.09,7.809,8.007,8.049,8.146,7.514,4.816,-4.587,-7.662,1.506,-1.222,7.806,4.995,-5.099,-7.891,176.5,168.5,-8.252,175.4,173.0,173.4,177.6,173.7,36,169.3,0,5,probe,5,0,72,norm,36,-4.853,up,norm,177.295300866,177.0,172.4,178.9,173.1,5,182.1,167.3,172.2,10,5,7.898,4.426,1.209,-1.311,-4.628,-7.709,174.8,2,105.3,-7.716,-8.457,-10,-7.961,-8.095,-4.481,-5.254,-5.147,-4.588,4.626,7.713,5,-1.764,1.216,4.854,7.516,-8.147,-8.171,-2.029,1.451,183.8,177.9,185.5,178.4,175.8,179.8,174.7,178.4,,187.3,0,norm,1.933,1.908,-1.699,-2.067,-4.752,-5.221,-1.872,-1.516,-1.156,-1.368,1.967,-1.759,177.1,177.4,-5.188,-8.069,1.895,-1.125,8.458,4.867,-4.437,-7.617,15,4.724,5.128,4.674,4.643,1.701,1.143,1.478,1.772,15,5.259,4.946,-10,118.523960556,norm,0,56,56,56,369.57,369.58,369.595696135,369.596,369.598,369.6,up,1,1.72186877533,8.27813122467,001,009,1920_1080,Intel(R) Core(TM) i5-3570 CPU @ 3.40GHz,orientation_search,LEPPC096,Intel(R) HD Graphics 2500,2018_Oct_24_1105,testMonitor,
208.1,199.5,208.2,195.4,36,40,201.0,202.4,203.7,203.7,8.088,7.77,8.345,7.56,7.806,8.382,7.827,5.12,-4.921,-8.369,1.611,-1.998,8.42,4.806,-4.476,-7.778,205.1,191.3,-8.088,197.9,198.3,192.6,200.5,198.7,36,202.1,2,5,probe,5,0,96,norm,36,-4.866,down,norm,201.295300866,211.3,207.3,208.1,,2,197.0,202.6,195.1,10,5,8.07,5.201,1.628,-1.954,-4.379,-8.325,198.8,2,105.3,-8.007,-8.434,-10,-8.307,-7.727,-4.515,-4.772,-4.839,-4.899,5.216,7.899,14,-1.583,1.918,4.985,7.809,-7.519,-8.327,-1.74,1.424,200.6,194.9,194.6,202.6,198.2,199.3,202.3,199.3,197.9,201.3,1,norm,1.638,1.346,-1.165,-1.489,-5.207,-4.691,-1.372,-1.272,-1.569,-1.604,1.81,-1.659,204.4,206.9,-4.673,-7.669,1.607,-1.405,7.545,4.984,-5.105,-7.901,15,5.104,5.171,4.613,4.937,1.372,2.006,1.885,1.513,15,4.527,4.734,-10,118.523960556,norm,0,57,57,57,371.355,371.365,371.37398598,371.374,371.376,371.378,down,1,1.21388777121,8.78611222879,001,009,1920_1080,Intel(R) Core(TM) i5-3570 CPU @ 3.40GHz,orientation_search,LEPPC096,Intel(R) HD Graphics 2500,2018_Oct_24_1105,testMonitor,
126.0,136.4,129.4,118.1,36,-10,118.2,126.7,133.1,130.5,7.807,8.379,8.283,7.513,8.209,7.781,7.594,5.063,-4.673,-8.39,1.884,-1.986,7.991,5.241,-4.595,-7.655,130.5,118.5,-7.687,122.2,120.9,127.4,147.1,107.1,36,113.0,2,5,prime,10,0,90,norm,36,-5.035,down,norm,127.054009096,144.3,116.6,120.7,,2,113.8,140.5,121.7,10,6,7.781,4.461,1.371,-1.455,-4.64,-8.04,122.1,6,217.1,-7.808,-7.638,-10,-8.485,-8.498,-5.244,-5.219,-4.744,-4.851,5.261,7.685,14,-1.874,1.996,4.948,8.07,-8.307,-7.623,-1.14,1.271,127.9,116.2,132.4,130.4,141.2,119.0,133.0,115.1,128.0,122.5,0,norm,1.385,1.527,-2.074,-1.118,-5.044,-4.527,-1.113,-1.256,-1.607,-1.629,1.296,-1.89,109.1,119.6,-4.732,-8.447,1.968,-2.097,8.15,4.901,-4.88,-8.499,16,5.252,4.904,4.31,4.836,1.77,1.644,1.433,1.343,16,5.129,4.837,40,118.523960556,norm,0,58,58,58,372.623,372.633,372.638530436,372.639,372.641,372.643,down,1,1.9600975451,8.0399024549,001,009,1920_1080,Intel(R) Core(TM) i5-3570 CPU @ 3.40GHz,orientation_search,LEPPC096,Intel(R) HD Graphics 2500,2018_Oct_24_1105,testMonitor,
136.5,120.4,119.5,127.3,36,-10,144.3,117.3,130.2,125.6,8.49,8.096,7.784,7.862,8.074,8.009,8.421,5.256,-4.742,-7.967,1.167,-1.428,7.914,5.231,-4.819,-7.513,118.3,124.5,-7.705,135.2,141.9,137.0,128.9,143.4,36,125.0,2,5,prime,10,0,81,norm,36,-4.579,down,norm,127.054009096,141.9,126.2,130.9,,2,112.5,125.5,113.0,10,6,8.236,5.228,1.464,-2.001,-4.767,-7.994,132.0,6,208.1,-7.648,-7.595,-10,-7.971,-7.514,-4.621,-5.157,-4.796,-4.949,4.394,7.793,14,-1.602,1.618,5.029,8.41,-8.27,-7.654,-2.018,1.244,113.7,134.8,124.4,147.1,138.1,121.6,112.4,135.2,127.3,137.6,1,norm,1.335,1.83,-1.32,-1.792,-5.244,-4.988,-1.531,-1.962,-1.296,-1.445,1.214,-1.252,118.6,135.8,-5.245,-8.276,1.334,-1.881,7.687,4.71,-4.642,-8.064,16,4.469,4.818,4.759,5.012,1.694,2.026,1.836,1.497,16,4.372,4.352,40,118.523960556,norm,0,59,59,59,374.62,374.63,374.636309743,374.636,374.638,374.641,down,1,0.961384020002,9.03861598,001,009,1920_1080,Intel(R) Core(TM) i5-3570 CPU @ 3.40GHz,orientation_search,LEPPC096,Intel(R) HD Graphics 2500,2018_Oct_24_1105,testMonitor,
130.0,131.0,142.8,128.7,36,-10,124.1,123.4,127.1,136.0,7.684,8.276,7.706,8.242,8.009,8.296,7.749,4.492,-4.516,-8.413,1.439,-1.58,8.234,4.429,-5.171,-8.318,122.7,128.6,-8.206,130.7,,122.3,138.9,144.0,36,115.7,5,5,prime,10,0,81,norm,36,-5.058,down,norm,127.054009096,118.9,130.0,138.4,114.7,0,130.0,107.1,132.2,10,6,8.43,5.217,1.553,-1.512,-5.209,-8.122,131.2,6,208.1,-7.68,-7.669,-10,-8.069,-8.348,-5.117,-4.808,-5.039,-4.354,4.572,8.071,30,-1.482,2.004,5.048,7.849,-7.982,-7.68,-1.603,1.455,126.6,114.0,117.5,117.8,124.2,130.1,147.1,132.8,137.9,114.8,2,norm,1.984,1.446,-1.883,-1.111,-4.706,-4.489,-1.362,-1.846,-1.996,-1.396,1.744,-1.955,111.6,107.9,-5.188,-8.087,1.655,-1.27,8.336,4.739,-4.831,-7.546,16,5.141,4.661,4.467,4.906,1.25,1.435,2.057,1.948,16,4.924,4.502,40,118.523960556,norm,0,60,60,60,375.635,375.648,375.66804269,375.668,375.671,375.674,down,1,2.1814629894,7.8185370106,001,009,1920_1080,Intel(R) Core(TM) i5-3570 CPU @ 3.40GHz,orientation_search,LEPPC096,Intel(R) HD Graphics 2500,2018_Oct_24_1105,testMonitor,
129.6,,127.1,132.0,36,-10,147.1,123.3,133.3,114.8,7.775,8.295,8.091,7.518,8.017,7.966,7.817,4.968,-5.283,-8.279,1.825,-2.089,7.541,4.873,-4.392,-8.075,121.5,136.2,-7.841,146.3,132.8,118.4,131.1,127.9,36,115.5,3,5,prime,10,0,80,norm,36,-5.089,up,norm,127.054009096,122.1,126.7,107.1,144.7,5,128.0,136.5,132.8,10,6,8.484,4.648,1.515,-2.06,-4.899,-7.747,120.8,6,207.1,-7.824,-8.467,-10,-8.393,-8.067,-4.893,-5.225,-5.179,-4.848,4.965,8.479,23,-1.662,1.746,5.178,8.235,-7.756,-7.567,-1.945,2.05,132.6,137.6,133.0,119.0,113.1,133.8,125.7,122.0,145.0,126.2,3,norm,1.445,1.66,-1.762,-1.46,-4.666,-4.974,-2.037,-1.388,-2.018,-1.442,1.477,-1.546,134.9,131.4,-5.158,-7.506,1.831,-1.591,7.665,4.998,-5.274,-8.334,16,5.044,5.058,4.896,5.259,1.594,1.155,1.836,2.017,16,4.444,4.801,40,118.523960556,norm,0,61,61,61,377.895,377.905,377.911056047,377.911,377.913,377.916,up,1,1.63699463526,8.36300536474,001,009,1920_1080,Intel(R) Core(TM) i5-3570 CPU @ 3.40GHz,orientation_search,LEPPC096,Intel(R) HD Graphics 2500,2018_Oct_24_1105,testMonitor,
130.3,107.6,121.8,107.1,36,-10,134.7,,122.3,124.8,7.942,7.8,7.726,8.385,7.821,8.442,8.283,4.333,-4.526,-7.705,1.918,-1.316,8.127,4.891,-4.51,-8.447,136.5,122.4,-8.218,126.1,120.4,135.6,116.2,110.9,36,135.1,4,5,prime,10,0,85,norm,36,-4.685,down,norm,127.054009096,139.8,123.5,118.0,120.2,1,123.9,132.7,129.6,10,6,7.513,5.002,2.09,-1.333,-4.573,-8.04,125.4,6,212.1,-8.229,-7.752,-10,-7.625,-8.382,-5.078,-4.534,-5.095,-4.676,4.475,8.192,25,-1.14,1.623,4.584,8.027,-7.708,-7.888,-1.991,1.4,124.1,131.1,125.5,143.3,119.7,109.3,126.7,137.6,119.2,140.5,4,norm,1.417,2.0,-1.218,-1.382,-5.283,-4.885,-1.529,-2.046,-2.068,-1.646,1.871,-1.426,147.1,140.4,-4.905,-8.28,1.65,-1.566,7.657,5.246,-4.528,-8.438,16,5.216,5.161,4.685,4.423,1.334,1.644,1.979,2.085,16,4.659,4.581,40,118.523960556,norm,0,62,62,62,379.586,379.598,379.617821873,379.618,379.62,379.622,down,1,1.20167833358,8.79832166642,001,009,1920_1080,Intel(R) Core(TM) i5-3570 CPU @ 3.40GHz,orientation_search,LEPPC096,Intel(R) HD Graphics 2500,2018_Oct_24_1105,testMonitor,
139.8,140.2,127.5,,36,-10,123.0,127.4,121.1,110.9,8.097,7.51,7.709,8.386,8.203,7.927,7.603,4.991,-4.82,-8.166,1.467,-1.282,7.513,4.389,-4.565,-7.549,130.2,147.1,-8.262,115.9,121.1,108.8,127.1,136.6,36,124.6,3,5,prime,10,0,115,norm,36,-5.132,up,norm,127.054009096,119.1,143.4,143.6,136.1,3,129.4,117.9,127.0,10,6,7.649,4.745,1.55,-1.36,-5.048,-8.359,145.1,6,242.1,-7.515,-7.668,-10,-7.583,-8.146,-4.69,-4.988,-4.759,-5.139,5.25,8.122,21,-1.892,1.927,5.293,7.501,-8.401,-8.373,-1.729,1.404,124.3,126.7,125.1,126.6,109.0,129.9,138.1,107.1,126.5,125.8,5,norm,1.266,1.312,-1.804,-1.645,-4.529,-5.072,-1.9,-1.415,-1.644,-1.868,1.217,-1.141,130.0,122.4,-4.498,-7.507,1.544,-1.666,7.558,4.538,-5.15,-8.145,16,5.244,4.719,5.098,5.123,2.099,2.09,1.749,1.737,16,4.902,4.955,40,118.523960556,norm,0,63,63,63,380.843,380.853,380.859295807,380.859,380.861,380.864,up,1,1.21772606657,8.78227393343,001,009,1920_1080,Intel(R) Core(TM) i5-3570 CPU @ 3.40GHz,orientation_search,LEPPC096,Intel(R) HD Graphics 2500,2018_Oct_24_1105,testMonitor,
195.9,197.3,189.2,184.1,36,30,188.2,188.3,191.3,190.1,8.286,8.458,8.038,8.485,7.838,7.635,7.744,5.13,-4.65,-7.66,1.168,-1.48,8.169,4.32,-4.571,-8.445,196.2,202.8,-7.56,199.9,200.9,189.9,198.7,203.1,36,193.3,1,5,probe,5,0,73,norm,36,-4.626,up,norm,194.118878329,194.7,190.7,195.9,197.1,4,197.5,194.4,191.0,10,6,7.725,4.49,1.772,-2.03,-5.208,-7.894,,2,121.1,-8.496,-7.795,-10,-7.946,-8.021,-4.734,-4.989,-4.616,-4.788,4.304,8.179,10,-1.894,1.891,5.042,7.837,-8.256,-8.302,-1.53,1.232,190.7,189.4,201.7,196.6,196.8,194.2,192.9,190.2,187.2,196.9,0,norm,1.249,1.311,-1.423,-1.164,-4.692,-4.678,-1.263,-1.241,-1.627,-1.859,1.995,-1.302,194.6,204.1,-4.749,-7.534,1.928,-1.508,8.031,4.337,-4.442,-7.66,17,5.081,4.371,4.472,4.65,1.469,1.83,1.165,1.527,17,5.183,5.123,-10,127.054009096,norm,0,64,64,64,382.122,382.132,382.138485612,382.139,382.14,382.143,up,1,1.80646581922,8.19353418078,001,009,1920_1080,Intel(R) Core(TM) i5-3570 CPU @ 3.40GHz,orientation_search,LEPPC096,Intel(R) HD Graphics 2500,2018_Oct_24_1105,testMonitor,
216.3,234.1,231.7,218.1,36,30,228.0,227.0,218.5,229.5,8.488,7.965,8.46,7.922,7.872,8.011,7.746,4.759,-4.793,-7.79,1.862,-1.649,8.096,4.422,-4.366,-8.393,227.8,225.8,-8.079,220.6,231.4,226.1,224.1,222.4,36,232.3,0,5,probe,5,0,103,norm,36,-5.115,down,norm,224.118878329,228.4,216.0,230.5,228.7,1,227.3,222.7,214.1,10,6,8.103,4.691,1.439,-1.836,-5.276,-8.456,227.0,2,121.1,-8.423,-7.839,-10,-7.941,-8.056,-5.133,-5.019,-4.882,-4.551,4.426,8.021,1,-1.482,1.218,4.701,8.125,-7.55,-7.988,-1.238,1.211,232.4,218.7,225.4,226.7,,221.6,217.8,230.5,218.2,225.0,1,norm,2.0,1.395,-1.706,-1.874,-4.328,-5.171,-1.621,-1.824,-1.135,-1.681,1.367,-2.08,222.0,215.8,-5.105,-7.806,1.23,-1.642,8.311,5.164,-5.228,-8.364,17,5.234,4.397,4.354,5.052,2.093,2.057,1.444,1.792,17,5.227,4.5,-10,127.054009096,norm,0,65,65,65,383.982,383.992,384.009503675,384.01,384.011,384.014,down,1,1.99559543836,8.00440456164,001,009,1920_1080,Intel(R) Core(TM) i5-3570 CPU @ 3.40GHz,orientation_search,LEPPC096,Intel(R) HD Graphics 2500,2018_Oct_24_1105,testMonitor,
-4.6,8.9,-7.8,2.4,36,10,-4.4,-10.0,-5.2,-2.4,7.819,8.083,8.362,7.772,8.091,8.147,8.242,4.367,-4.682,-8.356,1.486,-1.493,8.39,4.611,-4.834,-7.921,7.8,7.4,-8.398,-7.6,13.1,-15.4,-2.3,-2.4,36,3.1,3,5,prime,10,0,62,norm,36,-4.367,down,norm,4.57631504461,24.6,6.5,-2.9,-5.6,0,9.5,-13.1,2.4,10,5,7.591,5.212,1.746,-1.604,-4.347,-7.747,1.3,5,66.6,-8.498,-8.419,10,-7.827,-8.035,-4.794,-5.272,-4.785,-5.066,4.927,8.484,18,-1.513,1.153,5.014,8.015,-7.772,-7.563,-1.122,1.247,7.3,16.3,-5.6,-4.3,-2.0,23.9,4.2,7.9,2.5,17.4,0,norm,1.538,1.677,-1.684,-1.762,-4.785,-4.9,-1.458,-1.963,-1.183,-2.02,1.823,-2.045,0.3,,-4.473,-7.59,2.015,-1.11,7.603,4.537,-4.881,-7.583,18,4.636,5.232,4.376,5.114,1.313,1.952,1.172,2.032,18,4.567,4.828,30,127.054009096,norm,0,66,66,66,386.042,408.057,408.064633139,408.065,408.067,408.069,down,1,3.05751436267,6.94248563733,001,009,1920_1080,Intel(R) Core(TM) i5-3570 CPU @ 3.40GHz,orientation_search,LEPPC096,Intel(R) HD Graphics 2500,2018_Oct_24_1105,testMonitor,
,-5.6,-0.5,9.7,36,10,-1.9,14.8,6.3,7.5,8.159,7.59,8.073,8.028,7.683,7.542,8.183,4.8,-4.681,-7.78,1.437,-1.952,8.068,4.779,-4.471,-7.582,-15.4,13.4,-7.692,-0.2,24.6,13.8,12.0,5.4,36,-8.1,3,5,prime,10,0,105,norm,36,-4.527,up,norm,4.57631504461,15.1,1.0,-2.0,-10.2,4,0.3,-3.2,-6.8,10,5,8.332,4.415,1.996,-1.989,-4.317,-8.338,12.7,5,109.6,-8.401,-7.924,10,-7.782,-7.692,-4.942,-5.21,-5.097,-4.443,4.934,8.316,22,-2.0,1.488,5.207,7.92,-8.082,-8.357,-1.664,1.294,5.2,19.0,19.6,11.4,-2.2,14.0,-2.5,23.3,-1.4,10.6,1,norm,1.84,1.168,-1.127,-1.404,-4.712,-4.647,-1.486,-1.358,-1.414,-1.891,1.529,-1.834,0.9,6.6,-4.913,-7.726,1.493,-2.076,7.772,5.112,-5.144,-7.869,18,4.965,4.73,4.326,5.13,1.177,2.014,1.816,1.764,18,4.644,5.046,30,127.054009096,norm,0,67,67,67,411.169,411.178,411.18442985,411.185,411.186,411.189,up,1,1.16133940691,8.83866059309,001,009,1920_1080,Intel(R) Core(TM) i5-3570 CPU @ 3.40GHz,orientation_search,LEPPC096,Intel(R) HD Graphics 2500,2018_Oct_24_1105,testMonitor,
13.5,24.6,-13.7,12.2,36,10,5.4,7.5,21.7,15.7,7.778,8.376,7.959,7.654,7.583,8.483,8.374,4.837,-4.62,-7.707,1.737,-2.066,8.089,4.878,-4.346,-8.135,4.6,0.0,-8.135,22.4,,5.3,19.3,2.2,36,18.5,5,5,prime,10,0,119,norm,36,-4.775,down,norm,4.57631504461,-6.0,4.2,4.1,1.9,0,-3.1,2.4,-7.4,10,5,7.945,5.145,1.59,-1.354,-5.084,-8.141,14.3,5,123.6,-7.661,-7.518,10,-8.045,-8.487,-4.582,-5.168,-4.973,-4.379,5.155,8.309,30,-2.061,1.213,4.591,8.414,-7.967,-7.868,-1.961,1.539,20.6,24.2,-2.3,4.4,11.4,-15.4,2.7,14.4,-0.6,9.3,2,norm,1.217,1.123,-1.272,-2.016,-5.057,-5.082,-1.557,-2.008,-1.245,-1.113,1.374,-1.64,-12.9,0.2,-5.004,-7.635,1.479,-1.689,7.936,5.017,-4.598,-8.293,18,5.133,4.567,5.2,4.784,1.967,1.849,1.316,1.705,18,4.57,5.154,30,127.054009096,norm,0,68,68,68,412.37,412.379,412.385604098,412.386,412.387,412.39,down,1,1.94052362728,8.05947637272,001,009,1920_1080,Intel(R) Core(TM) i5-3570 CPU @ 3.40GHz,orientation_search,LEPPC096,Intel(R) HD Graphics 2500,2018_Oct_24_1105,testMonitor,
3.2,-3.8,-15.4,17.4,36,10,8.6,6.5,19.1,8.1,8.45,7.955,7.914,7.54,7.68,8.19,7.684,4.614,-4.419,-7.671,1.195,-1.239,8.012,4.749,-4.607,-8.255,7.2,14.7,-8.011,5.1,9.9,-4.8,11.5,10.7,36,14.6,2,5,prime,10,0,119,norm,36,-5.098,up,norm,4.57631504461,-3.6,,3.8,1.3,4,7.2,-13.9,12.0,10,5,7.804,4.811,1.946,-1.895,-5.179,-8.218,0.6,5,123.6,-8.321,-7.681,10,-7.897,-8.121,-4.736,-4.403,-4.344,-5.257,4.717,8.118,16,-1.567,1.81,4.621,7.985,-8.487,-8.195,-1.696,1.45,24.6,12.2,-3.0,5.9,-2.6,22.5,15.3,0.9,-0.8,9.9,3,norm,1.982,1.299,-1.662,-1.587,-4.468,-5.078,-1.361,-1.323,-1.521,-1.94,2.044,-1.733,12.7,-1.4,-4.401,-7.958,1.17,-1.745,7.579,4.928,-5.233,-8.451,18,4.984,4.455,5.061,4.485,1.197,1.5,1.942,1.82,18,4.534,5.127,30,127.054009096,norm,0,69,69,69,414.351,414.36,414.366702395,414.367,414.369,414.371,up,1,1.40103425096,8.59896574904,001,009,1920_1080,Intel(R) Core(TM) i5-3570 CPU @ 3.40GHz,orientation_search,LEPPC096,Intel(R) HD Graphics 2500,2018_Oct_24_1105,testMonitor,
9.6,10.3,5.1,10.1,36,10,8.9,13.7,,20.3,8.033,7.547,8.231,8.062,8.164,7.696,7.547,4.878,-4.741,-8.478,1.92,-1.316,8.097,4.694,-4.616,-8.119,2.9,10.0,-7.782,-15.4,6.0,17.9,14.1,24.3,36,17.0,4,5,prime,10,0,112,norm,36,-4.997,up,norm,4.57631504461,3.7,2.9,-5.9,11.0,4,-14.5,18.4,3.6,10,5,8.368,4.622,1.119,-1.693,-4.845,-8.104,1.2,5,116.6,-7.865,-8.332,10,-8.228,-7.753,-4.564,-4.49,-4.494,-4.423,4.646,7.822,28,-1.774,1.116,4.505,8.447,-7.594,-8.411,-1.778,1.114,17.4,-2.6,15.2,-9.8,24.6,-0.5,8.8,-10.5,7.9,-2.2,4,norm,1.977,1.852,-2.02,-2.085,-5.166,-4.343,-1.574,-2.092,-1.118,-1.348,1.532,-1.983,-2.8,12.6,-4.788,-7.567,1.987,-1.702,8.447,4.812,-4.585,-7.916,18,5.067,4.351,5.002,4.82,1.464,1.394,1.784,1.307,18,4.655,4.489,30,127.054009096,norm,0,70,70,70,415.805,415.814,415.832050128,415.832,415.834,415.836,up,1,2.02807093059,7.97192906941,001,009,1920_1080,Intel(R) Core(TM) i5-3570 CPU @ 3.40GHz,orientation_search,LEPPC096,Intel(R) HD Graphics 2500,2018_Oct_24_1105,testMonitor,
84.2,97.2,92.3,89.8,36,-80,94.2,81.5,86.2,86.4,7.52,7.788,8.436,7.699,8.015,7.86,8.235,4.962,-4.586,-7.82,1.825,-2.035,7.505,5.187,-4.567,-8.178,89.8,92.2,-8.055,92.9,94.9,90.8,90.8,92.2,36,81.1,2,5,probe,5,0,80,norm,36,-4.677,down,norm,90.3153141667,88.3,80.3,97.7,,2,85.6,87.8,100.3,10,5,7.807,5.008,1.382,-1.621,-4.55,-7.81,94.2,1,10.3,-7.686,-7.83,10,-8.455,-8.35,-4.986,-4.819,-4.773,-4.993,4.997,8.326,14,-1.796,1.693,4.905,7.574,-7.861,-7.6,-1.571,1.342,94.8,95.9,83.8,90.1,95.1,84.7,89.1,84.1,90.6,91.8,0,norm,1.264,1.304,-1.812,-1.966,-4.697,-5.117,-2.046,-1.262,-1.936,-1.616,1.617,-1.421,88.9,90.9,-5.257,-7.534,1.587,-1.167,8.355,5.265,-4.331,-8.387,19,4.789,5.035,5.04,4.576,1.579,1.975,1.418,1.909,19,4.733,4.798,10,4.57631504461,norm,0,71,71,71,417.898,417.91,417.92989074,417.93,417.932,417.934,down,1,1.168264095,8.831735905,001,009,1920_1080,Intel(R) Core(TM) i5-3570 CPU @ 3.40GHz,orientation_search,LEPPC096,Intel(R) HD Graphics 2500,2018_Oct_24_1105,testMonitor,
159.3,162.2,169.5,171.3,36,-60,181.5,160.8,160.2,174.1,7.974,7.548,7.917,7.776,8.34,8.0,7.933,4.744,-5.009,-7.77,1.783,-1.623,7.667,4.407,-5.259,-7.585,191.9,166.6,-8.446,160.5,169.0,179.5,165.6,179.1,36,159.0,2,5,prime,10,0,92,norm,36,-4.329,up,norm,171.906069625,,169.4,178.4,167.5,5,182.8,172.0,170.4,10,6,8.289,4.884,1.31,-1.417,-4.998,-7.658,182.5,6,263.9,-7.821,-7.564,-60,-8.06,-7.681,-4.652,-4.726,-5.105,-4.895,5.186,8.143,17,-1.17,1.509,5.151,8.454,-8.263,-7.554,-1.221,1.453,180.5,151.9,157.3,170.6,166.9,173.6,188.1,183.6,185.0,175.7,0,norm,1.211,1.421,-1.616,-1.979,-4.339,-5.058,-1.476,-1.319,-1.995,-1.937,1.425,-2.07,162.9,178.3,-4.554,-8.412,1.118,-1.831,7.878,4.841,-4.946,-8.079,20,4.778,5.178,4.312,5.051,2.04,1.355,1.812,1.145,20,4.878,4.756,-80,4.57631504461,norm,0,72,72,72,419.136,419.146,419.154844248,419.155,419.157,419.159,up,1,3.97005761367,6.02994238633,001,009,1920_1080,Intel(R) Core(TM) i5-3570 CPU @ 3.40GHz,orientation_search,LEPPC096,Intel(R) HD Graphics 2500,2018_Oct_24_1105,testMonitor,
178.8,162.6,170.7,166.2,36,-60,191.9,187.2,151.9,180.6,7.889,7.741,8.055,7.93,8.127,8.083,8.104,5.06,-4.742,-7.942,1.882,-1.855,7.841,5.24,-5.274,-7.997,153.5,176.3,-8.438,169.1,167.9,172.2,183.2,168.5,36,168.2,0,5,prime,10,0,63,norm,36,-4.471,down,norm,171.906069625,173.8,175.5,163.1,179.6,1,165.5,169.3,168.4,10,6,8.091,4.371,1.64,-2.02,-5.052,-8.435,164.2,6,234.9,-7.811,-7.775,-60,-8.379,-7.789,-4.925,-4.625,-4.563,-5.079,4.913,7.749,1,-1.249,1.276,5.024,8.04,-8.154,-7.868,-1.966,1.853,165.5,183.0,183.1,163.8,,175.6,170.3,178.7,175.2,174.1,1,norm,2.075,1.753,-1.331,-1.25,-5.161,-4.51,-1.917,-1.902,-1.762,-1.872,1.38,-1.956,182.0,164.3,-4.527,-7.912,1.459,-1.91,8.002,4.684,-4.521,-8.254,20,4.467,5.28,5.273,4.383,1.205,1.242,1.426,1.968,20,4.533,4.785,-80,4.57631504461,norm,0,73,73,73,423.16,423.17,423.180198549,423.18,423.182,423.185,up,0,3.02457372313,-10,001,009,1920_1080,Intel(R) Core(TM) i5-3570 CPU @ 3.40GHz,orientation_search,LEPPC096,Intel(R) HD Graphics 2500,2018_Oct_24_1105,testMonitor,
160.3,176.5,162.0,170.3,36,-60,182.8,169.0,182.5,184.0,7.921,8.198,7.773,7.8,7.658,8.323,8.357,4.385,-4.63,-7.713,1.481,-1.597,8.36,5.101,-5.073,-8.397,159.2,179.4,-7.736,166.5,165.5,172.7,172.6,176.3,36,189.5,0,5,prime,10,0,96,norm,36,-4.682,up,norm,171.906069625,177.1,165.2,175.6,191.9,4,151.9,158.7,184.6,10,6,7.656,4.446,1.186,-1.242,-4.764,-8.012,178.1,6,267.9,-7.656,-7.515,-60,-8.461,-7.599,-4.832,-5.13,-5.018,-4.385,5.149,7.848,4,-2.056,1.439,4.708,7.693,-8.346,-8.1,-1.782,1.356,168.2,165.5,171.4,182.9,188.4,160.9,178.9,184.1,177.2,,2,norm,1.378,1.467,-1.792,-1.889,-5.185,-5.054,-1.822,-1.803,-1.997,-1.417,1.671,-1.635,183.5,168.2,-4.341,-8.058,1.839,-1.302,8.17,4.519,-4.655,-7.809,20,4.804,5.152,4.679,4.828,1.86,1.432,1.92,1.702,20,4.77,5.081,-80,4.57631504461,norm,0,74,74,74,427.275,427.285,427.297677674,427.298,427.3,427.302,up,1,1.43415237695,8.56584762305,001,009,1920_1080,Intel(R) Core(TM) i5-3570 CPU @ 3.40GHz,orientation_search,LEPPC096,Intel(R) HD Graphics 2500,2018_Oct_24_1105,testMonitor,
176.6,171.5,177.3,177.3,36,-60,151.9,168.8,166.9,172.0,7.853,7.598,8.003,8.015,8.045,7.816,7.895,5.287,-4.98,-8.15,1.661,-1.156,8.024,4.964,-5.032,-8.304,177.2,171.8,-8.041,172.1,171.1,177.7,170.1,173.1,36,182.4,2,5,prime,10,0,68,norm,36,-4.529,down,norm,171.906069625,166.4,189.4,173.5,,2,159.8,161.3,159.7,10,6,7.75,4.817,1.257,-1.255,-4.354,-8.094,162.5,6,239.9,-8.293,-8.319,-60,-8.278,-8.188,-5.041,-4.411,-5.112,-4.777,4.565,7.825,14,-1.695,1.984,5.004,8.461,-7.546,-7.515,-1.348,1.731,168.5,172.8,164.3,183.5,169.0,172.7,177.1,157.2,176.8,173.7,3,norm,1.963,1.211,-1.414,-1.88,-5.259,-5.037,-1.658,-1.731,-1.756,-1.941,1.737,-1.99,161.2,191.9,-4.854,-7.9,1.237,-1.532,8.319,4.923,-4.8,-8.311,20,4.922,4.305,4.428,5.13,1.998,1.96,1.296,2.044,20,4.682,4.406,-80,4.57631504461,norm,0,75,75,75,428.769,428.792,428.810804578,428.811,428.813,428.816,down,1,1.1501381406,8.8498618594,001,009,1920_1080,Intel(R) Core(TM) i5-3570 CPU @ 3.40GHz,orientation_search,LEPPC096,Intel(R) HD Graphics 2500,2018_Oct_24_1105,testMonitor,
172.6,171.1,160.5,189.0,36,-60,169.7,151.9,168.2,183.3,8.38,8.258,8.303,8.29,8.363,8.161,7.736,4.411,-4.71,-8.037,1.293,-1.196,7.78,5.186,-5.229,-8.248,168.4,,-7.642,163.4,163.8,164.6,155.5,156.7,36,175.4,5,5,prime,10,0,87,norm,36,-4.336,up,norm,171.906069625,170.4,164.4,160.2,159.5,4,156.4,180.0,177.8,10,6,8.161,4.352,1.146,-1.199,-5.04,-7.87,182.3,6,258.9,-7.77,-7.99,-60,-7.86,-8.478,-4.395,-4.893,-5.082,-4.834,4.778,8.412,34,-1.797,1.117,5.188,7.527,-7.578,-7.853,-1.946,1.159,181.5,184.8,178.6,176.6,178.5,161.2,185.9,171.1,161.8,158.7,4,norm,1.295,1.328,-1.263,-1.234,-4.539,-4.818,-1.403,-1.839,-1.222,-1.657,1.641,-1.108,191.9,160.9,-5.051,-7.527,1.245,-1.749,8.316,4.589,-4.754,-8.205,20,4.69,4.562,4.56,5.276,1.675,1.237,2.04,1.462,20,4.898,4.43,-80,4.57631504461,norm,0,76,76,76,430.013,430.035,430.045281985,430.046,430.047,430.05,up,1,2.9727516044,7.0272483956,001,009,1920_1080,Intel(R) Core(TM) i5-3570 CPU @ 3.40GHz,orientation_search,LEPPC096,Intel(R) HD Graphics 2500,2018_Oct_24_1105,testMonitor,
176.0,172.6,175.3,191.9,36,-60,181.4,176.3,164.0,171.3,7.621,7.766,8.432,7.717,8.379,7.988,7.592,4.521,-4.614,-7.912,1.621,-1.759,8.048,4.583,-4.774,-8.018,170.7,176.6,-7.774,,181.1,179.8,176.0,175.1,36,169.2,5,5,prime,10,0,76,norm,36,-5.021,down,norm,171.906069625,163.3,181.8,161.6,168.4,1,181.4,166.1,171.2,10,6,8.097,4.688,1.386,-1.856,-4.379,-7.585,183.4,6,247.9,-8.221,-7.839,-60,-7.542,-8.152,-4.656,-5.034,-4.71,-4.667,4.429,7.831,31,-1.884,2.079,5.128,8.234,-7.982,-8.227,-1.824,1.721,172.3,183.0,171.7,165.4,151.9,159.3,167.5,181.4,155.6,153.2,5,norm,1.513,1.158,-1.341,-1.13,-5.085,-4.633,-1.591,-1.884,-1.524,-1.144,1.784,-1.339,178.7,182.7,-4.592,-8.497,1.126,-1.658,7.59,4.349,-5.088,-8.158,20,4.462,4.867,4.614,5.049,2.031,2.042,1.802,1.766,20,4.898,5.29,-80,4.57631504461,norm,0,77,77,77,433.04,433.05,433.069415916,433.07,433.071,433.074,down,1,2.01141678557,7.98858321443,001,009,1920_1080,Intel(R) Core(TM) i5-3570 CPU @ 3.40GHz,orientation_search,LEPPC096,Intel(R) HD Graphics 2500,2018_Oct_24_1105,testMonitor,
187.8,179.2,184.0,180.6,36,-40,180.9,179.7,175.7,181.2,7.526,8.068,8.264,8.155,7.849,8.348,8.344,4.891,-4.409,-7.668,1.636,-1.131,7.743,4.586,-4.482,-8.419,176.8,,-7.861,175.9,181.6,173.7,179.2,182.7,36,176.5,5,5,probe,5,0,73,norm,36,-4.829,up,norm,178.548280698,183.1,179.3,181.1,180.4,4,188.5,178.6,168.5,10,6,8.039,4.384,1.78,-1.742,-5.115,-8.287,174.1,1,105.5,-7.644,-8.189,-60,-8.146,-8.229,-5.281,-4.478,-4.701,-5.045,4.619,8.042,34,-1.395,1.325,5.079,7.753,-7.533,-8.054,-1.116,1.931,182.3,180.6,181.3,177.4,176.1,180.9,173.7,178.1,177.3,180.7,0,norm,1.699,1.793,-1.612,-1.131,-4.522,-4.577,-1.818,-1.818,-1.167,-1.345,1.949,-1.387,174.0,178.8,-4.984,-8.414,1.444,-1.975,7.715,4.796,-4.411,-8.026,21,4.76,5.264,4.846,4.979,1.696,1.672,1.307,1.527,21,4.511,5.099,-60,171.906069625,norm,0,78,78,78,435.118,435.127,435.144168499,435.144,435.146,435.149,up,1,2.16631989397,7.83368010603,001,009,1920_1080,Intel(R) Core(TM) i5-3570 CPU @ 3.40GHz,orientation_search,LEPPC096,Intel(R) HD Graphics 2500,2018_Oct_24_1105,testMonitor,
140.4,127.8,132.7,136.5,36,-80,134.9,,136.5,111.0,7.985,8.104,8.466,8.099,7.719,8.175,8.375,4.424,-5.253,-7.779,1.365,-1.506,7.716,4.747,-4.934,-8.244,121.7,131.4,-8.269,112.6,137.3,143.4,138.0,130.7,36,113.4,4,5,prime,10,0,63,norm,36,-4.309,down,norm,130.960476666,136.1,120.5,138.2,137.3,1,140.3,135.0,114.7,10,6,7.983,5.18,1.434,-1.89,-4.902,-8.296,151.0,6,194.0,-8.14,-8.056,-80,-8.162,-7.912,-4.738,-4.492,-4.965,-4.603,4.427,8.253,25,-1.971,2.051,5.201,8.024,-7.754,-7.575,-1.329,1.112,136.1,116.2,135.2,118.9,139.0,146.8,129.6,141.0,135.6,127.6,0,norm,1.878,1.333,-1.174,-1.631,-5.086,-4.894,-2.091,-1.886,-1.743,-1.629,1.473,-1.128,128.0,124.8,-4.588,-7.819,1.367,-1.274,8.404,4.381,-5.031,-7.559,22,5.143,5.296,5.02,4.926,1.359,1.49,2.077,1.62,22,5.051,4.978,-40,171.906069625,norm,0,79,79,79,437.347,437.356,437.374821193,437.375,437.377,437.379,down,1,1.25051427302,8.74948572698,001,009,1920_1080,Intel(R) Core(TM) i5-3570 CPU @ 3.40GHz,orientation_search,LEPPC096,Intel(R) HD Graphics 2500,2018_Oct_24_1105,testMonitor,
151.0,127.5,134.8,133.8,36,-80,123.5,124.7,135.3,135.6,8.485,8.236,7.767,7.859,8.438,7.833,7.706,5.293,-4.98,-8.43,2.077,-1.121,7.505,4.498,-5.209,-8.213,145.9,119.4,-8.436,148.7,131.8,126.0,126.7,,36,129.1,4,5,prime,10,0,85,norm,36,-5.273,down,norm,130.960476666,127.3,143.7,127.1,136.6,2,118.6,111.0,142.3,10,6,7.838,5.029,1.215,-1.771,-4.717,-8.163,128.0,6,216.0,-7.944,-7.946,-80,-7.778,-8.386,-4.307,-4.603,-4.815,-4.375,4.32,8.223,26,-1.36,2.087,4.849,8.254,-7.792,-7.553,-1.963,1.684,140.7,131.4,132.2,129.0,138.2,138.9,125.3,133.6,126.7,136.6,1,norm,2.05,1.106,-1.654,-1.433,-4.927,-5.076,-1.868,-1.78,-1.457,-2.026,1.443,-1.25,133.4,123.8,-5.063,-8.458,1.791,-1.165,8.412,4.532,-4.533,-8.377,22,4.984,4.799,4.982,4.676,1.315,1.908,2.038,1.683,22,4.908,4.817,-40,171.906069625,norm,0,80,80,80,438.67,438.68,438.686239276,438.686,438.688,438.691,down,1,2.11082187394,7.88917812606,001,009,1920_1080,Intel(R) Core(TM) i5-3570 CPU @ 3.40GHz,orientation_search,LEPPC096,Intel(R) HD Graphics 2500,2018_Oct_24_1105,testMonitor,
124.2,135.9,123.2,122.1,36,-80,129.9,117.0,115.8,,8.215,8.355,7.577,7.98,7.847,8.306,8.429,4.38,-4.741,-8.273,1.262,-1.368,7.653,4.736,-4.74,-8.02,116.5,124.9,-8.237,134.2,111.0,144.6,125.4,136.9,36,134.2,4,5,prime,10,0,70,norm,36,-5.194,up,norm,130.960476666,135.3,132.8,128.6,122.0,5,147.6,140.4,140.9,10,6,7.645,4.825,1.869,-1.864,-4.874,-7.742,129.0,6,201.0,-8.299,-7.813,-80,-8.315,-8.056,-4.959,-4.445,-4.368,-4.927,5.246,8.385,29,-1.386,1.744,5.284,7.814,-7.833,-8.129,-1.12,1.345,140.6,131.5,122.0,124.9,130.1,126.9,151.0,121.6,120.3,132.6,2,norm,1.353,1.825,-1.357,-1.598,-4.603,-4.334,-1.572,-1.628,-1.384,-2.033,1.888,-1.964,118.7,136.2,-4.998,-7.768,1.114,-1.579,7.951,4.47,-4.672,-8.44,22,5.295,5.025,4.45,4.951,1.381,1.161,1.913,1.206,22,5.279,5.166,-40,171.906069625,norm,0,81,81,81,440.834,440.844,440.853452338,440.854,440.855,440.858,up,1,1.43401111222,8.56598888778,001,009,1920_1080,Intel(R) Core(TM) i5-3570 CPU @ 3.40GHz,orientation_search,LEPPC096,Intel(R) HD Graphics 2500,2018_Oct_24_1105,testMonitor,
125.8,139.2,133.8,130.2,36,-80,,140.7,126.9,122.8,8.155,8.385,8.102,7.571,8.33,7.607,8.184,4.573,-4.412,-7.608,1.665,-1.89,8.042,4.664,-5.015,-7.582,126.0,141.6,-8.343,111.0,120.9,130.6,119.5,150.0,36,143.4,4,5,prime,10,0,75,norm,36,-4.572,down,norm,130.960476666,130.9,120.3,146.9,134.6,0,131.7,136.3,124.2,10,6,7.807,4.487,2.043,-1.736,-4.669,-7.906,129.0,6,206.0,-7.52,-8.3,-80,-8.296,-8.358,-4.508,-5.098,-4.345,-4.775,4.356,8.341,24,-1.89,1.737,4.784,7.919,-7.956,-7.645,-1.391,1.688,146.2,112.6,137.6,136.6,131.1,140.9,139.4,132.7,124.1,120.7,3,norm,1.377,1.722,-1.876,-1.34,-4.844,-5.29,-2.073,-1.889,-2.034,-1.622,1.162,-1.236,120.5,137.0,-5.211,-7.912,1.779,-1.394,8.123,4.877,-4.64,-7.788,22,4.613,4.345,4.301,4.787,1.221,1.535,1.324,1.664,22,4.761,4.937,-40,171.906069625,norm,0,82,82,82,442.325,442.334,442.351101397,442.351,442.353,442.356,down,1,0.87420466904,9.12579533096,001,009,1920_1080,Intel(R) Core(TM) i5-3570 CPU @ 3.40GHz,orientation_search,LEPPC096,Intel(R) HD Graphics 2500,2018_Oct_24_1105,testMonitor,
116.9,132.4,111.3,134.4,36,-80,144.0,133.2,,114.3,8.221,8.031,8.133,8.44,7.862,8.239,8.18,4.849,-4.326,-7.854,1.424,-1.927,7.615,4.847,-4.847,-7.505,131.3,135.6,-8.311,131.4,135.2,129.9,134.8,144.0,36,135.8,4,5,prime,10,0,113,norm,36,-4.915,up,norm,130.960476666,120.3,126.3,140.3,151.0,4,145.5,111.0,128.9,10,6,8.054,4.355,1.498,-1.7,-4.503,-7.856,134.2,6,244.0,-7.734,-7.977,-80,-7.516,-7.839,-4.64,-5.247,-4.412,-4.622,5.043,8.406,28,-1.531,1.269,5.036,7.76,-7.888,-8.069,-1.193,1.555,131.9,118.6,137.7,138.6,128.8,134.5,132.9,123.9,113.3,118.3,4,norm,1.51,2.029,-1.618,-1.729,-5.235,-4.726,-1.51,-1.763,-1.919,-1.182,1.869,-1.826,129.6,122.7,-4.485,-7.911,1.316,-1.367,8.359,5.014,-4.569,-7.632,22,5.14,4.703,4.442,5.141,1.349,2.067,2.006,1.277,22,4.449,4.678,-40,171.906069625,norm,0,83,83,83,443.261,443.27,443.286990455,443.287,443.289,443.291,up,1,1.21472871891,8.78527128109,001,009,1920_1080,Intel(R) Core(TM) i5-3570 CPU @ 3.40GHz,orientation_search,LEPPC096,Intel(R) HD Graphics 2500,2018_Oct_24_1105,testMonitor,
117.6,111.2,136.8,144.2,36,-80,122.0,118.0,132.7,143.8,8.027,8.404,7.951,7.539,8.449,8.412,8.485,4.923,-4.419,-8.077,2.048,-1.867,7.881,4.933,-4.558,-7.94,144.3,151.0,-7.929,133.2,124.1,123.2,120.0,117.9,36,111.0,1,5,prime,10,0,74,norm,36,-4.436,up,norm,130.960476666,139.3,132.7,125.4,129.2,3,124.5,129.0,130.9,10,6,8.131,4.54,1.305,-1.689,-4.505,-8.107,134.0,6,205.0,-8.421,-8.063,-80,-7.675,-7.982,-5.198,-4.708,-5.143,-5.041,4.98,8.3,9,-1.287,1.325,4.465,8.267,-7.705,-7.763,-1.558,1.77,,115.2,131.1,126.4,143.4,132.0,130.5,140.2,130.6,130.2,5,norm,1.946,1.37,-1.678,-1.915,-4.521,-5.087,-1.614,-1.986,-1.542,-1.738,2.039,-1.349,137.8,139.9,-4.741,-8.069,1.905,-1.682,8.127,5.282,-5.039,-8.151,22,4.767,4.791,4.368,5.095,1.451,1.558,1.969,2.075,22,4.326,4.424,-40,171.906069625,norm,0,84,84,84,444.539,444.549,444.566125625,444.566,444.568,444.571,up,1,2.45079112773,7.54920887227,001,009,1920_1080,Intel(R) Core(TM) i5-3570 CPU @ 3.40GHz,orientation_search,LEPPC096,Intel(R) HD Graphics 2500,2018_Oct_24_1105,testMonitor,
,116.9,127.1,124.1,36,0,122.7,129.2,123.3,122.2,7.605,8.102,7.783,8.29,8.267,7.874,7.829,4.444,-5.232,-8.361,1.877,-1.612,7.538,4.766,-4.484,-7.818,114.2,121.1,-8.254,123.1,116.4,118.7,121.0,120.8,36,121.5,3,5,probe,5,0,69,norm,36,-5.247,up,norm,122.865191938,120.7,117.7,129.7,130.9,4,117.6,123.4,119.9,10,6,8.441,4.635,1.294,-1.938,-4.385,-8.232,129.5,1,53.9,-7.529,-7.598,-80,-7.904,-8.205,-4.313,-5.017,-4.47,-4.617,4.654,7.616,22,-1.443,1.512,5.112,7.648,-8.056,-7.743,-1.48,1.719,132.9,121.1,128.6,112.9,121.5,122.9,130.3,130.1,128.0,126.3,0,norm,1.382,1.56,-1.195,-1.252,-4.743,-5.167,-1.465,-1.825,-1.916,-1.995,2.095,-1.7,118.5,114.6,-4.952,-8.205,1.325,-1.538,7.831,5.195,-5.047,-8.319,23,5.137,5.027,4.805,5.106,1.917,1.434,1.426,2.009,23,4.744,4.563,-80,130.960476666,norm,0,85,85,85,447.055,447.067,447.070662848,447.071,447.073,447.075,up,1,1.10260829616,8.89739170384,001,009,1920_1080,Intel(R) Core(TM) i5-3570 CPU @ 3.40GHz,orientation_search,LEPPC096,Intel(R) HD Graphics 2500,2018_Oct_24_1105,testMonitor,
174.6,164.8,185.3,161.9,36,40,171.9,175.0,149.5,167.8,7.55,8.414,8.446,7.9,8.338,7.861,7.557,4.765,-4.403,-8.245,1.506,-1.404,8.316,4.646,-4.565,-8.379,181.7,171.2,-8.078,181.7,154.6,169.5,163.0,169.1,36,171.2,1,5,prime,10,0,92,norm,36,-4.895,down,norm,168.502121988,177.6,171.5,158.1,184.4,1,170.3,160.3,171.0,10,6,7.912,4.673,1.562,-1.32,-5.11,-8.279,148.5,6,260.5,-7.7,-7.712,40,-7.565,-7.82,-4.491,-5.05,-5.145,-4.87,4.917,7.844,7,-1.178,1.539,5.057,8.126,-8.071,-7.662,-1.772,1.4,152.1,166.1,169.7,178.3,188.5,158.1,,151.9,157.2,168.8,0,norm,1.119,1.908,-1.721,-1.267,-5.143,-4.368,-1.586,-1.516,-1.295,-1.957,1.585,-1.557,173.0,151.8,-4.675,-8.058,1.817,-1.771,8.257,5.066,-5.126,-8.371,24,5.205,4.454,5.083,4.432,1.885,1.672,1.602,1.414,24,4.94,4.726,0,130.960476666,norm,0,86,86,86,448.217,448.226,448.233000768,448.233,448.235,448.237,down,1,2.14412231593,7.85587768407,001,009,1920_1080,Intel(R) Core(TM) i5-3570 CPU @ 3.40GHz,orientation_search,LEPPC096,Intel(R) HD Graphics 2500,2018_Oct_24_1105,testMonitor,
180.5,164.8,177.7,172.3,36,40,177.7,161.5,,163.4,7.544,8.158,7.693,7.635,8.012,7.584,7.844,5.254,-5.022,-7.893,1.476,-1.224,8.463,4.66,-5.24,-8.138,178.9,175.4,-8.197,179.6,170.9,171.1,167.2,179.0,36,165.4,4,5,prime,10,0,71,norm,36,-4.882,up,norm,168.502121988,158.0,169.2,168.9,177.6,4,154.0,148.5,164.8,10,6,7.718,4.6,1.846,-1.348,-5.149,-8.359,174.9,6,239.5,-8.123,-7.861,40,-8.359,-8.032,-4.596,-4.318,-5.008,-4.97,4.933,7.932,28,-1.985,1.787,5.231,7.975,-8.496,-8.125,-1.821,1.954,188.5,182.7,165.2,163.0,159.0,164.9,171.0,163.0,159.8,173.5,1,norm,1.239,1.628,-1.482,-1.283,-4.777,-4.899,-1.561,-1.531,-1.223,-1.462,1.451,-1.837,184.3,164.2,-4.364,-7.99,1.999,-1.728,7.719,5.281,-4.924,-8.032,24,5.054,4.861,5.273,4.687,1.795,1.345,1.94,1.303,24,5.059,5.161,0,130.960476666,norm,0,87,87,87,450.401,450.41,450.416871596,450.417,450.419,450.421,up,1,2.82686317757,7.17313682243,001,009,1920_1080,Intel(R) Core(TM) i5-3570 CPU @ 3.40GHz,orientation_search,LEPPC096,Intel(R) HD Graphics 2500,2018_Oct_24_1105,testMonitor,
172.6,160.5,175.5,,36,40,172.0,171.8,170.7,152.0,8.272,8.483,8.082,8.23,8.064,8.128,8.009,5.294,-4.788,-8.283,1.644,-1.255,8.116,5.291,-4.786,-8.247,163.9,186.0,-8.2,164.0,176.8,164.6,172.9,175.1,36,161.7,3,5,prime,10,0,116,norm,36,-4.596,up,norm,168.502121988,175.7,166.8,188.5,151.9,3,148.9,180.3,185.5,10,6,8.254,4.801,1.319,-1.911,-4.835,-7.725,162.1,6,284.5,-7.755,-7.601,40,-7.721,-8.374,-5.074,-4.888,-4.504,-4.87,4.526,7.743,21,-1.267,1.562,4.699,7.628,-8.458,-7.629,-1.788,1.851,180.5,186.4,170.8,164.9,153.2,181.4,165.2,163.9,165.3,148.5,2,norm,1.753,1.445,-1.411,-1.638,-4.912,-4.975,-1.367,-1.423,-1.424,-1.572,1.277,-1.828,161.7,181.5,-4.637,-8.337,1.166,-2.045,7.779,5.237,-4.966,-7.7,24,5.055,5.158,4.512,4.762,2.06,1.6,1.144,1.865,24,4.88,4.896,0,130.960476666,norm,0,88,88,88,453.287,453.296,453.302858588,453.303,453.305,453.308,up,1,3.04375554079,6.95624445921,001,009,1920_1080,Intel(R) Core(TM) i5-3570 CPU @ 3.40GHz,orientation_search,LEPPC096,Intel(R) HD Graphics 2500,2018_Oct_24_1105,testMonitor,
171.1,170.2,159.6,163.3,36,40,164.4,156.4,179.8,183.4,8.329,8.235,8.45,8.369,8.35,8.052,7.716,4.667,-5.017,-7.892,1.713,-1.631,8.452,5.29,-4.383,-7.84,168.8,158.9,-7.758,155.3,160.3,184.4,165.0,166.9,36,170.5,2,5,prime,10,0,85,norm,36,-4.813,up,norm,168.502121988,170.9,,172.1,161.9,4,177.0,162.4,171.4,10,6,8.493,5.183,1.818,-1.294,-4.757,-8.166,159.7,6,253.5,-8.168,-7.626,40,-8.1,-8.006,-5.198,-5.036,-4.699,-4.998,4.325,8.022,16,-1.782,1.641,4.724,8.32,-7.917,-7.819,-1.708,1.585,156.0,167.8,188.5,166.2,173.1,161.5,178.0,178.5,164.7,175.7,3,norm,1.713,1.982,-1.365,-1.808,-4.796,-5.252,-1.298,-1.26,-1.807,-1.336,1.923,-1.824,148.5,183.6,-4.349,-7.956,1.307,-1.989,7.831,4.379,-4.887,-8.376,24,5.257,4.453,4.65,5.204,1.444,1.536,1.438,1.401,24,5.236,4.737,0,130.960476666,norm,0,89,89,89,456.384,456.394,456.405774165,456.406,456.408,456.41,up,1,2.00475500682,7.99524499318,001,009,1920_1080,Intel(R) Core(TM) i5-3570 CPU @ 3.40GHz,orientation_search,LEPPC096,Intel(R) HD Graphics 2500,2018_Oct_24_1105,testMonitor,
153.3,179.9,159.9,149.5,36,40,163.2,159.1,152.9,164.8,8.129,7.938,7.995,7.881,8.339,7.655,7.649,4.445,-5.155,-8.446,1.783,-1.249,8.471,4.599,-4.771,-8.329,182.5,163.6,-7.657,169.6,166.4,160.5,152.0,178.5,36,188.5,0,5,prime,10,0,68,norm,36,-4.664,down,norm,168.502121988,165.3,168.9,175.0,166.2,0,155.0,159.6,161.8,10,6,7.706,5.155,1.641,-1.465,-4.806,-7.631,148.5,6,236.5,-7.71,-7.96,40,-7.96,-7.83,-5.287,-4.927,-4.506,-5.158,4.996,7.778,0,-1.512,1.757,4.998,8.25,-7.877,-8.499,-1.673,1.736,163.2,171.5,175.1,174.7,167.7,,163.9,165.9,170.9,159.5,4,norm,1.809,1.866,-1.342,-1.561,-4.45,-4.312,-1.817,-1.419,-1.909,-1.258,1.868,-1.966,163.8,172.2,-5.22,-8.093,1.328,-1.764,7.677,4.743,-4.321,-8.234,24,5.203,4.434,4.905,4.806,2.053,1.845,1.24,2.076,24,4.363,4.661,0,130.960476666,norm,0,90,90,90,458.435,458.444,458.450485356,458.451,458.452,458.455,down,1,1.31488933207,8.68511066793,001,009,1920_1080,Intel(R) Core(TM) i5-3570 CPU @ 3.40GHz,orientation_search,LEPPC096,Intel(R) HD Graphics 2500,2018_Oct_24_1105,testMonitor,
172.5,170.6,154.1,169.0,36,40,172.0,166.0,160.5,150.9,8.223,8.009,8.283,7.591,8.149,7.927,8.288,4.333,-5.001,-8.491,1.586,-2.023,8.254,4.842,-5.069,-8.049,175.1,169.2,-7.621,159.5,182.6,183.3,173.4,168.8,36,177.4,1,5,prime,10,0,95,norm,36,-4.855,up,norm,168.502121988,176.7,160.8,162.7,176.3,4,169.0,169.3,152.1,10,6,7.995,4.989,1.777,-1.941,-5.142,-8.441,,6,263.5,-8.269,-8.102,40,-8.337,-8.085,-4.589,-4.467,-4.385,-5.072,5.21,8.279,10,-2.051,1.71,4.339,7.625,-7.614,-8.033,-1.561,1.323,169.5,175.1,149.7,184.7,162.0,188.5,173.6,180.4,159.4,174.6,5,norm,1.752,1.179,-1.126,-1.901,-4.732,-4.736,-1.78,-1.774,-1.251,-1.971,2.007,-1.252,174.3,148.5,-4.965,-8.147,1.317,-1.667,8.043,4.493,-4.862,-7.543,24,4.988,5.172,5.037,4.869,1.333,1.22,1.865,1.591,24,4.966,4.637,0,130.960476666,norm,0,91,91,91,459.802,459.815,459.835086113,459.835,459.837,459.84,up,1,1.13033934624,8.86966065376,001,009,1920_1080,Intel(R) Core(TM) i5-3570 CPU @ 3.40GHz,orientation_search,LEPPC096,Intel(R) HD Graphics 2500,2018_Oct_24_1105,testMonitor,
330.9,337.9,341.9,331.4,36,80,328.2,329.8,328.2,334.7,7.567,7.512,8.303,7.927,8.496,8.22,7.89,5.084,-4.706,-7.89,1.909,-1.977,8.138,4.324,-4.321,-8.392,326.2,329.4,-8.226,335.2,328.7,330.5,330.9,329.2,36,331.4,1,5,probe,5,0,118,norm,36,-4.913,down,norm,333.867570242,339.4,333.3,340.0,339.0,0,340.1,343.6,327.0,10,6,8.497,4.648,1.768,-1.633,-4.884,-8.491,323.9,2,215.9,-8.484,-7.715,40,-8.198,-8.372,-4.748,-4.363,-4.985,-5.241,5.263,7.88,6,-2.067,1.617,4.511,7.751,-8.067,-8.059,-1.586,2.087,339.5,330.2,336.5,336.6,332.1,328.5,336.7,,336.3,343.9,0,norm,1.67,1.511,-1.187,-1.825,-4.492,-4.533,-1.412,-1.652,-1.197,-1.436,1.42,-1.603,336.6,335.0,-4.772,-7.757,1.747,-1.947,7.963,5.277,-5.261,-7.933,25,4.521,4.536,5.195,4.895,2.093,1.82,1.402,1.728,25,4.419,5.091,40,168.502121988,norm,0,92,92,92,461.009,461.029,461.041135503,461.041,461.043,461.046,down,1,1.08091208716,8.91908791284,001,009,1920_1080,Intel(R) Core(TM) i5-3570 CPU @ 3.40GHz,orientation_search,LEPPC096,Intel(R) HD Graphics 2500,2018_Oct_24_1105,testMonitor,
282.5,284.8,290.9,290.5,36,80,280.1,276.9,283.0,293.9,8.212,7.709,8.209,8.24,8.098,7.737,7.789,4.944,-4.996,-8.379,1.819,-1.139,7.78,4.907,-4.578,-7.872,283.6,279.7,-8.127,280.8,274.1,285.9,273.9,281.0,36,275.8,0,5,probe,5,0,68,norm,36,-4.696,up,norm,283.867570242,276.0,281.9,276.4,279.4,3,280.6,291.7,279.1,10,6,7.508,4.986,1.513,-1.932,-5.246,-8.415,288.7,2,215.9,-8.046,-7.816,40,-8.458,-7.746,-5.217,-4.696,-5.149,-5.051,4.655,8.486,3,-1.604,1.196,5.241,7.772,-7.575,-7.938,-1.973,1.262,279.1,287.6,,281.9,283.7,280.2,287.6,288.8,284.0,283.9,1,norm,1.372,1.843,-1.827,-1.666,-5.293,-5.297,-1.591,-1.779,-2.05,-1.142,1.715,-1.48,284.7,281.7,-5.256,-8.109,1.906,-1.931,8.104,5.192,-4.998,-8.037,25,4.35,4.693,5.27,4.686,1.967,1.326,1.843,1.875,25,4.42,5.251,40,168.502121988,norm,0,93,93,93,462.163,462.172,462.178758736,462.179,462.181,462.183,up,1,1.18090909887,8.81909090113,001,009,1920_1080,Intel(R) Core(TM) i5-3570 CPU @ 3.40GHz,orientation_search,LEPPC096,Intel(R) HD Graphics 2500,2018_Oct_24_1105,testMonitor,
289.5,275.0,286.3,285.1,36,80,294.9,300.0,,283.7,8.279,8.039,7.572,8.385,7.546,7.705,7.757,4.392,-5.051,-7.53,1.17,-1.607,7.776,5.14,-4.479,-8.027,279.3,271.8,-7.747,280.8,280.4,301.8,285.9,301.7,36,271.9,4,5,prime,10,0,63,norm,36,-4.467,up,norm,285.920146878,282.0,283.3,265.9,293.9,4,305.9,287.0,291.9,10,5,8.216,4.445,1.664,-1.371,-4.942,-7.693,302.8,5,348.9,-8.179,-7.809,80,-7.653,-8.368,-4.585,-5.114,-5.196,-5.0,4.595,8.054,28,-1.492,1.424,4.617,8.15,-7.634,-8.376,-1.693,2.065,277.2,274.5,284.0,287.3,303.3,291.9,301.8,277.4,298.3,284.6,0,norm,2.067,1.871,-1.851,-1.767,-5.278,-5.115,-1.464,-1.251,-2.077,-1.926,1.845,-1.639,291.7,277.5,-4.631,-7.693,1.249,-1.712,7.759,5.044,-5.093,-8.268,26,5.17,4.479,5.164,4.386,1.405,1.901,1.372,1.394,26,4.804,5.129,80,168.502121988,norm,0,94,94,94,463.381,463.391,463.410162125,463.41,463.412,463.415,up,1,2.0421331094,7.9578668906,001,009,1920_1080,Intel(R) Core(TM) i5-3570 CPU @ 3.40GHz,orientation_search,LEPPC096,Intel(R) HD Graphics 2500,2018_Oct_24_1105,testMonitor,
275.9,278.9,283.7,274.4,36,80,288.8,282.4,265.9,284.3,8.244,8.237,8.392,7.963,7.541,8.299,8.004,4.962,-5.034,-7.927,1.609,-1.198,8.105,4.483,-4.756,-8.16,278.1,303.0,-7.847,299.2,290.2,291.6,,290.9,36,289.0,5,5,prime,10,0,95,norm,36,-4.425,down,norm,285.920146878,289.9,305.9,291.2,294.4,2,289.3,283.5,281.3,10,5,7.986,5.152,1.814,-1.2,-4.462,-8.317,292.0,5,380.9,-8.237,-7.604,80,-7.841,-7.554,-4.887,-5.224,-4.536,-4.368,4.598,7.663,32,-1.285,1.782,4.758,7.866,-7.507,-8.38,-1.265,1.45,278.9,285.6,283.3,292.9,280.2,273.4,279.9,287.6,303.9,289.6,1,norm,1.979,1.538,-2.094,-1.475,-4.863,-4.36,-1.287,-1.716,-1.726,-1.149,1.13,-1.616,276.3,270.5,-5.057,-8.086,1.835,-1.602,8.079,5.063,-5.161,-8.004,26,4.926,4.446,4.591,4.31,1.365,1.767,2.044,1.211,26,4.961,4.988,80,168.502121988,norm,0,95,95,95,465.49,465.499,465.516075956,465.516,465.518,465.521,down,1,1.96182079362,8.03817920638,001,009,1920_1080,Intel(R) Core(TM) i5-3570 CPU @ 3.40GHz,orientation_search,LEPPC096,Intel(R) HD Graphics 2500,2018_Oct_24_1105,testMonitor,
