d_ori_22,d_ori_23,d_ori_20,d_ori_21,set_size,ctpd,d_ori_24,d_ori_25,d_ori_28,d_ori_29,stim_pos_x_30,stim_pos_x_31,stim_pos_x_32,stim_pos_x_33,stim_pos_x_34,stim_pos_x_35,stim_pos_y_11,stim_pos_y_10,stim_pos_y_13,stim_pos_y_12,stim_pos_y_15,stim_pos_y_14,stim_pos_y_17,stim_pos_y_16,stim_pos_y_19,stim_pos_y_18,d_ori_35,d_ori_34,stim_pos_x_3,d_ori_31,d_ori_30,d_ori_33,d_ori_32,d_ori_26,test_set_size,d_ori_27,targetCol,dsd_test,seq_type,dsd,blockRepN,targetDist,dtype_test,prime_set_size,stim_pos_y_25,correctResponse,dtype,distrMean,d_ori_17,d_ori_16,d_ori_15,d_ori_14,targetRow,d_ori_11,d_ori_13,d_ori_12,dsd_prime,streak_length_prime,stim_pos_y_35,stim_pos_y_34,stim_pos_y_33,stim_pos_y_32,stim_pos_y_31,stim_pos_y_30,d_ori_10,nextProbe,targetOri,stim_pos_x_1,stim_pos_x_2,ctpd_prime,stim_pos_x_4,stim_pos_x_5,stim_pos_x_6,stim_pos_x_7,stim_pos_x_8,stim_pos_x_9,stim_pos_y_28,stim_pos_y_29,targetPos,stim_pos_y_20,stim_pos_y_21,stim_pos_y_22,stim_pos_y_23,stim_pos_y_24,stim_pos_x_0,stim_pos_y_26,stim_pos_y_27,d_ori_9,d_ori_8,d_ori_3,d_ori_2,d_ori_1,d_ori_0,d_ori_7,d_ori_6,d_ori_5,d_ori_4,trialN,dtype_prime,stim_pos_x_18,stim_pos_x_19,stim_pos_x_12,stim_pos_x_13,stim_pos_x_10,stim_pos_x_11,stim_pos_x_16,stim_pos_x_17,stim_pos_x_14,stim_pos_x_15,stim_pos_y_9,stim_pos_y_8,d_ori_19,d_ori_18,stim_pos_y_1,stim_pos_y_0,stim_pos_y_3,stim_pos_y_2,stim_pos_y_5,stim_pos_y_4,stim_pos_y_7,stim_pos_y_6,totBlockN,stim_pos_x_27,stim_pos_x_26,stim_pos_x_25,stim_pos_x_24,stim_pos_x_23,stim_pos_x_22,stim_pos_x_21,stim_pos_x_20,blockN,stim_pos_x_29,stim_pos_x_28,prevDistrCTPD,prevDistrMean,prevDistrType,trials.thisRepN,trials.thisTrialN,trials.thisN,trials.thisIndex,timeStart,timeBeforeDraw,timeDraw,timeAfterSaving,timeAfterWritingToTemp,timeAfterPreparingNext,answer,correct,rt,trialScore,session,participant,resolution,cpu_info,expName,pc_name,graphic_card,date,monitorName,
286.6,301.6,279.3,285.1,36,60,291.9,278.0,297.7,271.1,7.713,7.605,7.857,8.28,8.321,8.075,7.683,4.901,-4.553,-8.32,2.02,-1.84,7.603,5.035,-4.981,-8.346,292.4,284.0,-8.389,282.4,,286.1,280.9,283.7,36,278.6,5,5,prime,10,0,86,norm,36,-4.72,down,norm,288.569354725,301.8,308.6,289.3,293.6,0,291.1,283.9,306.2,10,5,7.653,4.588,1.222,-1.285,-5.26,-8.495,268.6,5,374.6,-8.266,-8.01,60,-7.898,-8.414,-4.629,-4.315,-5.073,-4.728,5.169,7.627,30,-1.504,1.472,4.981,8.221,-7.814,-8.356,-1.954,1.647,306.1,281.7,295.1,270.2,284.9,292.7,274.6,281.3,304.4,291.4,0,norm,1.263,1.376,-1.997,-1.37,-4.958,-4.386,-1.831,-1.801,-1.706,-2.074,1.236,-2.075,277.7,300.3,-5.103,-7.686,1.725,-1.504,7.955,4.485,-5.256,-7.742,0,4.848,4.963,5.259,4.596,1.973,1.507,1.617,1.649,0,4.963,5.001,,,,0,0,0,0,415.836,415.857,415.876457605,415.877,415.877,415.879,down,1,0.876370070582,9.12362992942,001,005,1920_1080,Intel(R) Core(TM) i5-3570 CPU @ 3.40GHz,orientation_search,LEPPC096,Intel(R) HD Graphics 2500,2018_Oct_10_1445,testMonitor,
301.7,270.0,277.0,277.0,36,60,280.3,273.3,289.6,304.6,8.118,7.881,8.173,7.753,7.813,7.85,7.744,4.996,-4.425,-7.881,1.777,-1.562,7.894,5.142,-4.682,-7.502,294.6,275.8,-7.766,276.8,283.6,283.2,299.1,290.9,36,283.0,1,5,prime,10,0,106,norm,36,-5.289,up,norm,288.569354725,288.9,284.1,296.9,279.2,5,,293.1,292.6,10,5,8.204,4.848,1.235,-1.654,-4.685,-8.162,294.8,5,394.6,-8.414,-7.813,60,-8.231,-8.385,-4.903,-4.659,-4.708,-4.899,4.947,7.703,11,-1.409,1.376,5.106,7.668,-8.075,-8.134,-1.37,1.96,273.3,287.3,297.0,294.9,280.0,296.3,268.6,281.7,275.1,292.4,1,norm,1.222,1.887,-1.734,-1.833,-5.133,-4.519,-1.446,-1.918,-1.746,-1.435,1.654,-1.828,308.6,282.1,-4.311,-7.67,1.823,-1.877,7.772,4.806,-4.52,-8.124,0,5.207,4.881,5.098,4.63,1.503,1.277,1.991,2.068,0,4.507,4.591,,,,0,1,1,1,416.788,416.799,416.810315705,416.81,416.812,416.814,up,1,1.09694419022,8.90305580978,001,005,1920_1080,Intel(R) Core(TM) i5-3570 CPU @ 3.40GHz,orientation_search,LEPPC096,Intel(R) HD Graphics 2500,2018_Oct_10_1445,testMonitor,
278.0,283.0,299.8,289.5,36,60,276.3,283.3,298.7,288.1,8.327,8.298,7.963,7.541,7.982,7.722,7.696,4.989,-4.92,-8.04,1.31,-1.354,7.757,4.555,-4.388,-8.075,306.1,302.7,-8.315,287.1,297.0,291.3,,289.2,36,285.2,5,5,prime,10,0,102,norm,36,-5.261,down,norm,288.569354725,301.7,294.9,284.3,293.4,2,286.9,292.5,301.7,10,5,7.702,4.491,1.893,-1.636,-5.183,-8.263,291.1,5,390.6,-8.295,-8.002,60,-8.314,-7.736,-4.348,-4.866,-5.086,-4.694,4.36,7.64,32,-1.149,1.721,4.428,8.271,-8.254,-7.705,-1.37,1.538,287.8,291.5,278.9,304.7,308.6,268.6,289.9,276.2,279.1,285.2,2,norm,1.334,1.836,-1.135,-1.291,-4.562,-4.933,-1.783,-1.24,-1.164,-2.042,1.94,-1.912,287.0,308.4,-5.144,-7.648,1.211,-1.703,7.764,5.282,-4.325,-7.999,0,5.12,5.213,4.934,4.865,1.573,1.654,1.396,1.116,0,4.93,4.794,,,,0,2,2,2,417.95,417.96,417.965652853,417.966,417.967,417.97,down,1,0.892362980867,9.10763701913,001,005,1920_1080,Intel(R) Core(TM) i5-3570 CPU @ 3.40GHz,orientation_search,LEPPC096,Intel(R) HD Graphics 2500,2018_Oct_10_1445,testMonitor,
299.4,280.8,281.7,,36,60,276.4,290.5,300.4,287.1,7.895,7.913,7.695,8.407,7.758,7.741,8.276,4.815,-4.743,-8.124,1.727,-1.463,7.717,4.446,-4.993,-8.328,289.6,292.7,-8.461,282.7,277.9,283.4,287.2,297.2,36,287.6,3,5,prime,10,0,97,norm,36,-4.557,up,norm,288.569354725,270.6,282.0,277.2,298.4,3,288.0,280.1,285.7,10,5,8.057,4.861,1.905,-1.278,-4.835,-8.347,285.6,5,385.6,-7.582,-7.513,60,-7.776,-8.455,-4.943,-4.451,-4.388,-5.216,4.538,7.897,21,-1.501,1.66,5.299,7.997,-7.806,-7.636,-1.675,1.387,277.4,275.9,268.6,287.3,300.7,308.6,279.1,286.0,290.0,301.3,3,norm,1.742,1.588,-2.087,-1.398,-4.839,-4.869,-1.228,-1.608,-1.949,-1.543,1.588,-1.487,297.2,303.3,-4.636,-8.324,1.439,-1.665,7.685,5.145,-4.56,-8.108,0,4.309,4.382,5.222,4.524,1.247,1.841,1.541,1.516,0,5.181,4.874,,,,0,3,3,3,418.895,418.906,418.91609276,418.916,418.918,418.921,up,1,0.957174352423,9.04282564758,001,005,1920_1080,Intel(R) Core(TM) i5-3570 CPU @ 3.40GHz,orientation_search,LEPPC096,Intel(R) HD Graphics 2500,2018_Oct_10_1445,testMonitor,
294.4,301.1,286.2,303.2,36,60,281.5,308.6,274.3,282.4,8.101,8.45,7.569,7.572,7.948,8.148,8.234,5.005,-4.81,-7.579,1.531,-1.324,7.811,5.029,-4.897,-8.369,279.1,271.7,-8.128,,268.6,283.0,287.0,296.3,36,274.5,5,5,prime,10,0,99,norm,36,-4.828,down,norm,288.569354725,277.4,298.9,308.1,281.8,1,295.3,274.1,305.2,10,5,7.591,5.247,2.092,-1.929,-4.408,-7.754,292.9,5,387.6,-8.093,-8.102,60,-8.187,-8.35,-4.357,-4.818,-4.587,-4.907,5.091,8.276,31,-1.625,1.406,4.766,7.943,-7.612,-7.643,-1.467,1.886,287.2,286.1,291.1,289.9,298.7,282.4,288.3,282.3,289.7,292.3,4,norm,1.224,1.748,-1.522,-1.25,-4.687,-4.89,-1.75,-1.869,-1.835,-1.863,1.542,-1.845,274.6,286.8,-5.046,-8.29,1.806,-1.945,7.795,4.825,-4.734,-7.994,0,5.119,4.674,4.342,5.018,1.274,1.135,2.019,1.764,0,4.782,4.639,,,,0,4,4,4,419.91,419.921,419.930062409,419.93,419.932,419.935,down,1,1.76816618814,8.23183381186,001,005,1920_1080,Intel(R) Core(TM) i5-3570 CPU @ 3.40GHz,orientation_search,LEPPC096,Intel(R) HD Graphics 2500,2018_Oct_10_1445,testMonitor,
442.0,441.0,440.4,437.8,36,10,430.2,441.5,439.2,446.8,7.969,7.547,7.601,7.722,8.358,8.323,7.503,4.947,-4.682,-7.507,1.392,-1.391,7.642,4.779,-4.901,-8.475,437.3,437.9,-7.636,443.3,436.0,432.3,431.6,450.2,36,439.0,1,5,probe,5,0,90,norm,36,-4.71,up,norm,440.241419473,440.2,436.4,437.8,443.5,3,438.3,437.2,448.5,10,5,7.734,4.651,1.512,-1.219,-4.941,-8.089,444.5,2,350.2,-8.36,-7.597,60,-7.935,-8.004,-4.517,-5.081,-4.871,-5.224,4.561,7.647,9,-1.444,1.112,4.57,7.573,-7.571,-8.433,-1.175,1.756,,437.6,436.8,440.7,446.2,449.8,440.2,440.6,443.0,433.9,0,norm,1.557,1.578,-1.406,-1.388,-4.558,-4.62,-2.048,-1.499,-1.204,-1.687,1.231,-1.803,443.4,437.3,-4.932,-8.026,2.043,-1.267,8.22,4.348,-4.592,-7.692,1,5.042,4.816,5.202,5.106,1.11,1.626,1.552,2.064,1,4.609,5.166,60,288.569354725,norm,0,5,5,5,421.735,421.745,421.755358337,421.756,421.757,421.76,up,1,1.42034725358,8.57965274642,001,005,1920_1080,Intel(R) Core(TM) i5-3570 CPU @ 3.40GHz,orientation_search,LEPPC096,Intel(R) HD Graphics 2500,2018_Oct_10_1445,testMonitor,
427.3,416.0,416.6,419.5,36,10,423.4,419.5,419.6,,8.232,7.705,7.505,7.676,7.752,7.639,7.759,4.657,-4.877,-8.094,2.038,-1.535,7.732,4.756,-5.276,-8.275,426.9,421.9,-7.947,422.9,417.9,426.4,432.2,422.0,36,421.7,4,5,probe,5,0,72,norm,36,-4.812,up,norm,422.241419473,425.1,419.5,426.8,421.0,5,423.7,424.9,421.4,10,5,7.757,4.812,2.067,-1.323,-4.715,-7.715,420.5,2,350.2,-8.018,-7.503,60,-7.533,-8.455,-5.075,-4.47,-4.344,-4.528,4.432,8.256,29,-1.933,1.505,4.898,7.567,-7.719,-8.244,-1.584,1.492,412.2,421.3,424.6,423.0,431.3,428.1,416.3,412.3,431.1,427.3,1,norm,1.921,1.704,-1.676,-1.539,-4.31,-4.716,-1.36,-1.967,-1.5,-1.608,1.557,-1.473,422.7,425.6,-4.5,-8.11,1.294,-1.342,7.981,4.958,-4.473,-7.503,1,4.793,4.939,4.667,4.992,1.853,1.243,1.56,1.285,1,4.59,4.604,60,288.569354725,norm,0,6,6,6,423.223,423.232,423.238163182,423.238,423.24,423.243,up,1,0.99495014742,9.00504985258,001,005,1920_1080,Intel(R) Core(TM) i5-3570 CPU @ 3.40GHz,orientation_search,LEPPC096,Intel(R) HD Graphics 2500,2018_Oct_10_1445,testMonitor,
213.3,233.2,245.5,228.5,36,40,221.1,243.2,206.0,229.3,8.119,8.264,8.136,7.669,7.756,7.554,7.602,4.623,-5.161,-8.422,1.63,-1.984,7.886,5.094,-4.981,-8.018,222.9,224.6,-7.525,216.8,238.0,225.5,243.7,238.2,36,217.5,1,5,prime,10,0,98,norm,36,-4.747,up,norm,225.955756832,227.4,222.8,222.4,239.3,4,226.6,218.7,238.0,10,5,8.211,4.823,1.455,-2.064,-5.126,-7.976,,5,324.0,-7.694,-8.431,40,-8.115,-8.337,-4.781,-4.391,-4.799,-4.918,4.341,7.988,10,-1.378,1.464,4.954,8.157,-7.916,-7.998,-1.516,1.671,215.5,231.1,229.8,234.9,228.6,224.5,246.0,222.3,229.4,216.6,0,norm,1.468,1.78,-1.122,-1.294,-4.885,-4.68,-2.073,-1.403,-1.353,-1.585,1.143,-1.774,215.6,212.7,-4.65,-7.611,1.935,-1.683,8.136,4.541,-4.488,-8.419,2,4.352,5.019,4.536,4.489,1.993,1.874,1.94,1.331,2,4.773,5.03,10,288.569354725,norm,0,7,7,7,424.27,424.281,424.297844108,424.298,424.3,424.303,up,1,0.777400506133,9.22259949387,001,005,1920_1080,Intel(R) Core(TM) i5-3570 CPU @ 3.40GHz,orientation_search,LEPPC096,Intel(R) HD Graphics 2500,2018_Oct_10_1445,testMonitor,
226.5,216.0,221.2,206.0,36,40,228.8,236.6,228.6,233.9,7.765,7.622,8.492,7.633,8.089,7.941,8.489,5.104,-4.49,-7.918,2.015,-1.498,8.203,4.414,-5.057,-7.539,234.3,242.7,-7.804,225.9,234.6,246.0,212.5,235.0,36,214.6,1,5,prime,10,0,91,norm,36,-4.923,down,norm,225.955756832,225.8,224.9,224.6,232.2,1,223.9,240.6,243.8,10,5,8.012,4.499,1.877,-1.925,-4.523,-7.516,220.1,5,317.0,-8.419,-7.846,40,-8.158,-8.006,-5.015,-4.778,-4.655,-4.884,5.217,8.101,7,-1.389,1.221,4.594,7.844,-7.855,-7.924,-1.898,2.021,229.5,224.1,233.2,221.8,219.6,226.9,,215.3,225.0,236.0,1,norm,1.448,1.284,-1.697,-1.332,-5.248,-4.322,-1.266,-1.488,-1.47,-1.296,1.943,-2.093,233.8,234.6,-4.572,-7.756,1.364,-1.454,8.026,4.42,-5.137,-7.76,2,4.559,4.689,4.63,5.208,1.625,1.666,1.316,1.966,2,4.792,4.457,10,288.569354725,norm,0,8,8,8,425.113,425.123,425.140239809,425.14,425.142,425.145,down,1,0.690802929577,9.30919707042,001,005,1920_1080,Intel(R) Core(TM) i5-3570 CPU @ 3.40GHz,orientation_search,LEPPC096,Intel(R) HD Graphics 2500,2018_Oct_10_1445,testMonitor,
233.0,237.9,237.6,208.7,36,40,219.0,226.4,206.0,239.6,8.158,8.439,8.154,8.133,8.402,7.934,7.867,4.441,-4.605,-8.179,1.408,-1.673,7.964,5.206,-4.924,-7.541,234.7,221.4,-8.227,209.9,226.8,214.2,230.4,246.0,36,217.7,1,5,prime,10,0,102,norm,36,-4.413,down,norm,225.955756832,230.0,221.9,220.4,231.9,2,226.8,222.2,228.1,10,5,8.309,4.749,1.891,-1.504,-4.542,-7.848,212.2,5,328.0,-8.479,-7.543,40,-8.441,-7.532,-4.668,-5.133,-5.195,-4.622,4.405,7.551,8,-1.291,1.56,5.121,7.881,-8.5,-7.763,-1.865,1.635,223.3,,225.4,240.1,230.6,229.9,215.2,219.1,225.8,224.1,2,norm,1.645,1.78,-1.754,-2.018,-4.577,-5.197,-1.829,-1.539,-1.712,-2.041,1.978,-1.199,214.7,215.3,-4.897,-8.173,1.673,-1.393,8.019,4.375,-4.603,-8.163,2,5.092,5.069,4.647,4.649,1.287,1.458,1.759,1.248,2,4.857,4.405,10,288.569354725,norm,0,9,9,9,425.874,425.884,425.89175235,425.892,425.894,425.896,up,0,0.55114899993,-10,001,005,1920_1080,Intel(R) Core(TM) i5-3570 CPU @ 3.40GHz,orientation_search,LEPPC096,Intel(R) HD Graphics 2500,2018_Oct_10_1445,testMonitor,
236.8,244.0,226.1,214.8,36,40,224.9,215.3,230.7,206.0,8.345,7.807,7.853,7.945,7.501,7.736,8.041,5.086,-4.804,-8.237,1.523,-1.914,8.222,4.428,-4.898,-7.549,231.6,225.3,-7.922,235.1,220.3,230.0,224.5,239.7,36,215.2,1,5,prime,10,0,114,norm,36,-4.841,up,norm,225.955756832,227.2,230.1,229.2,225.8,3,232.7,208.4,231.9,10,5,7.958,5.174,2.088,-1.714,-5.223,-8.442,229.9,5,340.0,-7.899,-7.693,40,-7.73,-7.548,-4.436,-5.053,-4.837,-4.877,4.572,8.051,9,-1.53,1.105,4.527,7.779,-7.65,-8.059,-1.428,1.761,,229.2,231.7,213.6,217.0,236.9,218.2,228.1,246.0,230.8,3,norm,1.423,1.796,-1.152,-1.96,-5.121,-4.67,-1.804,-1.959,-1.122,-1.388,1.529,-1.112,238.1,234.0,-4.486,-8.251,2.014,-1.36,8.387,4.92,-5.273,-8.408,2,4.476,4.486,4.335,4.915,1.709,1.137,1.203,1.839,2,5.091,4.909,10,288.569354725,norm,0,10,10,10,427.5,427.51,427.527004788,427.527,427.529,427.532,up,1,1.07894371452,8.92105628548,001,005,1920_1080,Intel(R) Core(TM) i5-3570 CPU @ 3.40GHz,orientation_search,LEPPC096,Intel(R) HD Graphics 2500,2018_Oct_10_1445,testMonitor,
246.0,228.2,223.0,235.1,36,40,243.8,234.0,235.5,224.0,7.869,8.055,7.901,8.144,8.135,8.196,8.331,5.292,-4.771,-7.964,1.578,-1.733,8.429,4.515,-4.507,-7.892,221.2,219.3,-7.937,227.2,229.4,228.6,239.0,209.3,36,229.3,1,5,prime,10,0,87,norm,36,-4.45,up,norm,225.955756832,238.1,223.3,219.9,244.1,5,,220.1,211.5,10,5,8.245,4.34,1.514,-1.741,-4.505,-7.731,230.5,5,313.0,-8.383,-7.743,40,-8.053,-7.568,-5.022,-4.906,-5.019,-5.046,4.957,7.828,11,-1.35,1.411,4.74,8.115,-8.027,-7.861,-1.249,1.271,230.0,237.2,221.4,221.7,243.8,239.1,225.3,230.2,214.2,219.7,4,norm,1.763,1.17,-1.367,-1.801,-4.943,-4.514,-1.437,-1.874,-1.421,-1.944,1.348,-1.322,218.8,224.8,-4.654,-8.408,1.358,-1.481,7.709,4.724,-4.414,-7.546,2,4.412,4.405,4.667,5.033,1.458,1.811,1.782,1.914,2,4.695,5.216,10,288.569354725,norm,0,11,11,11,428.642,428.652,428.665701872,428.666,428.668,428.67,up,1,1.0285420807,8.9714579193,001,005,1920_1080,Intel(R) Core(TM) i5-3570 CPU @ 3.40GHz,orientation_search,LEPPC096,Intel(R) HD Graphics 2500,2018_Oct_10_1445,testMonitor,
348.1,349.4,347.8,365.9,36,-10,351.8,,363.8,358.5,8.493,8.493,7.594,7.564,8.339,8.333,7.585,4.551,-5.069,-7.601,1.338,-1.838,8.343,4.55,-4.382,-7.716,357.4,347.8,-7.658,348.3,367.0,357.0,359.0,360.4,36,362.8,4,5,probe,5,0,88,norm,36,-4.987,down,norm,356.970039122,358.0,360.4,356.9,353.7,1,351.0,359.5,347.0,10,5,7.52,4.747,1.953,-1.215,-4.785,-8.314,353.3,1,269.0,-7.745,-8.186,40,-8.4,-8.357,-4.434,-5.247,-4.415,-4.643,4.371,8.082,25,-2.073,1.442,4.752,8.236,-8.004,-7.595,-1.692,1.865,355.9,353.0,362.8,366.7,362.0,353.1,363.4,358.1,354.7,361.2,0,norm,1.96,1.19,-1.458,-1.172,-4.64,-4.575,-1.172,-1.233,-1.155,-1.123,1.446,-1.949,357.5,360.1,-4.485,-8.159,1.487,-1.863,8.338,4.844,-4.918,-7.833,3,4.727,5.255,4.816,4.387,1.893,1.152,1.576,1.686,3,5.03,4.452,40,225.955756832,norm,0,12,12,12,429.731,429.741,429.757512599,429.758,429.759,429.762,down,1,1.5201151958,8.4798848042,001,005,1920_1080,Intel(R) Core(TM) i5-3570 CPU @ 3.40GHz,orientation_search,LEPPC096,Intel(R) HD Graphics 2500,2018_Oct_10_1445,testMonitor,
276.7,286.2,299.6,276.6,36,30,284.8,,279.9,289.1,7.5,7.606,7.984,8.275,7.544,8.239,7.517,4.499,-5.172,-8.301,2.039,-1.206,7.522,5.231,-5.087,-7.827,285.3,276.9,-7.877,275.0,280.4,286.7,262.0,298.9,36,290.2,4,5,prime,10,0,96,norm,36,-5.023,down,norm,281.960562193,277.2,292.3,270.4,269.6,1,297.4,268.5,270.6,10,5,8.359,4.654,2.04,-1.572,-4.335,-8.366,287.9,5,378.0,-8.244,-8.41,30,-8.296,-8.096,-5.183,-5.216,-5.238,-4.312,4.651,8.318,25,-1.879,1.837,4.719,7.752,-7.888,-7.611,-1.313,1.394,270.2,269.1,269.9,269.7,283.7,283.4,265.9,263.5,271.5,302.0,0,norm,1.388,1.497,-1.248,-1.779,-5.1,-4.848,-1.2,-1.941,-1.572,-1.821,1.105,-1.616,262.1,278.4,-5.188,-7.753,1.632,-1.392,7.556,4.436,-4.99,-7.766,4,4.712,4.929,4.976,4.857,1.652,1.434,1.123,1.174,4,4.599,5.225,-10,225.955756832,norm,0,13,13,13,431.302,431.313,431.318463686,431.319,431.32,431.323,down,1,1.28021610833,8.71978389167,001,005,1920_1080,Intel(R) Core(TM) i5-3570 CPU @ 3.40GHz,orientation_search,LEPPC096,Intel(R) HD Graphics 2500,2018_Oct_10_1445,testMonitor,
296.7,298.1,286.1,288.2,36,30,265.7,271.2,280.7,277.0,8.304,8.155,7.605,8.496,7.83,8.191,8.366,5.242,-5.153,-7.587,1.527,-1.941,7.8,4.663,-5.234,-8.086,293.8,262.0,-7.835,284.2,289.6,281.6,291.9,279.2,36,293.7,2,5,prime,10,0,81,norm,36,-4.474,down,norm,281.960562193,302.0,273.9,293.8,283.3,1,294.9,,271.8,10,5,7.761,4.986,1.68,-1.831,-4.67,-8.222,290.8,5,363.0,-7.501,-8.08,30,-7.752,-7.58,-4.443,-5.215,-5.189,-4.523,4.705,7.604,13,-1.404,1.149,4.825,7.874,-7.977,-8.415,-2.065,2.065,281.8,276.5,293.5,275.6,301.5,289.4,283.6,281.4,294.4,282.2,1,norm,1.212,1.316,-1.65,-2.036,-4.737,-4.995,-1.4,-1.887,-1.593,-1.663,1.733,-1.305,286.9,295.0,-5.242,-8.29,1.293,-2.025,7.815,4.335,-5.187,-7.616,4,5.235,4.827,4.424,5.195,2.01,2.003,1.225,1.578,4,4.92,4.527,-10,225.955756832,norm,0,14,14,14,432.644,432.654,432.660057387,432.66,432.662,432.665,up,0,1.88978764661,-10,001,005,1920_1080,Intel(R) Core(TM) i5-3570 CPU @ 3.40GHz,orientation_search,LEPPC096,Intel(R) HD Graphics 2500,2018_Oct_10_1445,testMonitor,
285.8,272.4,276.7,285.1,36,30,262.0,288.5,293.4,289.2,7.774,8.105,7.604,8.429,7.759,8.118,8.124,4.699,-4.522,-7.628,1.257,-1.223,8.256,4.321,-5.022,-8.043,298.7,289.8,-8.199,271.4,284.2,302.0,294.0,287.6,36,292.7,2,5,prime,10,0,60,norm,36,-4.659,up,norm,281.960562193,300.0,,282.8,281.9,4,277.9,283.7,279.0,10,5,8.191,4.307,1.358,-1.508,-4.395,-7.782,280.5,5,342.0,-8.448,-8.013,30,-8.064,-7.768,-4.666,-4.712,-4.942,-4.367,4.351,7.66,16,-1.782,1.134,5.145,7.703,-8.225,-8.375,-2.062,1.135,291.5,301.5,287.0,265.0,291.7,287.1,267.6,271.9,287.5,288.6,2,norm,1.73,2.081,-1.399,-1.995,-5.084,-5.021,-1.62,-1.942,-1.134,-1.637,1.385,-1.46,284.5,280.6,-4.882,-7.999,1.711,-1.94,7.531,4.944,-5.272,-8.457,4,5.165,5.282,4.313,4.6,1.634,1.279,1.458,1.414,4,5.284,4.651,-10,225.955756832,norm,0,15,15,15,435.627,435.637,435.643181582,435.643,435.645,435.648,up,1,2.01220808652,7.98779191348,001,005,1920_1080,Intel(R) Core(TM) i5-3570 CPU @ 3.40GHz,orientation_search,LEPPC096,Intel(R) HD Graphics 2500,2018_Oct_10_1445,testMonitor,
284.6,291.7,289.5,270.3,36,30,289.0,285.1,301.0,285.4,7.675,7.576,7.675,7.501,7.77,8.497,8.198,4.363,-4.579,-7.857,1.536,-1.295,8.457,4.672,-4.702,-8.303,,266.6,-7.515,285.7,292.4,287.3,262.0,283.1,36,296.3,5,5,prime,10,0,81,norm,36,-4.611,up,norm,281.960562193,279.8,283.6,282.1,286.2,5,302.0,286.0,270.4,10,5,8.119,5.296,1.495,-1.675,-4.322,-7.735,263.5,5,363.0,-7.689,-7.936,30,-7.665,-8.416,-4.488,-4.521,-5.045,-4.903,4.377,8.472,35,-1.924,2.073,5.042,7.842,-7.562,-7.745,-1.169,1.704,282.4,274.2,272.1,279.2,290.4,282.7,278.8,294.7,279.7,286.7,3,norm,1.725,1.375,-1.332,-1.434,-5.073,-5.21,-1.659,-1.365,-1.885,-1.676,1.242,-2.011,282.0,291.9,-5.284,-7.878,1.39,-1.638,8.282,4.383,-5.013,-8.054,4,4.751,4.339,5.035,4.89,2.036,1.235,1.918,2.014,4,4.693,4.551,-10,225.955756832,norm,0,16,16,16,437.699,437.718,437.73086942,437.731,437.733,437.736,up,1,1.59042103636,8.40957896364,001,005,1920_1080,Intel(R) Core(TM) i5-3570 CPU @ 3.40GHz,orientation_search,LEPPC096,Intel(R) HD Graphics 2500,2018_Oct_10_1445,testMonitor,
295.5,291.6,285.0,292.4,36,30,281.7,276.5,291.6,297.7,8.375,8.22,8.224,7.934,7.884,8.314,8.02,4.533,-5.295,-8.124,1.478,-1.476,7.92,5.045,-5.026,-7.518,262.0,283.3,-8.046,272.4,281.5,293.6,276.1,278.9,36,297.0,2,5,prime,10,0,105,norm,36,-4.392,down,norm,281.960562193,290.4,300.7,288.4,274.5,0,268.7,281.9,,10,5,7.54,4.474,1.569,-1.905,-5.18,-7.863,279.8,5,387.0,-8.087,-8.465,30,-7.561,-7.791,-5.107,-4.756,-5.204,-5.172,4.42,8.003,12,-1.939,1.67,4.789,7.971,-7.586,-7.751,-2.084,1.364,289.3,268.2,302.0,275.8,286.2,272.5,277.5,293.1,289.1,298.9,4,norm,1.875,1.684,-1.656,-1.766,-4.38,-4.431,-1.6,-1.401,-1.657,-1.22,1.327,-1.907,276.5,290.1,-4.639,-8.177,1.533,-1.745,8.333,4.805,-4.926,-7.727,4,4.982,4.408,5.248,4.431,1.679,1.691,1.85,1.959,4,4.546,5.06,-10,225.955756832,norm,0,17,17,17,439.367,439.377,439.383450127,439.384,439.385,439.388,down,1,1.92508590484,8.07491409516,001,005,1920_1080,Intel(R) Core(TM) i5-3570 CPU @ 3.40GHz,orientation_search,LEPPC096,Intel(R) HD Graphics 2500,2018_Oct_10_1445,testMonitor,
372.1,365.3,378.2,376.7,36,20,380.6,374.6,381.7,379.3,7.579,8.356,8.122,8.453,8.217,7.829,7.924,4.777,-5.156,-8.044,1.855,-1.909,8.032,4.36,-4.6,-8.102,373.6,377.3,-7.906,375.3,369.9,385.3,368.6,376.6,36,382.7,1,5,probe,5,0,62,norm,36,-4.682,down,norm,375.263821407,366.3,372.0,379.4,371.0,1,376.8,379.1,378.0,10,5,7.841,4.467,1.225,-1.679,-4.445,-7.934,376.6,1,313.3,-7.81,-7.674,30,-7.86,-8.228,-4.336,-4.398,-5.154,-4.953,4.509,8.375,7,-1.643,2.019,4.575,7.928,-8.059,-7.914,-1.792,1.863,378.5,384.8,377.5,369.8,372.8,378.4,,379.5,381.9,382.4,0,norm,1.676,1.262,-1.778,-1.851,-4.314,-5.19,-1.885,-1.864,-1.244,-2.078,1.766,-1.735,377.1,374.5,-5.2,-7.769,1.96,-2.048,8.376,4.341,-4.625,-7.909,5,5.187,4.435,4.785,4.884,1.409,1.704,1.406,1.961,5,4.314,4.976,30,281.960562193,norm,0,18,18,18,441.33,441.34,441.347744681,441.348,441.35,441.352,up,0,1.23129109608,-10,001,005,1920_1080,Intel(R) Core(TM) i5-3570 CPU @ 3.40GHz,orientation_search,LEPPC096,Intel(R) HD Graphics 2500,2018_Oct_10_1445,testMonitor,
146.2,124.9,155.2,144.4,36,-20,152.4,137.9,125.9,129.4,8.124,8.059,8.299,8.498,7.951,7.532,7.551,4.722,-4.821,-8.477,1.623,-1.525,8.356,4.401,-4.473,-7.616,142.1,128.8,-8.038,117.5,124.0,132.1,127.4,132.1,36,145.0,0,5,prime,10,0,76,norm,36,-5.258,down,norm,137.486653773,129.1,140.0,157.5,143.1,2,149.6,140.9,142.1,10,6,8.473,4.609,1.757,-2.064,-4.332,-8.384,143.4,6,213.5,-8.017,-8.065,-20,-7.666,-8.171,-4.578,-4.833,-5.216,-4.553,4.734,8.258,2,-1.902,1.964,4.992,8.47,-7.968,-8.064,-1.5,2.082,134.8,133.9,148.3,,137.2,152.1,124.9,134.1,132.3,133.7,0,norm,1.208,1.536,-1.559,-1.866,-4.755,-4.421,-1.918,-1.731,-2.072,-1.402,1.809,-2.024,133.6,152.5,-4.821,-8.3,1.486,-1.202,8.075,5.204,-4.938,-7.879,6,4.54,4.605,5.224,4.767,1.759,1.317,1.867,1.791,6,5.086,4.809,20,281.960562193,norm,0,19,19,19,443.65,443.66,443.672130851,443.672,443.674,443.677,down,1,1.29946229484,8.70053770516,001,005,1920_1080,Intel(R) Core(TM) i5-3570 CPU @ 3.40GHz,orientation_search,LEPPC096,Intel(R) HD Graphics 2500,2018_Oct_10_1445,testMonitor,
138.8,132.3,141.7,129.6,36,-20,126.0,136.8,127.6,145.6,7.747,8.168,7.964,7.69,8.145,7.91,8.056,5.014,-5.151,-8.413,1.999,-1.476,7.53,4.827,-4.779,-7.814,117.5,151.1,-8.115,148.9,131.1,,132.4,134.4,36,131.6,5,5,prime,10,0,111,norm,36,-4.816,up,norm,137.486653773,134.4,152.7,150.1,148.9,3,138.2,153.2,148.4,10,6,7.534,4.324,2.021,-2.008,-4.434,-8.234,140.9,6,248.5,-8.303,-8.443,-20,-8.395,-7.712,-5.097,-5.035,-4.473,-4.529,5.122,7.875,33,-1.247,1.73,5.082,7.662,-7.923,-7.701,-1.768,1.626,127.0,137.6,121.8,149.0,133.9,136.9,127.6,149.2,125.0,126.7,1,norm,1.696,1.715,-1.549,-1.4,-4.927,-4.6,-2.033,-1.892,-1.826,-1.623,1.635,-1.652,157.5,128.2,-4.967,-8.285,1.511,-2.064,8.159,5.263,-4.452,-7.501,6,4.81,4.837,5.288,5.271,1.176,1.791,1.88,1.253,6,4.647,5.293,20,281.960562193,norm,0,20,20,20,445.015,445.037,445.046784334,445.047,445.049,445.051,up,1,0.994277638662,9.00572236134,001,005,1920_1080,Intel(R) Core(TM) i5-3570 CPU @ 3.40GHz,orientation_search,LEPPC096,Intel(R) HD Graphics 2500,2018_Oct_10_1445,testMonitor,
139.9,137.6,137.6,127.1,36,-20,142.3,137.5,148.0,137.5,7.996,7.998,7.7,7.856,7.754,7.559,8.204,4.985,-4.642,-8.371,1.439,-1.585,8.041,4.661,-4.356,-7.746,124.9,129.4,-8.422,141.6,157.5,148.1,130.0,126.3,36,142.5,2,5,prime,10,0,93,norm,36,-4.593,down,norm,137.486653773,146.3,151.5,135.9,127.1,1,155.4,,134.1,10,6,8.376,5.158,1.513,-1.29,-4.878,-8.178,132.6,6,230.5,-7.615,-7.808,-20,-7.698,-8.438,-4.341,-4.427,-4.374,-5.103,5.138,7.73,13,-1.452,2.014,4.878,7.781,-7.617,-8.419,-1.588,1.191,119.6,135.7,146.4,134.3,117.5,136.6,122.9,126.7,148.1,141.8,2,norm,1.945,1.78,-1.835,-1.915,-5.016,-4.656,-1.872,-2.078,-2.027,-1.658,1.668,-1.363,129.8,133.6,-4.78,-8.363,1.801,-1.212,8.433,4.575,-4.972,-7.523,6,4.302,5.014,4.685,4.54,1.785,2.03,1.925,1.741,6,5.277,4.965,20,281.960562193,norm,0,21,21,21,446.078,446.088,446.105430538,446.106,446.107,446.11,down,1,1.11098054675,8.88901945325,001,005,1920_1080,Intel(R) Core(TM) i5-3570 CPU @ 3.40GHz,orientation_search,LEPPC096,Intel(R) HD Graphics 2500,2018_Oct_10_1445,testMonitor,
151.7,133.9,129.8,132.8,36,-20,141.9,141.6,133.2,150.7,8.07,8.342,7.944,8.012,7.75,8.433,7.889,4.554,-4.98,-7.668,1.912,-1.337,7.803,4.704,-4.319,-8.159,139.2,141.1,-8.321,135.6,136.9,137.5,132.9,146.0,36,136.1,2,5,prime,10,0,82,norm,36,-5.061,down,norm,137.486653773,144.2,127.6,157.5,117.5,0,120.7,133.1,,10,6,7.826,4.564,1.605,-1.605,-4.779,-7.507,125.2,6,219.5,-8.118,-7.549,-20,-8.357,-7.764,-4.615,-4.645,-4.326,-4.491,4.461,7.619,12,-1.185,1.521,4.539,8.297,-8.237,-7.665,-2.029,1.474,120.3,139.1,136.5,140.7,146.4,127.9,148.1,155.0,148.3,145.9,3,norm,1.308,1.534,-1.394,-1.461,-5.091,-4.659,-2.062,-2.044,-2.085,-1.894,1.329,-1.641,120.7,138.4,-4.988,-8.423,2.01,-1.745,8.077,4.92,-4.671,-7.952,6,5.095,4.759,4.966,4.961,1.788,2.063,2.061,2.005,6,4.361,4.664,20,281.960562193,norm,0,22,22,22,447.26,447.27,447.276400195,447.277,447.278,447.281,down,1,1.04506412377,8.95493587623,001,005,1920_1080,Intel(R) Core(TM) i5-3570 CPU @ 3.40GHz,orientation_search,LEPPC096,Intel(R) HD Graphics 2500,2018_Oct_10_1445,testMonitor,
141.4,141.1,141.9,149.8,36,-20,142.1,136.0,146.2,134.2,8.258,7.97,8.408,7.939,7.911,8.249,8.083,5.09,-4.82,-8.442,1.18,-1.252,8.153,5.293,-4.76,-7.63,137.3,135.0,-7.884,157.5,117.5,138.8,142.7,126.8,36,146.9,2,5,prime,10,0,89,norm,36,-4.33,down,norm,137.486653773,140.0,151.4,145.3,125.3,1,143.3,,143.1,10,6,8.199,5.083,1.113,-1.381,-4.356,-7.856,139.0,6,226.5,-8.315,-8.373,-20,-8.156,-7.521,-4.787,-4.626,-4.305,-5.182,4.714,7.852,13,-1.869,2.056,4.893,7.883,-7.727,-8.457,-1.789,1.409,122.6,132.1,127.1,130.9,135.3,138.8,137.0,151.0,127.3,140.1,4,norm,1.37,1.779,-1.974,-1.57,-4.363,-4.691,-1.89,-2.098,-1.125,-1.526,1.395,-1.7,136.9,141.5,-5.012,-7.78,1.574,-1.664,8.464,4.676,-4.817,-8.39,6,5.285,4.86,4.68,4.389,1.551,1.396,1.616,1.434,6,4.805,4.697,20,281.960562193,norm,0,23,23,23,448.368,448.378,448.3840677,448.384,448.386,448.389,down,1,1.07626937538,8.92373062462,001,005,1920_1080,Intel(R) Core(TM) i5-3570 CPU @ 3.40GHz,orientation_search,LEPPC096,Intel(R) HD Graphics 2500,2018_Oct_10_1445,testMonitor,
141.7,129.1,140.2,145.0,36,-20,141.3,132.2,154.7,147.8,7.572,7.564,7.765,8.001,8.012,8.09,8.438,4.428,-5.063,-7.694,1.157,-1.33,7.708,4.544,-4.885,-8.203,155.5,,-8.073,137.6,136.7,126.1,144.8,140.8,36,127.1,5,5,prime,10,0,79,norm,36,-5.082,up,norm,137.486653773,152.7,123.5,139.3,143.5,4,132.4,123.9,147.0,10,6,7.838,4.316,1.648,-1.486,-5.178,-8.138,142.2,6,216.5,-7.639,-7.809,-20,-8.17,-7.718,-5.255,-4.624,-4.455,-5.071,5.122,8.344,34,-1.649,1.434,4.515,7.658,-7.801,-7.903,-1.202,1.942,143.6,140.8,157.5,123.8,139.8,131.0,126.8,138.9,133.1,141.6,5,norm,1.676,1.774,-1.923,-1.162,-4.348,-4.874,-2.056,-2.024,-1.678,-1.708,2.084,-1.721,117.5,133.0,-4.584,-8.359,1.592,-1.565,7.852,5.145,-5.015,-8.036,6,4.506,4.93,4.779,4.961,1.958,1.932,1.706,1.159,6,5.281,4.566,20,281.960562193,norm,0,24,24,24,449.507,449.516,449.524484692,449.525,449.526,449.529,up,1,1.14201827485,8.85798172515,001,005,1920_1080,Intel(R) Core(TM) i5-3570 CPU @ 3.40GHz,orientation_search,LEPPC096,Intel(R) HD Graphics 2500,2018_Oct_10_1445,testMonitor,
197.7,191.1,186.6,193.7,36,40,181.2,177.7,185.3,194.6,7.976,7.841,8.167,7.889,8.125,7.528,8.424,4.971,-4.425,-8.16,1.921,-1.233,7.747,4.699,-4.613,-8.041,188.1,189.2,-7.958,185.4,190.4,188.8,193.4,185.9,36,194.9,0,5,probe,5,0,66,norm,36,-5.248,up,norm,187.692299359,191.7,188.5,184.2,183.4,4,191.3,184.5,192.2,10,6,8.483,4.889,1.919,-1.807,-4.55,-7.601,188.0,2,121.7,-7.969,-8.231,-20,-7.808,-8.063,-4.668,-4.568,-4.424,-4.342,4.465,7.588,4,-1.117,1.532,5.223,7.624,-7.643,-7.769,-1.396,1.496,188.2,183.1,192.8,183.3,184.2,185.9,192.7,184.8,193.4,,0,norm,1.762,1.518,-1.896,-1.891,-5.184,-5.226,-1.74,-1.971,-1.993,-1.448,2.051,-1.595,182.8,189.8,-4.398,-8.026,1.851,-1.184,8.226,4.554,-4.926,-8.065,7,5.003,4.796,4.528,4.479,1.124,1.677,1.442,2.047,7,4.438,4.379,-20,137.486653773,norm,0,25,25,25,450.704,450.714,450.722954161,450.723,450.725,450.727,up,1,1.05957528114,8.94042471886,001,005,1920_1080,Intel(R) Core(TM) i5-3570 CPU @ 3.40GHz,orientation_search,LEPPC096,Intel(R) HD Graphics 2500,2018_Oct_10_1445,testMonitor,
225.2,240.2,231.2,235.0,36,40,230.0,232.5,220.7,226.7,7.718,8.43,7.656,7.739,8.363,8.417,8.487,5.151,-5.037,-8.244,1.185,-1.364,8.08,5.046,-4.355,-8.229,225.5,239.2,-8.078,240.7,228.7,227.2,235.4,229.3,36,231.5,0,5,probe,5,0,109,norm,36,-5.237,up,norm,230.692299359,240.0,232.4,230.4,229.6,5,234.3,232.8,230.0,10,6,8.271,4.92,1.279,-1.268,-5.147,-8.144,224.9,2,121.7,-7.751,-7.564,-20,-8.153,-7.626,-4.892,-4.532,-4.76,-4.689,4.53,8.293,5,-1.659,1.309,4.817,8.388,-8.41,-7.888,-1.864,1.965,226.0,223.1,226.1,228.6,221.5,236.1,229.7,231.4,,236.4,1,norm,1.227,1.622,-1.593,-1.891,-4.638,-4.966,-1.68,-1.145,-1.551,-1.534,1.785,-1.555,237.6,221.5,-4.743,-8.277,1.513,-1.64,8.404,4.596,-5.045,-8.469,7,4.755,4.375,5.209,5.17,1.546,1.879,1.509,1.634,7,4.6,4.456,-20,137.486653773,norm,0,26,26,26,451.82,451.834,451.852395194,451.853,451.854,451.857,up,1,1.15080254322,8.84919745678,001,005,1920_1080,Intel(R) Core(TM) i5-3570 CPU @ 3.40GHz,orientation_search,LEPPC096,Intel(R) HD Graphics 2500,2018_Oct_10_1445,testMonitor,
56.6,66.8,69.8,61.7,36,-80,72.1,,68.6,59.5,7.623,8.458,8.421,8.204,8.198,8.209,8.269,4.694,-4.332,-8.346,1.469,-1.832,8.126,4.813,-4.702,-8.427,60.3,66.5,-8.368,82.9,61.8,78.3,66.6,59.6,36,67.7,4,5,prime,10,0,68,norm,36,-4.546,down,norm,69.3481530902,81.2,59.4,60.9,89.3,1,75.4,78.8,73.6,10,6,7.818,4.672,1.181,-1.316,-4.895,-8.216,63.1,6,137.3,-7.544,-7.659,-80,-7.503,-8.328,-4.613,-5.183,-5.049,-5.11,5.087,8.259,25,-1.78,1.656,5.257,7.659,-7.737,-7.711,-1.479,1.969,71.2,73.2,64.0,76.3,49.3,58.6,74.5,80.5,75.1,71.9,0,norm,1.53,1.29,-2.007,-1.46,-5.03,-4.615,-1.91,-1.688,-1.608,-1.611,1.874,-1.146,69.3,71.4,-4.771,-8.204,1.791,-1.184,7.841,5.222,-4.613,-7.652,8,5.268,4.755,4.997,4.873,1.298,1.843,1.666,2.074,8,5.297,4.348,40,137.486653773,norm,0,27,27,27,453.048,453.058,453.063810456,453.064,453.066,453.068,down,1,1.02973496876,8.97026503124,001,005,1920_1080,Intel(R) Core(TM) i5-3570 CPU @ 3.40GHz,orientation_search,LEPPC096,Intel(R) HD Graphics 2500,2018_Oct_10_1445,testMonitor,
68.8,56.9,80.6,76.7,36,-80,89.3,69.2,78.6,66.8,8.369,8.074,8.336,7.645,8.475,8.356,7.898,4.525,-4.991,-8.434,1.962,-1.535,8.128,4.732,-5.125,-8.012,61.0,68.9,-7.939,,68.1,78.5,83.5,81.4,36,75.5,5,5,prime,10,0,106,norm,36,-4.826,down,norm,69.3481530902,72.6,77.6,57.7,75.9,1,78.4,78.9,76.0,10,6,7.734,5.29,1.398,-1.348,-4.353,-8.364,61.3,6,175.3,-8.425,-7.99,-80,-7.687,-7.83,-4.527,-4.86,-5.094,-4.377,5.232,7.54,31,-2.001,1.987,5.081,8.134,-7.62,-7.52,-1.304,1.638,69.4,56.0,76.8,84.5,63.7,66.3,77.4,49.3,57.5,69.1,1,norm,1.188,1.701,-1.165,-1.847,-4.937,-4.629,-1.223,-1.265,-1.417,-1.198,1.108,-2.082,61.8,77.6,-5.057,-7.709,1.844,-1.625,7.933,4.71,-4.495,-8.416,8,5.005,4.504,5.14,4.697,1.339,2.02,1.94,1.975,8,4.425,5.052,40,137.486653773,norm,0,28,28,28,454.141,454.162,454.172470123,454.173,454.175,454.178,down,1,2.0475223425,7.9524776575,001,005,1920_1080,Intel(R) Core(TM) i5-3570 CPU @ 3.40GHz,orientation_search,LEPPC096,Intel(R) HD Graphics 2500,2018_Oct_10_1445,testMonitor,
53.8,71.3,49.3,84.5,36,-80,58.4,63.3,68.0,80.6,7.611,7.608,7.732,8.147,7.822,8.391,7.676,4.333,-5.221,-7.827,1.584,-1.236,7.776,4.548,-4.32,-8.459,,89.3,-8.169,58.0,66.7,64.5,49.5,65.9,36,57.0,5,5,prime,10,0,89,norm,36,-5.244,up,norm,69.3481530902,78.8,60.5,50.6,75.8,5,60.6,81.8,72.6,10,6,7.634,4.563,1.673,-1.733,-4.324,-8.089,73.8,6,158.3,-8.348,-7.568,-80,-7.955,-8.16,-4.863,-4.553,-4.798,-4.487,5.156,8.441,35,-1.942,1.857,4.371,8.097,-8.429,-7.856,-1.331,1.414,81.9,58.4,77.6,67.1,56.2,68.2,58.5,70.7,66.6,61.6,2,norm,1.39,1.669,-1.734,-1.563,-5.199,-4.841,-1.903,-1.845,-1.832,-1.349,1.866,-1.31,78.9,64.3,-4.487,-8.135,2.1,-1.462,7.552,4.581,-4.553,-7.926,8,5.047,4.303,5.255,5.218,1.222,1.624,1.307,1.45,8,4.744,4.347,40,137.486653773,norm,0,29,29,29,456.257,456.267,456.276234482,456.276,456.278,456.281,up,1,2.43350282888,7.56649717112,001,005,1920_1080,Intel(R) Core(TM) i5-3570 CPU @ 3.40GHz,orientation_search,LEPPC096,Intel(R) HD Graphics 2500,2018_Oct_10_1445,testMonitor,
62.5,70.0,72.9,74.3,36,-80,57.2,71.4,,70.5,8.153,7.754,8.358,7.514,7.919,7.96,8.351,5.297,-4.715,-7.561,1.916,-1.796,8.321,4.712,-4.459,-8.33,65.3,89.3,-7.793,85.6,54.1,70.9,79.5,62.0,36,66.6,4,5,prime,10,0,104,norm,36,-5.095,up,norm,69.3481530902,58.4,67.0,58.8,58.1,4,71.0,64.1,56.9,10,6,7.964,4.5,2.032,-1.556,-4.592,-7.754,57.2,6,173.3,-7.5,-7.811,-80,-8.309,-7.873,-4.326,-4.305,-4.481,-4.638,4.9,7.575,28,-1.921,1.785,5.134,7.97,-7.774,-7.928,-1.743,1.563,61.4,88.1,73.6,81.9,73.5,79.7,55.1,58.3,67.1,49.3,3,norm,1.354,1.633,-1.92,-1.679,-4.41,-5.03,-1.222,-1.542,-1.578,-1.822,1.137,-1.376,56.0,72.4,-4.927,-8.39,1.979,-2.054,8.043,5.059,-5.251,-8.253,8,4.997,4.826,5.227,5.238,1.359,1.523,1.876,1.228,8,4.45,4.969,40,137.486653773,norm,0,30,30,30,458.758,458.78,458.789746535,458.79,458.792,458.795,up,1,0.78990500361,9.21009499639,001,005,1920_1080,Intel(R) Core(TM) i5-3570 CPU @ 3.40GHz,orientation_search,LEPPC096,Intel(R) HD Graphics 2500,2018_Oct_10_1445,testMonitor,
73.8,84.2,62.1,74.1,36,-80,,82.0,53.9,65.6,8.326,8.032,7.668,7.512,8.273,8.084,7.728,4.464,-4.532,-7.649,1.51,-1.471,8.356,4.926,-5.068,-7.642,68.0,84.6,-8.251,61.4,49.5,61.5,51.9,72.4,36,68.7,4,5,prime,10,0,106,norm,36,-4.416,down,norm,69.3481530902,81.8,89.3,57.3,60.9,0,69.5,60.6,63.4,10,6,8.39,5.063,1.181,-1.44,-5.05,-8.107,71.3,6,175.3,-7.524,-7.585,-80,-8.217,-7.936,-4.525,-4.801,-4.449,-4.428,4.41,8.128,24,-1.41,1.656,4.554,7.562,-8.402,-8.389,-1.26,1.988,58.7,79.9,68.5,75.0,69.8,76.1,84.8,75.7,55.6,84.7,4,norm,2.07,1.391,-1.598,-1.285,-4.358,-5.251,-1.495,-1.337,-1.291,-2.047,1.787,-1.234,78.8,71.7,-4.573,-7.632,2.013,-1.921,7.514,5.176,-4.773,-8.342,8,4.559,4.357,4.442,5.244,2.028,2.005,1.24,1.279,8,4.876,4.423,40,137.486653773,norm,0,31,31,31,459.615,459.626,459.630863021,459.631,459.633,459.635,down,1,1.51792622205,8.48207377795,001,005,1920_1080,Intel(R) Core(TM) i5-3570 CPU @ 3.40GHz,orientation_search,LEPPC096,Intel(R) HD Graphics 2500,2018_Oct_10_1445,testMonitor,
60.2,65.1,66.2,71.9,36,-80,54.6,68.6,72.7,59.6,7.544,7.829,8.201,7.873,7.798,8.47,7.634,4.383,-5.132,-7.877,1.733,-1.627,7.539,4.807,-4.987,-7.791,79.2,76.7,-7.848,89.3,58.7,78.9,70.7,58.8,36,60.6,2,5,prime,10,0,96,norm,36,-4.948,down,norm,69.3481530902,78.4,73.6,70.2,69.6,1,74.4,,73.8,10,6,8.259,4.529,1.864,-1.97,-4.69,-7.977,73.4,6,165.3,-7.878,-8.382,-80,-8.14,-8.283,-5.029,-4.9,-5.194,-5.273,4.966,8.422,13,-1.186,1.216,4.596,8.381,-8.394,-7.64,-1.342,1.404,73.1,76.9,52.5,68.7,80.1,79.3,77.8,74.1,49.3,51.1,5,norm,1.894,1.994,-1.818,-2.017,-5.035,-4.695,-1.707,-1.633,-1.402,-1.847,1.667,-1.43,54.5,68.6,-5.066,-8.202,1.141,-1.306,8.134,4.627,-4.578,-8.256,8,5.158,4.377,4.532,5.154,1.214,1.435,1.321,1.852,8,5.164,5.263,40,137.486653773,norm,0,32,32,32,461.186,461.196,461.20538653,461.206,461.207,461.21,down,1,2.62316176914,7.37683823086,001,005,1920_1080,Intel(R) Core(TM) i5-3570 CPU @ 3.40GHz,orientation_search,LEPPC096,Intel(R) HD Graphics 2500,2018_Oct_10_1445,testMonitor,
38.4,43.1,37.7,39.7,36,-40,35.4,46.3,37.5,38.5,8.359,8.078,7.971,8.422,7.536,7.704,7.893,4.717,-5.27,-8.43,1.236,-1.797,7.776,4.622,-4.55,-8.307,42.2,50.6,-8.277,,42.0,50.5,47.2,42.0,36,42.6,5,5,probe,5,0,61,norm,36,-4.358,down,norm,42.1620908777,40.0,35.4,38.5,40.2,1,41.4,52.2,32.2,10,6,7.835,5.247,2.033,-1.591,-5.167,-7.9,41.9,1,-18.8,-8.452,-7.941,-80,-7.828,-7.89,-4.789,-4.705,-5.297,-5.102,4.414,8.203,31,-1.476,1.254,4.681,7.618,-8.461,-7.584,-1.442,1.642,39.4,37.4,47.7,43.0,40.2,35.7,38.2,33.8,42.9,42.8,0,norm,1.464,1.849,-1.986,-1.572,-4.691,-5.122,-1.554,-1.185,-1.355,-1.513,1.763,-1.612,47.5,37.5,-4.387,-7.742,1.266,-1.427,7.588,5.298,-4.785,-7.86,9,5.233,4.772,4.358,5.218,1.96,1.991,1.123,1.971,9,4.87,4.617,-80,69.3481530902,norm,0,33,33,33,463.874,463.883,463.890310139,463.89,463.892,463.895,down,1,1.12576789151,8.87423210849,001,005,1920_1080,Intel(R) Core(TM) i5-3570 CPU @ 3.40GHz,orientation_search,LEPPC096,Intel(R) HD Graphics 2500,2018_Oct_10_1445,testMonitor,
349.1,359.9,327.8,335.3,36,0,338.6,320.1,334.1,347.2,8.073,7.76,8.009,8.223,8.447,7.758,8.147,4.482,-4.676,-8.27,1.408,-2.036,7.788,5.273,-4.647,-8.201,338.3,339.5,-8.038,328.8,342.2,330.1,332.6,354.2,36,334.4,1,5,prime,10,0,72,norm,36,-4.516,down,norm,339.876952138,337.5,343.7,338.3,342.9,1,338.8,343.9,332.8,10,6,8.166,4.939,2.071,-1.174,-4.64,-8.261,337.2,6,411.9,-7.892,-7.959,0,-8.253,-7.507,-4.521,-4.419,-4.576,-5.015,4.949,8.125,7,-1.296,1.829,4.935,7.669,-8.153,-7.941,-1.693,1.999,351.6,341.9,355.6,356.3,340.3,351.4,,345.4,319.9,337.0,0,norm,1.9,1.28,-1.688,-1.959,-5.034,-5.056,-1.13,-1.885,-1.899,-2.083,1.108,-1.288,339.6,347.0,-4.444,-7.582,2.004,-1.967,7.844,5.199,-4.547,-8.48,10,5.206,4.744,5.036,5.196,1.996,1.543,1.719,1.624,10,5.053,5.11,-40,69.3481530902,norm,0,34,34,34,465.053,465.064,465.069064054,465.069,465.071,465.074,down,1,1.38392251299,8.61607748701,001,005,1920_1080,Intel(R) Core(TM) i5-3570 CPU @ 3.40GHz,orientation_search,LEPPC096,Intel(R) HD Graphics 2500,2018_Oct_10_1445,testMonitor,
,339.2,323.8,338.5,36,0,348.2,359.9,346.3,340.4,7.565,8.084,7.731,7.759,8.346,8.387,8.173,5.134,-4.84,-7.523,1.393,-1.741,8.464,4.697,-4.621,-7.539,342.9,356.1,-7.67,339.5,347.3,332.2,342.6,342.8,36,333.7,3,5,prime,10,0,95,norm,36,-5.203,up,norm,339.876952138,350.5,351.5,332.8,336.1,4,345.6,341.3,330.8,10,6,8.451,5.271,1.767,-1.106,-4.624,-8.5,342.4,6,434.9,-8.388,-7.624,0,-7.693,-8.423,-4.701,-5.137,-4.355,-4.842,5.276,7.752,22,-1.193,1.132,5.006,8.08,-8.056,-8.084,-1.604,2.048,348.1,339.8,350.5,348.6,323.0,338.7,343.2,319.9,338.9,334.2,1,norm,2.055,1.262,-1.643,-1.563,-4.864,-5.117,-1.357,-1.168,-1.752,-1.846,1.896,-1.941,337.7,337.3,-4.766,-7.777,1.271,-1.852,8.281,5.239,-4.64,-7.696,10,4.41,4.319,4.825,4.7,1.579,1.949,1.803,1.317,10,4.981,5.199,-40,69.3481530902,norm,0,35,35,35,466.49,466.5,466.50922979,466.509,466.511,466.514,up,1,1.16596870238,8.83403129762,001,005,1920_1080,Intel(R) Core(TM) i5-3570 CPU @ 3.40GHz,orientation_search,LEPPC096,Intel(R) HD Graphics 2500,2018_Oct_10_1445,testMonitor,
332.3,336.2,330.8,330.1,36,0,319.9,327.0,339.1,329.1,8.473,8.352,8.433,7.524,7.963,7.737,7.665,5.161,-4.963,-7.552,1.865,-2.006,8.357,4.715,-4.491,-8.485,329.0,338.9,-8.454,326.7,353.3,359.9,340.6,350.8,36,355.3,0,5,prime,10,0,109,norm,36,-4.437,down,norm,339.876952138,341.6,324.9,344.3,338.8,2,345.1,336.5,331.4,10,6,8.436,5.208,1.563,-1.582,-5.145,-7.564,343.4,6,448.9,-8.04,-7.98,0,-8.199,-7.684,-4.944,-4.401,-4.857,-5.002,5.013,8.382,2,-1.641,1.572,5.133,8.382,-8.193,-8.016,-1.896,1.404,341.5,337.9,356.2,,332.0,357.7,338.8,351.3,343.6,355.3,2,norm,1.287,1.451,-1.33,-1.16,-4.637,-4.34,-1.615,-1.837,-1.45,-1.391,1.73,-1.705,343.5,335.1,-5.2,-8.036,1.303,-1.742,7.915,5.234,-4.875,-7.628,10,5.067,4.918,4.419,4.67,1.748,1.94,1.169,1.777,10,5.053,5.282,-40,69.3481530902,norm,0,36,36,36,467.696,467.706,467.72606557,467.726,467.728,467.731,down,1,2.39406387264,7.60593612736,001,005,1920_1080,Intel(R) Core(TM) i5-3570 CPU @ 3.40GHz,orientation_search,LEPPC096,Intel(R) HD Graphics 2500,2018_Oct_10_1445,testMonitor,
351.4,346.0,346.9,343.0,36,0,334.7,,353.3,349.4,8.199,7.703,7.541,8.127,8.239,7.833,8.479,5.108,-4.535,-8.469,1.163,-1.224,7.95,4.41,-5.054,-8.228,355.6,359.9,-8.499,322.1,344.6,326.7,337.9,339.3,36,334.8,4,5,prime,10,0,99,norm,36,-4.843,down,norm,339.876952138,345.9,336.1,358.1,345.1,1,356.9,351.3,334.5,10,6,7.848,4.635,2.079,-1.763,-4.763,-8.207,337.4,6,438.9,-8.487,-7.752,0,-7.51,-8.304,-4.72,-5.007,-5.217,-5.244,4.998,8.352,25,-1.633,2.009,5.278,8.441,-7.857,-8.233,-1.228,1.78,335.9,319.9,352.1,337.8,351.3,330.3,343.6,337.9,325.6,353.4,3,norm,1.384,1.652,-1.322,-1.981,-4.872,-5.009,-1.173,-1.714,-1.724,-1.626,1.785,-2.035,339.7,343.0,-4.504,-7.717,1.171,-1.552,8.422,4.784,-4.392,-7.804,10,4.496,4.327,4.476,5.061,1.228,1.935,1.661,2.068,10,4.575,5.065,-40,69.3481530902,norm,0,37,37,37,470.156,470.166,470.175031271,470.175,470.177,470.18,down,1,1.48406474195,8.51593525805,001,005,1920_1080,Intel(R) Core(TM) i5-3570 CPU @ 3.40GHz,orientation_search,LEPPC096,Intel(R) HD Graphics 2500,2018_Oct_10_1445,testMonitor,
336.4,342.3,336.6,346.9,36,0,349.6,348.3,329.1,344.6,8.255,7.626,8.424,7.818,7.628,8.033,8.329,4.951,-4.549,-7.717,1.253,-1.147,7.947,4.325,-5.182,-8.338,330.1,329.5,-8.136,346.9,353.4,338.6,330.1,322.9,36,338.5,0,5,prime,10,0,89,norm,36,-4.502,down,norm,339.876952138,335.0,342.0,334.1,336.5,0,350.8,330.0,349.6,10,6,8.293,4.713,1.802,-1.835,-4.363,-8.485,336.3,6,428.9,-7.717,-8.223,0,-8.357,-7.666,-5.098,-4.793,-5.112,-5.044,4.824,7.833,0,-1.387,1.451,4.564,7.85,-8.212,-8.379,-1.886,1.964,343.7,330.1,346.0,329.4,340.5,,359.9,344.1,319.9,347.3,4,norm,2.002,1.845,-1.522,-1.518,-4.467,-5.002,-1.816,-1.384,-2.031,-1.828,1.195,-1.12,327.6,342.0,-4.496,-7.539,1.599,-2.079,8.118,4.813,-5.072,-7.588,10,4.968,4.792,4.482,5.286,2.01,1.442,1.197,2.012,10,5.286,4.581,-40,69.3481530902,norm,0,38,38,38,471.704,471.714,471.722807464,471.723,471.725,471.727,down,1,0.992879798418,9.00712020158,001,005,1920_1080,Intel(R) Core(TM) i5-3570 CPU @ 3.40GHz,orientation_search,LEPPC096,Intel(R) HD Graphics 2500,2018_Oct_10_1445,testMonitor,
329.7,342.5,335.0,338.7,36,0,343.1,338.6,342.4,331.5,8.497,8.169,7.855,8.367,7.786,7.701,7.768,5.219,-4.66,-8.262,1.894,-1.632,7.661,5.194,-4.509,-8.151,330.2,348.8,-7.603,347.2,319.9,340.9,343.8,340.6,36,,4,5,prime,10,0,94,norm,36,-4.771,up,norm,339.876952138,342.5,359.9,334.6,330.7,3,329.6,336.9,330.8,10,6,7.859,5.143,1.57,-2.072,-5.212,-8.1,337.5,6,433.9,-8.36,-8.094,0,-8.267,-8.463,-5.289,-4.853,-4.985,-4.98,4.958,7.557,27,-1.199,1.989,4.963,8.146,-8.232,-8.309,-2.071,1.273,354.7,339.1,340.4,333.1,332.4,345.5,345.6,351.7,335.9,334.8,5,norm,1.3,1.828,-1.33,-1.536,-4.443,-5.043,-1.243,-1.151,-1.156,-1.205,1.674,-1.473,355.2,347.5,-4.928,-7.542,1.717,-1.379,7.536,4.56,-4.719,-8.016,10,4.393,4.883,4.81,4.458,1.951,1.842,1.948,1.403,10,4.877,4.586,-40,69.3481530902,norm,0,39,39,39,472.753,472.768,472.78544586,472.786,472.788,472.791,up,1,0.961106476127,9.03889352387,001,005,1920_1080,Intel(R) Core(TM) i5-3570 CPU @ 3.40GHz,orientation_search,LEPPC096,Intel(R) HD Graphics 2500,2018_Oct_10_1445,testMonitor,
459.9,458.6,,465.6,36,-40,465.1,448.1,453.1,463.1,7.764,7.659,7.649,8.069,7.665,7.865,7.871,5.214,-5.167,-8.243,1.26,-1.684,7.836,4.524,-4.677,-8.354,463.1,453.5,-8.19,459.7,457.1,458.7,462.7,459.6,36,455.1,3,5,probe,5,0,117,norm,36,-5.178,down,norm,457.875603367,449.7,455.4,466.0,459.2,2,452.3,458.2,458.7,10,6,8.237,4.328,1.402,-1.922,-5.266,-7.666,451.1,2,340.9,-8.192,-7.758,0,-7.946,-8.215,-5.141,-4.816,-4.761,-5.134,5.221,7.791,20,-1.391,1.638,4.925,8.368,-7.87,-8.429,-1.637,1.393,458.4,460.1,461.1,464.7,449.5,453.1,467.9,463.5,456.4,458.0,0,norm,1.587,1.128,-1.936,-1.687,-4.641,-4.707,-2.099,-1.852,-1.735,-1.349,1.495,-1.378,456.2,466.0,-4.776,-8.206,1.366,-2.011,7.761,5.114,-4.714,-7.795,11,4.932,4.944,4.841,4.63,1.457,1.433,1.992,2.093,11,4.993,5.212,0,339.876952138,norm,0,40,40,40,473.785,473.798,473.816825276,473.817,473.819,473.821,up,0,2.11948651481,-10,001,005,1920_1080,Intel(R) Core(TM) i5-3570 CPU @ 3.40GHz,orientation_search,LEPPC096,Intel(R) HD Graphics 2500,2018_Oct_10_1445,testMonitor,
455.2,454.6,459.5,445.4,36,-40,446.2,448.2,448.7,453.1,8.077,7.848,7.67,7.868,8.451,7.795,7.686,4.379,-4.383,-7.769,1.199,-1.218,7.522,4.418,-4.478,-7.818,445.9,454.3,-8.303,463.9,448.8,453.8,451.3,455.5,36,454.4,3,5,probe,5,0,113,norm,36,-4.399,down,norm,453.875603367,455.5,460.6,455.6,459.0,0,453.5,460.8,451.5,10,6,8.067,4.981,1.785,-1.109,-4.558,-8.484,455.0,2,340.9,-7.576,-8.496,0,-7.65,-8.057,-4.982,-5.102,-4.581,-4.868,5.082,7.991,18,-1.82,2.026,4.757,8.029,-8.044,-7.889,-1.328,1.615,449.5,447.2,453.0,453.4,443.9,451.7,453.4,460.2,453.5,446.7,1,norm,1.36,1.137,-1.188,-1.107,-4.565,-5.079,-1.989,-1.953,-1.747,-1.791,1.928,-1.155,455.8,,-5.079,-8.451,1.637,-1.468,7.617,4.702,-4.835,-7.88,11,5.245,4.475,4.892,4.98,1.342,2.064,1.973,1.774,11,4.601,4.877,0,339.876952138,norm,0,41,41,41,477.008,477.018,477.023977292,477.024,477.026,477.029,down,1,1.43033316349,8.56966683651,001,005,1920_1080,Intel(R) Core(TM) i5-3570 CPU @ 3.40GHz,orientation_search,LEPPC096,Intel(R) HD Graphics 2500,2018_Oct_10_1445,testMonitor,
292.9,307.0,294.3,309.1,36,80,296.0,315.5,306.3,300.9,8.236,8.365,7.745,8.033,8.314,8.068,7.569,4.89,-4.456,-8.191,1.746,-1.4,7.784,5.082,-4.38,-7.643,298.9,294.8,-8.472,301.5,295.5,293.4,302.0,300.9,36,285.8,1,5,prime,10,0,73,norm,36,-5.181,up,norm,295.515599591,300.9,293.4,279.7,298.8,3,305.7,275.5,285.1,10,5,7.9,4.366,1.833,-1.304,-4.556,-8.391,287.2,5,368.5,-8.398,-7.75,80,-8.034,-7.703,-4.949,-4.794,-4.443,-4.505,4.481,7.615,9,-1.18,2.066,4.648,7.648,-7.761,-8.015,-1.532,1.732,,283.4,290.0,291.6,304.7,307.3,313.5,297.6,291.5,305.2,0,norm,1.41,1.404,-1.904,-1.29,-4.795,-4.304,-1.994,-2.001,-2.008,-1.178,1.865,-1.809,299.1,296.8,-5.053,-8.12,1.922,-1.975,8.007,4.71,-5.197,-7.503,12,4.962,5.233,5.254,4.554,1.45,1.484,1.379,1.764,12,4.396,4.852,-40,339.876952138,norm,0,42,42,42,478.492,478.505,478.524798308,478.525,478.527,478.531,up,1,1.27999244182,8.72000755818,001,005,1920_1080,Intel(R) Core(TM) i5-3570 CPU @ 3.40GHz,orientation_search,LEPPC096,Intel(R) HD Graphics 2500,2018_Oct_10_1445,testMonitor,
306.3,289.8,302.4,300.1,36,80,301.2,303.1,305.9,288.5,8.411,7.619,7.844,7.748,7.893,7.588,8.484,4.954,-5.16,-8.481,1.84,-1.586,7.551,4.761,-4.376,-7.792,304.5,309.8,-8.049,299.7,287.1,307.9,299.2,288.1,36,,4,5,prime,10,0,100,norm,36,-4.558,up,norm,295.515599591,306.6,286.1,297.1,290.4,3,292.6,275.5,283.6,10,5,7.946,4.541,1.762,-1.243,-4.994,-8.264,289.4,5,395.5,-7.854,-8.116,80,-8.306,-8.406,-4.926,-4.603,-4.93,-4.908,4.652,7.861,27,-2.053,1.421,4.374,8.385,-8.441,-8.155,-1.92,1.727,304.2,290.9,292.7,302.8,315.5,275.9,288.3,308.8,284.2,309.2,1,norm,1.931,1.778,-1.398,-1.385,-4.421,-4.534,-1.402,-1.906,-2.001,-1.702,1.661,-1.603,291.9,285.1,-5.068,-8.499,1.271,-1.175,7.861,4.745,-4.599,-7.764,12,4.33,4.502,4.763,4.982,1.596,1.314,1.826,1.501,12,4.809,4.752,-40,339.876952138,norm,0,43,43,43,479.843,479.853,479.862059941,479.862,479.864,479.867,up,1,1.12847241507,8.87152758493,001,005,1920_1080,Intel(R) Core(TM) i5-3570 CPU @ 3.40GHz,orientation_search,LEPPC096,Intel(R) HD Graphics 2500,2018_Oct_10_1445,testMonitor,
294.5,280.4,288.2,302.2,36,80,315.5,,301.7,284.8,7.743,7.8,7.588,7.536,8.328,8.268,7.597,4.504,-5.026,-7.623,2.087,-1.677,8.419,5.278,-4.743,-7.7,293.4,294.9,-8.218,291.2,288.9,287.2,295.9,282.1,36,312.0,4,5,prime,10,0,78,norm,36,-4.668,down,norm,295.515599591,287.6,295.8,275.5,282.2,1,288.5,301.9,294.0,10,5,8.438,5.181,1.812,-1.32,-4.937,-7.609,301.0,5,373.5,-7.935,-8.155,80,-7.694,-8.05,-4.917,-4.878,-4.618,-4.715,5.186,7.579,25,-2.098,1.488,4.738,8.398,-7.907,-7.783,-1.486,2.06,282.4,297.9,299.5,286.0,283.9,299.6,291.2,283.5,308.3,294.3,2,norm,1.286,1.354,-1.561,-1.945,-4.716,-4.567,-1.717,-1.329,-1.273,-1.588,1.283,-1.185,288.4,299.9,-5.113,-7.521,1.786,-1.7,8.185,4.703,-4.594,-8.014,12,4.863,4.937,4.302,4.767,2.061,1.479,1.945,1.891,12,5.136,4.557,-40,339.876952138,norm,0,44,44,44,481.032,481.043,481.048414896,481.049,481.05,481.053,down,1,1.06206911748,8.93793088252,001,005,1920_1080,Intel(R) Core(TM) i5-3570 CPU @ 3.40GHz,orientation_search,LEPPC096,Intel(R) HD Graphics 2500,2018_Oct_10_1445,testMonitor,
275.9,301.8,286.7,308.6,36,80,295.7,,307.3,282.0,7.646,7.888,8.069,8.333,8.46,7.633,8.073,4.643,-4.934,-7.979,2.031,-1.128,7.81,5.298,-4.767,-8.085,299.1,286.7,-7.749,294.1,312.9,293.7,290.8,279.0,36,285.2,4,5,prime,10,0,103,norm,36,-5.127,down,norm,295.515599591,287.7,297.4,287.9,296.2,1,275.5,282.2,295.4,10,5,7.716,5.111,1.854,-1.783,-4.495,-7.941,293.1,5,398.5,-7.691,-8.13,80,-8.16,-8.406,-4.305,-4.92,-5.216,-5.249,4.843,8.199,25,-1.39,1.604,4.921,7.557,-7.78,-8.385,-1.465,1.795,306.4,315.5,295.9,305.3,300.3,290.9,305.3,286.5,303.5,296.4,3,norm,1.418,1.519,-1.364,-2.095,-5.289,-4.458,-1.742,-1.272,-1.395,-1.468,1.87,-2.064,298.0,294.2,-4.592,-8.096,1.667,-1.751,8.272,5.148,-4.755,-7.567,12,5.17,4.978,4.549,4.985,2.099,1.295,1.767,1.405,12,5.114,4.355,-40,339.876952138,norm,0,45,45,45,482.156,482.178,482.188484465,482.189,482.191,482.194,down,1,1.07841729833,8.92158270167,001,005,1920_1080,Intel(R) Core(TM) i5-3570 CPU @ 3.40GHz,orientation_search,LEPPC096,Intel(R) HD Graphics 2500,2018_Oct_10_1445,testMonitor,
289.3,311.1,289.5,296.1,36,80,275.5,310.3,315.5,293.4,8.394,7.58,7.929,8.45,8.283,8.233,8.15,5.16,-4.991,-8.377,1.448,-1.54,7.898,5.133,-5.207,-8.235,299.3,303.7,-8.162,304.6,288.0,310.7,279.6,306.8,36,,4,5,prime,10,0,112,norm,36,-4.769,up,norm,295.515599591,294.0,301.2,299.3,308.5,3,283.1,307.3,300.6,10,5,8.054,5.001,1.865,-1.289,-4.517,-8.331,304.1,5,407.5,-8.247,-8.419,80,-7.893,-7.728,-5.172,-4.401,-5.182,-4.708,5.163,7.635,27,-1.365,1.595,4.57,8.174,-7.9,-8.243,-1.306,1.988,291.1,285.2,299.9,296.0,278.4,291.3,296.4,292.6,290.7,287.8,4,norm,1.976,1.194,-1.774,-1.583,-4.978,-4.512,-1.772,-1.148,-1.129,-2.0,1.123,-1.627,288.9,300.5,-5.173,-7.764,1.719,-2.075,7.942,5.3,-4.873,-7.516,12,4.491,5.285,4.546,4.807,2.0,1.962,1.194,1.373,12,5.28,4.328,-40,339.876952138,norm,0,46,46,46,483.31,483.32,483.326145317,483.326,483.328,483.331,up,1,1.43417141367,8.56582858633,001,005,1920_1080,Intel(R) Core(TM) i5-3570 CPU @ 3.40GHz,orientation_search,LEPPC096,Intel(R) HD Graphics 2500,2018_Oct_10_1445,testMonitor,
500.0,,507.2,507.6,36,10,492.0,500.8,496.5,502.8,7.556,7.856,8.08,7.661,7.724,7.837,8.274,4.591,-5.008,-8.349,1.983,-1.858,7.533,4.886,-4.528,-7.72,501.4,499.3,-7.741,503.4,498.9,493.5,508.1,512.0,36,507.7,3,5,probe,5,0,117,norm,36,-4.963,up,norm,501.967998978,505.6,499.1,495.3,511.1,5,496.4,500.7,500.9,10,5,8.237,5.277,1.132,-1.189,-5.292,-7.91,504.6,1,385.0,-8.306,-8.331,80,-7.766,-7.546,-4.317,-4.674,-4.805,-5.01,4.564,7.89,23,-1.136,1.907,5.168,8.134,-8.178,-7.804,-2.061,1.359,502.8,502.0,505.3,502.3,501.6,500.5,495.0,510.1,507.0,503.7,0,norm,1.69,1.641,-1.583,-1.293,-5.206,-5.117,-1.204,-1.319,-2.03,-1.392,1.597,-2.099,507.9,503.2,-4.957,-7.966,1.369,-1.597,7.869,5.281,-4.519,-8.174,13,5.124,4.313,5.165,4.63,1.75,1.153,1.28,1.978,13,5.029,4.711,80,295.515599591,norm,0,47,47,47,484.797,484.808,484.8226071,484.823,484.825,484.827,up,1,1.31471689434,8.68528310566,001,005,1920_1080,Intel(R) Core(TM) i5-3570 CPU @ 3.40GHz,orientation_search,LEPPC096,Intel(R) HD Graphics 2500,2018_Oct_10_1445,testMonitor,
58.6,64.3,50.7,32.5,36,-30,62.7,43.8,58.0,68.1,8.223,7.528,7.681,8.403,8.037,7.778,8.453,5.271,-4.726,-8.146,1.625,-1.452,8.054,4.447,-4.353,-8.25,47.9,55.8,-8.03,65.0,54.5,62.3,,58.3,36,52.9,5,5,prime,10,0,70,norm,36,-5.249,down,norm,52.5177983083,46.2,47.9,53.5,65.2,2,54.7,35.8,70.9,10,5,8.081,4.475,1.801,-1.361,-4.718,-8.201,72.5,5,122.5,-7.75,-8.319,-30,-7.896,-8.125,-4.858,-4.695,-5.132,-5.176,4.897,8.167,32,-1.219,1.913,5.237,8.397,-7.749,-8.326,-2.037,2.026,60.0,59.9,55.0,48.1,55.6,42.7,57.7,68.4,68.2,47.5,0,norm,1.28,1.576,-1.421,-1.504,-5.003,-4.65,-1.541,-1.331,-1.577,-1.475,1.953,-1.863,65.1,44.9,-4.619,-7.966,1.439,-1.294,7.979,4.483,-4.486,-8.436,14,4.379,5.01,4.649,5.291,1.945,1.505,1.413,2.05,14,4.401,4.371,10,295.515599591,norm,0,48,48,48,486.174,486.185,486.19533029,486.196,486.197,486.2,down,1,1.53549717353,8.46450282647,001,005,1920_1080,Intel(R) Core(TM) i5-3570 CPU @ 3.40GHz,orientation_search,LEPPC096,Intel(R) HD Graphics 2500,2018_Oct_10_1445,testMonitor,
60.3,50.9,63.9,35.7,36,-30,,45.6,60.7,65.8,8.104,7.588,8.1,8.436,8.488,8.244,7.765,4.885,-5.0,-8.167,1.315,-1.819,8.405,5.101,-4.508,-8.292,39.3,46.2,-7.592,53.4,62.6,44.2,40.9,51.7,36,57.8,4,5,prime,10,0,85,norm,36,-5.286,down,norm,52.5177983083,59.4,72.5,57.7,38.2,0,60.1,59.5,51.7,10,5,8.135,5.099,1.495,-1.495,-5.044,-7.764,57.7,5,137.5,-7.898,-8.436,-30,-7.523,-8.123,-4.853,-4.502,-4.952,-5.212,4.599,7.868,24,-1.863,1.893,4.605,7.544,-8.0,-7.879,-1.474,1.106,64.5,32.5,61.1,47.6,61.1,59.1,41.0,44.2,67.4,67.9,1,norm,1.549,1.757,-1.562,-1.564,-5.139,-4.876,-1.891,-1.748,-1.233,-1.228,2.046,-1.558,59.6,71.1,-4.491,-7.869,1.443,-1.138,7.565,4.644,-4.968,-8.245,14,4.595,4.747,4.989,4.914,1.371,1.897,1.729,1.699,14,4.587,4.935,10,295.515599591,norm,0,49,49,49,487.768,487.778,487.786467301,487.787,487.788,487.791,up,0,0.947981688927,-10,001,005,1920_1080,Intel(R) Core(TM) i5-3570 CPU @ 3.40GHz,orientation_search,LEPPC096,Intel(R) HD Graphics 2500,2018_Oct_10_1445,testMonitor,
47.1,51.3,55.4,40.3,36,-30,61.8,52.9,38.2,,8.092,7.982,8.155,8.464,8.301,7.932,8.224,5.283,-4.358,-8.136,1.105,-1.944,8.213,4.449,-5.134,-8.239,64.7,59.0,-8.299,54.0,32.5,59.5,49.9,55.1,36,66.6,4,5,prime,10,0,68,norm,36,-4.535,up,norm,52.5177983083,60.3,36.2,45.1,72.5,5,56.0,50.0,35.6,10,5,8.437,5.181,1.488,-2.044,-5.225,-7.746,51.6,5,120.5,-8.378,-8.212,-30,-8.262,-7.987,-4.503,-4.597,-4.495,-4.437,4.379,8.203,29,-1.713,2.074,4.67,8.149,-7.62,-7.816,-1.929,2.039,64.8,62.1,60.0,54.1,71.7,53.8,52.5,50.5,54.5,36.3,2,norm,1.351,1.414,-1.298,-1.144,-4.35,-4.914,-1.94,-1.674,-1.211,-1.909,1.893,-1.248,60.7,47.7,-4.462,-8.196,1.582,-1.164,8.466,4.744,-4.412,-7.594,14,4.708,4.552,4.839,4.352,2.098,1.257,1.331,1.38,14,4.623,5.164,10,295.515599591,norm,0,50,50,50,489.805,489.815,489.830068989,489.83,489.832,489.835,up,1,1.58783332649,8.41216667351,001,005,1920_1080,Intel(R) Core(TM) i5-3570 CPU @ 3.40GHz,orientation_search,LEPPC096,Intel(R) HD Graphics 2500,2018_Oct_10_1445,testMonitor,
60.9,54.0,67.1,48.8,36,-30,52.9,71.9,50.2,59.0,7.879,7.603,7.862,8.246,7.85,8.494,8.307,5.094,-5.119,-7.702,1.666,-1.829,8.387,4.799,-4.519,-7.844,35.3,36.8,-8.055,61.5,36.9,64.3,60.3,32.5,36,65.3,0,5,prime,10,0,62,norm,36,-4.904,up,norm,52.5177983083,53.2,62.2,72.5,41.6,4,50.6,57.0,53.8,10,5,7.662,4.959,1.457,-1.111,-4.819,-8.275,57.6,5,114.5,-8.282,-8.392,-30,-8.425,-7.507,-4.407,-4.631,-4.521,-4.558,4.917,7.838,4,-1.589,1.85,4.944,7.928,-7.782,-7.797,-1.367,1.625,48.7,54.2,44.7,43.3,56.3,56.9,47.2,59.8,43.0,,3,norm,1.916,1.654,-1.683,-1.503,-4.943,-5.176,-2.079,-1.158,-1.887,-1.871,1.199,-1.978,49.6,57.0,-4.851,-7.782,1.267,-2.034,8.154,4.483,-5.119,-8.474,14,4.323,4.585,4.699,5.122,1.788,1.423,1.595,1.294,14,5.152,4.493,10,295.515599591,norm,0,51,51,51,491.455,491.466,491.471926381,491.472,491.474,491.477,up,1,2.34860735148,7.65139264852,001,005,1920_1080,Intel(R) Core(TM) i5-3570 CPU @ 3.40GHz,orientation_search,LEPPC096,Intel(R) HD Graphics 2500,2018_Oct_10_1445,testMonitor,
60.8,42.0,48.4,54.2,36,-30,56.8,54.7,72.5,62.7,8.382,8.253,8.359,8.27,8.112,7.591,7.52,5.189,-5.008,-7.86,1.829,-1.915,7.897,5.128,-4.874,-8.486,51.8,54.8,-7.536,43.6,52.0,33.1,32.5,56.5,36,55.2,0,5,prime,10,0,73,norm,36,-5.101,up,norm,52.5177983083,54.0,49.7,63.0,45.3,5,70.0,45.7,56.0,10,5,7.727,4.425,1.114,-1.295,-5.041,-7.51,45.0,5,125.5,-7.907,-7.536,-30,-8.17,-8.211,-4.947,-4.793,-5.112,-4.998,4.891,8.155,5,-1.767,1.119,4.819,8.296,-7.648,-8.292,-1.505,2.087,41.8,55.4,52.8,55.3,46.8,52.9,52.0,46.6,,60.7,4,norm,1.468,2.057,-1.591,-1.334,-4.411,-5.083,-1.291,-1.589,-1.68,-2.075,1.206,-1.849,45.0,38.2,-4.866,-8.034,1.223,-1.975,7.821,4.771,-5.194,-7.567,14,4.5,4.802,4.749,4.373,1.311,2.099,1.871,1.512,14,4.843,4.499,10,295.515599591,norm,0,52,52,52,493.858,493.868,493.885877859,493.886,493.888,493.89,up,1,0.672173108826,9.32782689117,001,005,1920_1080,Intel(R) Core(TM) i5-3570 CPU @ 3.40GHz,orientation_search,LEPPC096,Intel(R) HD Graphics 2500,2018_Oct_10_1445,testMonitor,
134.0,139.0,146.1,133.6,36,-60,137.0,145.7,146.2,152.9,7.523,7.889,8.45,8.439,8.354,8.206,8.348,4.971,-5.218,-7.849,1.875,-1.991,7.984,5.108,-4.7,-8.152,143.5,136.7,-7.949,137.1,145.1,152.8,141.3,141.6,36,,4,5,probe,5,0,119,norm,36,-4.791,up,norm,142.87352291,148.1,145.7,138.3,137.8,3,143.7,146.7,147.4,10,5,7.509,4.657,1.93,-1.725,-4.35,-7.932,139.5,1,23.9,-8.138,-8.216,-30,-7.526,-8.204,-4.856,-5.213,-5.146,-4.382,4.361,7.999,27,-1.528,1.32,4.652,7.698,-8.141,-8.149,-1.929,1.154,146.6,142.4,146.4,144.1,143.5,136.7,145.2,143.2,139.8,135.1,0,norm,1.973,1.282,-2.063,-1.252,-4.374,-5.0,-2.012,-1.881,-1.566,-1.594,1.45,-1.846,146.1,132.9,-4.896,-7.551,1.813,-1.818,8.387,4.845,-4.723,-8.414,15,4.583,4.92,4.655,4.466,1.112,1.383,1.65,1.794,15,4.627,4.424,-30,52.5177983083,norm,0,53,53,53,494.588,494.598,494.605058063,494.605,494.607,494.61,up,1,1.40113457178,8.59886542822,001,005,1920_1080,Intel(R) Core(TM) i5-3570 CPU @ 3.40GHz,orientation_search,LEPPC096,Intel(R) HD Graphics 2500,2018_Oct_10_1445,testMonitor,
199.6,195.0,205.0,218.0,36,60,210.6,209.5,191.3,192.0,7.921,8.057,7.773,7.535,7.818,7.681,7.568,4.485,-4.487,-8.306,1.788,-1.343,8.446,5.12,-4.912,-7.537,207.9,223.5,-8.416,208.0,211.1,203.9,224.3,,36,205.2,4,5,prime,10,0,104,norm,36,-4.633,down,norm,204.30160041,197.0,197.3,207.5,201.7,2,196.9,199.7,201.1,10,6,7.992,4.971,1.765,-1.282,-4.58,-8.016,184.3,6,308.3,-7.808,-8.255,60,-8.34,-8.296,-4.718,-4.788,-4.852,-4.727,4.97,8.032,26,-1.703,1.793,4.811,7.767,-8.452,-7.964,-1.455,1.906,211.2,200.2,207.9,221.3,198.0,206.8,204.1,199.5,206.6,202.2,0,norm,1.956,1.864,-1.177,-2.09,-4.813,-4.936,-1.496,-1.728,-1.491,-1.646,1.55,-1.73,197.5,185.2,-4.574,-7.681,1.147,-1.174,7.862,5.022,-4.525,-7.725,16,4.802,4.532,4.624,5.275,1.761,1.241,1.623,1.111,16,4.788,4.957,-60,52.5177983083,norm,0,54,54,54,496.044,496.057,496.076116642,496.076,496.078,496.081,down,1,2.58416742933,7.41583257067,001,005,1920_1080,Intel(R) Core(TM) i5-3570 CPU @ 3.40GHz,orientation_search,LEPPC096,Intel(R) HD Graphics 2500,2018_Oct_10_1445,testMonitor,
208.1,191.6,217.8,203.2,36,60,213.5,200.7,200.3,203.7,7.752,7.922,8.496,7.698,7.722,7.575,7.512,4.882,-4.456,-7.83,2.055,-1.208,7.976,4.91,-4.958,-8.18,204.3,201.0,-8.148,189.5,215.9,206.6,208.5,197.5,36,219.8,0,5,prime,10,0,97,norm,36,-5.158,down,norm,204.30160041,215.9,191.2,205.5,192.2,0,198.6,198.6,200.8,10,6,7.663,4.991,1.893,-1.723,-4.999,-7.867,190.7,6,301.3,-7.62,-7.663,60,-7.755,-7.613,-4.474,-4.794,-4.605,-4.408,4.903,8.431,0,-1.178,1.662,4.329,8.275,-8.407,-7.886,-1.205,1.687,212.3,184.3,203.3,208.6,206.0,,224.3,194.2,200.8,195.1,1,norm,1.826,1.108,-1.763,-1.701,-5.013,-5.17,-2.056,-1.635,-1.986,-1.624,1.454,-1.658,214.9,222.7,-4.782,-7.659,1.189,-1.413,8.141,5.204,-5.274,-7.816,16,4.895,4.83,5.178,4.892,1.934,1.698,1.719,2.06,16,4.42,5.273,-60,52.5177983083,norm,0,55,55,55,498.706,498.716,498.722416274,498.723,498.724,498.727,down,1,1.45098956585,8.54901043415,001,005,1920_1080,Intel(R) Core(TM) i5-3570 CPU @ 3.40GHz,orientation_search,LEPPC096,Intel(R) HD Graphics 2500,2018_Oct_10_1445,testMonitor,
219.9,219.6,202.8,219.3,36,60,196.8,193.9,205.8,200.9,7.942,7.817,8.118,7.72,8.314,7.76,7.509,5.271,-4.576,-8.168,1.133,-2.043,8.175,5.217,-4.677,-8.289,,201.4,-7.618,224.3,213.6,195.1,214.9,201.1,36,218.6,5,5,prime,10,0,101,norm,36,-4.494,up,norm,204.30160041,221.3,193.6,221.3,203.7,5,184.3,202.8,195.3,10,6,7.684,4.366,1.856,-1.916,-4.757,-7.545,200.7,6,305.3,-7.752,-8.103,60,-7.681,-7.885,-4.791,-4.745,-5.127,-4.502,5.227,8.378,35,-1.961,1.133,4.783,8.493,-7.707,-8.446,-2.03,1.359,217.0,207.6,191.6,218.6,201.1,214.4,199.2,202.9,201.6,196.4,2,norm,1.22,1.582,-1.31,-1.609,-4.914,-4.893,-1.34,-2.071,-2.066,-1.299,1.73,-1.54,203.5,212.5,-5.029,-7.574,1.499,-2.038,8.362,4.734,-4.758,-7.586,16,4.76,4.334,4.359,4.415,1.987,1.306,1.229,1.383,16,4.904,5.207,-60,52.5177983083,norm,0,56,56,56,500.22,500.241,500.252385776,500.253,500.255,500.258,up,1,1.41788843116,8.58211156884,001,005,1920_1080,Intel(R) Core(TM) i5-3570 CPU @ 3.40GHz,orientation_search,LEPPC096,Intel(R) HD Graphics 2500,2018_Oct_10_1445,testMonitor,
203.3,204.5,189.4,192.3,36,60,219.6,205.3,201.7,188.2,7.938,7.801,7.664,7.567,7.935,8.045,8.155,5.244,-4.573,-7.576,1.75,-1.521,8.312,4.814,-4.997,-8.208,198.1,205.5,-7.571,189.7,211.3,184.3,,197.1,36,209.4,5,5,prime,10,0,97,norm,36,-4.629,down,norm,204.30160041,209.2,214.3,200.2,206.8,2,196.3,187.7,197.8,10,6,7.96,4.389,1.771,-1.476,-4.509,-7.568,206.7,6,301.3,-7.728,-7.712,60,-8.168,-8.045,-4.876,-4.581,-5.116,-4.674,4.36,8.402,32,-2.017,1.348,5.255,8.443,-7.553,-7.889,-1.668,1.718,220.3,211.6,204.4,201.9,206.2,192.8,202.1,210.1,209.3,223.8,3,norm,1.58,1.533,-1.713,-1.723,-4.557,-5.063,-1.429,-1.81,-1.374,-1.204,1.668,-1.757,215.5,188.8,-5.292,-8.319,1.941,-1.41,7.824,4.767,-4.524,-7.761,16,4.948,4.823,5.001,4.997,1.703,2.031,1.683,1.423,16,5.054,4.581,-60,52.5177983083,norm,0,57,57,57,501.718,501.739,501.749919709,501.75,501.752,501.755,down,1,1.10993767522,8.89006232478,001,005,1920_1080,Intel(R) Core(TM) i5-3570 CPU @ 3.40GHz,orientation_search,LEPPC096,Intel(R) HD Graphics 2500,2018_Oct_10_1445,testMonitor,
211.4,205.8,197.2,211.1,36,60,207.9,196.2,219.2,198.6,7.633,7.992,7.775,7.623,7.99,7.743,7.806,5.192,-5.125,-8.121,1.276,-1.236,7.509,4.419,-4.959,-7.833,202.9,221.0,-7.87,224.3,214.8,207.7,217.2,199.6,36,189.6,1,5,prime,10,0,63,norm,36,-4.663,down,norm,204.30160041,194.1,207.0,193.9,211.1,2,206.7,198.2,217.6,10,6,7.58,5.04,1.759,-1.552,-4.354,-7.678,204.1,6,267.3,-7.553,-8.191,60,-8.186,-7.682,-4.995,-4.416,-4.552,-5.154,5.299,8.363,8,-1.739,2.033,5.01,8.412,-8.341,-7.571,-1.679,1.723,208.5,,184.3,202.0,196.8,201.6,210.9,214.9,186.1,212.4,4,norm,1.935,1.71,-1.119,-1.836,-4.725,-5.134,-1.866,-1.458,-1.896,-1.581,1.847,-1.348,194.2,200.1,-4.952,-7.877,1.551,-1.611,8.017,5.075,-4.814,-7.924,16,4.326,4.45,5.271,4.734,1.506,1.367,1.146,1.298,16,5.004,4.567,-60,52.5177983083,norm,0,58,58,58,502.903,502.912,502.920583598,502.921,502.923,502.925,up,0,1.0922372326,-10,001,005,1920_1080,Intel(R) Core(TM) i5-3570 CPU @ 3.40GHz,orientation_search,LEPPC096,Intel(R) HD Graphics 2500,2018_Oct_10_1445,testMonitor,
196.0,209.0,204.0,,36,60,210.4,203.5,208.6,224.3,8.046,7.678,7.982,8.16,8.491,8.284,8.384,4.517,-5.078,-7.817,1.868,-1.452,8.118,5.218,-4.944,-7.771,204.9,211.1,-8.27,210.4,199.8,193.7,184.3,208.2,36,211.8,3,5,prime,10,0,86,norm,36,-5.184,up,norm,204.30160041,209.8,218.7,200.4,198.7,3,190.2,212.8,189.2,10,6,7.968,4.512,1.354,-1.978,-4.687,-7.82,195.7,6,290.3,-8.149,-8.327,60,-7.522,-7.636,-4.661,-4.842,-4.388,-4.344,4.345,7.75,21,-1.822,1.887,4.503,7.843,-7.747,-7.909,-1.807,1.725,193.2,216.9,206.8,219.2,191.7,211.7,198.9,213.2,196.5,206.4,5,norm,1.455,1.936,-1.976,-1.574,-4.932,-4.5,-1.768,-1.849,-1.962,-1.41,1.144,-1.525,191.2,224.1,-4.733,-8.335,2.09,-1.671,8.067,4.887,-4.303,-8.381,16,4.932,4.793,4.357,4.725,1.77,1.521,1.93,1.653,16,5.116,4.358,-60,52.5177983083,norm,0,59,59,59,505.083,505.093,505.101680729,505.102,505.104,505.106,down,0,1.00634234922,-10,001,005,1920_1080,Intel(R) Core(TM) i5-3570 CPU @ 3.40GHz,orientation_search,LEPPC096,Intel(R) HD Graphics 2500,2018_Oct_10_1445,testMonitor,
340.4,339.1,350.3,340.0,36,-20,348.7,345.5,350.3,337.0,7.601,7.862,8.222,7.676,7.902,8.072,8.018,4.625,-4.398,-8.218,1.941,-2.045,7.964,4.985,-4.725,-7.547,349.3,346.1,-8.342,344.6,350.8,348.2,350.0,348.2,36,348.7,1,5,probe,5,0,90,norm,36,-5.135,up,norm,347.000513492,345.9,350.7,348.3,352.9,3,349.6,351.0,344.4,10,6,7.867,4.302,1.162,-1.272,-5.128,-8.051,357.0,2,257.0,-7.852,-7.624,60,-7.864,-8.03,-4.435,-4.94,-4.954,-5.208,4.992,8.175,9,-1.181,1.94,5.172,7.73,-7.644,-7.61,-2.03,1.585,,345.0,353.9,338.2,343.9,350.2,343.3,343.0,348.6,352.9,0,norm,1.461,1.571,-1.113,-1.813,-5.173,-4.387,-1.432,-1.276,-1.282,-1.772,1.323,-1.294,347.0,355.6,-4.421,-7.505,2.06,-1.462,8.273,4.407,-4.354,-7.752,17,4.973,5.259,4.953,4.367,1.454,2.052,1.786,1.55,17,4.9,4.926,60,204.30160041,norm,0,60,60,60,507.181,507.191,507.207553167,507.208,507.21,507.212,up,1,1.07955977842,8.92044022158,001,005,1920_1080,Intel(R) Core(TM) i5-3570 CPU @ 3.40GHz,orientation_search,LEPPC096,Intel(R) HD Graphics 2500,2018_Oct_10_1445,testMonitor,
329.9,,325.8,335.0,36,-20,318.5,318.3,315.0,325.6,7.567,8.049,7.641,8.302,7.743,8.476,7.561,5.026,-4.515,-7.508,1.129,-1.843,7.576,5.298,-4.397,-7.754,326.3,325.1,-8.316,327.7,328.1,322.5,324.1,316.6,36,323.7,3,5,probe,5,0,68,norm,36,-4.989,up,norm,325.000513492,333.7,330.0,325.6,323.8,5,317.7,325.2,321.2,10,6,8.486,4.631,1.182,-1.932,-5.29,-8.119,333.3,2,257.0,-7.884,-7.822,60,-7.854,-8.112,-4.355,-5.202,-4.772,-4.612,4.327,8.082,23,-1.202,1.156,4.934,7.614,-8.491,-7.753,-1.872,1.114,330.7,329.6,330.2,319.5,321.0,327.7,322.5,319.1,326.2,326.8,1,norm,1.626,1.626,-1.827,-1.48,-4.887,-4.639,-1.25,-1.862,-2.097,-1.983,1.189,-1.577,317.3,320.9,-4.921,-8.377,2.095,-1.686,7.799,5.019,-4.606,-7.78,17,4.337,4.311,4.456,4.607,2.074,1.931,1.323,1.45,17,5.135,5.271,60,204.30160041,norm,0,61,61,61,508.331,508.341,508.347166046,508.347,508.349,508.352,up,1,1.02853332722,8.97146667278,001,005,1920_1080,Intel(R) Core(TM) i5-3570 CPU @ 3.40GHz,orientation_search,LEPPC096,Intel(R) HD Graphics 2500,2018_Oct_10_1445,testMonitor,
114.4,112.1,116.6,104.3,36,-80,118.9,114.8,101.9,121.8,7.957,8.095,7.761,8.156,7.621,8.236,7.744,4.54,-4.689,-8.397,1.175,-1.357,7.752,4.577,-4.856,-7.502,123.1,126.6,-7.645,125.3,91.2,122.9,119.0,119.3,36,91.0,1,5,prime,10,0,79,norm,36,-4.645,up,norm,110.972463533,118.6,114.5,131.0,119.0,3,119.5,107.7,106.0,10,5,8.23,4.546,1.854,-1.73,-4.625,-8.085,107.9,5,190.0,-8.139,-8.456,-80,-7.51,-7.644,-4.834,-4.77,-5.155,-4.717,4.741,8.36,9,-1.4,1.806,5.097,8.251,-7.679,-7.606,-1.877,2.013,,123.0,111.9,118.3,125.2,114.4,100.1,113.8,112.6,99.8,0,norm,1.887,1.245,-1.318,-1.2,-5.064,-5.211,-1.257,-1.833,-1.11,-1.705,1.967,-1.597,101.4,121.0,-4.869,-7.897,1.355,-1.226,7.764,4.405,-4.697,-7.584,18,4.596,5.025,4.414,5.207,1.514,2.085,2.058,1.307,18,4.841,4.551,-20,204.30160041,norm,0,62,62,62,509.414,526.545,526.55310827,526.553,526.555,526.558,up,1,1.29882178156,8.70117821844,001,005,1920_1080,Intel(R) Core(TM) i5-3570 CPU @ 3.40GHz,orientation_search,LEPPC096,Intel(R) HD Graphics 2500,2018_Oct_10_1445,testMonitor,
119.1,122.0,108.7,116.5,36,-80,110.8,101.2,131.0,125.1,8.468,7.794,8.196,8.277,7.735,8.495,8.25,4.33,-4.755,-7.808,1.966,-2.032,7.777,4.885,-4.388,-7.702,91.0,127.5,-7.815,99.8,111.7,120.0,,107.3,36,95.6,5,5,prime,10,0,109,norm,36,-4.393,down,norm,110.972463533,104.8,126.8,120.4,106.6,2,103.9,119.9,93.0,10,5,8.094,4.379,1.103,-1.221,-4.731,-7.833,110.6,5,220.0,-7.615,-8.201,-80,-8.342,-8.112,-4.389,-5.126,-4.336,-4.566,5.241,7.744,32,-1.197,1.137,4.891,8.095,-7.962,-8.429,-1.191,1.722,124.1,116.6,104.5,125.2,95.9,116.9,105.2,119.7,93.8,110.3,1,norm,1.811,1.758,-2.049,-1.914,-4.3,-4.472,-1.225,-1.159,-1.974,-1.321,1.768,-1.222,111.2,120.8,-4.781,-7.775,1.56,-2.013,7.896,5.118,-5.141,-8.413,18,4.836,4.565,4.897,4.982,1.95,1.516,1.292,1.715,18,5.082,4.63,-20,204.30160041,norm,0,63,63,63,527.89,527.899,527.907556306,527.908,527.91,527.912,down,1,1.21376028987,8.78623971013,001,005,1920_1080,Intel(R) Core(TM) i5-3570 CPU @ 3.40GHz,orientation_search,LEPPC096,Intel(R) HD Graphics 2500,2018_Oct_10_1445,testMonitor,
113.9,106.4,102.3,102.9,36,-80,112.7,101.9,118.5,113.0,8.421,8.099,8.218,7.901,8.044,7.577,8.325,5.095,-4.772,-8.471,1.921,-1.265,8.16,4.711,-4.707,-8.003,117.4,91.0,-8.037,106.3,103.6,109.3,111.7,113.6,36,130.1,2,5,prime,10,0,105,norm,36,-4.838,up,norm,110.972463533,111.5,118.3,,118.1,3,115.6,112.1,131.0,10,5,7.566,4.466,1.168,-1.444,-5.119,-7.914,100.0,5,216.0,-7.735,-7.715,-80,-7.619,-8.001,-4.688,-5.224,-4.426,-5.159,4.327,7.76,15,-1.991,1.244,4.688,8.123,-8.154,-8.417,-1.982,1.492,99.8,121.0,112.4,106.0,127.7,98.4,110.0,123.7,121.1,107.4,2,norm,1.476,2.034,-1.163,-1.582,-4.526,-4.814,-1.965,-1.764,-1.718,-1.194,1.918,-1.129,113.7,106.6,-4.637,-7.63,1.119,-1.167,8.112,4.993,-4.559,-7.599,18,4.737,4.644,4.763,5.157,1.861,1.938,1.906,1.244,18,5.149,4.946,-20,204.30160041,norm,0,64,64,64,529.156,529.167,529.17212089,529.172,529.174,529.177,up,1,0.654661620636,9.34533837936,001,005,1920_1080,Intel(R) Core(TM) i5-3570 CPU @ 3.40GHz,orientation_search,LEPPC096,Intel(R) HD Graphics 2500,2018_Oct_10_1445,testMonitor,
103.9,118.9,106.2,120.4,36,-80,103.2,110.0,115.7,112.4,7.98,8.388,8.193,7.799,8.181,8.205,7.551,4.32,-4.729,-8.336,1.999,-1.223,7.946,4.944,-4.752,-8.444,111.6,110.5,-8.441,124.4,125.5,97.3,110.6,123.2,36,117.9,2,5,prime,10,0,98,norm,36,-4.82,down,norm,110.972463533,99.7,113.5,103.5,,2,119.9,123.1,127.3,10,5,8.157,4.435,1.2,-1.226,-4.474,-8.309,105.1,5,209.0,-7.763,-7.741,-80,-7.994,-8.492,-5.206,-4.482,-4.352,-5.069,4.694,7.709,14,-1.224,1.313,4.41,7.817,-8.039,-8.222,-1.631,1.331,131.0,113.8,93.5,109.0,109.8,118.2,91.0,96.9,97.4,106.6,3,norm,1.677,1.582,-1.644,-1.105,-5.275,-4.578,-1.553,-1.16,-1.997,-1.379,1.355,-1.999,100.4,104.4,-5.234,-7.797,2.099,-1.447,7.585,5.05,-4.762,-7.945,18,4.304,4.917,4.849,5.298,1.399,1.257,1.549,1.734,18,4.51,5.09,-20,204.30160041,norm,0,65,65,65,529.874,529.883,529.889635215,529.89,529.892,529.894,down,1,0.737444490862,9.26255550914,001,005,1920_1080,Intel(R) Core(TM) i5-3570 CPU @ 3.40GHz,orientation_search,LEPPC096,Intel(R) HD Graphics 2500,2018_Oct_10_1445,testMonitor,
113.1,104.5,97.3,131.0,36,-80,102.3,116.0,121.9,107.1,7.986,8.011,8.243,7.55,8.078,8.261,7.74,5.134,-4.961,-7.818,1.498,-1.868,8.204,4.877,-4.312,-7.649,103.0,123.3,-7.935,111.1,108.0,99.4,115.0,115.8,36,116.0,2,5,prime,10,0,83,norm,36,-4.673,down,norm,110.972463533,119.5,91.0,104.7,98.0,0,121.1,98.7,,10,5,7.949,4.617,1.569,-1.365,-4.804,-7.608,121.9,5,194.0,-8.078,-8.463,-80,-7.97,-7.674,-5.096,-5.164,-4.512,-5.218,4.906,7.652,12,-1.749,1.324,4.961,7.842,-8.038,-8.414,-1.646,2.006,109.9,117.8,121.6,108.6,107.1,105.9,107.2,103.8,112.2,106.0,4,norm,1.739,1.521,-1.475,-1.461,-5.149,-4.994,-1.102,-1.298,-1.4,-1.303,1.32,-1.766,110.8,107.3,-5.164,-7.576,2.093,-1.357,8.079,5.016,-4.577,-8.217,18,4.376,4.408,4.421,4.349,2.088,2.083,1.894,1.811,18,4.762,4.973,-20,204.30160041,norm,0,66,66,66,530.664,530.675,530.684924213,530.685,530.687,530.689,down,1,1.3709878876,8.6290121124,001,005,1920_1080,Intel(R) Core(TM) i5-3570 CPU @ 3.40GHz,orientation_search,LEPPC096,Intel(R) HD Graphics 2500,2018_Oct_10_1445,testMonitor,
90.1,104.1,107.0,98.7,36,30,104.2,92.5,105.4,102.6,8.168,7.802,7.857,7.854,7.509,7.502,7.673,4.398,-5.288,-8.332,1.827,-1.762,8.043,4.823,-5.194,-8.388,110.1,90.1,-7.617,95.1,106.7,95.4,99.2,100.3,36,98.6,1,5,probe,5,0,65,norm,36,-4.974,up,norm,100.119280294,100.2,90.6,101.4,103.8,4,100.4,93.9,103.9,10,5,7.882,4.646,1.718,-1.348,-4.398,-8.479,,2,35.1,-7.548,-8.021,-80,-7.532,-8.077,-5.111,-5.186,-4.73,-5.208,4.345,8.167,10,-1.503,2.08,5.078,8.433,-7.615,-7.682,-1.677,1.765,98.3,100.3,104.6,102.2,104.7,95.4,96.0,103.6,98.6,104.9,0,norm,1.956,1.843,-1.265,-1.613,-4.815,-4.319,-1.868,-1.839,-1.701,-1.665,2.077,-1.889,104.8,101.4,-4.89,-8.265,1.122,-1.801,7.979,4.51,-4.538,-7.74,19,4.551,4.632,4.679,4.628,1.109,1.582,1.133,1.56,19,5.064,4.95,-80,110.972463533,norm,0,67,67,67,532.094,532.109,532.125721408,532.126,532.128,532.13,up,1,0.775717423168,9.22428257683,001,005,1920_1080,Intel(R) Core(TM) i5-3570 CPU @ 3.40GHz,orientation_search,LEPPC096,Intel(R) HD Graphics 2500,2018_Oct_10_1445,testMonitor,
124.3,139.0,137.9,127.5,36,30,137.8,138.1,126.4,133.8,8.158,8.104,8.193,8.234,7.642,8.356,7.678,4.736,-4.507,-8.357,2.044,-1.639,7.975,4.538,-5.122,-7.77,128.7,127.2,-8.394,130.1,131.8,133.5,,125.1,36,130.1,5,5,probe,5,0,97,norm,36,-5.072,down,norm,132.119280294,133.0,134.9,130.9,132.5,2,129.6,136.7,124.4,10,5,8.122,4.901,1.48,-1.795,-5.229,-8.407,127.1,2,35.1,-7.521,-8.265,-80,-7.558,-7.719,-4.615,-4.91,-5.027,-4.51,4.332,7.571,32,-1.403,1.396,4.735,7.596,-7.97,-7.741,-1.693,1.142,137.3,136.9,142.1,130.2,135.1,124.4,131.8,137.7,122.9,130.8,1,norm,1.214,1.47,-1.736,-1.183,-4.707,-4.486,-1.516,-1.423,-1.127,-1.561,1.851,-1.478,128.7,131.7,-5.224,-8.355,1.871,-1.643,8.486,4.558,-5.044,-8.186,19,5.078,5.111,4.907,4.785,2.059,1.558,1.956,1.975,19,4.474,5.212,-80,110.972463533,norm,0,68,68,68,532.947,532.966,532.979464335,532.98,532.982,532.985,down,1,0.757511693442,9.24248830656,001,005,1920_1080,Intel(R) Core(TM) i5-3570 CPU @ 3.40GHz,orientation_search,LEPPC096,Intel(R) HD Graphics 2500,2018_Oct_10_1445,testMonitor,
10.6,1.9,,23.1,36,20,-0.9,17.8,2.9,-7.6,8.302,7.912,7.522,8.334,8.438,7.965,8.05,4.924,-4.854,-7.644,1.638,-1.388,7.745,4.707,-5.266,-8.027,22.6,18.7,-8.224,3.9,23.9,23.5,-8.2,3.2,36,13.1,3,5,prime,10,0,104,norm,36,-4.742,down,norm,11.8469509254,10.7,14.2,-2.1,14.7,2,25.0,23.8,24.1,10,6,7.568,4.709,1.977,-1.539,-4.445,-7.957,-2.4,6,115.8,-8.068,-8.2,20,-8.432,-8.394,-4.503,-5.088,-4.763,-4.509,4.712,8.422,20,-1.915,1.91,4.583,8.175,-7.76,-8.073,-1.164,1.576,22.7,21.8,17.3,20.0,31.8,20.3,13.1,11.6,7.6,4.0,0,norm,1.381,1.422,-2.099,-1.637,-5.106,-4.956,-1.414,-1.302,-1.419,-1.737,2.096,-1.943,6.4,23.1,-5.033,-8.248,1.313,-2.087,8.436,4.515,-4.43,-7.863,20,4.922,5.115,4.586,4.435,1.539,1.718,1.291,1.889,20,5.295,4.561,30,110.972463533,norm,0,69,69,69,533.759,533.769,533.788522859,533.789,533.791,533.793,up,0,0.959716483829,-10,001,005,1920_1080,Intel(R) Core(TM) i5-3570 CPU @ 3.40GHz,orientation_search,LEPPC096,Intel(R) HD Graphics 2500,2018_Oct_10_1445,testMonitor,
,15.5,19.8,-8.2,36,20,3.5,12.8,9.0,8.8,8.456,8.488,8.407,7.897,7.985,8.341,8.07,4.588,-5.039,-8.139,1.136,-1.315,7.925,4.337,-4.339,-7.63,18.6,14.6,-7.756,15.6,3.4,21.5,5.2,23.2,36,-7.5,3,5,prime,10,0,82,norm,36,-4.466,up,norm,11.8469509254,20.9,-2.6,6.4,19.2,4,27.7,19.2,1.6,10,6,7.917,4.43,1.32,-1.875,-4.434,-8.267,16.6,6,93.8,-7.603,-8.237,20,-8.481,-7.796,-4.937,-5.17,-4.836,-4.853,5.298,8.009,22,-1.434,2.078,4.493,8.33,-8.254,-7.581,-1.184,1.832,2.5,19.0,13.6,28.3,3.4,2.2,10.6,11.5,31.8,19.6,1,norm,1.364,1.374,-1.188,-1.691,-5.068,-4.76,-1.951,-2.04,-1.608,-1.728,1.597,-1.281,5.4,11.8,-4.968,-7.661,1.953,-1.937,8.126,5.02,-4.319,-7.834,20,4.593,4.428,4.599,4.499,1.853,1.912,1.286,1.982,20,5.218,4.74,30,110.972463533,norm,0,70,70,70,535.821,535.831,535.836709561,535.837,535.839,535.841,up,1,0.857511150123,9.14248884988,001,005,1920_1080,Intel(R) Core(TM) i5-3570 CPU @ 3.40GHz,orientation_search,LEPPC096,Intel(R) HD Graphics 2500,2018_Oct_10_1445,testMonitor,
18.1,26.4,20.2,9.5,36,20,4.1,8.1,-4.2,13.4,7.515,7.684,7.718,8.014,7.902,8.041,8.452,4.927,-4.447,-8.302,1.371,-1.814,8.044,4.659,-4.8,-7.851,21.7,18.1,-8.273,-8.2,18.5,12.0,4.7,14.2,36,13.6,0,5,prime,10,0,119,norm,36,-4.976,up,norm,11.8469509254,6.7,10.3,10.1,-0.3,3,18.0,6.6,5.1,10,6,8.267,4.933,1.588,-1.192,-4.491,-8.409,11.7,6,130.8,-7.626,-8.161,20,-7.982,-8.399,-4.903,-4.552,-4.304,-5.231,4.622,8.261,3,-1.493,1.567,4.521,8.164,-8.463,-8.168,-1.166,1.241,1.7,11.9,,20.8,4.7,19.7,17.7,22.6,11.3,14.8,2,norm,1.778,1.58,-1.862,-1.801,-4.388,-4.624,-1.43,-1.162,-1.711,-1.234,1.327,-1.229,31.8,14.2,-5.048,-8.226,1.529,-1.804,7.666,4.389,-4.486,-8.181,20,4.348,4.793,5.019,4.771,1.35,1.948,1.368,1.424,20,4.539,4.651,30,110.972463533,norm,0,71,71,71,536.737,536.747,536.753203472,536.753,536.755,536.758,down,0,0.77134098488,-10,001,005,1920_1080,Intel(R) Core(TM) i5-3570 CPU @ 3.40GHz,orientation_search,LEPPC096,Intel(R) HD Graphics 2500,2018_Oct_10_1445,testMonitor,
-1.9,13.0,8.6,5.6,36,20,17.1,,-3.7,14.2,7.552,7.993,8.193,7.608,7.632,7.574,7.577,5.073,-5.155,-8.104,2.071,-1.302,8.485,5.175,-4.826,-7.505,19.0,3.2,-8.006,14.3,2.5,-0.1,24.6,27.5,36,20.2,4,5,prime,10,0,73,norm,36,-5.283,down,norm,11.8469509254,21.0,31.8,2.2,17.5,1,4.7,3.7,17.8,10,6,7.926,4.407,1.481,-1.525,-4.461,-8.307,-0.3,6,84.8,-8.316,-7.718,20,-8.034,-7.612,-4.767,-4.478,-5.2,-4.772,4.989,8.496,25,-1.77,1.301,4.584,7.521,-7.772,-7.505,-1.309,1.695,0.1,13.5,10.7,2.7,-8.2,0.1,4.2,11.8,16.1,9.8,3,norm,1.967,1.626,-1.338,-1.575,-4.715,-4.401,-1.271,-1.301,-1.45,-2.011,1.537,-1.964,13.5,14.1,-4.499,-8.123,1.777,-1.301,7.817,4.54,-4.864,-8.012,20,4.803,5.261,4.727,4.601,1.339,1.392,1.712,2.073,20,4.79,4.511,30,110.972463533,norm,0,72,72,72,538.582,538.592,538.608666308,538.609,538.613,538.62,up,0,0.380313362519,-10,001,005,1920_1080,Intel(R) Core(TM) i5-3570 CPU @ 3.40GHz,orientation_search,LEPPC096,Intel(R) HD Graphics 2500,2018_Oct_10_1445,testMonitor,
13.1,19.7,18.8,19.8,36,20,13.0,,-3.8,15.2,7.705,7.865,7.564,8.429,7.886,7.915,7.599,4.677,-4.318,-8.078,1.615,-1.988,7.682,4.487,-4.316,-7.612,2.6,6.9,-7.908,31.8,16.8,10.7,10.5,30.1,36,16.3,4,5,prime,10,0,63,norm,36,-4.576,down,norm,11.8469509254,20.7,19.1,15.2,17.8,1,6.2,-8.2,8.5,10,6,8.052,4.331,1.513,-1.81,-4.665,-8.172,20.3,6,74.8,-8.235,-7.92,20,-7.963,-8.118,-4.712,-4.989,-4.472,-5.073,5.013,7.708,25,-2.015,1.304,4.72,8.405,-8.216,-8.107,-1.641,1.706,5.7,14.6,18.9,12.8,21.5,11.3,12.0,9.8,15.8,24.0,4,norm,1.532,1.174,-1.443,-1.366,-4.864,-4.842,-1.565,-1.171,-1.618,-1.355,1.358,-1.33,5.7,25.0,-4.396,-7.73,1.857,-1.828,7.968,5.272,-4.695,-8.486,20,4.936,4.894,5.217,5.037,1.846,1.413,1.803,1.475,20,5.235,4.429,30,110.972463533,norm,0,73,73,73,540.066,540.076,540.09063112,540.091,540.093,540.095,down,1,1.364876751,8.635123249,001,005,1920_1080,Intel(R) Core(TM) i5-3570 CPU @ 3.40GHz,orientation_search,LEPPC096,Intel(R) HD Graphics 2500,2018_Oct_10_1445,testMonitor,
12.7,13.2,14.2,9.8,36,20,26.6,10.5,13.5,-4.4,7.704,8.032,7.978,7.935,7.727,8.06,8.13,4.754,-4.838,-7.593,1.529,-1.427,8.344,4.828,-4.35,-7.698,26.9,3.6,-8.253,,9.7,17.8,3.7,3.7,36,7.6,5,5,prime,10,0,81,norm,36,-5.246,down,norm,11.8469509254,25.3,19.3,6.1,9.8,1,3.5,7.6,16.8,10,6,7.72,4.589,1.698,-1.626,-4.874,-8.425,13.5,6,92.8,-8.422,-7.609,20,-7.734,-7.805,-5.247,-4.344,-4.989,-4.47,4.553,8.189,31,-2.017,1.802,5.037,7.611,-7.568,-7.776,-1.913,2.011,17.2,2.7,9.0,4.3,-8.2,31.8,-1.6,1.9,29.8,6.7,5,norm,1.796,1.81,-1.198,-1.625,-4.871,-4.786,-1.389,-2.094,-1.857,-1.876,1.547,-1.777,21.0,-3.5,-4.855,-8.275,1.502,-1.356,7.54,4.753,-4.929,-7.876,20,5.194,4.691,4.808,5.08,1.806,1.454,1.797,1.797,20,4.793,4.37,30,110.972463533,norm,0,74,74,74,541.48,541.49,541.49552667,541.496,541.498,541.5,down,1,1.68882343566,8.31117656434,001,005,1920_1080,Intel(R) Core(TM) i5-3570 CPU @ 3.40GHz,orientation_search,LEPPC096,Intel(R) HD Graphics 2500,2018_Oct_10_1445,testMonitor,
146.4,131.9,133.5,128.1,36,-60,141.9,133.6,136.5,141.0,7.837,7.523,7.687,7.519,8.222,7.639,8.01,5.211,-4.807,-7.93,1.238,-1.83,8.2,4.309,-5.231,-7.633,137.0,133.5,-7.628,137.0,138.3,136.7,133.7,137.3,36,134.0,0,5,probe,5,0,102,norm,36,-5.072,up,norm,136.389529308,126.4,133.3,134.8,134.5,3,138.7,145.6,140.8,10,6,8.017,4.748,1.661,-1.63,-4.777,-8.429,137.4,1,34.4,-7.812,-8.281,20,-8.265,-7.584,-5.054,-4.559,-4.706,-5.193,4.543,7.555,3,-1.756,1.445,4.727,8.21,-7.519,-7.792,-1.252,1.902,139.2,138.0,,139.6,139.0,132.7,140.6,135.6,137.0,138.8,0,norm,1.207,1.96,-1.117,-1.832,-4.433,-4.842,-2.043,-1.527,-1.411,-1.4,1.818,-1.27,142.7,143.5,-5.006,-7.994,1.586,-1.973,7.694,4.802,-5.053,-8.154,21,5.001,4.627,4.42,4.623,1.324,1.341,1.356,1.107,21,5.201,4.52,20,11.8469509254,norm,0,75,75,75,543.227,543.237,543.242545053,543.243,543.245,543.247,up,1,0.99334584578,9.00665415422,001,005,1920_1080,Intel(R) Core(TM) i5-3570 CPU @ 3.40GHz,orientation_search,LEPPC096,Intel(R) HD Graphics 2500,2018_Oct_10_1445,testMonitor,
92.4,83.7,74.9,76.0,36,80,81.7,60.9,61.6,72.9,8.357,7.53,8.231,7.51,7.867,8.151,8.202,4.771,-4.468,-8.418,1.193,-1.905,7.991,5.201,-4.763,-8.122,74.0,78.1,-8.374,93.0,68.4,53.4,60.1,75.4,36,84.6,1,5,prime,10,0,93,norm,36,-5.102,up,norm,73.4187877213,67.1,76.8,64.3,74.0,3,70.9,79.4,66.5,10,6,8.085,4.931,1.42,-1.628,-4.425,-7.824,72.2,6,166.4,-7.675,-8.424,80,-8.332,-8.351,-4.735,-5.2,-4.336,-4.539,4.782,7.966,9,-1.699,1.366,4.905,8.474,-7.93,-7.625,-1.88,1.829,,67.1,93.4,83.4,84.6,69.8,70.3,87.9,61.7,58.2,0,norm,1.364,2.011,-1.608,-1.921,-4.336,-4.525,-1.61,-1.683,-1.891,-2.008,1.681,-1.656,84.4,70.6,-5.079,-7.898,1.807,-1.47,8.153,4.552,-5.159,-7.856,22,5.225,4.75,4.322,4.547,1.842,1.623,1.995,1.87,22,5.069,4.809,-60,11.8469509254,norm,0,76,76,76,544.257,544.267,544.286777596,544.287,544.289,544.291,up,1,1.65454058113,8.34545941887,001,005,1920_1080,Intel(R) Core(TM) i5-3570 CPU @ 3.40GHz,orientation_search,LEPPC096,Intel(R) HD Graphics 2500,2018_Oct_10_1445,testMonitor,
89.0,67.2,59.3,62.7,36,80,66.2,82.2,77.7,63.2,7.915,8.054,7.875,8.472,7.997,7.897,7.773,4.973,-4.658,-8.285,1.103,-1.947,8.193,4.651,-5.098,-7.801,72.9,80.2,-8.386,53.5,76.0,81.6,80.7,88.8,36,70.4,1,5,prime,10,0,70,norm,36,-4.975,down,norm,73.4187877213,80.7,81.4,93.4,73.5,2,69.5,82.7,54.6,10,6,7.858,5.202,1.477,-1.261,-5.265,-7.992,67.3,6,143.4,-7.771,-8.373,80,-8.466,-8.312,-5.23,-5.076,-4.967,-4.961,4.494,7.716,8,-1.219,1.418,4.955,7.616,-8.433,-7.669,-2.038,1.437,85.1,,68.6,83.0,65.1,65.5,53.4,55.8,70.2,86.3,1,norm,1.221,1.952,-1.853,-1.75,-4.812,-4.785,-1.392,-1.995,-2.1,-1.159,1.97,-1.644,74.9,80.9,-4.521,-7.789,1.901,-1.385,7.795,4.385,-4.92,-8.497,22,4.942,4.43,4.809,4.717,2.089,1.785,2.007,1.247,22,5.288,4.673,-60,11.8469509254,norm,0,77,77,77,545.988,545.997,546.003677669,546.004,546.006,546.008,down,1,0.907994281864,9.09200571814,001,005,1920_1080,Intel(R) Core(TM) i5-3570 CPU @ 3.40GHz,orientation_search,LEPPC096,Intel(R) HD Graphics 2500,2018_Oct_10_1445,testMonitor,
71.5,85.7,80.0,54.6,36,80,80.0,53.4,74.6,,8.457,8.092,8.439,7.706,8.124,7.672,8.18,4.764,-5.183,-8.2,1.326,-1.124,7.839,5.068,-5.08,-7.779,75.3,74.4,-7.821,61.8,62.6,67.8,59.3,70.1,36,83.3,4,5,prime,10,0,68,norm,36,-4.689,up,norm,73.4187877213,58.4,89.5,69.0,75.8,5,78.6,83.8,67.7,10,6,8.281,4.588,1.493,-1.466,-5.107,-8.09,78.3,6,141.4,-7.787,-8.172,80,-8.257,-7.6,-4.349,-4.369,-4.431,-4.522,4.54,8.453,29,-1.994,1.659,4.501,7.748,-8.051,-7.691,-1.113,1.527,77.8,76.6,78.2,70.5,93.4,67.0,70.2,80.7,91.6,77.4,2,norm,2.076,1.567,-1.181,-1.385,-4.577,-5.114,-1.794,-1.324,-1.351,-1.993,1.706,-2.026,80.1,78.8,-5.02,-7.948,1.349,-1.783,8.394,4.311,-4.741,-8.229,22,4.801,4.382,4.391,4.845,1.593,1.802,1.629,1.702,22,4.908,5.039,-60,11.8469509254,norm,0,78,78,78,546.949,546.959,546.9696707,546.97,546.972,546.974,up,1,0.771269145973,9.22873085403,001,005,1920_1080,Intel(R) Core(TM) i5-3570 CPU @ 3.40GHz,orientation_search,LEPPC096,Intel(R) HD Graphics 2500,2018_Oct_10_1445,testMonitor,
74.9,76.6,81.6,93.4,36,80,60.0,75.8,93.3,72.9,7.798,8.062,7.738,7.755,8.056,8.349,8.222,4.358,-5.136,-7.805,1.117,-1.333,8.028,4.876,-4.787,-7.874,75.2,76.8,-8.391,74.7,69.7,81.3,75.4,53.4,36,68.8,2,5,prime,10,0,67,norm,36,-5.286,up,norm,73.4187877213,77.8,,77.5,77.6,4,71.0,86.5,72.5,10,6,8.282,4.644,1.743,-1.908,-5.12,-8.101,84.6,6,140.4,-7.801,-7.702,80,-8.053,-8.354,-4.39,-4.615,-4.454,-5.088,4.586,7.554,16,-1.11,1.725,4.888,8.112,-8.214,-8.061,-1.247,1.119,91.2,63.0,70.1,76.6,81.5,79.8,71.6,77.5,72.5,85.4,3,norm,2.042,2.038,-1.866,-1.519,-4.598,-4.733,-1.708,-1.696,-1.691,-1.645,1.823,-1.338,69.3,81.5,-4.793,-8.394,2.084,-1.862,7.887,4.377,-5.033,-8.211,22,5.012,4.353,4.819,5.146,1.584,1.809,1.55,1.363,22,4.454,4.799,-60,11.8469509254,norm,0,79,79,79,547.779,547.789,547.796503317,547.797,547.799,547.801,down,0,0.80995681214,-10,001,005,1920_1080,Intel(R) Core(TM) i5-3570 CPU @ 3.40GHz,orientation_search,LEPPC096,Intel(R) HD Graphics 2500,2018_Oct_10_1445,testMonitor,
93.4,60.1,71.3,76.1,36,80,74.7,83.3,90.5,63.8,8.27,8.043,8.354,7.909,7.602,7.657,7.982,4.883,-4.943,-7.633,1.809,-1.169,8.105,4.742,-5.193,-7.766,74.2,76.7,-8.156,76.8,74.3,86.5,83.3,66.0,36,74.5,0,5,prime,10,0,84,norm,36,-4.397,down,norm,73.4187877213,61.2,88.9,75.3,53.4,0,71.4,88.5,60.5,10,6,8.278,4.618,1.319,-1.327,-5.09,-8.118,73.7,6,157.4,-8.411,-8.364,80,-7.959,-8.26,-5.14,-4.929,-4.514,-4.577,4.509,7.816,0,-1.244,1.195,4.526,7.528,-7.985,-7.822,-1.818,1.625,73.3,71.5,74.4,78.3,62.4,,67.8,83.3,78.3,77.3,4,norm,1.609,1.104,-1.514,-1.581,-4.807,-4.36,-1.455,-1.546,-2.077,-2.026,1.592,-1.73,56.3,70.4,-4.413,-8.277,1.974,-1.902,7.513,5.294,-5.139,-7.932,22,4.807,4.859,5.085,4.358,1.284,1.311,1.471,1.614,22,4.895,4.976,-60,11.8469509254,norm,0,80,80,80,549.688,549.698,549.715319617,549.716,549.717,549.72,down,1,1.82463519116,8.17536480884,001,005,1920_1080,Intel(R) Core(TM) i5-3570 CPU @ 3.40GHz,orientation_search,LEPPC096,Intel(R) HD Graphics 2500,2018_Oct_10_1445,testMonitor,
79.3,93.4,85.8,63.5,36,80,88.9,74.0,62.0,64.6,8.041,8.08,8.098,8.43,8.41,8.113,7.886,4.399,-4.326,-7.541,1.723,-1.543,8.371,4.699,-4.359,-7.743,78.8,74.4,-7.818,80.5,64.3,64.5,,75.6,36,74.7,5,5,prime,10,0,68,norm,36,-4.631,down,norm,73.4187877213,62.0,66.4,84.8,79.8,2,68.7,85.9,74.5,10,6,8.465,5.166,1.545,-1.496,-4.519,-7.804,77.8,6,141.4,-7.517,-7.631,80,-8.28,-7.613,-4.911,-5.035,-4.339,-4.304,4.479,7.606,32,-1.641,1.523,4.775,8.376,-7.82,-8.12,-1.858,1.47,85.6,81.4,53.4,65.7,78.5,68.1,91.0,83.7,82.3,65.5,5,norm,1.297,1.953,-1.347,-1.425,-4.477,-4.842,-1.729,-1.25,-1.513,-1.458,2.047,-1.341,87.3,71.3,-4.536,-7.509,1.443,-2.081,7.916,4.684,-4.48,-7.853,22,4.867,5.19,5.103,4.455,2.0,1.245,1.913,1.843,22,4.692,4.497,-60,11.8469509254,norm,0,81,81,81,551.577,551.587,551.602474881,551.603,551.604,551.607,up,0,0.823123253833,-10,001,005,1920_1080,Intel(R) Core(TM) i5-3570 CPU @ 3.40GHz,orientation_search,LEPPC096,Intel(R) HD Graphics 2500,2018_Oct_10_1445,testMonitor,
241.2,234.4,237.4,241.5,36,-10,240.0,234.9,229.1,240.6,8.146,8.39,7.685,7.577,7.643,8.031,8.395,4.718,-4.512,-7.945,1.706,-1.832,7.822,5.292,-4.419,-8.127,242.7,240.6,-8.235,248.0,235.5,240.5,228.0,235.7,36,233.5,3,5,probe,5,0,90,norm,36,-4.904,down,norm,237.953144915,235.7,234.8,246.6,239.9,1,247.1,237.9,233.6,10,6,8.277,5.217,1.399,-1.627,-4.93,-8.219,239.6,1,148.0,-7.517,-7.873,80,-7.636,-8.3,-4.982,-5.164,-4.495,-5.138,5.24,8.327,19,-1.611,1.964,4.423,7.691,-8.26,-8.129,-1.226,1.535,238.9,245.5,243.2,241.9,232.9,239.3,238.5,233.4,238.9,247.8,0,norm,1.44,1.244,-1.609,-2.081,-4.688,-5.12,-1.545,-1.967,-1.991,-1.662,1.508,-2.017,,245.6,-5.263,-8.124,1.357,-1.883,7.861,4.547,-4.873,-8.29,23,5.076,5.07,4.776,4.357,1.466,1.508,1.753,1.696,23,4.752,4.57,80,73.4187877213,norm,0,82,82,82,553.497,553.507,553.521527826,553.522,553.524,553.526,down,1,0.822654188027,9.17734581197,001,005,1920_1080,Intel(R) Core(TM) i5-3570 CPU @ 3.40GHz,orientation_search,LEPPC096,Intel(R) HD Graphics 2500,2018_Oct_10_1445,testMonitor,
78.0,80.1,88.9,85.5,36,0,89.9,106.7,105.0,97.8,7.573,8.091,7.705,8.261,8.449,7.622,8.116,4.536,-4.511,-7.87,1.772,-1.831,7.885,4.428,-4.797,-7.866,,99.6,-8.199,77.9,78.5,90.3,90.1,87.2,36,94.7,5,5,prime,10,0,98,norm,36,-4.907,up,norm,92.5728860946,104.2,110.6,72.6,107.2,5,75.0,102.4,104.4,10,5,8.053,4.392,2.033,-1.876,-4.589,-7.788,96.9,5,190.6,-7.946,-7.551,0,-8.306,-7.849,-5.3,-4.596,-5.27,-4.899,4.559,8.344,35,-1.683,1.223,5.054,7.586,-7.833,-8.214,-1.751,1.764,94.5,101.4,95.4,112.6,93.0,96.9,91.1,86.3,96.7,93.3,0,norm,1.321,1.304,-1.673,-2.097,-4.529,-4.596,-1.501,-1.72,-1.25,-1.755,1.902,-1.39,89.0,107.7,-4.602,-8.42,1.467,-1.262,7.559,5.011,-4.755,-8.484,24,5.284,5.09,4.828,4.755,2.058,2.0,1.236,1.889,24,5.199,5.297,-10,73.4187877213,norm,0,83,83,83,554.368,554.379,554.398239886,554.398,554.401,554.404,up,1,1.31493935347,8.68506064653,001,005,1920_1080,Intel(R) Core(TM) i5-3570 CPU @ 3.40GHz,orientation_search,LEPPC096,Intel(R) HD Graphics 2500,2018_Oct_10_1445,testMonitor,
102.6,84.9,72.6,105.1,36,0,105.7,77.7,99.9,88.2,8.463,8.41,8.039,7.542,7.914,7.566,8.431,5.137,-5.214,-8.407,1.556,-1.155,7.599,5.142,-5.04,-7.535,88.2,92.1,-8.227,82.4,85.9,112.6,102.6,93.7,36,93.4,2,5,prime,10,0,99,norm,36,-5.298,up,norm,92.5728860946,85.5,94.3,,90.6,3,91.6,75.5,94.4,10,5,7.97,4.431,1.857,-2.038,-5.263,-7.861,98.0,5,191.6,-7.778,-8.082,0,-8.117,-8.345,-5.203,-4.787,-4.415,-4.419,4.501,8.108,15,-1.408,1.987,4.384,8.25,-8.283,-7.901,-1.32,1.428,94.1,93.5,88.5,98.5,90.0,79.8,102.6,83.4,93.8,83.5,1,norm,1.77,1.753,-1.509,-1.688,-5.109,-4.539,-1.518,-1.511,-1.516,-1.767,1.827,-1.824,100.3,91.2,-4.648,-7.875,1.306,-1.952,7.961,4.873,-5.186,-7.964,24,4.694,4.962,5.24,5.203,1.63,2.043,1.783,1.593,24,5.112,4.843,-10,73.4187877213,norm,0,84,84,84,555.737,555.747,555.753022365,555.753,555.755,555.758,up,1,2.40025529978,7.59974470022,001,005,1920_1080,Intel(R) Core(TM) i5-3570 CPU @ 3.40GHz,orientation_search,LEPPC096,Intel(R) HD Graphics 2500,2018_Oct_10_1445,testMonitor,
76.8,90.8,99.9,103.1,36,0,97.4,97.7,99.1,83.3,7.583,8.048,7.929,8.165,7.595,7.657,7.686,4.657,-5.176,-7.718,1.687,-1.706,8.284,5.129,-4.319,-7.897,108.4,94.7,-7.738,80.5,93.1,93.8,85.5,98.7,36,84.2,3,5,prime,10,0,80,norm,36,-4.595,down,norm,92.5728860946,85.0,97.8,84.5,107.5,0,106.4,72.6,76.0,10,5,8.447,4.635,1.133,-1.528,-4.308,-7.622,92.2,5,172.6,-8.023,-8.15,0,-7.786,-7.538,-4.387,-5.199,-5.114,-4.423,4.41,7.885,18,-1.743,1.565,4.783,8.271,-7.568,-7.665,-1.281,1.333,99.9,77.5,86.2,99.2,100.4,95.7,110.7,92.8,96.6,112.6,2,norm,1.53,1.383,-1.552,-1.819,-4.561,-4.442,-1.382,-1.906,-1.962,-2.032,1.184,-1.515,82.4,,-5.27,-7.798,1.43,-1.99,8.436,4.763,-4.849,-7.811,24,4.78,5.008,4.319,5.16,1.677,1.48,1.254,1.14,24,5.071,5.232,-10,73.4187877213,norm,0,85,85,85,558.191,558.204,558.223184468,558.223,558.225,558.228,down,1,1.05957920511,8.94042079489,001,005,1920_1080,Intel(R) Core(TM) i5-3570 CPU @ 3.40GHz,orientation_search,LEPPC096,Intel(R) HD Graphics 2500,2018_Oct_10_1445,testMonitor,
78.0,86.7,91.5,101.3,36,0,90.8,76.5,96.2,90.2,7.581,7.708,8.154,8.449,7.869,7.697,8.334,4.751,-4.833,-8.438,1.733,-1.417,8.258,4.392,-4.369,-8.219,90.4,77.4,-8.205,87.7,78.3,102.0,74.1,101.7,36,96.2,1,5,prime,10,0,111,norm,36,-4.406,down,norm,92.5728860946,72.6,98.6,92.2,112.6,1,95.7,101.0,106.8,10,5,8.38,5.107,1.195,-1.827,-4.46,-8.176,98.9,5,203.6,-7.619,-7.546,0,-8.432,-8.313,-4.817,-4.377,-4.861,-4.72,4.661,8.331,7,-1.149,1.63,4.533,8.338,-7.904,-8.407,-2.044,1.132,95.3,98.4,77.5,88.0,89.4,86.7,,87.4,95.6,110.0,3,norm,1.398,1.716,-2.029,-1.517,-4.788,-5.143,-1.633,-1.634,-1.684,-1.241,1.289,-1.709,77.5,95.4,-4.644,-8.107,1.929,-1.845,8.377,5.247,-5.069,-8.076,24,4.315,4.674,4.338,4.898,1.696,1.205,1.483,1.442,24,4.93,4.975,-10,73.4187877213,norm,0,86,86,86,559.325,559.335,559.34097492,559.341,559.343,559.345,down,1,1.53400244132,8.46599755868,001,005,1920_1080,Intel(R) Core(TM) i5-3570 CPU @ 3.40GHz,orientation_search,LEPPC096,Intel(R) HD Graphics 2500,2018_Oct_10_1445,testMonitor,
93.2,94.5,77.8,96.0,36,0,112.6,89.1,91.6,96.1,8.028,8.333,7.758,7.886,7.775,8.365,8.336,4.74,-4.958,-8.258,2.02,-1.64,8.189,4.669,-5.017,-7.551,85.4,83.8,-8.416,85.5,96.0,79.2,,89.3,36,106.5,5,5,prime,10,0,89,norm,36,-5.197,down,norm,92.5728860946,90.4,96.7,78.5,86.5,2,93.4,73.5,105.6,10,5,7.544,4.761,1.641,-1.205,-4.954,-8.07,102.4,5,181.6,-7.525,-8.128,0,-7.643,-7.952,-4.837,-4.337,-5.111,-5.026,5.167,7.538,32,-1.319,1.315,4.441,8.262,-8.086,-8.334,-1.786,1.683,98.6,91.7,77.8,90.7,90.6,100.7,94.7,95.3,72.6,102.1,4,norm,1.54,2.055,-1.198,-1.659,-5.001,-4.875,-1.192,-1.817,-1.29,-1.934,1.351,-2.024,84.8,99.9,-5.049,-8.449,1.874,-1.256,8.051,5.141,-4.434,-7.648,24,4.755,4.693,4.828,5.099,1.703,1.464,1.897,1.401,24,4.321,5.082,-10,73.4187877213,norm,0,87,87,87,560.916,560.926,560.933979743,560.934,560.936,560.939,up,0,3.93344064899,-10,001,005,1920_1080,Intel(R) Core(TM) i5-3570 CPU @ 3.40GHz,orientation_search,LEPPC096,Intel(R) HD Graphics 2500,2018_Oct_10_1445,testMonitor,
212.2,211.4,205.8,213.5,36,-30,210.3,208.4,208.4,213.6,8.274,8.041,8.246,7.682,8.477,7.759,8.482,5.187,-4.596,-8.106,1.375,-1.123,8.489,4.496,-4.904,-7.73,216.5,207.9,-7.863,210.6,204.2,208.7,200.9,214.8,36,202.1,0,5,probe,5,0,117,norm,36,-4.433,down,norm,209.751249035,212.3,211.0,199.8,219.8,1,206.4,203.8,211.3,10,5,8.327,4.94,2.077,-1.512,-5.219,-8.238,207.7,2,92.8,-8.084,-8.452,0,-7.889,-8.254,-4.62,-4.918,-4.959,-4.498,5.037,8.021,1,-1.244,1.77,4.871,7.661,-7.615,-7.74,-1.619,1.199,215.2,214.8,203.5,208.4,,208.2,207.5,211.0,209.4,206.4,0,norm,1.664,2.04,-1.763,-1.709,-4.685,-4.388,-1.35,-1.904,-1.252,-1.398,1.189,-1.469,210.9,206.8,-5.203,-8.224,1.935,-1.609,8.475,4.557,-4.345,-7.919,25,4.779,4.678,5.2,5.029,1.967,1.246,1.465,1.148,25,4.304,4.817,0,92.5728860946,norm,0,88,88,88,565.943,565.953,565.969651986,565.97,565.972,565.974,down,1,1.58249642013,8.41750357987,001,005,1920_1080,Intel(R) Core(TM) i5-3570 CPU @ 3.40GHz,orientation_search,LEPPC096,Intel(R) HD Graphics 2500,2018_Oct_10_1445,testMonitor,
178.5,187.8,180.9,185.3,36,-30,180.0,169.9,174.9,173.9,8.401,8.257,7.968,7.826,7.911,7.554,7.712,5.137,-5.156,-7.999,1.517,-1.164,7.697,4.777,-5.116,-8.456,178.6,177.8,-7.805,184.2,173.4,175.2,183.3,178.3,36,181.7,0,5,probe,5,0,87,norm,36,-4.631,up,norm,179.751249035,182.3,171.3,172.4,172.4,4,174.2,169.8,170.7,10,5,7.737,5.201,1.521,-1.135,-5.151,-8.099,178.8,2,92.8,-7.886,-7.815,0,-7.999,-8.238,-4.352,-4.357,-4.653,-4.879,4.881,8.079,4,-1.32,2.044,4.385,7.752,-7.944,-8.194,-1.976,1.685,189.8,184.3,171.4,176.4,175.5,182.1,179.1,184.4,180.2,,1,norm,1.726,1.581,-1.68,-1.913,-5.021,-4.539,-1.895,-1.676,-1.517,-1.17,1.97,-1.202,176.7,178.4,-4.992,-7.671,1.462,-1.949,7.946,5.146,-4.395,-7.849,25,5.212,4.659,4.724,4.882,1.632,1.729,2.015,1.925,25,4.423,4.504,0,92.5728860946,norm,0,89,89,89,567.577,567.587,567.592884085,567.593,567.595,567.597,up,1,1.99441527959,8.00558472041,001,005,1920_1080,Intel(R) Core(TM) i5-3570 CPU @ 3.40GHz,orientation_search,LEPPC096,Intel(R) HD Graphics 2500,2018_Oct_10_1445,testMonitor,
273.5,254.0,272.9,275.4,36,-30,257.2,250.3,289.9,249.9,7.859,8.298,8.27,7.86,7.552,7.82,7.866,4.924,-4.61,-7.509,1.483,-1.993,8.206,5.103,-5.023,-7.77,259.1,276.3,-7.578,264.0,277.3,276.8,284.2,274.1,36,258.5,1,5,prime,10,0,107,norm,36,-4.86,down,norm,269.887801955,262.8,278.7,262.5,263.1,2,267.3,259.3,273.8,10,6,7.832,5.17,1.795,-1.645,-5.054,-7.909,259.2,6,376.9,-8.273,-8.155,-30,-7.855,-7.519,-4.608,-4.472,-5.037,-5.231,4.515,8.203,8,-1.82,1.237,5.164,7.511,-7.504,-7.572,-1.707,1.538,289.7,,278.0,270.4,284.8,256.3,271.4,270.7,283.1,285.1,0,norm,2.094,2.024,-1.369,-2.063,-4.388,-4.8,-1.423,-1.162,-1.879,-1.386,2.077,-2.082,262.3,261.4,-4.409,-8.351,1.966,-1.356,8.029,4.742,-4.413,-8.318,26,4.926,4.377,4.815,4.303,1.588,1.141,1.632,1.693,26,4.934,4.303,-30,92.5728860946,norm,0,90,90,90,569.625,569.638,569.657190773,569.657,569.659,569.662,down,1,0.884046872774,9.11595312723,001,005,1920_1080,Intel(R) Core(TM) i5-3570 CPU @ 3.40GHz,orientation_search,LEPPC096,Intel(R) HD Graphics 2500,2018_Oct_10_1445,testMonitor,
254.1,289.9,270.2,273.9,36,-30,273.5,264.2,274.2,252.1,8.244,7.533,8.077,8.189,8.088,8.383,7.569,5.193,-4.44,-8.381,1.416,-1.401,7.512,4.785,-4.636,-8.186,276.6,259.2,-7.935,257.4,264.1,269.2,288.4,270.6,36,250.6,1,5,prime,10,0,115,norm,36,-4.99,down,norm,269.887801955,268.1,264.2,262.9,274.6,0,271.8,277.9,270.1,10,6,8.174,4.371,1.176,-1.376,-4.487,-7.999,276.6,6,384.9,-8.421,-8.033,-30,-8.133,-8.205,-5.037,-4.592,-4.8,-4.445,4.88,7.695,6,-2.044,2.044,5.037,8.198,-7.882,-7.815,-1.445,1.303,273.9,262.2,278.7,254.7,277.2,274.2,281.6,,249.9,269.6,1,norm,1.838,1.11,-1.875,-1.812,-4.516,-5.109,-1.628,-1.655,-1.302,-1.743,1.163,-1.327,271.8,283.2,-4.517,-7.688,1.872,-1.848,8.256,4.414,-5.019,-8.086,26,4.841,5.026,4.831,5.064,1.641,1.385,1.583,1.309,26,4.575,4.541,-30,92.5728860946,norm,0,91,91,91,570.588,570.61,570.620245351,570.62,570.622,570.625,up,0,0.637984429672,-10,001,005,1920_1080,Intel(R) Core(TM) i5-3570 CPU @ 3.40GHz,orientation_search,LEPPC096,Intel(R) HD Graphics 2500,2018_Oct_10_1445,testMonitor,
268.6,267.4,276.8,272.6,36,-30,276.4,249.9,264.9,261.4,7.848,8.082,8.027,7.928,7.619,7.762,8.337,5.052,-4.936,-7.885,1.746,-2.098,8.439,5.085,-4.46,-8.495,260.8,270.6,-8.264,267.5,267.4,267.4,,269.7,36,283.9,5,5,prime,10,0,117,norm,36,-4.82,down,norm,269.887801955,266.9,257.5,255.4,272.1,2,262.6,269.6,287.4,10,6,7.966,4.952,1.389,-1.336,-4.955,-8.451,262.8,6,386.9,-7.595,-7.896,-30,-7.519,-7.83,-4.499,-4.407,-5.288,-4.396,5.112,8.237,32,-1.427,1.362,4.506,7.511,-8.473,-7.769,-1.243,1.193,280.4,268.5,272.1,274.1,266.7,275.5,271.7,281.4,289.9,262.1,2,norm,1.791,1.912,-1.511,-1.47,-4.828,-4.8,-1.31,-1.622,-1.277,-1.945,2.08,-1.401,275.4,272.5,-4.959,-7.868,1.275,-1.9,7.847,4.844,-4.813,-8.069,26,4.574,4.379,5.251,4.395,1.512,1.735,1.983,1.901,26,4.358,4.625,-30,92.5728860946,norm,0,92,92,92,572.339,572.348,572.365293296,572.365,572.367,572.37,down,1,0.639525042197,9.3604749578,001,005,1920_1080,Intel(R) Core(TM) i5-3570 CPU @ 3.40GHz,orientation_search,LEPPC096,Intel(R) HD Graphics 2500,2018_Oct_10_1445,testMonitor,
269.4,270.3,270.5,262.3,36,-30,264.4,284.5,250.4,249.9,7.739,7.888,7.555,8.073,7.544,8.217,7.978,4.498,-5.234,-7.642,1.708,-1.415,7.887,4.452,-4.681,-7.532,278.4,263.9,-8.255,258.6,289.9,285.4,264.6,289.7,36,286.1,1,5,prime,10,0,74,norm,36,-5.17,down,norm,269.887801955,278.2,274.5,262.3,260.1,0,258.7,278.3,289.4,10,6,7.714,5.276,1.761,-1.514,-4.982,-7.9,277.6,6,343.9,-8.392,-8.102,-30,-7.859,-7.837,-5.207,-4.966,-5.121,-5.179,5.153,7.549,6,-1.45,1.535,4.801,7.96,-8.47,-8.443,-1.728,1.528,270.2,262.3,264.6,275.6,255.3,280.8,257.8,,278.2,269.3,3,norm,1.659,1.412,-1.636,-1.887,-4.585,-4.67,-2.017,-1.604,-1.651,-1.983,1.535,-1.704,262.4,257.5,-5.256,-8.332,1.811,-1.91,7.563,4.367,-5.245,-7.845,26,4.494,4.35,5.185,4.951,1.286,1.176,1.881,1.973,26,5.099,4.621,-30,92.5728860946,norm,0,93,93,93,573.042,573.055,573.074548864,573.075,573.076,573.079,down,1,0.867281241473,9.13271875853,001,005,1920_1080,Intel(R) Core(TM) i5-3570 CPU @ 3.40GHz,orientation_search,LEPPC096,Intel(R) HD Graphics 2500,2018_Oct_10_1445,testMonitor,
284.7,285.9,,267.0,36,-30,272.1,276.1,267.7,270.8,8.32,7.791,7.848,8.151,8.431,7.67,8.32,4.73,-4.499,-8.097,1.257,-1.506,8.291,4.652,-4.852,-7.57,284.6,280.2,-8.312,260.4,281.0,258.4,268.8,275.3,36,261.7,3,5,prime,10,0,76,norm,36,-4.947,down,norm,269.887801955,270.3,268.0,252.6,270.5,2,267.1,280.0,287.5,10,6,8.467,4.746,1.979,-2.057,-5.216,-8.411,277.2,6,345.9,-8.212,-7.552,-30,-7.616,-7.852,-4.921,-5.024,-5.225,-5.043,4.469,7.767,20,-2.094,1.239,4.638,7.866,-7.785,-7.65,-2.066,1.807,277.8,271.8,264.0,286.6,271.3,272.3,280.1,249.9,268.3,260.5,4,norm,1.232,1.553,-1.7,-2.088,-4.899,-4.364,-1.349,-1.403,-1.278,-1.784,1.695,-1.886,268.8,279.7,-4.557,-8.368,2.002,-1.456,8.377,4.779,-4.972,-7.787,26,4.68,4.678,4.536,4.735,1.375,1.119,1.943,1.916,26,4.519,4.795,-30,92.5728860946,norm,0,94,94,94,573.989,574.01,574.020881578,574.021,574.023,574.026,up,0,1.12730065609,-10,001,005,1920_1080,Intel(R) Core(TM) i5-3570 CPU @ 3.40GHz,orientation_search,LEPPC096,Intel(R) HD Graphics 2500,2018_Oct_10_1445,testMonitor,
269.0,263.8,269.9,277.8,36,-30,282.8,267.0,263.0,,7.622,8.346,7.755,7.716,7.841,8.208,8.254,4.826,-4.384,-8.414,1.356,-1.21,7.952,4.884,-4.661,-8.382,276.1,249.9,-8.488,259.9,263.5,269.5,254.5,267.3,36,275.5,4,5,prime,10,0,102,norm,36,-4.52,up,norm,269.887801955,269.3,269.8,270.4,250.8,5,263.8,280.3,273.4,10,6,8.329,5.274,1.349,-1.195,-4.593,-8.182,266.6,6,371.9,-7.545,-7.732,-30,-8.369,-7.802,-4.647,-4.827,-4.619,-4.963,4.747,8.32,29,-1.456,1.784,4.771,8.05,-8.159,-7.612,-1.66,1.562,253.9,260.5,270.7,266.3,273.9,277.2,263.6,289.9,275.4,275.1,5,norm,2.072,1.248,-1.262,-1.156,-4.876,-4.848,-1.784,-1.968,-1.913,-1.389,1.791,-1.752,257.5,274.3,-4.94,-8.215,1.442,-1.139,7.701,5.136,-4.913,-7.783,26,5.067,4.699,4.952,5.027,1.742,1.349,1.183,1.147,26,5.079,4.91,-30,92.5728860946,norm,0,95,95,95,576.207,576.217,576.233905972,576.234,576.236,576.238,up,1,2.32952868847,7.67047131153,001,005,1920_1080,Intel(R) Core(TM) i5-3570 CPU @ 3.40GHz,orientation_search,LEPPC096,Intel(R) HD Graphics 2500,2018_Oct_10_1445,testMonitor,
344.1,342.1,345.2,338.7,36,0,341.6,339.7,346.4,337.0,7.567,8.144,7.642,7.648,8.416,8.048,7.596,4.332,-4.493,-7.927,2.048,-1.108,7.743,4.527,-5.127,-8.156,331.3,341.9,-7.6,,342.2,348.0,341.4,333.8,36,332.8,5,5,probe,5,0,98,norm,36,-5.053,down,norm,339.228652903,334.0,336.9,343.3,338.7,1,334.2,340.2,329.2,10,6,7.986,5.086,1.852,-1.329,-4.889,-7.933,343.2,2,241.2,-7.553,-8.177,-30,-7.868,-8.023,-4.599,-5.178,-4.318,-4.969,4.911,8.459,31,-1.929,1.868,4.613,8.256,-8.231,-8.09,-1.924,1.593,344.3,339.7,346.7,333.7,347.6,339.3,335.4,332.4,329.3,338.0,0,norm,1.551,1.189,-1.361,-1.211,-4.564,-4.485,-1.847,-1.75,-1.3,-1.163,1.59,-1.928,341.3,342.8,-4.427,-8.074,1.511,-2.05,8.185,4.323,-4.663,-8.398,27,4.629,4.797,4.538,4.933,1.827,1.986,1.115,1.257,27,4.612,4.327,-30,269.887801955,norm,0,96,96,96,578.6,578.61,578.620612997,578.621,578.623,578.625,down,1,1.46735314075,8.53264685925,001,005,1920_1080,Intel(R) Core(TM) i5-3570 CPU @ 3.40GHz,orientation_search,LEPPC096,Intel(R) HD Graphics 2500,2018_Oct_10_1445,testMonitor,
