d_ori_22,d_ori_23,d_ori_20,d_ori_21,set_size,ctpd,d_ori_24,d_ori_25,d_ori_28,d_ori_29,stim_pos_x_30,stim_pos_x_31,stim_pos_x_32,stim_pos_x_33,stim_pos_x_34,stim_pos_x_35,stim_pos_y_11,stim_pos_y_10,stim_pos_y_13,stim_pos_y_12,stim_pos_y_15,stim_pos_y_14,stim_pos_y_17,stim_pos_y_16,stim_pos_y_19,stim_pos_y_18,d_ori_35,d_ori_34,stim_pos_x_3,d_ori_31,d_ori_30,d_ori_33,d_ori_32,d_ori_26,test_set_size,d_ori_27,targetCol,dsd_test,seq_type,dsd,blockRepN,targetDist,dtype_test,prime_set_size,stim_pos_y_25,correctResponse,dtype,distrMean,d_ori_17,d_ori_16,d_ori_15,d_ori_14,targetRow,d_ori_11,d_ori_13,d_ori_12,dsd_prime,streak_length_prime,stim_pos_y_35,stim_pos_y_34,stim_pos_y_33,stim_pos_y_32,stim_pos_y_31,stim_pos_y_30,d_ori_10,nextProbe,targetOri,stim_pos_x_1,stim_pos_x_2,ctpd_prime,stim_pos_x_4,stim_pos_x_5,stim_pos_x_6,stim_pos_x_7,stim_pos_x_8,stim_pos_x_9,stim_pos_y_28,stim_pos_y_29,targetPos,stim_pos_y_20,stim_pos_y_21,stim_pos_y_22,stim_pos_y_23,stim_pos_y_24,stim_pos_x_0,stim_pos_y_26,stim_pos_y_27,d_ori_9,d_ori_8,d_ori_3,d_ori_2,d_ori_1,d_ori_0,d_ori_7,d_ori_6,d_ori_5,d_ori_4,trialN,dtype_prime,stim_pos_x_18,stim_pos_x_19,stim_pos_x_12,stim_pos_x_13,stim_pos_x_10,stim_pos_x_11,stim_pos_x_16,stim_pos_x_17,stim_pos_x_14,stim_pos_x_15,stim_pos_y_9,stim_pos_y_8,d_ori_19,d_ori_18,stim_pos_y_1,stim_pos_y_0,stim_pos_y_3,stim_pos_y_2,stim_pos_y_5,stim_pos_y_4,stim_pos_y_7,stim_pos_y_6,totBlockN,stim_pos_x_27,stim_pos_x_26,stim_pos_x_25,stim_pos_x_24,stim_pos_x_23,stim_pos_x_22,stim_pos_x_21,stim_pos_x_20,blockN,stim_pos_x_29,stim_pos_x_28,prevDistrCTPD,prevDistrMean,prevDistrType,trials.thisRepN,trials.thisTrialN,trials.thisN,trials.thisIndex,timeStart,timeBeforeDraw,timeDraw,timeAfterSaving,timeAfterWritingToTemp,timeAfterPreparingNext,answer,correct,rt,trialScore,session,participant,resolution,cpu_info,expName,pc_name,graphic_card,date,monitorName,
330.2,336.6,324.1,333.9,36,-10,,336.1,331.6,338.6,7.639,8.062,8.174,7.659,8.353,8.482,8.301,4.53,-4.809,-7.832,1.48,-1.734,7.563,5.145,-4.777,-8.05,324.9,334.7,-7.617,345.0,338.7,343.2,341.1,359.4,36,325.6,4,5,prime,10,0,90,norm,36,-4.874,down,norm,339.366368851,349.3,339.0,328.6,340.1,0,339.2,336.3,351.9,10,5,7.674,4.595,1.427,-1.87,-5.153,-8.112,331.1,5,429.4,-7.574,-7.505,-10,-7.712,-8.197,-5.027,-4.908,-4.415,-4.702,5.063,7.811,24,-1.194,1.165,4.589,7.822,-8.455,-8.126,-1.333,1.443,335.1,329.5,345.7,358.3,336.0,337.7,319.4,341.3,343.7,331.7,0,norm,1.78,1.365,-1.9,-1.468,-5.245,-4.901,-1.588,-1.447,-1.307,-1.769,1.339,-1.435,346.9,339.5,-5.226,-8.072,1.873,-1.713,8.462,4.482,-4.851,-8.146,0,5.237,4.975,4.622,5.052,1.668,2.076,1.208,1.222,0,4.897,4.909,,,,0,0,0,0,293.217,293.235,293.254274364,293.255,293.255,293.257,down,1,1.09881196481,8.90118803519,001,325,1920_1200,Intel(R) Core(TM) i5-3570 CPU @ 3.40GHz,orientation_search,LEPPC096,Intel(R) HD Graphics 2500,2018_Dec_21_1524,testMonitor,
342.1,347.4,347.8,329.2,36,-10,333.0,325.9,343.3,345.3,7.849,7.727,7.622,7.573,7.752,7.783,7.773,5.089,-5.007,-7.786,1.925,-2.018,8.315,4.421,-4.517,-7.888,329.9,343.5,-7.783,333.7,326.7,319.4,348.2,332.4,36,319.6,2,5,prime,10,0,63,norm,36,-4.346,down,norm,339.366368851,345.8,355.3,343.7,340.7,0,335.9,359.4,,10,5,8.236,4.492,1.555,-1.889,-4.79,-7.537,333.7,5,402.4,-8.206,-7.738,-10,-8.173,-7.918,-4.31,-4.917,-4.623,-4.828,5.054,7.791,12,-1.563,1.218,4.753,8.13,-8.29,-8.253,-1.548,1.838,349.5,338.0,325.8,347.8,344.3,321.1,339.0,343.7,338.7,356.1,1,norm,1.892,1.546,-2.019,-2.094,-4.583,-4.549,-2.002,-1.354,-1.476,-1.153,2.067,-1.236,337.3,334.0,-5.164,-8.027,1.696,-1.427,8.486,5.101,-4.89,-7.71,0,4.359,4.833,4.702,4.309,1.106,1.627,1.559,1.403,0,5.291,4.389,,,,0,1,1,1,294.398,294.408,294.413862996,294.414,294.415,294.418,down,1,1.33266253118,8.66733746882,001,325,1920_1200,Intel(R) Core(TM) i5-3570 CPU @ 3.40GHz,orientation_search,LEPPC096,Intel(R) HD Graphics 2500,2018_Dec_21_1524,testMonitor,
,339.7,337.1,324.3,36,-10,333.9,346.6,341.9,319.4,7.774,7.75,7.968,8.314,8.258,7.528,8.218,4.399,-4.821,-7.895,1.582,-1.391,8.114,4.521,-4.5,-8.189,324.9,335.8,-7.742,345.8,359.4,349.1,341.1,355.9,36,338.0,3,5,prime,10,0,94,norm,36,-4.337,up,norm,339.366368851,343.5,332.7,339.3,336.9,4,336.9,326.8,337.3,10,5,8.383,5.289,1.488,-1.233,-4.866,-8.474,328.2,5,433.4,-8.123,-8.347,-10,-8.154,-7.542,-5.036,-4.476,-5.06,-4.907,5.149,7.67,22,-1.93,1.585,5.27,7.506,-7.535,-8.421,-1.346,1.751,338.0,343.2,330.2,345.5,343.8,342.7,346.6,332.6,346.6,331.9,2,norm,1.509,1.966,-1.503,-1.367,-5.139,-4.484,-2.06,-1.952,-1.723,-1.736,1.759,-1.628,357.8,324.4,-4.413,-8.138,1.654,-1.378,8.185,4.353,-5.274,-8.412,0,5.254,4.833,4.641,4.529,1.783,1.39,1.707,1.269,0,4.498,5.089,,,,0,2,2,2,295.783,295.792,295.801286709,295.802,295.803,295.806,up,1,1.0625823096,8.9374176904,001,325,1920_1200,Intel(R) Core(TM) i5-3570 CPU @ 3.40GHz,orientation_search,LEPPC096,Intel(R) HD Graphics 2500,2018_Dec_21_1524,testMonitor,
327.4,341.2,335.7,335.3,36,-10,323.0,340.8,319.6,327.4,8.081,8.25,7.839,7.69,7.983,8.449,8.035,4.359,-4.917,-8.39,1.748,-1.601,7.756,4.461,-4.339,-7.552,330.0,344.4,-7.883,343.5,324.7,352.7,347.6,329.9,36,353.6,2,5,prime,10,0,109,norm,36,-5.274,up,norm,339.366368851,345.3,,352.4,330.1,4,346.9,342.3,338.2,10,5,8.212,4.468,1.149,-1.705,-5.175,-8.27,359.4,5,448.4,-7.578,-8.074,-10,-8.456,-8.34,-4.588,-4.341,-4.99,-4.592,5.177,7.699,16,-1.172,1.468,5.009,8.196,-8.495,-8.39,-1.801,1.897,320.4,319.4,349.1,354.6,329.4,355.2,347.1,349.6,333.5,344.7,3,norm,1.515,1.33,-1.912,-1.458,-4.525,-4.385,-1.371,-1.932,-1.717,-2.078,1.668,-1.537,333.4,344.7,-5.196,-7.99,1.779,-1.724,7.809,4.356,-4.757,-7.664,0,5.164,4.901,5.209,5.117,1.419,1.223,1.355,1.859,0,5.269,5.037,,,,0,3,3,3,296.91,296.929,296.942164821,296.942,296.944,296.947,up,1,2.36616470703,7.63383529297,001,325,1920_1200,Intel(R) Core(TM) i5-3570 CPU @ 3.40GHz,orientation_search,LEPPC096,Intel(R) HD Graphics 2500,2018_Dec_21_1524,testMonitor,
356.0,338.8,340.4,335.2,36,-10,343.0,331.1,343.2,328.0,8.441,8.493,7.826,7.855,8.349,8.259,8.241,5.093,-5.071,-8.222,1.181,-1.549,8.4,4.308,-4.879,-8.054,330.6,337.4,-8.366,342.9,343.7,359.4,353.2,357.5,36,,4,5,prime,10,0,105,norm,36,-5.223,up,norm,339.366368851,333.5,340.6,342.3,330.9,3,334.5,334.1,332.9,10,5,7.963,5.107,1.17,-1.586,-4.603,-7.511,336.1,5,444.4,-7.787,-7.956,-10,-8.124,-8.364,-4.562,-4.579,-4.376,-4.342,5.247,8.392,27,-2.053,1.886,4.728,7.822,-8.301,-8.197,-1.527,1.118,340.4,347.4,319.4,330.4,322.3,346.4,319.4,341.3,339.3,324.9,4,norm,1.438,2.009,-1.36,-2.091,-4.917,-4.959,-1.287,-1.662,-1.166,-1.345,1.888,-1.729,320.6,343.2,-4.819,-7.924,1.349,-1.379,7.603,5.162,-4.703,-7.528,0,4.971,4.774,5.178,4.89,2.035,1.351,1.658,1.835,0,4.956,4.909,,,,0,4,4,4,299.345,299.357,299.389123406,299.389,299.391,299.394,up,1,1.65593946662,8.34406053338,001,325,1920_1200,Intel(R) Core(TM) i5-3570 CPU @ 3.40GHz,orientation_search,LEPPC096,Intel(R) HD Graphics 2500,2018_Dec_21_1524,testMonitor,
411.3,400.9,405.1,406.3,36,-80,408.8,415.7,395.7,395.7,8.427,7.858,8.236,7.986,8.321,8.171,8.027,5.158,-4.971,-7.823,1.583,-1.471,8.065,5.04,-5.052,-8.36,408.9,403.2,-7.953,398.9,401.7,414.0,405.2,409.0,36,411.8,1,5,probe,5,0,76,norm,36,-5.031,up,norm,405.715878115,408.4,406.8,396.3,397.3,3,402.7,402.1,412.6,10,5,7.724,4.966,1.219,-1.721,-4.621,-7.516,407.0,2,329.7,-8.194,-7.752,-10,-8.12,-8.352,-4.55,-4.566,-5.116,-4.594,4.768,7.968,9,-1.656,1.521,4.741,7.566,-8.294,-7.533,-1.232,1.933,,403.0,415.2,406.1,398.8,407.4,400.9,398.4,399.5,401.4,0,norm,1.234,1.614,-1.902,-1.53,-5.275,-5.008,-2.054,-1.17,-1.651,-1.319,2.008,-1.204,400.6,407.4,-5.22,-7.928,1.276,-1.651,7.961,4.726,-4.614,-8.013,1,4.742,4.721,4.828,4.749,1.536,1.42,1.189,1.975,1,4.614,5.129,-10,339.366368851,norm,0,5,5,5,301.09,301.099,301.108048449,301.108,301.11,301.112,up,1,0.907439263327,9.09256073667,001,325,1920_1200,Intel(R) Core(TM) i5-3570 CPU @ 3.40GHz,orientation_search,LEPPC096,Intel(R) HD Graphics 2500,2018_Dec_21_1524,testMonitor,
427.7,431.6,424.3,427.9,36,-80,435.7,421.3,431.9,435.0,8.042,8.198,8.002,7.563,8.407,7.532,7.796,5.114,-4.334,-7.591,1.682,-1.121,7.614,5.029,-5.175,-8.324,424.2,420.4,-7.984,425.0,427.1,422.3,432.1,423.8,36,425.6,1,5,probe,5,0,96,norm,36,-5.003,down,norm,425.715878115,415.7,425.6,431.2,430.2,2,426.3,426.9,428.3,10,5,7.944,4.864,1.473,-1.542,-5.298,-7.925,424.1,2,329.7,-7.719,-8.129,-10,-8.27,-8.26,-4.701,-4.992,-4.489,-5.089,4.391,7.644,8,-1.372,1.929,5.129,8.154,-7.851,-7.626,-1.959,1.163,435.2,,425.6,424.0,425.9,420.1,426.7,424.8,420.1,427.5,1,norm,2.0,1.653,-1.675,-2.086,-4.731,-5.123,-1.608,-1.476,-1.324,-1.536,1.889,-1.449,421.6,421.7,-4.823,-8.399,1.65,-1.104,8.307,4.556,-4.83,-8.28,1,5.098,4.703,4.947,4.915,1.23,1.665,1.328,1.777,1,5.07,4.803,-10,339.366368851,norm,0,6,6,6,302.057,302.066,302.074602416,302.075,302.076,302.079,down,1,0.807925205008,9.19207479499,001,325,1920_1200,Intel(R) Core(TM) i5-3570 CPU @ 3.40GHz,orientation_search,LEPPC096,Intel(R) HD Graphics 2500,2018_Dec_21_1524,testMonitor,
158.3,157.1,177.9,160.9,36,80,148.1,147.8,162.0,185.5,7.728,8.343,8.442,7.744,7.544,8.153,7.685,4.542,-5.19,-7.539,1.265,-1.57,7.644,4.62,-4.997,-8.119,161.2,165.1,-7.996,147.1,159.7,152.9,179.4,162.9,36,160.5,2,5,prime,10,0,114,norm,36,-4.992,up,norm,165.518939267,169.1,,163.8,169.9,4,168.9,176.8,169.8,10,6,7.897,4.862,1.615,-1.979,-4.367,-7.623,156.1,6,279.5,-7.96,-7.955,80,-8.297,-8.231,-4.834,-5.064,-4.882,-4.566,4.326,7.83,16,-1.379,1.288,4.327,8.47,-8.099,-7.706,-1.116,1.879,167.1,175.3,166.1,166.5,172.3,172.9,166.8,145.5,154.3,183.5,0,norm,2.019,1.754,-1.211,-1.948,-4.937,-4.658,-1.72,-1.73,-1.183,-1.481,1.602,-1.488,172.2,160.1,-4.697,-7.959,1.633,-1.261,7.622,4.561,-4.894,-8.468,2,4.985,4.818,4.515,4.59,1.698,1.209,2.064,1.811,2,4.89,4.836,-80,339.366368851,norm,0,7,7,7,302.919,302.929,302.945827117,302.946,302.948,302.95,up,1,1.75261375892,8.24738624108,001,325,1920_1200,Intel(R) Core(TM) i5-3570 CPU @ 3.40GHz,orientation_search,LEPPC096,Intel(R) HD Graphics 2500,2018_Dec_21_1524,testMonitor,
174.6,184.2,160.5,160.2,36,80,164.2,161.6,149.4,184.1,8.374,8.203,8.377,8.4,7.987,7.67,8.023,5.15,-5.135,-7.508,1.539,-1.978,8.276,4.377,-4.456,-8.391,162.7,165.9,-8.0,162.8,174.0,185.5,181.1,154.9,36,156.0,2,5,prime,10,0,75,norm,36,-5.266,down,norm,165.518939267,176.1,148.2,156.3,168.5,1,145.5,,170.3,10,6,8.121,4.723,1.93,-1.916,-4.394,-8.39,163.1,6,240.5,-7.77,-7.775,80,-7.686,-8.364,-5.265,-4.562,-5.001,-4.806,5.064,7.986,13,-1.215,1.997,4.67,7.944,-8.363,-7.875,-2.061,1.584,165.4,166.4,176.5,168.6,177.0,168.9,150.5,163.8,160.7,170.0,1,norm,1.991,1.387,-1.813,-1.73,-5.258,-4.952,-1.153,-2.086,-1.581,-1.562,1.122,-1.524,160.0,155.1,-5.079,-7.887,2.054,-1.715,7.763,4.981,-4.873,-7.579,2,4.75,4.516,4.601,4.597,2.057,1.853,1.413,1.454,2,5.267,5.224,-80,339.366368851,norm,0,8,8,8,304.735,304.745,304.755277549,304.756,304.757,304.76,down,1,0.90895181302,9.09104818698,001,325,1920_1200,Intel(R) Core(TM) i5-3570 CPU @ 3.40GHz,orientation_search,LEPPC096,Intel(R) HD Graphics 2500,2018_Dec_21_1524,testMonitor,
162.2,159.7,185.5,179.6,36,80,145.5,163.0,174.5,153.3,7.53,7.981,8.484,7.989,8.143,8.459,7.724,4.849,-4.806,-8.365,1.143,-1.86,7.638,4.356,-4.438,-8.314,173.1,166.9,-8.066,171.0,169.6,164.7,170.2,153.0,36,154.9,0,5,prime,10,0,98,norm,36,-4.371,down,norm,165.518939267,166.8,149.7,160.7,170.4,2,163.7,159.8,173.5,10,6,7.862,4.741,1.316,-2.026,-4.338,-8.229,176.9,6,263.5,-7.529,-7.996,80,-8.482,-7.969,-4.822,-4.344,-5.098,-4.483,4.395,7.626,2,-2.047,2.076,5.07,8.389,-8.441,-8.076,-1.92,1.692,172.9,158.8,174.4,,158.8,166.7,157.0,146.8,162.4,169.8,2,norm,1.555,1.377,-1.546,-1.319,-4.717,-5.085,-1.382,-2.018,-1.984,-1.486,1.79,-1.133,157.1,170.6,-4.389,-8.33,2.048,-1.458,7.636,4.557,-4.942,-8.152,2,5.207,4.36,5.229,4.767,1.986,1.885,2.063,1.55,2,5.015,4.919,-80,339.366368851,norm,0,9,9,9,305.707,305.717,305.724351929,305.725,305.726,305.729,down,1,0.973000791742,9.02699920826,001,325,1920_1200,Intel(R) Core(TM) i5-3570 CPU @ 3.40GHz,orientation_search,LEPPC096,Intel(R) HD Graphics 2500,2018_Dec_21_1524,testMonitor,
157.6,,162.3,180.8,36,80,159.5,155.8,172.9,159.9,7.925,7.699,7.597,8.342,7.666,8.296,7.567,5.289,-5.1,-8.463,1.59,-2.067,8.118,4.57,-4.452,-7.675,172.3,179.7,-8.312,178.1,175.7,173.1,160.7,164.4,36,171.2,3,5,prime,10,0,105,norm,36,-5.107,up,norm,165.518939267,174.6,167.2,152.0,156.0,5,165.2,180.6,168.2,10,6,8.481,5.133,1.784,-1.306,-4.973,-8.038,185.2,6,270.5,-8.275,-8.189,80,-7.649,-7.935,-4.378,-4.611,-4.603,-4.369,4.332,7.81,23,-1.463,1.388,4.887,7.98,-8.15,-8.139,-1.27,1.228,185.5,154.9,162.4,165.8,171.5,176.8,175.7,145.5,166.6,165.8,3,norm,1.843,1.793,-2.044,-1.56,-5.178,-5.077,-1.949,-1.522,-1.584,-1.677,1.461,-1.483,181.5,167.8,-4.682,-7.869,1.147,-1.269,8.214,4.607,-5.293,-7.53,2,5.203,4.858,4.773,4.426,1.794,1.463,1.269,1.231,2,4.918,4.47,-80,339.366368851,norm,0,10,10,10,306.721,306.731,306.737224147,306.737,306.739,306.742,up,1,1.04133598193,8.95866401807,001,325,1920_1200,Intel(R) Core(TM) i5-3570 CPU @ 3.40GHz,orientation_search,LEPPC096,Intel(R) HD Graphics 2500,2018_Dec_21_1524,testMonitor,
169.4,167.7,157.7,145.5,36,80,153.5,181.9,155.9,166.3,8.278,8.297,7.949,7.937,7.691,8.165,7.913,4.815,-4.359,-8.215,1.507,-1.468,8.204,4.859,-4.643,-7.859,156.5,149.5,-8.23,177.2,,164.9,172.2,156.3,36,169.1,5,5,prime,10,0,88,norm,36,-4.82,down,norm,165.518939267,178.4,180.6,151.8,173.2,0,165.7,166.1,167.2,10,6,7.845,5.191,1.874,-1.662,-4.742,-7.877,163.9,6,253.5,-8.096,-8.043,80,-7.546,-8.336,-4.932,-4.587,-4.555,-5.189,5.059,8.386,30,-1.925,1.837,4.715,8.053,-7.902,-7.97,-1.518,1.565,167.9,159.6,164.2,174.7,182.3,179.1,159.8,161.4,185.5,166.4,4,norm,2.017,1.172,-2.004,-1.711,-4.473,-4.972,-1.404,-1.361,-1.965,-1.967,1.912,-1.902,181.5,166.0,-4.709,-7.513,1.81,-1.589,7.884,4.888,-4.878,-7.757,2,5.262,4.567,4.724,4.91,1.652,1.192,1.359,1.298,2,5.193,4.635,-80,339.366368851,norm,0,11,11,11,307.8,307.81,307.828437142,307.829,307.83,307.833,down,1,1.34712909858,8.65287090142,001,325,1920_1200,Intel(R) Core(TM) i5-3570 CPU @ 3.40GHz,orientation_search,LEPPC096,Intel(R) HD Graphics 2500,2018_Dec_21_1524,testMonitor,
156.5,177.2,152.9,171.7,36,80,170.6,149.2,161.2,156.3,7.961,8.465,7.683,7.643,7.929,7.969,7.772,5.021,-4.836,-8.162,1.772,-1.481,7.913,4.49,-5.189,-8.142,160.5,,-8.311,150.3,173.5,170.7,175.6,164.7,36,157.4,5,5,prime,10,0,111,norm,36,-5.129,up,norm,165.518939267,185.5,156.7,156.1,145.5,4,170.1,165.9,162.4,10,6,7.533,5.052,1.634,-1.486,-4.841,-8.249,175.4,6,276.5,-8.214,-8.482,80,-8.411,-8.09,-5.203,-4.51,-4.59,-4.41,4.431,7.646,34,-1.221,1.379,4.867,8.054,-7.549,-7.634,-1.88,1.802,173.8,149.7,166.1,168.4,159.3,148.0,162.8,156.3,162.7,159.2,5,norm,1.805,1.396,-1.253,-1.196,-4.578,-4.44,-1.247,-1.685,-1.955,-1.933,1.737,-1.686,159.7,164.5,-4.36,-8.078,1.513,-1.877,8.442,4.441,-4.947,-8.056,2,4.352,4.701,4.578,4.994,1.158,1.125,1.625,1.529,2,5.126,4.493,-80,339.366368851,norm,0,12,12,12,309.213,309.223,309.232323528,309.233,309.234,309.237,up,1,1.52107412459,8.47892587541,001,325,1920_1200,Intel(R) Core(TM) i5-3570 CPU @ 3.40GHz,orientation_search,LEPPC096,Intel(R) HD Graphics 2500,2018_Dec_21_1524,testMonitor,
348.5,350.2,360.4,354.0,36,-40,343.3,356.5,,350.4,8.414,7.546,7.599,7.971,8.008,8.182,8.377,5.005,-4.516,-8.339,1.592,-2.027,8.429,4.358,-4.356,-8.273,347.5,350.3,-8.086,355.6,353.6,346.5,347.9,349.3,36,343.5,4,5,probe,5,0,105,norm,36,-4.836,up,norm,350.3668598,352.0,340.4,343.8,348.9,4,351.0,348.2,353.9,10,6,7.532,4.791,1.831,-1.571,-5.058,-7.594,353.1,1,245.4,-7.935,-7.958,80,-8.363,-7.858,-4.779,-5.222,-5.299,-4.355,4.467,7.621,28,-1.13,1.421,5.005,8.086,-7.916,-8.362,-1.532,1.598,346.8,354.9,349.0,352.6,344.1,347.7,350.4,358.3,357.1,352.1,0,norm,1.652,1.97,-1.371,-1.837,-4.534,-4.813,-1.891,-1.655,-1.844,-1.545,1.759,-1.613,351.4,353.1,-5.034,-8.07,1.991,-1.834,8.026,5.216,-4.354,-8.022,3,4.31,5.104,4.898,5.114,1.334,1.463,1.665,1.893,3,5.157,4.34,80,165.518939267,norm,0,13,13,13,310.777,310.787,310.793260627,310.793,310.795,310.798,down,0,0.844565974301,-10,001,325,1920_1200,Intel(R) Core(TM) i5-3570 CPU @ 3.40GHz,orientation_search,LEPPC096,Intel(R) HD Graphics 2500,2018_Dec_21_1524,testMonitor,
185.6,175.3,193.7,200.7,36,60,179.8,183.6,,181.0,7.839,7.911,7.849,8.151,8.482,8.368,8.204,5.204,-5.012,-8.417,1.889,-1.967,7.799,4.78,-4.351,-7.791,175.9,183.6,-8.094,200.7,202.5,184.5,170.0,169.2,36,189.0,4,5,prime,10,0,85,norm,36,-4.638,up,norm,187.735674401,181.7,207.7,191.2,200.1,4,175.8,167.7,193.0,10,6,7.654,4.599,1.507,-1.17,-4.902,-7.772,188.8,6,272.7,-7.866,-8.078,60,-7.949,-8.152,-4.784,-4.372,-5.122,-4.954,5.259,8.243,28,-1.239,1.958,5.213,8.131,-8.305,-8.264,-1.179,1.143,193.4,184.8,204.2,174.2,169.9,187.1,190.8,179.9,183.6,187.0,0,norm,1.465,1.707,-1.345,-1.547,-5.084,-4.387,-1.686,-1.271,-1.453,-1.658,1.183,-1.965,171.7,195.1,-5.253,-7.815,1.339,-1.671,8.081,4.361,-4.518,-8.203,4,4.926,4.44,4.621,5.276,1.943,1.312,1.778,1.659,4,4.73,4.703,-40,165.518939267,norm,0,14,14,14,312.715,312.725,312.742180456,312.742,312.744,312.747,up,1,0.687558124195,9.31244187581,001,325,1920_1200,Intel(R) Core(TM) i5-3570 CPU @ 3.40GHz,orientation_search,LEPPC096,Intel(R) HD Graphics 2500,2018_Dec_21_1524,testMonitor,
184.8,195.6,203.1,196.2,36,60,,199.2,187.0,201.3,7.954,7.885,7.912,8.218,7.763,8.492,7.672,4.382,-4.544,-7.74,1.807,-1.347,7.779,4.729,-5.124,-8.385,194.9,192.1,-7.918,196.7,176.4,187.5,189.0,202.6,36,173.5,4,5,prime,10,0,99,norm,36,-4.379,down,norm,187.735674401,190.4,182.1,199.0,200.6,0,192.0,195.7,177.6,10,6,7.884,5.005,1.186,-1.269,-4.644,-7.729,188.4,6,286.7,-8.203,-7.703,60,-8.239,-7.844,-4.757,-5.023,-5.28,-4.725,5.24,7.792,24,-1.193,2.081,4.373,8.317,-7.651,-7.712,-1.202,1.246,194.7,191.2,207.7,203.4,178.2,187.0,178.1,167.7,173.7,189.6,1,norm,1.971,1.781,-1.331,-2.04,-4.895,-4.581,-1.131,-1.353,-1.918,-1.107,1.608,-1.927,175.0,201.2,-4.704,-8.226,1.123,-1.856,8.077,4.362,-5.296,-8.087,4,4.891,5.268,4.674,4.432,2.0,1.459,1.324,1.6,4,5.117,5.076,-40,165.518939267,norm,0,15,15,15,313.476,313.485,313.491867517,313.492,313.494,313.496,down,1,1.21486174402,8.78513825598,001,325,1920_1200,Intel(R) Core(TM) i5-3570 CPU @ 3.40GHz,orientation_search,LEPPC096,Intel(R) HD Graphics 2500,2018_Dec_21_1524,testMonitor,
175.9,185.0,,190.4,36,60,198.1,188.7,187.6,195.0,7.548,8.466,8.115,7.813,8.317,8.147,7.842,5.09,-4.955,-8.104,1.511,-1.847,8.009,4.31,-5.102,-7.541,193.1,185.6,-8.365,204.5,184.7,187.0,194.2,207.7,36,197.7,3,5,prime,10,0,99,norm,36,-4.426,down,norm,187.735674401,170.0,172.0,167.7,184.7,2,174.5,191.1,182.8,10,6,7.765,4.376,1.899,-1.952,-4.443,-8.039,203.7,6,286.7,-7.558,-8.137,60,-7.935,-7.657,-4.487,-5.016,-5.016,-4.375,4.904,8.147,20,-1.21,1.126,4.887,7.861,-8.225,-7.74,-2.011,1.826,197.4,178.1,196.3,169.1,200.2,177.6,198.4,194.9,190.6,193.9,2,norm,1.203,2.043,-1.478,-1.761,-4.46,-4.396,-1.161,-1.235,-1.801,-1.441,1.486,-2.078,183.0,187.0,-4.652,-7.894,2.046,-2.054,8.275,4.614,-5.171,-7.952,4,5.183,4.745,4.933,4.835,2.055,1.725,1.283,1.911,4,4.829,4.732,-40,165.518939267,norm,0,16,16,16,314.744,314.757,314.776419438,314.777,314.778,314.781,down,1,1.97670836466,8.02329163534,001,325,1920_1200,Intel(R) Core(TM) i5-3570 CPU @ 3.40GHz,orientation_search,LEPPC096,Intel(R) HD Graphics 2500,2018_Dec_21_1524,testMonitor,
167.7,172.5,194.7,181.6,36,60,181.4,177.4,202.0,170.0,7.873,7.516,7.609,8.38,8.108,7.559,8.372,5.287,-4.436,-7.697,1.376,-1.577,8.237,4.889,-4.542,-7.642,174.1,185.9,-8.271,184.4,188.1,167.9,196.1,187.4,36,185.4,0,5,prime,10,0,83,norm,36,-4.828,up,norm,187.735674401,193.8,189.1,190.4,186.6,4,171.0,189.9,191.1,10,6,8.358,4.859,1.791,-1.852,-4.826,-7.598,182.7,6,270.7,-7.55,-8.219,60,-7.872,-7.557,-4.764,-4.517,-4.335,-4.515,4.977,8.222,4,-1.903,1.195,4.85,8.249,-7.962,-8.147,-1.505,1.2,197.7,188.9,196.0,192.6,168.1,177.7,207.7,183.8,196.7,,3,norm,1.365,1.955,-2.032,-1.707,-4.54,-5.203,-1.679,-2.089,-2.098,-1.896,1.517,-1.547,192.3,168.3,-5.013,-8.386,1.341,-2.055,7.723,4.371,-4.381,-8.31,4,4.71,4.943,4.875,5.101,2.043,1.754,1.601,2.044,4,4.656,4.569,-40,165.518939267,norm,0,17,17,17,316.789,316.801,316.820926613,316.821,316.823,316.825,up,1,1.08583259205,8.91416740795,001,325,1920_1200,Intel(R) Core(TM) i5-3570 CPU @ 3.40GHz,orientation_search,LEPPC096,Intel(R) HD Graphics 2500,2018_Dec_21_1524,testMonitor,
200.0,181.5,188.9,200.3,36,60,189.7,186.2,197.9,201.9,7.822,7.611,8.0,7.779,8.39,8.193,7.518,5.05,-4.366,-7.75,1.615,-1.218,7.618,4.91,-4.377,-8.345,180.0,186.4,-7.503,193.1,182.7,194.0,170.2,207.7,36,184.1,0,5,prime,10,0,69,norm,36,-4.415,up,norm,187.735674401,201.8,193.5,196.9,184.5,4,189.6,193.6,179.1,10,6,7.681,5.297,1.984,-1.275,-4.703,-7.956,192.5,6,256.7,-8.454,-7.954,60,-8.473,-8.042,-4.779,-4.988,-4.859,-5.041,4.524,7.55,4,-1.733,1.718,4.721,7.86,-8.413,-7.61,-1.796,1.134,173.7,178.3,187.4,186.5,196.3,170.4,192.2,195.3,171.0,,4,norm,1.899,2.055,-1.275,-1.691,-4.802,-4.49,-1.268,-1.157,-2.095,-1.725,1.165,-1.556,167.7,191.4,-4.751,-7.539,1.584,-1.352,7.735,4.994,-4.429,-7.508,4,4.566,4.749,5.183,4.706,1.383,1.91,1.811,1.773,4,4.479,5.01,-40,165.518939267,norm,0,18,18,18,317.953,317.962,317.968955453,317.969,317.971,317.974,up,1,2.29714674147,7.70285325853,001,325,1920_1200,Intel(R) Core(TM) i5-3570 CPU @ 3.40GHz,orientation_search,LEPPC096,Intel(R) HD Graphics 2500,2018_Dec_21_1524,testMonitor,
188.2,175.1,179.7,193.8,36,60,196.0,194.9,182.9,,8.236,7.879,7.763,8.299,8.447,8.244,8.324,5.125,-4.949,-7.744,1.858,-2.06,7.972,4.966,-5.039,-8.019,197.1,171.3,-7.893,169.8,173.9,198.7,167.7,183.4,36,177.8,4,5,prime,10,0,75,norm,36,-4.987,up,norm,187.735674401,199.4,189.5,182.9,196.3,5,190.0,180.3,183.8,10,6,7.881,4.939,1.698,-1.577,-4.334,-7.784,176.2,6,262.7,-8.459,-8.419,60,-7.759,-7.515,-4.985,-5.096,-4.776,-4.505,4.564,7.75,29,-1.5,1.882,4.548,8.025,-8.019,-7.688,-2.092,2.035,179.8,192.6,176.5,194.1,181.7,193.5,195.2,189.5,188.8,192.7,5,norm,1.68,1.797,-1.28,-1.774,-4.634,-5.084,-1.599,-1.32,-1.688,-1.52,1.408,-1.828,180.7,207.7,-4.752,-7.856,1.109,-1.557,7.685,4.733,-4.386,-8.262,4,5.249,4.453,4.85,4.754,1.389,1.529,1.188,1.885,4,5.214,4.851,-40,165.518939267,norm,0,19,19,19,320.303,320.313,320.323288707,320.323,320.325,320.328,up,1,1.68603048221,8.31396951779,001,325,1920_1200,Intel(R) Core(TM) i5-3570 CPU @ 3.40GHz,orientation_search,LEPPC096,Intel(R) HD Graphics 2500,2018_Dec_21_1524,testMonitor,
299.9,306.1,298.8,301.9,36,40,308.0,302.5,308.6,296.6,7.727,7.806,7.601,8.443,7.998,8.253,8.201,4.716,-4.914,-7.669,1.141,-1.448,7.652,5.295,-4.637,-7.921,311.4,308.9,-7.505,305.6,306.5,293.0,302.9,303.9,36,297.3,3,5,probe,5,0,62,norm,36,-4.861,down,norm,302.991429401,304.3,293.6,310.5,309.6,1,313.0,308.0,308.3,10,6,8.163,4.574,2.099,-1.86,-5.21,-7.971,299.6,1,241.0,-7.536,-7.962,60,-7.928,-8.182,-5.115,-4.711,-4.56,-4.54,5.247,8.385,19,-1.551,1.652,4.754,8.087,-8.408,-8.344,-1.125,1.281,301.0,309.2,304.4,306.4,309.5,304.6,300.1,306.3,298.9,310.7,0,norm,2.015,1.566,-1.266,-1.165,-5.153,-4.324,-1.824,-1.578,-1.115,-1.183,1.241,-1.668,,297.7,-4.995,-8.444,1.695,-1.819,7.883,4.648,-4.877,-8.115,5,5.063,4.74,5.14,5.209,1.357,1.905,1.226,1.306,5,4.657,4.458,60,187.735674401,norm,0,20,20,20,322.055,322.065,322.073487397,322.074,322.075,322.078,down,1,0.805751310992,9.19424868901,001,325,1920_1200,Intel(R) Core(TM) i5-3570 CPU @ 3.40GHz,orientation_search,LEPPC096,Intel(R) HD Graphics 2500,2018_Dec_21_1524,testMonitor,
304.2,306.0,319.7,301.4,36,-60,320.8,325.1,325.0,305.6,8.24,7.723,8.103,8.361,8.393,8.354,8.412,4.747,-5.264,-8.286,1.97,-1.213,7.525,4.67,-4.897,-8.123,311.9,322.2,-8.275,299.8,315.9,321.6,303.3,328.1,36,296.8,1,5,prime,10,0,74,norm,36,-4.87,down,norm,316.76941291,323.6,327.1,336.8,309.5,2,315.1,308.8,297.1,10,5,8.434,5.296,1.989,-1.714,-4.852,-7.643,309.6,5,390.8,-7.876,-7.944,-60,-8.298,-8.354,-4.664,-5.019,-4.402,-4.491,5.046,8.118,8,-2.011,1.463,4.533,7.952,-7.61,-7.65,-1.869,1.754,310.0,,300.8,315.7,316.2,312.1,332.8,318.7,305.6,315.6,0,norm,1.144,1.471,-1.376,-1.519,-4.745,-4.954,-1.271,-1.237,-1.847,-1.53,1.232,-1.672,321.3,330.8,-4.977,-8.244,1.291,-2.067,8.348,4.307,-4.439,-7.657,6,4.594,5.227,4.712,4.523,1.209,1.577,1.969,1.913,6,4.666,4.346,40,187.735674401,norm,0,21,21,21,322.916,322.926,322.943902245,322.944,322.946,322.948,down,1,0.942667092069,9.05733290793,001,325,1920_1200,Intel(R) Core(TM) i5-3570 CPU @ 3.40GHz,orientation_search,LEPPC096,Intel(R) HD Graphics 2500,2018_Dec_21_1524,testMonitor,
319.6,318.2,321.6,330.2,36,-60,310.4,307.7,323.2,312.0,8.35,8.231,8.155,8.011,7.796,7.964,8.419,4.557,-4.715,-8.29,1.207,-1.122,7.759,4.326,-4.704,-8.373,315.2,317.3,-7.678,310.6,301.1,304.8,324.1,317.8,36,296.8,1,5,prime,10,0,76,norm,36,-4.708,up,norm,316.76941291,300.9,321.1,306.4,334.7,3,319.7,327.4,322.3,10,5,8.412,4.486,1.301,-2.09,-5.089,-8.042,308.3,5,392.8,-7.665,-7.818,-60,-7.773,-8.28,-4.549,-4.868,-4.376,-4.576,5.283,8.008,9,-1.527,2.019,4.876,7.753,-7.895,-8.161,-1.378,1.343,,311.1,324.4,314.6,336.8,329.7,302.8,324.0,313.4,318.7,1,norm,1.559,1.839,-1.469,-1.356,-5.052,-4.806,-1.231,-1.462,-1.643,-1.94,1.484,-1.749,324.8,318.8,-4.553,-8.115,1.115,-1.64,8.304,5.099,-5.284,-8.115,6,4.645,4.851,5.032,5.141,1.77,1.607,1.117,1.627,6,4.625,5.229,40,187.735674401,norm,0,22,22,22,323.924,323.933,323.942434067,323.943,323.944,323.947,up,1,1.37961888336,8.62038111664,001,325,1920_1200,Intel(R) Core(TM) i5-3570 CPU @ 3.40GHz,orientation_search,LEPPC096,Intel(R) HD Graphics 2500,2018_Dec_21_1524,testMonitor,
319.6,322.1,333.6,317.3,36,-60,304.0,319.2,317.0,317.8,7.72,8.446,7.826,7.786,7.633,7.858,8.352,4.701,-4.804,-8.473,2.005,-1.351,8.001,4.828,-5.014,-8.382,315.2,320.2,-8.079,320.0,309.5,321.8,296.8,306.8,36,307.9,1,5,prime,10,0,110,norm,36,-5.138,down,norm,316.76941291,325.2,324.7,319.9,321.9,2,326.4,311.5,303.6,10,5,7.99,4.901,1.681,-1.225,-4.634,-8.24,325.5,5,426.8,-7.674,-7.599,-60,-7.683,-8.013,-4.733,-5.194,-4.538,-4.861,5.041,7.576,8,-2.031,1.617,5.217,8.359,-7.667,-8.392,-1.686,1.505,322.0,,336.8,310.7,318.7,312.7,304.1,315.3,310.2,315.5,2,norm,1.646,1.111,-1.605,-1.185,-4.524,-5.021,-1.114,-1.964,-1.667,-1.185,1.691,-1.404,312.7,330.6,-4.388,-8.422,1.969,-1.797,8.22,4.562,-4.427,-7.808,6,4.988,4.694,5.069,4.638,1.346,1.154,1.451,1.205,6,5.093,5.137,40,187.735674401,norm,0,23,23,23,325.36,325.369,325.377443178,325.378,325.379,325.382,down,1,1.07854512702,8.92145487298,001,325,1920_1200,Intel(R) Core(TM) i5-3570 CPU @ 3.40GHz,orientation_search,LEPPC096,Intel(R) HD Graphics 2500,2018_Dec_21_1524,testMonitor,
300.9,318.4,311.2,326.7,36,-60,314.4,326.5,316.7,310.7,7.851,8.207,7.71,7.526,8.313,7.725,8.084,4.745,-5.065,-8.072,2.094,-1.991,7.807,5.166,-4.564,-7.599,327.3,300.1,-7.991,304.2,336.8,318.5,320.7,325.3,36,328.7,1,5,prime,10,0,97,norm,36,-5.099,down,norm,316.76941291,315.0,327.5,305.4,306.9,0,308.3,330.9,314.0,10,5,7.912,4.408,1.726,-1.229,-5.121,-8.292,320.6,5,413.8,-7.894,-8.369,-60,-8.062,-8.17,-4.375,-4.334,-5.016,-5.018,4.709,7.795,6,-1.644,1.219,4.407,8.382,-8.213,-8.071,-2.09,1.25,303.9,332.2,306.7,316.9,330.3,306.1,316.1,,306.0,296.8,3,norm,1.379,1.866,-1.24,-1.851,-4.568,-5.134,-1.167,-1.146,-1.412,-1.902,1.893,-1.129,322.7,321.1,-5.139,-8.338,1.119,-1.156,8.108,4.713,-4.347,-7.532,6,4.754,5.018,4.503,4.318,1.825,1.756,2.042,1.255,6,4.908,5.167,40,187.735674401,norm,0,24,24,24,326.493,326.502,326.516310695,326.516,326.518,326.521,down,1,0.926781245347,9.07321875465,001,325,1920_1200,Intel(R) Core(TM) i5-3570 CPU @ 3.40GHz,orientation_search,LEPPC096,Intel(R) HD Graphics 2500,2018_Dec_21_1524,testMonitor,
322.5,299.3,326.6,296.8,36,-60,335.5,323.8,325.9,310.3,7.893,8.037,7.755,8.392,8.223,7.558,8.498,4.774,-5.113,-7.561,1.791,-1.203,7.596,4.663,-5.207,-8.149,320.1,336.5,-8.212,,310.7,302.9,309.4,330.9,36,336.8,5,5,prime,10,0,102,norm,36,-5.063,down,norm,316.76941291,317.8,317.4,301.2,322.1,1,318.4,314.8,319.2,10,5,7.788,4.431,2.04,-2.091,-4.559,-7.565,320.6,5,418.8,-8.026,-8.211,-60,-8.433,-8.232,-4.31,-4.801,-4.477,-4.932,4.902,8.035,31,-1.705,1.235,5.022,8.348,-8.055,-8.452,-1.101,1.628,312.9,321.5,327.7,310.2,319.9,317.1,318.5,305.0,322.2,306.6,4,norm,1.289,1.926,-1.869,-1.782,-4.422,-4.346,-1.325,-1.674,-1.162,-1.292,1.855,-1.235,318.9,324.1,-4.801,-8.402,2.026,-1.45,8.25,5.126,-5.008,-7.554,6,5.017,4.91,4.847,4.776,1.837,1.844,1.318,1.607,6,4.429,5.024,40,187.735674401,norm,0,25,25,25,327.48,327.49,327.498933126,327.499,327.501,327.503,down,1,0.843566260755,9.15643373924,001,325,1920_1200,Intel(R) Core(TM) i5-3570 CPU @ 3.40GHz,orientation_search,LEPPC096,Intel(R) HD Graphics 2500,2018_Dec_21_1524,testMonitor,
372.7,367.2,355.2,367.0,36,-60,,371.7,356.4,362.1,7.856,7.773,8.365,7.879,8.23,8.282,8.436,4.631,-4.447,-7.86,1.605,-1.81,8.302,4.919,-4.427,-8.226,365.8,371.6,-7.901,363.4,361.6,367.8,361.2,361.7,36,369.8,4,5,probe,5,0,111,norm,36,-4.839,down,norm,364.98210957,362.6,365.4,372.6,364.8,0,366.3,358.6,360.4,10,5,7.949,5.173,1.311,-1.11,-4.949,-8.049,369.4,1,254.0,-8.09,-8.351,-60,-8.188,-7.711,-4.75,-4.355,-5.077,-5.256,4.347,7.854,24,-1.218,1.724,4.441,8.094,-7.757,-7.799,-1.995,1.597,370.7,375.0,366.2,362.7,372.0,355.0,369.9,365.8,361.8,362.4,0,norm,1.501,1.984,-1.247,-1.598,-4.947,-5.23,-1.836,-1.198,-1.991,-2.032,1.996,-1.908,369.3,364.1,-4.853,-7.698,1.2,-1.375,8.401,4.645,-4.971,-8.361,7,5.244,5.268,5.103,4.645,1.752,1.251,1.682,2.08,7,4.876,4.626,-60,316.76941291,norm,0,26,26,26,328.389,328.398,328.406494335,328.407,328.408,328.411,down,1,1.06225088282,8.93774911718,001,325,1920_1200,Intel(R) Core(TM) i5-3570 CPU @ 3.40GHz,orientation_search,LEPPC096,Intel(R) HD Graphics 2500,2018_Dec_21_1524,testMonitor,
132.0,119.3,114.3,126.6,36,-20,118.2,122.7,135.2,145.5,8.158,7.771,7.536,8.293,8.039,8.076,8.013,4.716,-5.171,-7.929,1.439,-1.905,7.529,5.084,-5.219,-8.433,132.0,126.6,-8.293,120.7,119.8,114.0,118.5,107.1,36,123.1,0,5,prime,10,0,109,norm,36,-4.882,up,norm,127.065111767,135.7,125.0,147.1,113.2,5,122.2,138.0,131.8,10,6,8.346,4.635,1.921,-1.409,-4.517,-7.767,129.9,6,236.1,-8.119,-7.554,-20,-7.861,-8.425,-4.39,-5.164,-4.997,-4.368,4.836,7.515,5,-1.676,1.697,4.617,7.871,-8.242,-8.02,-1.514,1.748,132.5,135.6,142.3,118.6,136.7,127.9,122.8,123.5,,132.6,0,norm,1.762,1.445,-2.025,-1.65,-4.31,-4.81,-1.443,-1.394,-1.376,-1.138,1.55,-1.467,124.4,135.5,-4.52,-8.149,1.506,-1.65,7.575,4.559,-4.73,-7.617,8,4.638,4.53,4.38,5.015,1.961,1.926,1.325,1.265,8,4.841,5.159,-60,316.76941291,norm,0,27,27,27,329.513,329.533,329.544687528,329.545,329.547,329.55,up,1,0.792938557159,9.20706144284,001,325,1920_1200,Intel(R) Core(TM) i5-3570 CPU @ 3.40GHz,orientation_search,LEPPC096,Intel(R) HD Graphics 2500,2018_Dec_21_1524,testMonitor,
131.1,125.4,123.8,111.2,36,-20,127.9,134.6,131.1,123.6,7.848,7.928,7.609,8.356,7.738,8.195,8.356,4.605,-4.441,-7.568,1.68,-1.629,7.585,4.975,-4.864,-7.726,135.5,111.7,-8.345,107.1,128.7,109.7,128.3,108.5,36,129.6,1,5,prime,10,0,74,norm,36,-4.484,up,norm,127.065111767,117.6,142.8,135.4,130.9,4,120.9,110.7,126.5,10,6,8.373,5.167,1.757,-1.925,-5.22,-7.827,,6,201.1,-7.709,-7.998,-20,-8.026,-8.261,-5.19,-4.446,-5.191,-5.216,5.275,8.421,10,-1.125,1.543,4.557,7.729,-7.744,-8.134,-1.982,1.811,107.8,140.2,141.3,144.5,130.9,130.0,121.9,142.2,120.1,111.0,1,norm,1.715,1.367,-1.705,-1.79,-5.004,-4.568,-1.335,-1.976,-1.335,-1.61,1.931,-1.179,120.6,132.8,-5.099,-8.487,1.388,-1.148,7.843,4.468,-4.313,-7.634,8,4.432,5.148,4.688,4.489,1.824,1.988,1.532,1.672,8,4.481,4.442,-60,316.76941291,norm,0,28,28,28,330.376,330.389,330.407865621,330.408,330.41,330.412,up,1,0.950243121762,9.04975687824,001,325,1920_1200,Intel(R) Core(TM) i5-3570 CPU @ 3.40GHz,orientation_search,LEPPC096,Intel(R) HD Graphics 2500,2018_Dec_21_1524,testMonitor,
128.6,144.8,125.1,128.3,36,-20,122.1,131.1,129.7,137.3,8.163,7.746,7.785,8.248,7.827,8.437,8.291,4.517,-4.487,-8.172,1.202,-1.4,8.162,4.454,-4.354,-8.298,117.1,120.0,-7.992,125.5,124.1,129.8,109.3,128.4,36,114.7,0,5,prime,10,0,111,norm,36,-4.36,up,norm,127.065111767,136.6,123.4,129.0,137.7,4,147.1,145.0,132.3,10,6,8.42,5.103,1.504,-1.382,-4.611,-7.733,112.8,6,238.1,-7.919,-8.047,-20,-7.621,-7.544,-5.149,-4.736,-4.986,-4.728,4.484,8.138,4,-1.748,1.789,4.434,7.525,-7.51,-8.458,-1.902,1.575,132.3,141.5,130.6,114.5,137.4,119.0,132.3,107.1,125.9,,2,norm,1.507,1.705,-1.795,-1.107,-5.128,-4.954,-1.641,-1.583,-1.201,-1.686,1.96,-1.693,117.1,129.6,-4.867,-7.609,1.719,-1.733,7.913,4.585,-4.696,-7.673,8,5.279,5.278,4.808,4.397,1.645,1.958,1.123,2.02,8,5.176,4.505,-60,316.76941291,norm,0,29,29,29,331.395,331.405,331.414401188,331.415,331.416,331.419,up,1,0.891301978994,9.10869802101,001,325,1920_1200,Intel(R) Core(TM) i5-3570 CPU @ 3.40GHz,orientation_search,LEPPC096,Intel(R) HD Graphics 2500,2018_Dec_21_1524,testMonitor,
120.7,110.4,137.8,122.2,36,-20,147.1,138.3,136.7,130.2,7.529,7.658,8.438,7.765,7.595,7.532,8.305,5.279,-4.86,-7.776,1.212,-1.977,8.003,5.158,-4.961,-8.283,118.6,138.0,-7.647,136.9,129.8,113.1,132.6,117.1,36,116.5,2,5,prime,10,0,74,norm,36,-5.196,up,norm,127.065111767,126.0,,118.4,134.3,4,129.9,115.2,132.5,10,6,8.346,4.389,1.628,-1.814,-4.74,-8.029,134.6,6,201.1,-7.838,-8.228,-20,-7.543,-7.819,-4.477,-4.345,-5.026,-4.541,4.536,8.295,16,-1.813,1.526,4.928,8.057,-8.264,-7.775,-1.86,1.999,133.9,127.4,112.1,113.1,108.0,129.2,109.8,125.1,107.1,122.5,3,norm,1.23,1.355,-1.613,-1.19,-4.345,-5.251,-1.131,-1.232,-1.578,-1.665,1.424,-1.259,142.8,117.9,-4.418,-7.784,1.495,-1.668,8.023,4.761,-4.855,-8.363,8,5.081,4.894,4.631,4.787,1.491,1.756,1.926,2.042,8,4.455,4.828,-60,316.76941291,norm,0,30,30,30,332.343,332.352,332.366056344,332.366,332.368,332.371,up,1,0.622935336465,9.37706466353,001,325,1920_1200,Intel(R) Core(TM) i5-3570 CPU @ 3.40GHz,orientation_search,LEPPC096,Intel(R) HD Graphics 2500,2018_Dec_21_1524,testMonitor,
140.5,126.8,128.1,139.7,36,-20,132.5,126.6,143.0,147.1,8.331,8.43,7.797,8.252,8.148,7.534,8.147,5.025,-4.903,-8.088,1.133,-1.893,8.443,4.955,-4.946,-7.756,118.1,124.7,-8.019,135.1,127.9,140.4,129.7,117.3,36,114.0,1,5,prime,10,0,70,norm,36,-4.354,up,norm,127.065111767,135.0,128.0,123.0,127.2,5,,129.7,117.1,10,6,8.075,4.619,1.131,-1.308,-4.952,-7.508,116.9,6,197.1,-7.569,-8.25,-20,-7.539,-7.658,-5.198,-5.124,-4.998,-5.114,4.397,7.688,11,-1.879,1.528,4.476,7.818,-7.703,-8.148,-1.434,1.977,144.2,118.3,129.7,129.1,135.2,138.7,131.0,107.1,113.9,119.6,4,norm,2.093,1.487,-1.4,-1.804,-4.545,-4.97,-1.172,-1.634,-1.996,-2.063,1.225,-1.742,117.9,116.9,-4.433,-7.859,1.939,-1.861,7.984,4.561,-4.773,-7.736,8,4.64,4.804,4.574,5.086,2.08,1.655,1.767,1.316,8,4.984,4.378,-60,316.76941291,norm,0,31,31,31,333.026,333.037,333.042125611,333.042,333.044,333.047,up,1,0.754921672502,9.2450783275,001,325,1920_1200,Intel(R) Core(TM) i5-3570 CPU @ 3.40GHz,orientation_search,LEPPC096,Intel(R) HD Graphics 2500,2018_Dec_21_1524,testMonitor,
142.1,131.4,113.2,113.4,36,-20,130.3,127.3,142.8,137.7,7.63,8.395,7.713,7.954,7.534,7.905,8.058,5.102,-5.106,-8.356,1.175,-1.85,8.105,4.592,-5.125,-7.674,121.4,117.1,-7.713,141.0,,110.2,117.6,117.4,36,125.4,5,5,prime,10,0,69,norm,36,-5.006,down,norm,127.065111767,135.7,125.0,130.9,118.0,0,123.7,114.9,128.7,10,6,7.986,4.576,1.762,-1.718,-4.751,-7.822,114.7,6,196.1,-8.337,-7.596,-20,-8.422,-8.385,-4.663,-4.992,-4.781,-4.967,4.457,8.403,30,-1.65,1.808,4.935,8.271,-8.343,-8.398,-1.816,2.031,124.6,139.7,147.1,143.6,107.1,138.5,115.4,134.1,119.8,140.8,5,norm,1.441,1.863,-1.673,-2.029,-5.264,-4.691,-1.125,-2.09,-1.462,-1.961,1.96,-1.988,129.5,131.3,-4.897,-8.391,1.172,-1.759,7.577,4.829,-4.7,-8.348,8,4.489,4.576,5.274,4.943,1.485,1.863,2.055,1.934,8,5.239,5.025,-60,316.76941291,norm,0,32,32,32,333.818,333.827,333.834131464,333.834,333.836,333.839,down,1,0.843150920824,9.15684907918,001,325,1920_1200,Intel(R) Core(TM) i5-3570 CPU @ 3.40GHz,orientation_search,LEPPC096,Intel(R) HD Graphics 2500,2018_Dec_21_1524,testMonitor,
224.3,220.6,227.7,226.8,36,-80,225.5,,218.6,219.0,8.458,7.602,7.599,8.176,7.829,8.273,8.416,4.702,-5.192,-7.74,1.53,-1.363,8.45,4.587,-4.482,-7.86,219.8,224.3,-7.894,230.5,223.8,225.2,219.4,230.2,36,223.6,4,5,probe,5,0,114,norm,36,-4.363,down,norm,223.862221576,227.5,224.2,227.0,231.2,1,228.2,232.6,213.9,10,6,7.549,4.357,1.689,-1.422,-4.88,-8.187,222.5,1,109.9,-7.787,-7.72,-20,-8.018,-8.216,-4.69,-4.319,-5.296,-5.282,4.566,7.61,25,-1.213,1.642,4.562,7.562,-7.849,-7.845,-1.382,1.646,219.2,221.4,225.5,225.4,225.8,220.5,227.8,229.0,233.9,219.4,0,norm,1.27,1.583,-2.082,-2.053,-4.771,-4.452,-1.689,-1.368,-1.102,-1.265,1.503,-1.182,229.4,220.6,-4.784,-7.61,2.048,-1.908,8.265,4.333,-4.915,-8.2,9,4.746,4.329,4.915,5.204,1.897,1.435,1.488,1.44,9,5.019,5.093,-20,127.065111767,norm,0,33,33,33,334.707,334.716,334.722849642,334.723,334.725,334.727,down,1,0.85665852387,9.14334147613,001,325,1920_1200,Intel(R) Core(TM) i5-3570 CPU @ 3.40GHz,orientation_search,LEPPC096,Intel(R) HD Graphics 2500,2018_Dec_21_1524,testMonitor,
206.2,207.1,205.0,203.0,36,-30,196.6,199.9,204.9,205.3,8.388,7.981,7.894,7.728,7.776,7.847,7.861,4.472,-4.425,-8.098,1.548,-1.222,7.732,4.565,-4.844,-8.497,206.2,199.8,-8.333,211.8,213.3,193.1,218.7,217.2,36,200.6,1,5,prime,10,0,100,norm,36,-4.571,up,norm,208.461717307,217.5,206.0,204.4,225.4,5,,207.1,188.5,10,5,7.869,4.532,1.498,-1.641,-4.369,-8.363,221.9,5,308.5,-8.247,-8.444,-30,-7.95,-8.38,-5.265,-5.137,-4.475,-4.348,5.168,7.713,11,-1.845,1.914,5.093,8.16,-8.118,-8.069,-1.742,1.337,221.1,223.1,216.1,202.5,219.3,213.2,228.5,218.6,195.6,205.2,0,norm,1.404,1.512,-1.667,-1.969,-4.445,-4.597,-2.087,-1.374,-1.992,-1.987,1.413,-1.99,193.8,212.0,-4.561,-8.432,2.012,-1.214,8.338,4.835,-4.324,-7.803,10,4.852,5.238,5.163,4.843,1.834,1.578,2.048,1.204,10,4.463,4.341,-80,127.065111767,norm,0,34,34,34,335.627,335.637,335.642892179,335.643,335.645,335.647,up,1,0.910213830641,9.08978616936,001,325,1920_1200,Intel(R) Core(TM) i5-3570 CPU @ 3.40GHz,orientation_search,LEPPC096,Intel(R) HD Graphics 2500,2018_Dec_21_1524,testMonitor,
199.1,198.0,222.2,227.9,36,-30,188.5,198.7,204.6,207.6,8.14,7.649,7.867,7.701,8.411,8.329,7.584,4.681,-5.068,-8.368,1.254,-1.845,7.837,4.475,-5.26,-7.636,209.8,205.4,-8.379,208.9,212.9,212.7,197.6,193.6,36,206.5,0,5,prime,10,0,69,norm,36,-5.046,down,norm,208.461717307,208.4,197.9,201.1,214.2,1,211.6,206.7,212.1,10,5,8.175,4.453,1.703,-1.125,-4.822,-7.875,209.9,5,277.5,-8.006,-7.772,-30,-7.565,-8.327,-4.604,-5.074,-4.574,-5.177,4.942,8.456,1,-1.412,1.674,4.678,8.184,-7.928,-8.453,-1.265,1.7,206.0,226.1,200.2,210.8,,203.3,202.8,204.5,210.6,216.1,1,norm,1.768,1.337,-1.553,-1.927,-4.846,-4.826,-2.065,-1.425,-1.44,-1.608,1.756,-1.524,228.5,205.3,-4.851,-7.812,1.111,-1.901,7.809,5.063,-5.176,-8.4,10,5.093,4.846,4.778,5.198,1.855,1.2,1.422,1.279,10,4.882,4.873,-80,127.065111767,norm,0,35,35,35,336.589,336.599,336.609042276,336.609,336.611,336.613,down,1,0.822926341458,9.17707365854,001,325,1920_1200,Intel(R) Core(TM) i5-3570 CPU @ 3.40GHz,orientation_search,LEPPC096,Intel(R) HD Graphics 2500,2018_Dec_21_1524,testMonitor,
216.0,223.4,209.5,202.2,36,-30,212.9,213.5,205.7,228.5,7.92,8.357,8.419,8.423,8.472,8.323,8.2,4.693,-4.709,-8.009,1.479,-1.906,7.747,4.973,-4.414,-7.912,211.1,206.2,-8.287,208.9,213.6,208.6,212.6,203.9,36,210.3,1,5,prime,10,0,72,norm,36,-4.881,down,norm,208.461717307,219.9,216.7,215.1,195.8,0,214.4,210.7,200.3,10,5,7.704,4.928,1.658,-1.429,-4.945,-8.015,217.9,5,280.5,-7.543,-8.233,-30,-7.906,-8.04,-4.955,-4.374,-4.396,-5.033,5.006,8.164,6,-1.744,2.056,5.06,7.992,-7.662,-7.958,-1.355,2.025,221.1,201.2,212.5,210.6,202.9,223.0,208.2,,209.3,188.5,2,norm,1.636,1.25,-1.454,-1.181,-4.337,-4.522,-1.133,-1.195,-1.13,-1.619,1.743,-1.958,206.3,221.6,-4.961,-7.759,1.361,-1.793,8.198,4.533,-5.295,-8.207,10,5.216,4.831,5.027,5.262,1.985,1.834,2.033,1.433,10,5.004,4.332,-80,127.065111767,norm,0,36,36,36,337.453,337.463,337.482570061,337.483,337.484,337.487,down,1,1.39606555972,8.60393444028,001,325,1920_1200,Intel(R) Core(TM) i5-3570 CPU @ 3.40GHz,orientation_search,LEPPC096,Intel(R) HD Graphics 2500,2018_Dec_21_1524,testMonitor,
221.7,218.0,205.3,209.3,36,-30,197.6,206.6,210.9,211.4,8.431,8.363,8.182,8.258,8.167,8.086,8.236,4.697,-5.002,-7.524,1.727,-2.044,7.658,5.218,-4.327,-8.264,217.7,209.6,-8.093,,209.0,210.9,206.3,228.5,36,200.1,5,5,prime,10,0,98,norm,36,-5.241,down,norm,208.461717307,221.3,213.8,215.0,202.5,1,188.5,213.3,203.2,10,5,8.019,4.981,2.006,-2.015,-4.444,-7.993,201.5,5,306.5,-7.626,-8.403,-30,-8.254,-7.593,-4.374,-4.466,-4.585,-4.825,4.392,8.483,31,-2.038,1.676,4.833,7.86,-7.518,-8.097,-1.55,1.445,219.8,203.1,210.0,210.4,197.7,195.5,217.6,206.9,190.3,214.1,3,norm,1.708,1.276,-1.756,-2.078,-4.708,-4.593,-1.158,-1.543,-1.412,-1.717,1.395,-1.279,207.6,198.1,-5.264,-7.679,1.339,-1.202,7.582,4.779,-5.104,-7.693,10,4.463,5.027,5.023,4.861,1.156,1.257,2.069,2.09,10,4.497,4.541,-80,127.065111767,norm,0,37,37,37,338.903,338.912,338.918756673,338.919,338.921,338.923,down,1,1.14397505063,8.85602494937,001,325,1920_1200,Intel(R) Core(TM) i5-3570 CPU @ 3.40GHz,orientation_search,LEPPC096,Intel(R) HD Graphics 2500,2018_Dec_21_1524,testMonitor,
202.0,213.8,192.2,206.8,36,-30,213.1,211.2,228.5,220.6,7.685,8.287,7.727,8.232,8.056,7.56,8.466,4.854,-4.99,-8.126,1.264,-1.847,7.595,4.552,-4.768,-8.387,195.6,218.6,-8.295,208.1,194.4,221.4,199.6,205.5,36,196.3,2,5,prime,10,0,89,norm,36,-4.38,down,norm,208.461717307,191.7,204.0,211.2,213.4,0,199.9,210.5,,10,5,7.917,4.899,1.913,-1.149,-4.852,-7.518,206.2,5,297.5,-7.658,-7.532,-30,-7.807,-7.932,-4.377,-4.548,-4.649,-4.573,5.112,8.297,12,-1.913,1.918,4.586,7.789,-7.999,-8.034,-2.09,1.736,209.1,213.6,194.1,203.1,196.1,192.8,188.5,210.4,216.7,210.3,4,norm,1.636,1.756,-1.929,-1.459,-4.815,-4.327,-1.537,-1.819,-1.48,-1.973,1.126,-1.592,215.5,203.9,-5.059,-8.481,1.683,-1.97,7.762,4.785,-5.223,-8.437,10,4.685,5.232,4.509,5.213,1.22,1.764,1.893,1.504,10,5.012,4.853,-80,127.065111767,norm,0,38,38,38,340.1,340.109,340.118629052,340.119,340.121,340.123,down,1,0.75525672143,9.24474327857,001,325,1920_1200,Intel(R) Core(TM) i5-3570 CPU @ 3.40GHz,orientation_search,LEPPC096,Intel(R) HD Graphics 2500,2018_Dec_21_1524,testMonitor,
249.4,253.0,240.4,236.0,36,-20,241.8,244.1,249.0,250.8,8.007,8.136,8.114,8.382,7.595,7.833,7.914,5.274,-4.691,-8.423,1.403,-1.608,7.712,5.176,-5.262,-7.611,248.2,242.9,-8.438,243.7,251.9,253.8,249.4,249.2,36,245.4,2,5,probe,5,0,63,norm,36,-4.493,up,norm,245.957621217,239.0,,241.6,237.5,4,246.0,248.9,256.0,10,5,8.311,5.112,1.717,-1.653,-4.526,-7.697,244.2,1,183.0,-7.959,-8.387,-30,-7.931,-8.226,-5.125,-4.762,-4.35,-4.459,4.361,7.527,16,-1.221,2.094,4.92,7.925,-8.422,-8.134,-1.643,1.699,241.4,242.0,245.9,242.8,252.7,246.2,239.7,236.5,250.2,247.0,0,norm,1.615,1.803,-1.196,-1.355,-5.214,-5.245,-1.913,-1.403,-2.057,-1.26,1.477,-1.66,251.6,244.5,-4.308,-7.567,1.211,-1.14,8.299,4.793,-5.034,-8.31,11,4.872,5.003,4.962,4.976,1.48,1.707,1.409,1.731,11,4.33,4.603,-30,208.461717307,norm,0,39,39,39,340.894,340.904,340.914333725,340.915,340.916,340.919,up,1,0.741208210569,9.25879178943,001,325,1920_1200,Intel(R) Core(TM) i5-3570 CPU @ 3.40GHz,orientation_search,LEPPC096,Intel(R) HD Graphics 2500,2018_Dec_21_1524,testMonitor,
105.9,112.8,121.8,115.1,36,30,106.8,105.7,124.7,112.5,8.089,7.511,7.837,8.47,7.569,7.642,8.059,4.598,-4.93,-8.45,1.335,-1.98,8.457,4.715,-4.843,-8.258,111.9,98.2,-8.434,126.6,93.6,103.9,116.8,103.1,36,111.2,2,5,prime,10,0,110,norm,36,-4.626,down,norm,107.613799743,115.2,93.9,117.7,107.4,1,127.6,,110.5,10,6,8.375,5.105,1.559,-1.978,-5.205,-7.911,118.0,6,217.6,-7.829,-8.32,30,-8.061,-8.046,-4.627,-4.462,-4.496,-4.759,5.248,7.652,13,-1.749,1.517,5.118,7.564,-7.735,-7.533,-1.378,1.594,114.1,125.5,87.6,108.6,107.8,100.6,112.5,105.2,109.2,107.1,0,norm,1.901,1.878,-1.435,-1.927,-5.051,-4.513,-1.469,-1.116,-2.03,-1.8,1.817,-1.527,98.7,115.2,-5.156,-8.467,1.567,-1.453,8.476,4.95,-4.467,-7.637,12,4.732,4.852,4.322,4.403,1.509,1.412,1.633,2.026,12,4.48,4.88,-20,208.461717307,norm,0,40,40,40,341.679,341.689,341.695303489,341.695,341.697,341.7,down,1,0.640774729705,9.35922527029,001,325,1920_1200,Intel(R) Core(TM) i5-3570 CPU @ 3.40GHz,orientation_search,LEPPC096,Intel(R) HD Graphics 2500,2018_Dec_21_1524,testMonitor,
127.6,122.4,102.0,104.4,36,30,105.8,126.8,108.6,103.4,8.345,7.519,7.628,8.047,8.29,7.976,7.526,5.217,-4.915,-7.501,1.199,-1.167,8.304,4.581,-4.558,-7.747,94.0,116.5,-7.972,112.0,118.2,110.1,102.0,103.3,36,107.5,1,5,prime,10,0,66,norm,36,-4.584,down,norm,107.613799743,105.0,122.7,113.3,95.7,0,104.8,106.6,99.2,10,6,7.839,5.254,1.253,-1.233,-5.125,-7.67,102.5,6,173.6,-7.827,-8.395,30,-7.793,-8.005,-4.403,-4.538,-5.186,-4.466,4.688,8.14,6,-1.518,1.445,5.209,7.832,-8.233,-8.069,-1.676,1.221,116.2,112.1,103.0,115.5,126.9,106.8,89.8,,116.0,108.9,1,norm,1.54,1.94,-2.034,-1.431,-4.341,-5.054,-1.967,-1.416,-1.595,-1.702,1.718,-1.386,104.2,103.9,-5.022,-8.462,1.547,-1.78,8.206,4.673,-4.454,-7.662,12,4.709,5.276,4.583,4.456,1.656,1.732,1.969,1.15,12,4.401,4.594,-20,208.461717307,norm,0,41,41,41,342.373,342.384,342.404880063,342.405,342.407,342.409,down,1,1.25284874593,8.74715125407,001,325,1920_1200,Intel(R) Core(TM) i5-3570 CPU @ 3.40GHz,orientation_search,LEPPC096,Intel(R) HD Graphics 2500,2018_Dec_21_1524,testMonitor,
113.8,113.7,98.5,100.6,36,30,107.1,98.3,111.6,114.2,7.965,7.977,8.483,7.906,8.291,7.825,8.114,4.37,-5.243,-8.435,1.454,-1.881,7.942,5.206,-4.523,-8.376,109.4,,-7.762,94.5,125.3,124.0,116.6,108.3,36,112.0,5,5,prime,10,0,108,norm,36,-5.004,up,norm,107.613799743,107.2,113.3,107.1,100.0,4,100.4,124.7,108.2,10,6,8.27,5.176,1.838,-1.312,-4.819,-7.764,112.0,6,215.6,-8.266,-7.965,30,-7.538,-7.877,-4.801,-5.128,-4.974,-5.147,5.171,8.396,34,-1.943,1.803,5.119,8.436,-7.778,-7.552,-1.236,1.371,97.2,115.9,91.8,92.0,104.0,116.0,114.5,88.1,118.2,127.6,2,norm,1.586,2.078,-1.323,-1.736,-5.028,-4.864,-1.412,-2.024,-1.158,-1.38,2.009,-1.996,87.6,111.4,-4.544,-8.446,1.8,-1.552,7.659,4.401,-5.067,-7.697,12,4.488,4.462,4.819,4.388,1.189,1.867,1.637,1.636,12,4.705,5.144,-20,208.461717307,norm,0,42,42,42,343.695,343.709,343.727591037,343.728,343.73,343.733,up,1,0.65380209596,9.34619790404,001,325,1920_1200,Intel(R) Core(TM) i5-3570 CPU @ 3.40GHz,orientation_search,LEPPC096,Intel(R) HD Graphics 2500,2018_Dec_21_1524,testMonitor,
108.5,98.7,104.0,123.3,36,30,120.0,113.0,104.0,121.4,8.212,8.167,7.966,7.786,8.093,7.554,7.773,4.913,-5.113,-8.207,1.876,-1.26,8.217,5.2,-4.765,-7.754,111.5,114.8,-7.634,110.1,106.3,109.9,115.3,,36,111.9,4,5,prime,10,0,70,norm,36,-4.503,down,norm,107.613799743,108.0,97.9,102.7,91.1,2,116.2,105.7,96.2,10,6,8.124,4.707,1.355,-1.251,-4.923,-7.701,106.1,6,177.6,-7.638,-8.436,30,-8.01,-8.486,-5.258,-4.664,-4.343,-4.487,4.878,8.342,26,-1.389,2.099,4.589,7.989,-7.624,-7.55,-2.002,1.122,87.6,109.1,95.9,105.9,127.6,117.1,101.9,92.5,124.5,104.9,3,norm,1.692,1.54,-1.348,-1.718,-4.683,-4.943,-1.387,-1.128,-1.276,-2.018,1.442,-1.928,117.5,102.9,-4.925,-8.176,1.69,-1.201,7.51,4.761,-5.022,-7.865,12,4.611,5.229,4.427,5.167,1.733,1.919,1.485,1.222,12,5.094,4.405,-20,208.461717307,norm,0,43,43,43,344.419,344.429,344.439893279,344.44,344.442,344.444,down,1,1.11268057552,8.88731942448,001,325,1920_1200,Intel(R) Core(TM) i5-3570 CPU @ 3.40GHz,orientation_search,LEPPC096,Intel(R) HD Graphics 2500,2018_Dec_21_1524,testMonitor,
107.3,87.6,125.8,,36,30,107.9,97.0,89.2,101.7,8.457,7.823,7.867,8.369,8.012,8.029,8.086,5.231,-5.081,-8.326,1.579,-1.77,7.831,5.091,-4.97,-7.847,110.6,116.2,-8.085,94.6,112.6,106.1,127.6,116.4,36,95.8,3,5,prime,10,0,80,norm,36,-5.043,up,norm,107.613799743,126.8,123.5,108.2,117.8,3,108.5,102.2,96.5,10,6,7.935,4.32,1.481,-1.494,-5.08,-8.417,112.0,6,187.6,-7.72,-8.261,30,-8.219,-8.127,-4.604,-4.881,-5.078,-4.937,4.905,7.87,21,-1.891,1.426,4.317,8.35,-8.308,-7.581,-1.666,1.829,110.5,109.5,105.1,102.4,103.5,107.0,105.3,105.5,102.9,114.8,4,norm,1.986,1.382,-1.452,-1.993,-4.92,-4.88,-1.383,-1.148,-1.119,-1.593,1.826,-1.271,117.4,114.8,-4.437,-7.74,1.966,-2.075,7.675,4.479,-4.46,-7.991,12,4.809,4.588,4.578,4.462,1.271,1.352,2.068,1.498,12,5.052,5.278,-20,208.461717307,norm,0,44,44,44,345.589,345.599,345.605847238,345.606,345.608,345.61,up,1,0.86325144154,9.13674855846,001,325,1920_1200,Intel(R) Core(TM) i5-3570 CPU @ 3.40GHz,orientation_search,LEPPC096,Intel(R) HD Graphics 2500,2018_Dec_21_1524,testMonitor,
116.0,116.8,107.5,100.8,36,30,93.6,127.6,105.7,100.2,7.993,8.145,7.819,8.109,8.435,8.419,8.371,5.258,-4.775,-8.244,1.478,-2.059,7.588,5.113,-5.185,-8.132,120.0,108.8,-8.171,109.4,117.0,87.6,104.1,102.8,36,116.1,1,5,prime,10,0,85,norm,36,-4.678,down,norm,107.613799743,104.3,123.8,98.5,104.3,2,119.9,98.1,118.8,10,6,7.949,4.334,1.322,-1.24,-4.437,-8.137,99.6,6,192.6,-7.541,-8.178,30,-8.236,-8.245,-4.442,-4.382,-4.619,-5.115,4.513,7.919,8,-1.381,1.996,4.998,7.685,-8.49,-8.054,-1.901,2.026,111.1,,116.9,89.9,97.8,122.1,110.2,111.2,106.7,116.6,5,norm,1.593,1.331,-1.643,-2.06,-4.411,-4.651,-1.124,-1.603,-2.083,-1.704,2.051,-1.664,119.2,113.0,-4.306,-8.414,1.582,-1.386,7.806,4.7,-4.565,-8.233,12,4.816,5.031,4.445,4.44,1.953,1.557,1.411,1.851,12,5.208,5.148,-20,208.461717307,norm,0,45,45,45,346.515,346.525,346.531209505,346.531,346.533,346.536,down,1,1.52044990732,8.47955009268,001,325,1920_1200,Intel(R) Core(TM) i5-3570 CPU @ 3.40GHz,orientation_search,LEPPC096,Intel(R) HD Graphics 2500,2018_Dec_21_1524,testMonitor,
190.5,208.1,198.0,192.1,36,-30,190.3,202.4,198.7,202.4,7.992,8.377,7.749,7.977,7.651,7.547,7.573,4.686,-5.181,-7.846,1.337,-1.25,8.127,4.752,-4.853,-8.219,204.0,,-8.482,188.1,194.7,200.5,188.3,196.0,36,192.3,5,5,probe,5,0,62,norm,36,-5.049,up,norm,198.117258768,203.4,190.7,191.0,201.4,4,204.5,203.4,207.9,10,6,8.262,4.607,1.644,-2.073,-4.908,-8.071,192.2,1,136.1,-7.72,-8.039,30,-7.552,-8.287,-4.424,-5.059,-4.956,-4.666,4.578,7.638,34,-1.424,1.242,5.009,8.292,-8.435,-7.86,-1.46,1.71,200.7,196.9,194.2,202.2,196.8,197.2,197.1,200.3,193.2,196.3,0,norm,1.424,1.155,-1.852,-1.424,-4.348,-5.203,-1.151,-2.053,-1.317,-1.134,1.861,-1.846,198.5,205.6,-4.65,-8.369,1.829,-1.579,7.893,4.387,-4.722,-7.751,13,4.301,5.165,5.232,4.763,1.362,1.924,1.919,1.692,13,4.804,4.98,30,107.613799743,norm,0,46,46,46,348.088,348.097,348.105671412,348.106,348.108,348.11,up,1,0.8732063186,9.1267936814,001,325,1920_1200,Intel(R) Core(TM) i5-3570 CPU @ 3.40GHz,orientation_search,LEPPC096,Intel(R) HD Graphics 2500,2018_Dec_21_1524,testMonitor,
23.1,35.3,16.9,20.3,36,30,8.7,2.2,19.6,0.7,8.247,8.325,8.198,7.952,7.693,8.29,7.847,4.528,-4.492,-8.248,1.987,-2.064,8.203,4.905,-4.759,-8.075,25.8,15.0,-7.658,-4.7,16.0,3.7,10.9,13.8,36,5.2,0,5,prime,10,0,77,norm,36,-4.834,up,norm,15.3068183673,18.3,8.3,29.9,9.4,3,25.2,29.4,19.2,10,5,7.967,4.906,1.693,-1.149,-4.452,-8.292,3.8,5,92.3,-7.618,-8.371,30,-7.713,-7.816,-4.928,-5.015,-4.788,-4.881,4.348,8.023,3,-1.442,1.306,4.319,8.346,-8.204,-8.075,-2.063,1.767,5.2,7.5,,7.5,9.2,19.7,-3.9,23.7,23.5,8.1,0,norm,1.94,1.237,-1.451,-1.614,-5.125,-4.386,-1.405,-1.875,-1.323,-1.873,1.678,-1.899,20.4,15.0,-4.526,-8.325,2.046,-1.831,7.671,5.2,-4.857,-8.249,14,5.013,5.044,4.914,4.756,1.499,1.4,1.475,1.163,14,4.468,4.934,-30,107.613799743,norm,0,47,47,47,349.016,349.026,349.041648694,349.042,349.044,349.046,up,1,1.16083404846,8.83916595154,001,325,1920_1200,Intel(R) Core(TM) i5-3570 CPU @ 3.40GHz,orientation_search,LEPPC096,Intel(R) HD Graphics 2500,2018_Dec_21_1524,testMonitor,
10.6,-0.5,-0.1,18.0,36,30,5.9,15.1,4.9,2.6,8.363,7.952,8.091,8.189,7.901,7.734,8.416,5.157,-4.908,-7.854,1.617,-1.634,8.392,4.329,-4.356,-7.817,2.4,-4.7,-8.296,22.5,24.2,20.7,19.0,,36,13.9,4,5,prime,10,0,68,norm,36,-4.549,down,norm,15.3068183673,12.4,12.0,25.0,30.9,2,13.0,23.7,17.1,10,5,7.894,4.636,1.465,-1.249,-4.801,-7.556,35.3,5,83.3,-7.597,-7.824,30,-8.062,-7.675,-4.425,-4.577,-4.982,-4.655,4.734,7.954,26,-1.354,1.459,5.034,8.295,-8.463,-8.167,-1.223,2.077,12.1,16.8,5.7,23.0,16.3,12.2,19.6,19.7,31.1,30.8,1,norm,1.154,1.922,-1.685,-1.641,-4.495,-4.401,-1.11,-1.284,-1.92,-1.758,2.064,-2.052,20.3,17.0,-5.176,-7.924,1.821,-1.473,8.21,4.649,-5.215,-8.211,14,5.185,4.62,4.612,4.895,1.947,1.84,1.459,1.467,14,4.864,4.471,-30,107.613799743,norm,0,48,48,48,350.24,350.249,350.25839939,350.259,350.26,350.263,down,1,0.786968649383,9.21303135062,001,325,1920_1200,Intel(R) Core(TM) i5-3570 CPU @ 3.40GHz,orientation_search,LEPPC096,Intel(R) HD Graphics 2500,2018_Dec_21_1524,testMonitor,
19.0,15.5,21.1,11.2,36,30,21.5,18.6,29.4,7.0,7.675,7.623,7.824,8.28,7.631,7.621,7.565,4.609,-4.89,-8.455,1.636,-1.888,8.062,4.637,-5.016,-7.721,17.9,13.5,-7.894,-4.7,6.9,9.5,19.3,-3.5,36,35.3,2,5,prime,10,0,103,norm,36,-4.519,down,norm,15.3068183673,25.9,25.3,23.2,24.3,0,16.5,20.5,,10,5,7.952,5.148,1.88,-1.76,-5.187,-7.904,27.5,5,118.3,-8.064,-8.096,30,-7.722,-7.758,-4.528,-4.728,-4.875,-5.076,5.017,8.112,12,-1.58,1.357,5.184,8.084,-7.811,-8.285,-1.105,1.899,27.9,12.0,24.1,13.2,17.9,21.5,8.8,8.5,13.4,22.3,2,norm,1.765,1.237,-1.181,-1.639,-4.828,-4.854,-1.474,-1.7,-1.869,-1.837,1.605,-1.942,22.2,16.7,-4.921,-8.251,1.395,-1.846,8.447,4.708,-4.687,-8.258,14,4.766,4.738,4.392,5.274,1.836,1.178,1.999,1.907,14,4.444,4.957,-30,107.613799743,norm,0,49,49,49,351.07,351.08,351.087989281,351.088,351.09,351.092,down,1,1.41682983952,8.58317016048,001,325,1920_1200,Intel(R) Core(TM) i5-3570 CPU @ 3.40GHz,orientation_search,LEPPC096,Intel(R) HD Graphics 2500,2018_Dec_21_1524,testMonitor,
18.3,22.0,5.2,,36,30,9.9,13.9,4.8,14.7,7.706,7.814,8.201,7.841,8.266,7.886,8.19,4.345,-5.297,-7.671,1.407,-2.049,8.089,5.252,-4.967,-8.425,22.8,17.2,-8.05,-4.7,25.9,23.5,26.9,15.1,36,31.9,3,5,prime,10,0,88,norm,36,-4.604,up,norm,15.3068183673,4.5,20.8,16.3,11.3,3,13.9,25.0,30.2,10,5,8.109,4.814,1.54,-2.005,-4.97,-8.004,15.8,5,103.3,-7.621,-8.059,30,-8.068,-8.082,-5.073,-5.066,-4.63,-4.569,5.25,8.24,21,-1.624,1.874,4.449,8.409,-7.653,-7.948,-1.934,1.67,11.8,15.3,1.3,2.9,11.0,22.1,1.6,35.3,18.5,24.0,3,norm,1.646,1.992,-2.051,-1.352,-4.667,-4.672,-1.136,-1.795,-2.065,-1.294,1.101,-1.544,9.7,15.7,-4.467,-8.455,1.81,-1.453,8.178,5.186,-5.05,-8.421,14,5.188,4.748,4.96,4.46,1.103,1.174,1.175,1.545,14,4.609,5.223,-30,107.613799743,norm,0,50,50,50,352.542,352.556,352.574394595,352.575,352.576,352.579,up,1,0.780111012875,9.21988898713,001,325,1920_1200,Intel(R) Core(TM) i5-3570 CPU @ 3.40GHz,orientation_search,LEPPC096,Intel(R) HD Graphics 2500,2018_Dec_21_1524,testMonitor,
-4.6,20.9,32.8,18.1,36,30,,20.3,10.1,-1.5,7.935,8.188,8.119,8.456,7.75,8.082,7.957,4.888,-4.324,-8.167,1.222,-1.613,8.138,4.852,-4.834,-7.694,-1.5,2.4,-7.958,16.2,15.1,20.8,11.8,15.4,36,13.1,4,5,prime,10,0,114,norm,36,-4.887,down,norm,15.3068183673,31.3,9.7,6.2,25.9,0,20.0,35.3,17.5,10,5,7.629,4.971,1.149,-1.167,-4.873,-8.053,8.1,5,129.3,-8.163,-8.451,30,-7.729,-8.232,-5.152,-4.703,-5.154,-4.941,5.256,7.659,24,-1.919,1.585,4.797,7.796,-8.027,-7.523,-1.692,1.636,10.5,20.1,4.3,19.0,-4.7,26.9,4.8,26.3,10.0,15.9,4,norm,1.549,2.043,-1.21,-1.159,-4.905,-4.66,-1.663,-1.606,-2.058,-1.642,1.645,-1.379,14.2,20.0,-5.016,-8.431,1.966,-1.396,7.881,5.115,-4.759,-8.021,14,5.124,4.548,5.055,4.39,1.149,1.839,1.8,1.223,14,4.956,4.775,-30,107.613799743,norm,0,51,51,51,353.379,353.388,353.394748002,353.395,353.397,353.399,down,1,0.79210153854,9.20789846146,001,325,1920_1200,Intel(R) Core(TM) i5-3570 CPU @ 3.40GHz,orientation_search,LEPPC096,Intel(R) HD Graphics 2500,2018_Dec_21_1524,testMonitor,
127.6,118.0,123.7,123.2,36,0,126.3,130.0,128.8,136.3,7.987,7.831,7.77,8.313,8.493,7.834,7.567,5.289,-4.525,-8.307,1.88,-2.022,8.347,5.114,-4.45,-8.184,119.1,125.9,-8.155,125.7,135.2,127.1,138.0,120.6,36,125.9,2,5,probe,5,0,84,norm,36,-4.736,down,norm,127.952715688,132.1,123.2,129.9,124.1,0,121.2,122.4,,10,5,8.1,5.129,1.401,-1.314,-4.385,-7.502,131.8,1,44.0,-7.63,-7.88,30,-8.439,-7.623,-4.308,-4.745,-4.682,-4.839,5.114,8.323,12,-1.624,1.161,5.086,8.198,-8.423,-7.566,-1.79,1.659,126.5,134.4,120.7,128.9,131.8,133.5,129.6,126.7,122.1,123.6,0,norm,1.445,1.75,-1.906,-1.352,-4.44,-4.438,-1.364,-1.703,-2.036,-1.745,1.232,-1.125,126.6,127.6,-4.95,-7.652,1.157,-2.019,8.382,4.369,-4.518,-8.254,15,4.606,4.808,4.595,4.881,1.433,1.994,1.218,1.656,15,5.135,4.877,30,15.3068183673,norm,0,52,52,52,354.225,354.243,354.257152766,354.257,354.261,354.265,down,1,0.848090930467,9.15190906953,001,325,1920_1200,Intel(R) Core(TM) i5-3570 CPU @ 3.40GHz,orientation_search,LEPPC096,Intel(R) HD Graphics 2500,2018_Dec_21_1524,testMonitor,
314.5,314.1,324.5,298.5,36,40,322.7,315.2,316.3,316.2,7.903,7.674,7.904,8.266,8.221,7.552,8.013,4.845,-5.257,-7.921,1.527,-1.174,8.301,5.287,-4.644,-8.043,335.7,329.2,-8.42,317.2,306.7,300.4,,302.9,36,307.2,5,5,prime,10,0,72,norm,36,-5.088,down,norm,315.698934409,309.2,315.5,322.7,308.2,2,320.3,303.5,304.1,10,5,8.119,4.973,1.651,-1.354,-4.832,-8.481,328.1,5,387.7,-8.32,-8.37,40,-8.312,-8.179,-5.191,-4.541,-4.885,-4.623,4.75,8.329,32,-1.356,1.22,4.488,8.487,-7.594,-7.782,-1.873,1.755,300.2,313.8,318.3,295.7,312.4,328.4,306.9,322.3,312.5,319.3,0,norm,1.466,2.008,-1.644,-1.149,-5.017,-4.418,-1.849,-1.788,-1.75,-1.884,1.338,-1.633,317.5,311.7,-5.145,-8.274,1.254,-1.253,7.809,4.839,-4.538,-8.406,16,4.753,4.838,4.971,5.119,1.118,1.984,1.508,1.445,16,4.972,5.093,0,15.3068183673,norm,0,53,53,53,355.146,355.155,355.172168361,355.172,355.174,355.177,down,1,0.889355676769,9.11064432323,001,325,1920_1200,Intel(R) Core(TM) i5-3570 CPU @ 3.40GHz,orientation_search,LEPPC096,Intel(R) HD Graphics 2500,2018_Dec_21_1524,testMonitor,
315.4,306.1,301.5,315.1,36,40,324.6,335.7,316.1,301.9,8.316,8.113,7.931,7.755,8.036,8.08,8.227,5.07,-5.284,-8.064,1.162,-1.67,7.887,4.387,-4.481,-8.49,310.6,323.7,-8.248,310.2,295.7,314.9,315.5,303.8,36,,4,5,prime,10,0,74,norm,36,-4.637,up,norm,315.698934409,322.4,322.6,314.5,308.4,3,308.3,321.7,310.0,10,5,7.507,4.571,2.077,-1.288,-5.023,-7.897,316.6,5,389.7,-7.669,-7.971,40,-8.315,-7.654,-4.904,-4.341,-5.242,-4.729,5.116,7.688,27,-1.927,1.277,5.206,8.488,-8.183,-8.079,-1.921,1.782,301.6,319.3,324.3,315.0,330.1,324.3,304.0,308.8,302.6,323.9,1,norm,1.94,1.936,-1.302,-1.446,-4.469,-5.024,-1.695,-1.892,-1.884,-1.261,1.904,-1.509,330.5,316.5,-5.287,-8.092,1.282,-1.955,7.851,4.523,-4.93,-7.526,16,5.183,4.846,4.765,4.741,1.315,1.773,2.065,1.895,16,4.904,4.377,0,15.3068183673,norm,0,54,54,54,356.109,356.118,356.124744148,356.125,356.127,356.129,up,1,0.877177402974,9.12282259703,001,325,1920_1200,Intel(R) Core(TM) i5-3570 CPU @ 3.40GHz,orientation_search,LEPPC096,Intel(R) HD Graphics 2500,2018_Dec_21_1524,testMonitor,
319.7,323.7,302.0,331.2,36,40,323.6,329.1,323.3,321.8,7.741,8.139,7.853,7.874,8.003,8.224,8.087,4.437,-4.76,-8.413,1.599,-1.754,7.874,4.693,-4.787,-8.339,324.7,312.9,-7.765,323.1,295.7,311.1,318.4,315.0,36,310.7,0,5,prime,10,0,102,norm,36,-4.976,up,norm,315.698934409,317.4,325.3,301.1,321.4,4,309.8,325.8,317.7,10,5,8.46,4.498,1.219,-1.461,-4.942,-7.83,320.3,5,417.7,-7.689,-8.322,40,-8.236,-7.768,-4.659,-4.421,-5.285,-4.633,4.858,8.281,4,-1.307,1.802,5.015,7.879,-8.131,-8.438,-1.935,1.908,316.7,299.0,299.1,302.3,321.4,309.0,303.9,327.1,335.7,,2,norm,1.262,1.636,-1.987,-1.775,-4.951,-4.928,-1.179,-1.177,-1.224,-1.26,1.8,-1.8,330.6,312.6,-5.07,-7.605,1.624,-1.878,8.05,4.69,-5.295,-8.067,16,5.078,4.403,4.684,4.989,1.658,1.898,2.096,1.251,16,5.145,4.716,0,15.3068183673,norm,0,55,55,55,357.045,357.054,357.06065774,357.061,357.063,357.065,up,1,0.73632162765,9.26367837235,001,325,1920_1200,Intel(R) Core(TM) i5-3570 CPU @ 3.40GHz,orientation_search,LEPPC096,Intel(R) HD Graphics 2500,2018_Dec_21_1524,testMonitor,
312.0,312.7,311.8,299.7,36,40,306.2,317.2,318.4,308.3,7.992,8.356,8.345,8.065,8.013,8.21,7.643,5.121,-4.367,-8.011,1.917,-1.689,8.205,4.902,-4.573,-7.927,320.9,320.3,-8.494,313.3,317.5,322.5,335.7,316.3,36,314.7,2,5,prime,10,0,103,norm,36,-4.849,down,norm,315.698934409,318.0,322.1,306.1,312.0,1,313.8,,325.5,10,5,7.916,4.618,1.838,-1.6,-5.249,-7.665,304.0,5,418.7,-7.764,-8.257,40,-7.79,-7.649,-4.81,-5.178,-4.32,-4.861,5.036,7.945,13,-1.68,1.522,4.763,8.107,-8.153,-8.35,-1.845,1.155,314.7,321.3,318.2,310.0,316.7,320.9,295.7,301.1,313.3,318.9,3,norm,1.781,1.919,-1.877,-1.654,-5.017,-4.992,-1.549,-2.07,-1.429,-1.616,1.869,-1.13,313.8,303.3,-4.419,-7.595,1.824,-1.973,7.909,4.996,-5.135,-7.62,16,4.347,4.432,4.788,4.794,2.092,1.279,2.066,1.167,16,5.163,5.014,0,15.3068183673,norm,0,56,56,56,357.834,357.844,357.855142956,357.855,357.857,357.86,down,1,0.807155196173,9.19284480383,001,325,1920_1200,Intel(R) Core(TM) i5-3570 CPU @ 3.40GHz,orientation_search,LEPPC096,Intel(R) HD Graphics 2500,2018_Dec_21_1524,testMonitor,
311.8,305.1,314.8,304.2,36,40,310.0,335.7,331.2,322.4,7.858,8.375,7.578,8.046,8.328,8.252,8.475,4.504,-5.27,-8.37,1.345,-1.3,8.262,4.731,-4.544,-8.331,313.3,334.4,-7.678,323.3,311.8,295.7,305.0,320.4,36,314.0,2,5,prime,10,0,77,norm,36,-5.037,down,norm,315.698934409,315.1,313.2,328.6,,2,316.4,310.5,326.6,10,5,8.412,5.035,1.558,-1.805,-4.975,-8.467,328.3,5,392.7,-8.352,-7.601,40,-8.337,-8.249,-4.399,-4.878,-4.624,-4.912,4.391,8.008,14,-1.439,1.501,4.547,7.589,-7.784,-8.396,-1.917,1.36,316.1,325.5,305.8,314.0,322.3,320.6,318.4,297.4,311.7,319.6,4,norm,1.264,1.992,-1.419,-2.038,-5.289,-4.747,-1.531,-1.977,-1.681,-1.599,1.309,-1.16,322.6,311.7,-4.502,-7.959,1.523,-2.084,8.085,4.667,-5.18,-7.796,16,4.763,4.634,4.336,5.13,1.911,1.485,2.016,1.515,16,4.592,4.326,0,15.3068183673,norm,0,57,57,57,358.684,358.693,358.699700176,358.7,358.702,358.704,down,1,1.15172735832,8.84827264168,001,325,1920_1200,Intel(R) Core(TM) i5-3570 CPU @ 3.40GHz,orientation_search,LEPPC096,Intel(R) HD Graphics 2500,2018_Dec_21_1524,testMonitor,
448.3,449.5,442.5,434.1,36,-40,442.8,450.8,445.9,446.0,7.903,7.735,7.638,7.958,8.198,8.173,8.362,4.662,-4.776,-8.014,1.505,-1.752,8.436,4.353,-4.383,-8.033,446.7,451.9,-7.832,435.8,442.8,440.7,444.7,434.8,36,443.2,0,5,probe,5,0,84,norm,36,-4.74,down,norm,444.106610094,444.2,438.8,437.4,443.0,1,446.3,434.2,452.2,10,5,8.359,4.937,1.301,-1.269,-4.993,-7.679,446.1,1,360.1,-7.888,-8.068,40,-8.314,-8.449,-4.361,-4.367,-4.953,-4.385,4.921,8.082,1,-1.52,1.695,4.847,8.238,-7.56,-8.182,-1.902,1.794,443.5,439.5,444.5,440.5,,445.0,454.1,450.1,446.9,445.0,0,norm,2.015,1.83,-1.453,-1.868,-4.902,-5.26,-1.611,-1.695,-1.658,-1.294,1.143,-1.17,449.8,443.9,-5.058,-8.412,1.379,-1.526,7.751,4.539,-5.279,-8.159,17,5.072,4.58,5.092,4.829,1.594,1.4,1.583,1.185,17,5.016,5.245,40,315.698934409,norm,0,58,58,58,359.888,359.897,359.914411903,359.915,359.916,359.919,down,1,1.16092279114,8.83907720886,001,325,1920_1200,Intel(R) Core(TM) i5-3570 CPU @ 3.40GHz,orientation_search,LEPPC096,Intel(R) HD Graphics 2500,2018_Dec_21_1524,testMonitor,
235.9,236.1,238.6,242.1,36,10,226.3,243.0,231.3,242.5,8.242,8.151,7.916,7.872,8.238,8.417,8.114,4.413,-4.43,-7.571,1.78,-1.505,7.824,5.049,-4.812,-8.121,228.0,236.2,-7.914,219.4,233.6,226.0,240.3,241.2,36,243.3,1,5,prime,10,0,63,norm,36,-5.276,up,norm,239.442109798,229.8,249.8,237.4,239.3,3,248.8,227.2,236.6,10,5,8.215,4.693,1.736,-1.162,-4.358,-8.011,242.7,5,302.4,-8.063,-8.373,10,-8.305,-8.467,-4.967,-4.561,-5.232,-5.187,4.422,8.309,9,-1.712,1.774,5.215,7.934,-8.029,-7.645,-1.804,1.235,,236.9,250.4,244.7,245.0,240.3,230.3,254.6,230.6,247.3,0,norm,1.717,1.353,-1.954,-1.856,-5.237,-4.5,-1.346,-2.061,-1.427,-1.566,1.676,-1.64,255.2,246.3,-5.261,-7.65,1.128,-1.97,8.173,5.035,-4.318,-7.952,18,5.258,5.261,5.252,5.002,1.379,1.43,1.729,1.869,18,5.134,4.765,-40,315.698934409,norm,0,59,59,59,361.113,378.556,378.57125238,378.571,378.573,378.576,up,1,0.924152469597,9.0758475304,001,325,1920_1200,Intel(R) Core(TM) i5-3570 CPU @ 3.40GHz,orientation_search,LEPPC096,Intel(R) HD Graphics 2500,2018_Dec_21_1524,testMonitor,
241.6,249.6,229.1,252.9,36,10,243.0,234.5,254.5,236.2,8.23,8.035,8.134,8.028,7.656,7.814,7.831,4.33,-4.884,-7.682,1.494,-1.657,8.302,4.311,-5.227,-8.381,252.3,242.7,-8.495,229.1,246.1,247.4,235.7,225.9,36,227.4,1,5,prime,10,0,81,norm,36,-5.055,up,norm,239.442109798,232.2,249.8,240.6,240.3,4,244.1,227.5,219.4,10,5,7.683,4.692,1.721,-1.615,-4.535,-8.382,,5,320.4,-7.834,-7.51,10,-7.747,-8.285,-5.133,-4.342,-4.825,-4.677,4.338,7.779,10,-1.174,1.958,5.088,8.271,-7.693,-7.654,-1.926,1.28,245.6,233.2,234.6,238.1,238.5,238.0,243.1,240.3,259.4,233.8,1,norm,1.374,1.565,-1.151,-1.807,-4.87,-4.468,-1.313,-1.641,-1.525,-2.059,1.997,-1.231,247.1,229.5,-5.124,-8.081,1.523,-1.586,7.512,5.06,-4.412,-8.155,18,4.596,4.346,4.783,4.383,1.607,1.318,1.366,1.505,18,4.326,4.871,-40,315.698934409,norm,0,60,60,60,379.539,379.548,379.554838605,379.555,379.557,379.559,up,1,0.705159662884,9.29484033712,001,325,1920_1200,Intel(R) Core(TM) i5-3570 CPU @ 3.40GHz,orientation_search,LEPPC096,Intel(R) HD Graphics 2500,2018_Dec_21_1524,testMonitor,
234.7,231.1,226.7,219.4,36,10,221.3,237.6,249.3,241.7,7.814,7.64,8.107,7.659,7.886,8.022,7.855,4.804,-4.569,-7.713,1.791,-1.741,8.395,5.053,-4.388,-7.766,227.8,229.0,-8.383,254.5,232.4,246.4,241.5,231.9,36,246.2,0,5,prime,10,0,93,norm,36,-4.577,up,norm,239.442109798,246.6,233.1,244.4,241.5,5,235.8,236.3,242.9,10,5,7.754,4.685,1.132,-2.065,-4.668,-7.61,230.7,5,332.4,-7.977,-8.178,10,-8.284,-8.106,-5.292,-4.371,-4.414,-5.066,4.802,7.69,5,-1.305,1.324,4.744,8.274,-8.434,-8.313,-1.516,1.509,251.3,229.0,248.0,236.6,237.4,220.1,231.0,247.6,,230.8,2,norm,2.002,1.647,-2.072,-1.429,-4.526,-4.684,-1.375,-1.781,-1.525,-1.525,1.458,-1.491,245.1,237.8,-4.574,-7.982,1.596,-1.535,7.696,5.013,-4.532,-7.92,18,4.805,4.426,4.793,4.412,1.124,1.607,1.676,1.345,18,4.722,4.621,-40,315.698934409,norm,0,61,61,61,380.303,380.317,380.335853344,380.336,380.339,380.344,up,1,0.636222592017,9.36377740798,001,325,1920_1200,Intel(R) Core(TM) i5-3570 CPU @ 3.40GHz,orientation_search,LEPPC096,Intel(R) HD Graphics 2500,2018_Dec_21_1524,testMonitor,
256.3,241.8,236.5,231.5,36,10,254.8,232.7,238.8,237.2,8.186,7.502,8.222,7.623,8.102,7.877,7.62,4.55,-4.822,-7.715,1.394,-1.334,7.671,4.92,-4.372,-7.581,,247.2,-7.882,219.4,221.4,241.7,230.8,222.9,36,241.9,5,5,prime,10,0,67,norm,36,-4.497,up,norm,239.442109798,239.6,225.1,231.7,239.3,5,232.0,243.0,220.5,10,5,8.216,5.193,1.489,-1.474,-4.363,-7.625,235.4,5,306.4,-7.773,-7.64,10,-7.871,-7.589,-4.834,-5.187,-4.599,-4.512,4.336,7.948,35,-1.314,1.955,5.262,8.418,-7.588,-8.327,-1.594,1.642,234.7,240.5,233.4,245.5,249.7,259.3,226.6,224.2,255.1,252.3,3,norm,2.006,2.004,-1.59,-1.445,-5.049,-5.139,-1.854,-1.663,-1.324,-1.369,1.266,-1.781,245.0,259.4,-5.152,-8.331,1.853,-1.87,7.785,4.486,-5.271,-8.303,18,4.725,4.791,4.957,5.144,1.522,1.517,2.059,1.338,18,4.687,5.029,-40,315.698934409,norm,0,62,62,62,381.021,381.041,381.053425513,381.054,381.056,381.058,up,1,0.587187427274,9.41281257273,001,325,1920_1200,Intel(R) Core(TM) i5-3570 CPU @ 3.40GHz,orientation_search,LEPPC096,Intel(R) HD Graphics 2500,2018_Dec_21_1524,testMonitor,
253.5,239.4,258.3,247.7,36,10,239.9,221.2,243.5,236.8,7.74,8.001,7.518,7.837,7.879,7.976,8.158,4.493,-5.096,-8.401,1.535,-1.246,8.048,4.904,-4.673,-8.203,237.0,252.0,-8.135,238.9,234.6,239.8,230.9,239.0,36,259.4,2,5,prime,10,0,102,norm,36,-4.723,down,norm,239.442109798,238.4,219.4,230.9,239.7,1,227.1,,247.1,10,5,7.702,4.658,1.297,-1.897,-4.46,-8.421,239.0,5,341.4,-7.795,-8.308,10,-8.081,-8.494,-4.989,-5.089,-4.544,-4.333,4.874,8.276,13,-1.81,1.142,4.515,8.404,-7.901,-7.9,-1.485,1.234,251.4,240.3,253.6,232.5,248.3,245.4,246.8,249.4,230.0,248.0,4,norm,1.97,1.573,-1.71,-1.812,-4.662,-5.261,-1.402,-1.736,-1.601,-1.548,1.672,-2.089,237.5,237.0,-5.186,-7.838,2.1,-1.167,8.148,4.387,-5.205,-7.774,18,4.718,5.192,4.945,4.313,1.797,1.286,1.83,1.266,18,5.106,4.986,-40,315.698934409,norm,0,63,63,63,381.662,381.671,381.690889597,381.691,381.693,381.695,down,1,0.622096808613,9.37790319139,001,325,1920_1200,Intel(R) Core(TM) i5-3570 CPU @ 3.40GHz,orientation_search,LEPPC096,Intel(R) HD Graphics 2500,2018_Dec_21_1524,testMonitor,
341.5,335.7,347.6,,36,0,342.7,337.3,335.3,352.8,7.692,7.515,8.355,7.948,7.653,8.322,8.311,5.108,-4.716,-7.836,1.657,-1.371,8.398,4.964,-4.507,-8.298,339.1,345.3,-8.163,351.7,341.0,342.0,338.1,353.5,36,344.8,3,5,probe,5,0,99,norm,36,-4.39,up,norm,345.306347963,340.8,344.1,345.4,355.3,3,346.3,341.0,347.2,10,5,8.22,5.186,1.753,-1.805,-4.975,-7.606,349.6,1,246.3,-7.885,-7.653,10,-8.378,-7.829,-5.07,-4.47,-4.396,-4.551,4.66,7.801,21,-1.963,1.322,4.82,8.151,-7.957,-7.623,-1.68,2.099,345.0,349.5,338.9,340.6,354.1,343.5,339.2,352.8,354.9,348.3,0,norm,1.287,2.074,-2.048,-1.131,-4.946,-5.134,-1.565,-1.45,-1.822,-1.48,1.35,-1.415,346.6,336.6,-4.577,-7.822,1.943,-1.412,8.497,5.101,-4.536,-8.489,19,4.461,4.886,4.989,5.063,1.5,1.812,1.97,2.079,19,5.162,4.314,10,239.442109798,norm,0,64,64,64,382.35,382.36,382.377242149,382.377,382.379,382.382,up,1,1.04475800865,8.95524199135,001,325,1920_1200,Intel(R) Core(TM) i5-3570 CPU @ 3.40GHz,orientation_search,LEPPC096,Intel(R) HD Graphics 2500,2018_Dec_21_1524,testMonitor,
82.3,100.1,87.2,92.9,36,80,104.4,87.9,82.5,93.3,8.076,8.286,8.36,7.617,8.276,8.068,7.505,4.33,-5.028,-8.428,1.499,-1.492,7.714,4.462,-4.849,-8.39,80.3,101.7,-7.854,83.0,88.9,101.1,86.0,95.2,36,107.3,0,5,prime,10,0,64,norm,36,-4.364,up,norm,87.2653117132,89.8,87.7,101.4,103.8,4,84.1,67.3,104.0,10,5,7.663,4.339,1.452,-1.228,-4.644,-8.172,91.2,5,151.3,-7.524,-8.462,80,-7.718,-8.242,-4.472,-4.708,-4.649,-4.759,5.162,8.304,4,-1.637,1.755,4.338,8.319,-8.111,-7.536,-1.848,1.995,81.6,75.3,82.9,92.2,85.1,90.7,77.3,102.5,93.5,,0,norm,1.136,1.216,-1.224,-2.036,-5.286,-4.686,-1.755,-1.227,-1.842,-1.214,1.589,-1.755,90.9,75.1,-5.071,-8.063,1.193,-1.715,7.517,4.927,-5.078,-7.641,20,4.419,4.913,4.849,4.402,1.768,1.545,1.506,1.19,20,4.471,4.715,0,239.442109798,norm,0,65,65,65,383.47,383.479,383.486871666,383.487,383.489,383.491,down,0,1.23242072244,-10,001,325,1920_1200,Intel(R) Core(TM) i5-3570 CPU @ 3.40GHz,orientation_search,LEPPC096,Intel(R) HD Graphics 2500,2018_Dec_21_1524,testMonitor,
95.2,98.6,91.0,75.7,36,80,90.6,67.3,82.8,92.3,8.022,7.675,8.293,7.705,7.986,8.367,7.839,4.803,-4.438,-7.744,1.521,-1.903,7.732,5.25,-4.859,-8.325,82.5,95.7,-8.219,86.3,89.6,86.8,,81.5,36,92.2,5,5,prime,10,0,93,norm,36,-5.106,down,norm,87.2653117132,88.6,89.4,103.4,105.3,2,83.0,70.2,83.7,10,5,8.192,4.632,1.463,-1.348,-5.034,-7.691,72.5,5,180.3,-7.891,-8.449,80,-7.771,-7.977,-4.757,-4.682,-4.997,-4.626,5.298,8.356,32,-1.68,2.005,4.783,8.127,-8.288,-8.11,-1.987,1.267,76.4,91.8,93.9,98.1,102.3,107.3,81.4,83.3,80.1,79.8,1,norm,1.375,1.354,-1.948,-2.029,-4.586,-5.179,-1.343,-1.159,-2.038,-1.986,1.514,-1.822,81.2,84.9,-5.005,-8.186,2.005,-1.226,8.224,5.085,-4.857,-7.917,20,4.719,5.151,5.018,5.261,1.352,1.843,1.109,1.427,20,5.072,4.596,0,239.442109798,norm,0,66,66,66,385.798,385.808,385.824751905,385.825,385.827,385.829,down,1,1.34732167625,8.65267832375,001,325,1920_1200,Intel(R) Core(TM) i5-3570 CPU @ 3.40GHz,orientation_search,LEPPC096,Intel(R) HD Graphics 2500,2018_Dec_21_1524,testMonitor,
75.1,77.1,101.5,97.2,36,80,95.2,72.1,67.3,87.7,8.277,8.011,8.089,8.212,8.051,7.62,8.138,4.97,-4.875,-8.155,1.949,-1.331,8.417,5.215,-4.945,-8.164,83.7,77.7,-7.786,88.0,107.3,80.5,92.6,,36,84.8,4,5,prime,10,0,117,norm,36,-5.256,down,norm,87.2653117132,73.1,76.7,99.5,84.3,2,79.5,90.0,84.1,10,5,7.585,4.784,1.665,-1.604,-4.349,-8.148,100.8,5,204.3,-8.132,-7.852,80,-7.66,-7.666,-4.805,-4.35,-4.673,-4.886,4.929,7.638,26,-1.709,1.703,4.34,8.203,-7.964,-7.84,-1.718,2.02,94.3,80.0,71.7,85.7,77.3,83.1,93.5,88.0,102.2,91.2,2,norm,1.261,1.716,-1.161,-1.644,-4.393,-4.825,-1.638,-1.75,-1.721,-1.971,1.987,-1.442,96.1,79.6,-5.08,-8.4,1.854,-1.609,7.952,4.318,-4.531,-7.939,20,5.054,4.759,4.477,5.118,1.484,1.863,1.617,1.217,20,4.431,4.408,0,239.442109798,norm,0,67,67,67,387.21,387.221,387.225743288,387.226,387.228,387.23,down,1,1.75706990962,8.24293009038,001,325,1920_1200,Intel(R) Core(TM) i5-3570 CPU @ 3.40GHz,orientation_search,LEPPC096,Intel(R) HD Graphics 2500,2018_Dec_21_1524,testMonitor,
76.8,93.5,67.3,86.2,36,80,92.0,77.9,77.2,102.6,7.523,8.208,8.158,8.086,7.787,8.025,7.762,4.777,-4.847,-7.871,2.036,-1.987,7.731,4.663,-5.212,-7.923,83.7,96.3,-8.219,84.4,92.2,91.6,107.3,103.3,36,90.5,1,5,prime,10,0,119,norm,36,-4.917,up,norm,87.2653117132,100.5,79.4,73.7,77.9,5,,97.6,78.3,10,5,7.59,5.286,2.018,-1.461,-4.354,-7.969,91.1,5,206.3,-7.991,-8.175,80,-7.938,-7.951,-5.105,-5.206,-5.293,-4.963,4.597,7.575,11,-1.958,1.236,4.961,7.646,-7.897,-7.828,-2.073,1.246,85.1,103.7,79.6,92.8,76.3,89.5,89.8,97.0,76.5,71.6,3,norm,1.359,1.15,-1.78,-1.842,-5.201,-4.5,-1.899,-1.664,-1.828,-1.774,1.692,-1.598,89.4,100.3,-4.317,-8.335,1.656,-1.108,8.208,5.094,-4.856,-8.129,20,4.363,4.345,4.354,4.448,1.244,1.646,1.623,1.777,20,4.399,4.588,0,239.442109798,norm,0,68,68,68,389.023,389.032,389.039167521,389.039,389.041,389.044,up,1,0.603426131824,9.39657386818,001,325,1920_1200,Intel(R) Core(TM) i5-3570 CPU @ 3.40GHz,orientation_search,LEPPC096,Intel(R) HD Graphics 2500,2018_Dec_21_1524,testMonitor,
67.3,95.1,101.4,83.7,36,80,83.6,93.3,82.8,82.0,8.152,7.856,8.296,7.973,7.795,8.029,8.088,5.118,-4.781,-8.185,1.665,-1.567,7.742,4.816,-5.237,-7.83,85.8,82.4,-7.587,87.4,73.2,94.5,82.4,83.9,36,85.3,0,5,prime,10,0,116,norm,36,-4.893,down,norm,87.2653117132,76.6,101.0,93.3,107.3,0,89.6,93.1,82.2,10,5,8.388,5.023,1.495,-1.32,-5.034,-8.283,88.3,5,203.3,-7.539,-7.866,80,-7.902,-7.818,-4.346,-4.926,-5.257,-5.051,4.6,8.169,0,-1.511,1.917,4.843,7.552,-7.614,-8.035,-1.176,1.717,95.0,91.7,85.3,94.3,100.7,,75.3,90.7,79.5,93.9,4,norm,1.658,1.831,-1.483,-1.195,-4.79,-4.918,-1.92,-1.929,-1.347,-1.515,1.552,-1.259,76.5,84.1,-5.158,-8.45,1.162,-2.067,8.052,4.906,-4.645,-7.732,20,4.388,4.724,4.603,4.902,1.428,1.508,1.13,2.025,20,5.004,5.24,0,239.442109798,norm,0,69,69,69,389.664,389.673,389.679693228,389.68,389.682,389.684,down,1,0.72258733835,9.27741266165,001,325,1920_1200,Intel(R) Core(TM) i5-3570 CPU @ 3.40GHz,orientation_search,LEPPC096,Intel(R) HD Graphics 2500,2018_Dec_21_1524,testMonitor,
250.5,241.5,246.5,241.7,36,20,241.5,245.5,245.7,245.0,7.999,7.767,8.086,7.703,7.582,7.69,8.056,4.943,-5.261,-7.654,1.389,-1.409,7.656,4.774,-5.178,-8.482,245.7,236.0,-7.815,245.2,,243.5,246.9,238.3,36,248.2,5,5,probe,5,0,75,norm,36,-4.942,down,norm,242.872437573,241.5,239.6,247.9,243.7,0,252.9,246.2,243.3,10,5,7.752,5.069,1.655,-2.014,-4.845,-7.86,247.1,1,167.9,-7.543,-7.99,80,-8.347,-8.373,-5.135,-4.631,-5.115,-4.711,5.201,8.168,30,-1.925,1.95,4.487,8.468,-8.423,-8.309,-1.714,1.765,239.9,232.9,245.0,235.3,241.7,238.0,241.9,245.5,244.4,244.1,0,norm,1.724,1.374,-1.634,-1.364,-4.824,-4.342,-1.568,-1.457,-1.21,-1.224,1.181,-1.752,245.6,235.7,-4.835,-7.837,1.768,-1.185,7.814,4.884,-5.261,-7.895,21,5.115,4.689,4.942,4.93,1.609,1.824,1.135,1.139,21,5.234,4.653,80,87.2653117132,norm,0,70,70,70,390.427,390.437,390.443090733,390.443,390.445,390.447,down,1,0.740340705517,9.25965929448,001,325,1920_1200,Intel(R) Core(TM) i5-3570 CPU @ 3.40GHz,orientation_search,LEPPC096,Intel(R) HD Graphics 2500,2018_Dec_21_1524,testMonitor,
304.9,310.1,308.9,328.8,36,-10,315.1,309.8,325.1,298.0,7.639,8.467,7.626,8.405,7.696,8.143,7.714,4.471,-5.028,-8.269,1.956,-1.503,8.153,4.78,-5.228,-8.135,310.4,299.3,-7.701,297.2,322.3,301.7,309.3,296.1,36,310.3,2,5,prime,10,0,100,norm,36,-4.48,down,norm,310.926387162,311.0,293.4,304.9,325.7,1,312.1,,330.9,10,6,8.106,4.561,1.389,-1.112,-4.878,-8.33,311.8,6,410.9,-7.849,-8.238,-10,-8.275,-8.237,-4.887,-4.664,-4.621,-4.437,4.343,8.123,13,-1.397,1.797,5.141,8.079,-8.067,-8.387,-1.502,1.327,302.5,307.8,304.9,310.5,298.3,304.3,305.9,293.5,318.9,301.7,0,norm,2.013,1.532,-2.005,-1.448,-4.716,-4.533,-1.876,-1.488,-1.895,-1.146,1.157,-1.664,321.5,290.9,-5.236,-8.075,1.275,-1.494,8.339,4.306,-4.733,-8.332,22,4.753,5.254,5.219,5.128,1.841,1.473,1.404,1.317,22,4.943,4.681,20,87.2653117132,norm,0,71,71,71,391.219,391.228,391.237601303,391.238,391.24,391.242,down,1,0.890223181825,9.10977681818,001,325,1920_1200,Intel(R) Core(TM) i5-3570 CPU @ 3.40GHz,orientation_search,LEPPC096,Intel(R) HD Graphics 2500,2018_Dec_21_1524,testMonitor,
307.6,311.4,309.5,306.3,36,-10,301.9,322.4,320.5,322.7,7.778,7.529,7.916,8.02,8.407,7.816,8.103,4.989,-4.438,-7.764,1.892,-1.895,8.305,4.801,-4.852,-8.235,319.8,318.5,-8.383,311.1,300.5,314.3,309.9,322.9,36,312.6,1,5,prime,10,0,118,norm,36,-4.857,up,norm,310.926387162,316.7,300.0,308.9,313.6,5,,313.9,303.8,10,6,7.926,4.986,1.144,-1.751,-4.405,-8.012,304.0,6,428.9,-8.485,-8.438,-10,-8.445,-8.27,-5.221,-5.199,-5.278,-4.901,4.671,8.017,11,-1.921,2.014,5.257,8.288,-8.089,-7.942,-1.858,1.359,309.8,319.5,303.4,316.6,305.6,330.9,315.5,326.7,290.9,317.5,1,norm,1.109,1.134,-1.898,-1.123,-4.93,-4.651,-1.723,-1.909,-1.83,-1.393,1.604,-1.653,299.4,300.2,-4.346,-8.312,1.942,-1.609,8.18,4.511,-4.979,-7.62,22,4.745,4.874,4.796,4.824,1.306,1.429,1.508,1.832,22,4.317,4.859,20,87.2653117132,norm,0,72,72,72,392.174,392.183,392.190233535,392.19,392.192,392.195,up,1,0.809655989269,9.19034401073,001,325,1920_1200,Intel(R) Core(TM) i5-3570 CPU @ 3.40GHz,orientation_search,LEPPC096,Intel(R) HD Graphics 2500,2018_Dec_21_1524,testMonitor,
323.7,304.9,311.3,293.3,36,-10,316.6,299.7,320.0,330.9,8.34,7.918,7.658,8.417,7.508,7.897,7.946,4.521,-4.419,-7.758,1.103,-1.662,8.187,4.593,-4.359,-8.214,323.4,290.9,-8.395,315.4,305.7,305.0,299.6,318.1,36,312.7,2,5,prime,10,0,89,norm,36,-4.81,down,norm,310.926387162,304.0,312.3,317.7,327.0,0,306.7,298.8,,10,6,8.177,4.628,1.525,-1.206,-4.401,-7.708,310.9,6,399.9,-7.952,-7.916,-10,-7.824,-8.474,-5.13,-4.751,-5.26,-4.478,4.675,8.229,12,-1.603,1.806,4.374,7.649,-8.189,-7.746,-1.989,1.698,298.0,308.0,307.2,307.4,309.1,313.7,324.1,291.4,330.8,307.6,2,norm,1.224,1.399,-1.427,-1.747,-4.885,-4.813,-1.146,-1.761,-1.94,-1.608,1.663,-1.484,311.9,311.6,-5.181,-8.176,1.306,-1.844,8.412,4.837,-4.609,-7.839,22,5.131,5.283,4.739,4.754,1.258,1.239,1.729,1.828,22,5.198,4.978,20,87.2653117132,norm,0,73,73,73,393.036,393.046,393.062805072,393.063,393.065,393.067,down,1,0.622896096502,9.3771039035,001,325,1920_1200,Intel(R) Core(TM) i5-3570 CPU @ 3.40GHz,orientation_search,LEPPC096,Intel(R) HD Graphics 2500,2018_Dec_21_1524,testMonitor,
,302.8,301.7,330.9,36,-10,316.7,303.3,301.1,319.4,7.765,7.839,8.216,8.108,7.975,7.577,8.372,4.805,-4.778,-8.215,1.688,-1.601,8.084,4.733,-4.793,-7.784,304.6,316.7,-7.82,308.3,293.5,299.9,330.2,305.3,36,320.5,3,5,prime,10,0,79,norm,36,-4.581,up,norm,310.926387162,316.8,303.7,314.2,292.5,4,312.0,310.4,324.1,10,6,8.337,4.753,1.94,-1.888,-4.537,-8.202,322.4,6,389.9,-7.954,-7.721,-10,-8.105,-8.056,-5.086,-5.009,-4.916,-4.721,4.573,8.218,22,-2.027,1.66,5.216,8.171,-8.434,-7.658,-1.249,1.297,290.9,307.8,321.4,316.2,317.1,317.9,321.3,303.1,329.6,317.5,3,norm,1.413,2.0,-1.643,-1.696,-4.861,-5.194,-2.005,-1.401,-1.279,-1.349,1.101,-2.051,298.6,322.0,-4.818,-7.502,1.965,-1.275,7.671,4.835,-4.958,-8.002,22,4.347,4.503,4.774,4.917,2.083,2.095,1.749,1.212,22,4.726,5.247,20,87.2653117132,norm,0,74,74,74,393.723,393.732,393.749099971,393.749,393.751,393.754,up,1,0.672672594719,9.32732740528,001,325,1920_1200,Intel(R) Core(TM) i5-3570 CPU @ 3.40GHz,orientation_search,LEPPC096,Intel(R) HD Graphics 2500,2018_Dec_21_1524,testMonitor,
314.5,326.4,,299.2,36,-10,301.4,322.2,313.5,319.1,8.301,7.976,7.966,7.576,7.902,7.96,8.2,5.04,-4.827,-8.069,1.927,-1.223,8.104,5.019,-4.493,-7.644,295.1,313.2,-8.08,310.8,306.9,321.4,330.9,311.4,36,300.1,3,5,prime,10,0,82,norm,36,-5.105,down,norm,310.926387162,323.2,319.7,308.3,314.1,2,299.4,310.9,325.7,10,6,7.879,4.692,1.74,-1.382,-4.999,-7.507,302.6,6,392.9,-7.92,-8.442,-10,-7.552,-8.488,-4.884,-5.282,-4.917,-4.526,4.498,8.249,20,-1.887,1.999,4.423,8.469,-7.568,-8.378,-1.185,1.273,290.9,306.6,316.4,314.8,306.3,321.5,320.4,304.8,323.1,307.9,4,norm,1.273,1.821,-1.614,-1.422,-4.751,-4.567,-1.481,-1.829,-1.1,-2.028,1.521,-1.248,303.6,315.0,-5.136,-7.952,1.519,-1.629,7.72,5.168,-4.526,-8.033,22,4.504,5.1,4.408,5.094,2.065,1.435,1.228,1.829,22,4.865,4.691,20,87.2653117132,norm,0,75,75,75,394.46,394.471,394.497903529,394.498,394.5,394.502,down,1,0.723461785856,9.27653821414,001,325,1920_1200,Intel(R) Core(TM) i5-3570 CPU @ 3.40GHz,orientation_search,LEPPC096,Intel(R) HD Graphics 2500,2018_Dec_21_1524,testMonitor,
,303.3,308.7,314.8,36,-10,298.0,313.0,303.6,317.3,7.871,7.694,8.177,7.834,7.911,7.716,7.87,4.45,-4.406,-8.112,1.927,-1.413,7.794,4.631,-4.428,-7.761,298.3,305.0,-8.179,313.6,328.7,314.9,317.5,307.6,36,329.2,3,5,prime,10,0,97,norm,36,-5.002,up,norm,310.926387162,295.6,323.6,303.1,290.9,4,330.9,321.3,310.6,10,6,7.64,4.868,1.625,-1.667,-4.868,-7.653,306.9,6,407.9,-8.443,-8.008,-10,-7.593,-7.981,-4.869,-4.956,-5.095,-4.752,4.849,8.04,22,-1.136,2.034,4.347,7.826,-7.895,-8.141,-1.941,1.851,321.2,307.6,319.4,318.7,313.4,309.5,310.3,318.1,297.2,296.1,5,norm,1.246,1.636,-1.235,-1.608,-4.954,-4.53,-1.37,-1.243,-1.364,-1.657,2.005,-1.401,312.4,303.8,-4.523,-7.692,1.472,-2.004,7.76,4.837,-4.735,-7.812,22,5.165,4.424,5.217,4.535,1.225,1.127,1.818,2.091,22,5.265,4.498,20,87.2653117132,norm,0,76,76,76,395.259,395.269,395.277864525,395.278,395.28,395.283,up,1,0.537476127764,9.46252387224,001,325,1920_1200,Intel(R) Core(TM) i5-3570 CPU @ 3.40GHz,orientation_search,LEPPC096,Intel(R) HD Graphics 2500,2018_Dec_21_1524,testMonitor,
395.8,407.1,392.4,396.3,36,60,402.6,402.7,392.6,401.7,8.263,8.232,7.952,8.281,7.991,7.517,8.002,4.929,-5.007,-7.966,1.327,-2.093,8.231,4.613,-4.778,-7.526,401.2,398.9,-7.545,398.8,403.0,405.2,400.0,405.7,36,390.3,2,5,probe,5,0,97,norm,36,-4.558,up,norm,400.23726899,,408.0,398.1,406.1,5,400.8,400.4,407.5,10,6,8.384,5.163,1.733,-1.159,-4.633,-8.144,393.9,1,303.2,-8.423,-7.601,-10,-8.06,-7.607,-5.152,-4.393,-4.334,-4.304,4.318,8.118,17,-1.368,1.277,5.223,7.874,-7.882,-7.827,-1.164,1.335,390.2,392.2,396.5,399.1,406.1,402.9,404.0,396.8,404.6,406.3,0,norm,1.936,1.273,-1.299,-1.268,-4.809,-5.219,-1.879,-1.187,-1.581,-2.019,1.338,-2.018,410.2,404.7,-4.447,-8.272,1.49,-1.88,7.856,4.442,-5.221,-7.864,23,4.96,4.819,5.163,4.708,1.294,1.175,1.689,1.656,23,4.928,5.244,-10,310.926387162,norm,0,77,77,77,395.853,395.862,395.870502987,395.871,395.872,395.875,up,1,0.638760210313,9.36123978969,001,325,1920_1200,Intel(R) Core(TM) i5-3570 CPU @ 3.40GHz,orientation_search,LEPPC096,Intel(R) HD Graphics 2500,2018_Dec_21_1524,testMonitor,
100.6,117.3,117.7,111.4,36,20,102.7,110.5,113.6,87.4,7.552,7.943,7.605,7.959,8.141,8.369,8.002,4.736,-5.201,-7.64,2.072,-1.224,8.361,4.407,-4.626,-7.888,108.0,91.9,-8.174,96.2,106.4,101.5,108.3,95.3,36,127.4,2,5,prime,10,0,96,norm,36,-4.587,down,norm,107.394647946,109.6,106.8,116.7,113.8,0,113.5,97.5,,10,5,7.842,4.898,1.813,-1.464,-5.267,-8.394,109.8,5,203.4,-8.103,-8.47,20,-8.408,-8.376,-4.693,-5.196,-5.145,-5.045,5.265,8.235,12,-1.56,1.581,4.572,8.376,-7.606,-8.264,-1.14,1.185,115.2,110.1,100.2,114.6,98.0,102.5,101.6,106.7,104.5,90.9,0,norm,1.375,2.012,-1.142,-1.899,-5.266,-4.505,-1.435,-1.871,-1.548,-1.48,1.943,-1.729,93.2,96.4,-4.913,-8.089,1.186,-1.949,8.298,4.938,-4.342,-8.004,24,4.571,4.623,4.725,4.854,1.892,1.704,1.586,1.144,24,4.503,4.954,60,310.926387162,norm,0,78,78,78,396.546,396.556,396.572610686,396.573,396.574,396.577,down,1,0.822926341458,9.17707365854,001,325,1920_1200,Intel(R) Core(TM) i5-3570 CPU @ 3.40GHz,orientation_search,LEPPC096,Intel(R) HD Graphics 2500,2018_Dec_21_1524,testMonitor,
113.9,100.3,118.6,105.5,36,20,100.7,92.9,120.8,111.4,7.62,7.595,8.333,8.034,7.677,8.322,7.949,4.908,-4.504,-7.653,1.654,-1.49,7.869,5.293,-4.671,-7.671,110.6,110.9,-8.385,87.4,,104.4,108.5,122.6,36,114.8,5,5,prime,10,0,108,norm,36,-4.69,down,norm,107.394647946,117.9,96.1,101.8,101.5,0,127.4,97.2,113.4,10,5,8.216,5.009,1.288,-1.224,-4.457,-7.813,107.1,5,215.4,-7.53,-7.911,20,-7.927,-8.491,-4.565,-4.728,-4.326,-5.299,4.316,8.019,30,-1.562,1.925,4.34,8.346,-7.923,-7.891,-2.019,1.899,116.0,105.4,102.3,123.9,121.7,108.7,99.0,104.1,113.4,118.7,1,norm,1.86,1.366,-1.596,-2.014,-5.221,-4.626,-1.816,-1.739,-1.57,-1.344,1.672,-1.535,102.8,114.9,-4.476,-7.732,1.745,-1.87,8.336,5.108,-4.961,-7.679,24,5.265,5.067,4.366,4.472,1.375,1.359,1.27,1.319,24,4.931,4.623,60,310.926387162,norm,0,79,79,79,397.418,397.428,397.434513178,397.435,397.436,397.439,down,1,1.10905419915,8.89094580085,001,325,1920_1200,Intel(R) Core(TM) i5-3570 CPU @ 3.40GHz,orientation_search,LEPPC096,Intel(R) HD Graphics 2500,2018_Dec_21_1524,testMonitor,
97.7,107.0,96.5,127.4,36,20,118.0,,101.4,96.4,7.598,7.67,7.707,8.192,7.912,7.625,7.515,5.096,-4.794,-8.297,1.889,-1.337,7.85,4.429,-4.647,-8.141,117.7,105.1,-8.147,90.5,111.3,108.8,110.3,113.5,36,117.5,4,5,prime,10,0,79,norm,36,-4.477,down,norm,107.394647946,114.4,125.4,101.0,87.4,1,99.9,109.5,115.9,10,5,8.4,5.056,1.383,-1.566,-5.063,-8.323,119.1,5,186.4,-8.039,-8.387,20,-8.391,-8.357,-4.66,-4.924,-4.326,-4.615,4.881,8.111,25,-1.543,1.671,4.573,7.85,-8.122,-8.155,-1.964,1.868,112.2,91.2,109.5,103.7,115.8,95.8,101.2,102.1,115.6,106.5,2,norm,1.467,1.426,-1.69,-1.842,-5.296,-5.053,-1.275,-1.247,-1.288,-1.881,1.937,-1.136,106.7,99.0,-4.46,-7.732,1.155,-2.028,7.844,4.941,-4.405,-8.169,24,5.296,4.488,5.194,4.687,1.811,1.462,1.572,1.237,24,4.8,4.773,60,310.926387162,norm,0,80,80,80,398.585,398.595,398.602550779,398.603,398.604,398.607,down,1,0.924904367679,9.07509563232,001,325,1920_1200,Intel(R) Core(TM) i5-3570 CPU @ 3.40GHz,orientation_search,LEPPC096,Intel(R) HD Graphics 2500,2018_Dec_21_1524,testMonitor,
95.8,113.4,104.8,87.4,36,20,97.6,93.7,99.2,95.5,8.133,7.574,8.489,8.178,7.827,7.93,7.9,4.31,-5.037,-8.449,1.749,-1.447,8.125,4.904,-5.128,-8.185,112.8,112.0,-7.897,88.1,104.1,107.6,97.4,87.5,36,102.7,2,5,prime,10,0,117,norm,36,-4.801,up,norm,107.394647946,105.3,103.0,,127.4,3,95.3,106.2,102.0,10,5,7.695,4.791,1.488,-2.066,-4.456,-8.075,97.7,5,224.4,-8.367,-8.378,20,-8.378,-8.217,-4.872,-4.859,-4.791,-4.756,4.397,7.501,15,-1.4,1.949,4.519,8.192,-8.379,-7.587,-1.187,1.45,107.8,97.9,100.5,99.5,100.2,96.7,97.0,108.0,96.4,124.5,3,norm,1.801,1.665,-2.1,-1.79,-4.776,-4.358,-1.566,-1.637,-1.852,-2.014,1.246,-1.746,96.8,108.6,-4.334,-7.792,1.434,-1.37,8.388,4.951,-4.904,-7.569,24,5.167,5.013,4.632,4.51,2.095,2.073,2.033,1.385,24,4.598,5.044,60,310.926387162,norm,0,81,81,81,399.564,399.574,399.583257696,399.583,399.585,399.588,up,1,0.772276904958,9.22772309504,001,325,1920_1200,Intel(R) Core(TM) i5-3570 CPU @ 3.40GHz,orientation_search,LEPPC096,Intel(R) HD Graphics 2500,2018_Dec_21_1524,testMonitor,
,113.1,95.6,108.4,36,20,124.7,127.0,92.6,106.0,7.63,7.901,8.487,8.038,7.802,8.405,7.767,5.054,-4.653,-7.938,1.515,-1.76,8.319,4.304,-4.631,-8.332,109.6,127.4,-8.049,122.1,107.7,111.7,101.1,100.2,36,108.9,3,5,prime,10,0,93,norm,36,-4.417,up,norm,107.394647946,104.1,99.1,119.7,106.7,4,87.4,111.5,98.3,10,5,7.908,4.674,1.9,-1.799,-5.201,-7.769,90.3,5,200.4,-7.735,-8.372,20,-8.113,-8.143,-4.51,-4.434,-5.116,-4.36,4.754,8.318,22,-1.46,1.549,4.632,8.435,-8.195,-7.511,-1.602,1.624,118.1,89.3,115.1,113.1,102.0,107.6,106.8,104.3,115.1,97.9,4,norm,1.475,1.295,-1.583,-1.931,-4.795,-4.845,-2.065,-1.388,-1.829,-1.36,1.633,-1.361,113.1,114.5,-4.609,-7.83,1.594,-1.287,7.948,4.892,-4.403,-7.812,24,4.714,4.336,5.219,4.881,1.106,1.501,1.394,1.49,24,4.885,4.51,60,310.926387162,norm,0,82,82,82,400.376,400.386,400.394334775,400.395,400.396,400.399,up,1,0.95813216563,9.04186783437,001,325,1920_1200,Intel(R) Core(TM) i5-3570 CPU @ 3.40GHz,orientation_search,LEPPC096,Intel(R) HD Graphics 2500,2018_Dec_21_1524,testMonitor,
209.2,206.8,212.8,209.0,36,10,214.5,210.8,217.3,,8.181,8.192,8.033,7.509,8.155,8.066,8.294,4.446,-5.222,-8.217,2.097,-2.002,8.471,4.959,-4.765,-7.6,214.8,214.8,-7.897,206.1,211.1,209.6,211.6,210.9,36,207.3,4,5,probe,5,0,88,norm,36,-5.214,up,norm,211.178095977,213.1,221.2,209.6,207.2,5,207.2,214.9,206.1,10,5,7.55,4.499,1.514,-1.805,-5.213,-8.48,208.5,1,123.2,-7.784,-7.637,20,-7.658,-7.513,-5.136,-5.056,-4.372,-4.779,5.199,8.064,29,-1.561,1.373,4.901,8.311,-7.761,-7.732,-1.133,1.326,204.7,213.7,216.1,209.6,207.2,201.2,208.0,212.9,203.4,210.2,0,norm,1.612,1.808,-1.409,-1.692,-5.242,-4.357,-2.033,-1.349,-1.495,-1.332,1.284,-1.619,208.4,207.2,-5.276,-7.698,1.446,-1.615,8.321,4.483,-4.689,-7.691,25,4.834,5.24,4.453,4.421,1.297,1.261,1.665,1.89,25,4.368,5.166,20,107.394647946,norm,0,83,83,83,401.389,401.4,401.408283677,401.408,401.41,401.413,up,1,0.722851755341,9.27714824466,001,325,1920_1200,Intel(R) Core(TM) i5-3570 CPU @ 3.40GHz,orientation_search,LEPPC096,Intel(R) HD Graphics 2500,2018_Dec_21_1524,testMonitor,
210.8,194.5,214.3,203.1,36,10,201.0,195.0,215.9,208.9,8.226,7.969,7.981,7.713,8.261,7.74,8.179,4.981,-4.889,-8.287,1.466,-1.439,7.952,4.946,-4.924,-8.016,206.9,194.0,-7.837,206.9,205.6,185.7,212.1,193.3,36,205.5,0,5,prime,10,0,71,norm,36,-4.407,up,norm,203.007030969,199.5,201.1,195.4,183.0,5,203.1,210.0,204.5,10,6,7.927,4.98,1.637,-1.387,-5.121,-8.198,191.9,6,274.0,-7.745,-8.397,10,-8.434,-7.886,-4.987,-4.581,-4.896,-5.04,4.658,8.247,5,-1.527,1.609,4.761,8.35,-7.505,-7.913,-1.169,1.355,186.8,199.8,199.8,213.2,202.5,202.8,211.7,196.8,,194.5,0,norm,1.263,1.782,-1.507,-1.438,-4.41,-5.163,-1.401,-1.86,-1.408,-1.109,1.786,-1.658,223.0,206.8,-4.568,-7.523,1.795,-1.557,8.261,5.091,-4.991,-8.031,26,4.803,4.431,4.758,4.304,1.439,1.381,1.288,1.319,26,4.441,4.781,10,107.394647946,norm,0,84,84,84,402.174,402.187,402.206031243,402.206,402.209,402.212,up,1,0.719459007672,9.28054099233,001,325,1920_1200,Intel(R) Core(TM) i5-3570 CPU @ 3.40GHz,orientation_search,LEPPC096,Intel(R) HD Graphics 2500,2018_Dec_21_1524,testMonitor,
194.0,206.7,197.0,213.0,36,10,195.2,189.1,,192.2,7.816,7.983,7.632,8.273,7.643,7.744,7.659,5.176,-4.312,-8.271,1.765,-1.77,7.518,5.013,-5.22,-8.471,207.9,201.5,-8.401,208.2,212.2,198.2,206.8,205.4,36,220.5,4,5,prime,10,0,65,norm,36,-4.884,up,norm,203.007030969,187.8,187.7,202.1,223.0,4,183.0,209.0,214.3,10,6,8.122,4.569,1.913,-1.297,-4.797,-8.335,204.9,6,268.0,-8.177,-7.582,10,-8.345,-8.249,-4.872,-4.974,-5.27,-4.393,5.285,8.073,28,-1.39,1.663,4.806,8.22,-8.292,-8.048,-1.152,1.144,200.9,204.8,209.4,197.3,205.4,208.6,196.4,195.5,204.1,200.9,1,norm,1.987,1.597,-1.773,-1.563,-5.282,-4.629,-1.68,-1.91,-1.327,-1.579,1.172,-1.991,200.9,190.9,-4.754,-7.719,1.697,-1.276,7.808,4.958,-4.777,-8.41,26,4.658,4.751,4.691,4.318,1.209,1.398,2.086,1.58,26,4.71,4.737,10,107.394647946,norm,0,85,85,85,402.965,402.974,402.983933348,402.984,402.986,402.988,up,1,1.5342149849,8.4657850151,001,325,1920_1200,Intel(R) Core(TM) i5-3570 CPU @ 3.40GHz,orientation_search,LEPPC096,Intel(R) HD Graphics 2500,2018_Dec_21_1524,testMonitor,
191.6,203.4,188.7,202.4,36,10,213.4,209.8,201.4,197.8,8.398,8.241,8.246,8.057,7.701,7.767,7.766,4.88,-4.735,-8.061,1.333,-1.539,7.87,5.04,-4.5,-8.429,206.1,,-7.834,186.0,197.4,223.0,197.1,221.9,36,194.9,5,5,prime,10,0,76,norm,36,-5.095,up,norm,203.007030969,194.1,215.6,203.4,188.8,4,193.7,200.0,206.9,10,6,8.221,5.27,1.979,-1.461,-4.741,-8.008,208.2,6,279.0,-8.126,-7.523,10,-8.232,-7.71,-4.464,-4.372,-4.515,-4.77,5.035,8.397,34,-1.707,1.976,5.294,7.536,-7.987,-8.041,-1.755,2.093,217.4,183.0,198.9,210.7,189.1,196.1,190.6,198.9,202.2,214.5,2,norm,1.478,2.032,-1.468,-1.456,-5.052,-4.901,-1.524,-1.284,-1.956,-1.315,1.641,-1.934,195.6,217.5,-4.403,-8.059,1.764,-1.508,7.871,5.155,-5.139,-8.18,26,4.857,4.827,4.824,4.585,1.293,1.687,1.766,1.599,26,4.903,4.851,10,107.394647946,norm,0,86,86,86,404.56,404.57,404.576078292,404.576,404.578,404.58,up,1,1.28146162226,8.71853837774,001,325,1920_1200,Intel(R) Core(TM) i5-3570 CPU @ 3.40GHz,orientation_search,LEPPC096,Intel(R) HD Graphics 2500,2018_Dec_21_1524,testMonitor,
223.0,200.8,205.6,192.8,36,10,184.7,204.2,210.1,207.0,8.136,7.854,7.948,7.659,8.42,8.389,7.708,4.645,-5.174,-7.846,1.809,-1.481,8.352,4.728,-4.956,-8.441,201.9,202.0,-7.847,191.3,201.3,212.2,192.8,196.7,36,,4,5,prime,10,0,66,norm,36,-4.745,up,norm,203.007030969,213.7,202.0,202.6,202.4,3,201.4,202.4,202.5,10,6,8.074,4.329,1.534,-1.759,-4.675,-8.22,198.7,6,269.0,-8.313,-7.977,10,-8.251,-8.458,-5.036,-4.858,-4.469,-5.237,4.421,8.023,27,-1.348,2.05,4.836,7.656,-7.936,-8.029,-2.068,1.174,193.8,203.1,185.4,218.2,200.3,210.4,202.7,197.5,200.2,183.0,3,norm,1.787,1.437,-1.515,-1.84,-4.845,-4.86,-1.511,-1.189,-1.824,-1.743,1.66,-1.377,197.6,185.1,-4.315,-8.49,1.487,-1.593,7.527,4.613,-4.94,-7.546,26,4.482,5.049,4.598,4.836,1.494,1.845,1.449,1.145,26,5.077,4.656,10,107.394647946,norm,0,87,87,87,405.894,405.904,405.916617189,405.917,405.918,405.921,up,1,1.85752029385,8.14247970615,001,325,1920_1200,Intel(R) Core(TM) i5-3570 CPU @ 3.40GHz,orientation_search,LEPPC096,Intel(R) HD Graphics 2500,2018_Dec_21_1524,testMonitor,
222.0,,205.8,214.5,36,10,223.0,196.5,208.9,209.7,8.494,7.725,7.724,8.379,8.08,8.204,8.498,4.427,-4.603,-7.754,1.621,-1.17,8.146,4.727,-4.94,-8.053,215.0,196.5,-8.341,209.5,216.3,189.0,208.3,201.7,36,204.4,3,5,prime,10,0,78,norm,36,-4.677,up,norm,203.007030969,214.7,205.2,193.5,210.6,5,219.8,193.9,214.1,10,6,7.78,5.127,1.655,-1.772,-5.093,-8.072,199.2,6,281.0,-8.152,-7.607,10,-7.595,-7.848,-4.442,-5.047,-4.464,-5.254,5.291,8.053,23,-1.436,2.002,4.304,7.993,-7.837,-8.106,-1.734,1.354,183.0,199.7,196.4,193.9,206.5,208.8,195.4,214.2,210.0,216.0,4,norm,1.512,1.448,-1.72,-2.048,-4.684,-4.402,-1.833,-2.037,-2.011,-1.494,1.246,-1.312,203.3,199.8,-4.851,-7.936,1.729,-1.124,8.114,4.521,-4.738,-8.482,26,4.467,4.909,5.217,4.382,1.595,1.246,1.402,1.136,26,4.779,4.809,10,107.394647946,norm,0,88,88,88,407.821,407.837,407.85298506,407.853,407.855,407.858,up,1,0.995360930701,9.0046390693,001,325,1920_1200,Intel(R) Core(TM) i5-3570 CPU @ 3.40GHz,orientation_search,LEPPC096,Intel(R) HD Graphics 2500,2018_Dec_21_1524,testMonitor,
202.3,190.6,211.3,184.6,36,10,189.8,198.1,208.4,196.1,8.385,7.796,7.566,8.38,8.392,8.084,7.722,4.593,-4.647,-8.021,1.713,-1.118,8.263,4.819,-4.449,-8.408,209.8,200.9,-8.086,,221.6,220.0,196.7,205.1,36,200.9,5,5,prime,10,0,105,norm,36,-4.671,down,norm,203.007030969,206.9,183.0,185.2,207.5,1,196.7,188.9,200.3,10,6,7.846,5.137,1.43,-1.47,-4.503,-8.164,210.1,6,308.0,-7.679,-8.167,10,-8.127,-7.562,-4.976,-4.386,-4.824,-4.82,4.71,8.252,31,-1.761,1.582,4.606,7.977,-7.609,-8.041,-1.274,1.299,196.2,190.9,204.4,211.9,223.0,204.3,218.2,197.7,185.2,192.1,5,norm,1.317,1.402,-1.623,-1.148,-4.355,-4.691,-1.674,-1.638,-1.719,-1.577,1.37,-2.041,206.0,192.6,-4.475,-8.132,1.288,-1.787,8.316,4.428,-4.371,-7.681,26,4.925,5.018,4.752,4.757,1.34,2.063,1.839,1.861,26,4.522,4.812,10,107.394647946,norm,0,89,89,89,408.886,408.899,408.917849022,408.918,408.92,408.922,down,1,1.09239683436,8.90760316564,001,325,1920_1200,Intel(R) Core(TM) i5-3570 CPU @ 3.40GHz,orientation_search,LEPPC096,Intel(R) HD Graphics 2500,2018_Dec_21_1524,testMonitor,
313.9,314.1,309.3,302.8,36,20,314.2,319.7,321.4,308.1,7.894,8.132,7.512,8.148,8.161,7.88,8.247,4.918,-5.224,-7.703,1.476,-1.278,7.963,4.537,-4.441,-7.764,317.6,313.7,-8.475,301.4,309.5,307.4,310.2,306.1,36,312.1,0,5,probe,5,0,100,norm,36,-4.937,up,norm,311.428302171,317.9,311.1,306.3,304.7,3,313.6,313.6,309.4,10,6,8.279,4.89,1.317,-1.188,-4.669,-7.611,307.6,2,211.4,-7.995,-7.597,10,-8.489,-8.482,-4.93,-4.996,-5.229,-4.62,5.197,7.728,3,-1.972,1.265,5.148,8.478,-7.599,-8.495,-1.507,1.1,311.7,307.1,,309.6,315.4,316.4,306.1,307.9,313.2,306.1,0,norm,1.473,1.786,-1.181,-1.437,-4.53,-5.173,-1.663,-1.829,-1.281,-1.436,1.608,-1.228,317.3,308.2,-4.887,-7.611,1.445,-1.681,7.941,4.422,-4.789,-7.884,27,5.298,5.048,4.325,4.428,1.762,1.553,1.406,1.153,27,4.675,5.211,10,203.007030969,norm,0,90,90,90,410.035,410.044,410.052121237,410.052,410.054,410.057,up,1,0.889442306536,9.11055769346,001,325,1920_1200,Intel(R) Core(TM) i5-3570 CPU @ 3.40GHz,orientation_search,LEPPC096,Intel(R) HD Graphics 2500,2018_Dec_21_1524,testMonitor,
290.3,303.8,295.1,303.5,36,20,302.1,308.2,304.5,295.5,8.239,7.709,7.936,8.402,7.988,8.348,7.954,5.292,-4.739,-8.131,2.058,-1.416,8.283,5.294,-4.582,-7.829,304.0,304.8,-8.145,299.8,293.5,293.8,297.6,290.1,36,288.4,1,5,probe,5,0,87,norm,36,-5.089,down,norm,298.428302171,294.3,294.8,295.2,296.6,0,301.0,298.5,297.9,10,6,7.844,5.259,1.7,-1.634,-4.342,-7.956,298.7,2,211.4,-7.791,-8.101,10,-8.352,-8.116,-4.536,-5.08,-4.753,-4.561,4.681,7.711,6,-1.896,1.256,4.56,7.669,-8.491,-7.912,-1.757,1.569,295.3,297.3,304.0,307.6,294.5,308.4,296.6,,296.2,300.2,1,norm,1.985,1.744,-1.187,-1.99,-4.933,-5.079,-1.887,-1.188,-1.753,-1.366,1.843,-1.419,303.2,296.9,-4.805,-8.465,2.034,-1.226,7.775,4.984,-4.693,-8.118,27,4.457,4.788,4.379,4.779,1.917,1.866,1.451,1.38,27,4.521,5.133,10,203.007030969,norm,0,91,91,91,410.979,410.988,411.001833412,411.002,411.004,411.006,down,1,0.6553768259,9.3446231741,001,325,1920_1200,Intel(R) Core(TM) i5-3570 CPU @ 3.40GHz,orientation_search,LEPPC096,Intel(R) HD Graphics 2500,2018_Dec_21_1524,testMonitor,
280.8,283.5,283.5,285.0,36,60,276.7,282.3,293.5,,7.79,7.676,8.38,8.045,8.069,8.316,8.242,5.216,-4.621,-7.83,1.502,-1.187,8.093,5.129,-4.586,-7.771,285.4,284.3,-8.32,267.2,287.6,297.1,279.3,276.5,36,292.7,4,5,prime,10,0,97,norm,36,-4.626,up,norm,287.233737711,292.6,285.6,287.9,287.6,5,277.3,286.5,282.8,10,5,8.045,5.181,1.431,-1.302,-4.44,-7.667,289.0,5,384.2,-7.743,-8.125,60,-8.249,-8.083,-4.421,-4.976,-5.294,-5.086,4.983,7.525,29,-1.163,1.645,4.475,8.291,-8.458,-7.593,-1.984,1.602,293.5,276.5,273.7,306.0,288.0,278.8,292.1,289.7,302.6,307.2,0,norm,1.831,1.264,-1.381,-1.38,-4.757,-4.902,-1.643,-1.458,-1.636,-1.305,1.138,-1.683,284.1,278.0,-4.42,-7.55,1.752,-1.272,8.278,5.179,-4.33,-7.54,28,4.356,4.433,4.879,4.863,1.822,1.613,1.633,1.268,28,5.18,4.559,20,203.007030969,norm,0,92,92,92,411.704,411.714,411.720441214,411.721,411.722,411.725,up,1,1.12832917138,8.87167082862,001,325,1920_1200,Intel(R) Core(TM) i5-3570 CPU @ 3.40GHz,orientation_search,LEPPC096,Intel(R) HD Graphics 2500,2018_Dec_21_1524,testMonitor,
272.9,286.5,286.5,293.0,36,60,281.2,280.2,290.1,295.8,7.524,8.473,7.59,7.581,7.555,8.393,8.055,4.89,-4.619,-7.779,2.039,-1.224,8.495,4.335,-4.627,-7.849,294.0,283.9,-7.916,275.5,288.3,285.4,289.1,292.3,36,268.5,1,5,prime,10,0,89,norm,36,-4.86,down,norm,287.233737711,291.1,279.4,286.5,280.3,0,286.4,286.1,300.0,10,5,7.976,4.557,1.489,-1.817,-5.054,-8.424,307.2,5,376.2,-7.673,-7.751,60,-8.059,-8.22,-4.674,-4.963,-5.248,-4.313,4.581,7.613,6,-1.382,1.353,4.439,7.927,-8.39,-7.502,-1.204,1.592,287.0,296.5,275.4,287.1,279.3,294.4,302.4,,299.0,277.5,1,norm,1.789,1.603,-1.895,-1.355,-5.275,-4.855,-2.039,-1.192,-1.221,-1.744,1.122,-1.106,288.2,280.0,-5.041,-7.666,1.936,-1.411,7.803,4.431,-4.589,-7.753,28,4.999,4.435,5.109,5.18,1.773,1.926,2.036,1.628,28,5.129,4.638,20,203.007030969,norm,0,93,93,93,412.885,412.895,412.90496624,412.905,412.907,412.909,down,1,0.78587536361,9.21412463639,001,325,1920_1200,Intel(R) Core(TM) i5-3570 CPU @ 3.40GHz,orientation_search,LEPPC096,Intel(R) HD Graphics 2500,2018_Dec_21_1524,testMonitor,
282.9,278.3,280.5,,36,60,277.1,267.2,278.8,277.6,7.895,7.75,7.836,7.692,8.41,7.994,7.692,5.066,-5.086,-8.082,1.243,-2.016,8.35,4.714,-4.518,-7.664,307.2,302.2,-8.277,304.0,289.3,277.4,278.7,298.3,36,286.5,3,5,prime,10,0,110,norm,36,-5.251,up,norm,287.233737711,272.7,292.3,277.5,294.6,3,287.2,286.0,276.2,10,5,8.104,5.095,2.1,-1.208,-5.007,-8.421,281.9,5,397.2,-8.394,-8.1,60,-8.238,-8.404,-4.671,-5.098,-4.522,-4.808,4.654,7.707,21,-1.424,1.362,5.297,7.829,-8.029,-8.484,-1.779,1.695,291.3,278.7,298.1,284.1,273.4,283.5,274.6,273.5,276.3,290.1,2,norm,1.585,1.318,-2.024,-1.102,-4.449,-4.804,-1.918,-1.455,-1.512,-1.702,1.57,-1.227,267.8,292.2,-5.241,-8.021,1.706,-2.036,7.737,4.47,-4.622,-7.649,28,5.225,4.364,4.474,4.948,1.457,1.186,1.95,1.718,28,5.051,4.599,20,203.007030969,norm,0,94,94,94,413.728,413.738,413.74732059,413.748,413.749,413.752,up,1,0.739918724979,9.26008127502,001,325,1920_1200,Intel(R) Core(TM) i5-3570 CPU @ 3.40GHz,orientation_search,LEPPC096,Intel(R) HD Graphics 2500,2018_Dec_21_1524,testMonitor,
277.5,296.1,267.2,283.8,36,60,296.2,285.3,296.2,293.0,8.136,7.797,8.344,8.347,8.167,8.18,7.589,4.996,-4.968,-7.51,1.172,-1.326,7.686,4.495,-4.814,-7.785,280.9,295.0,-8.122,307.2,277.5,278.0,292.1,298.1,36,301.7,1,5,prime,10,0,90,norm,36,-5.113,down,norm,287.233737711,272.5,294.6,274.7,283.7,0,288.6,304.9,284.6,10,5,8.04,4.487,1.922,-1.394,-4.742,-7.981,280.4,5,377.2,-7.989,-7.778,60,-7.765,-8.193,-4.929,-4.342,-4.522,-4.341,4.406,7.839,6,-1.958,1.76,4.409,7.707,-7.757,-7.843,-2.007,1.822,285.8,290.4,292.3,297.7,288.6,298.6,286.6,,292.3,303.8,3,norm,1.593,1.692,-1.457,-1.835,-4.64,-5.044,-1.803,-1.12,-1.733,-1.949,1.268,-1.761,286.4,304.7,-4.582,-8.225,1.319,-2.032,7.974,4.64,-4.326,-7.901,28,4.51,5.247,4.549,4.304,2.091,1.732,1.412,2.075,28,5.278,4.627,20,203.007030969,norm,0,95,95,95,414.512,414.522,414.528276167,414.528,414.53,414.533,down,1,0.688688235165,9.31131176484,001,325,1920_1200,Intel(R) Core(TM) i5-3570 CPU @ 3.40GHz,orientation_search,LEPPC096,Intel(R) HD Graphics 2500,2018_Dec_21_1524,testMonitor,
