d_ori_22,d_ori_23,d_ori_20,d_ori_21,set_size,ctpd,d_ori_24,d_ori_25,d_ori_28,d_ori_29,stim_pos_x_30,stim_pos_x_31,stim_pos_x_32,stim_pos_x_33,stim_pos_x_34,stim_pos_x_35,stim_pos_y_11,stim_pos_y_10,stim_pos_y_13,stim_pos_y_12,stim_pos_y_15,stim_pos_y_14,stim_pos_y_17,stim_pos_y_16,stim_pos_y_19,stim_pos_y_18,d_ori_35,d_ori_34,stim_pos_x_3,d_ori_31,d_ori_30,d_ori_33,d_ori_32,d_ori_26,test_set_size,d_ori_27,targetCol,dsd_test,seq_type,dsd,blockRepN,targetDist,dtype_test,prime_set_size,stim_pos_y_25,correctResponse,dtype,distrMean,d_ori_17,d_ori_16,d_ori_15,d_ori_14,targetRow,d_ori_11,d_ori_13,d_ori_12,dsd_prime,streak_length_prime,stim_pos_y_35,stim_pos_y_34,stim_pos_y_33,stim_pos_y_32,stim_pos_y_31,stim_pos_y_30,d_ori_10,nextProbe,targetOri,stim_pos_x_1,stim_pos_x_2,ctpd_prime,stim_pos_x_4,stim_pos_x_5,stim_pos_x_6,stim_pos_x_7,stim_pos_x_8,stim_pos_x_9,stim_pos_y_28,stim_pos_y_29,targetPos,stim_pos_y_20,stim_pos_y_21,stim_pos_y_22,stim_pos_y_23,stim_pos_y_24,stim_pos_x_0,stim_pos_y_26,stim_pos_y_27,d_ori_9,d_ori_8,d_ori_3,d_ori_2,d_ori_1,d_ori_0,d_ori_7,d_ori_6,d_ori_5,d_ori_4,trialN,dtype_prime,stim_pos_x_18,stim_pos_x_19,stim_pos_x_12,stim_pos_x_13,stim_pos_x_10,stim_pos_x_11,stim_pos_x_16,stim_pos_x_17,stim_pos_x_14,stim_pos_x_15,stim_pos_y_9,stim_pos_y_8,d_ori_19,d_ori_18,stim_pos_y_1,stim_pos_y_0,stim_pos_y_3,stim_pos_y_2,stim_pos_y_5,stim_pos_y_4,stim_pos_y_7,stim_pos_y_6,totBlockN,stim_pos_x_27,stim_pos_x_26,stim_pos_x_25,stim_pos_x_24,stim_pos_x_23,stim_pos_x_22,stim_pos_x_21,stim_pos_x_20,blockN,stim_pos_x_29,stim_pos_x_28,prevDistrCTPD,prevDistrMean,prevDistrType,trials.thisRepN,trials.thisTrialN,trials.thisN,trials.thisIndex,timeStart,timeBeforeDraw,timeDraw,timeAfterSaving,timeAfterWritingToTemp,timeAfterPreparingNext,answer,correct,rt,trialScore,session,participant,resolution,cpu_info,expName,pc_name,graphic_card,date,monitorName,
26.0,43.4,23.4,49.3,36,-10,22.7,52.6,54.4,27.2,7.742,8.208,8.105,8.374,8.389,7.626,7.98,5.296,-5.012,-8.21,1.564,-1.509,8.291,4.67,-5.072,-7.801,32.3,44.7,-8.251,42.7,30.4,38.2,39.4,26.6,36,33.1,0,5,prime,10,0,91,norm,36,-4.318,down,norm,42.6363490627,46.7,45.1,43.3,22.6,2,29.9,50.2,62.3,10,5,7.731,4.947,1.693,-1.632,-4.896,-8.041,29.0,5,133.6,-7.535,-7.637,-10,-8.257,-8.046,-4.306,-5.032,-4.317,-4.966,4.497,8.153,2,-1.721,1.434,5.136,8.473,-7.751,-8.388,-2.004,1.868,34.5,50.1,51.4,,45.2,48.6,46.8,40.4,62.6,43.4,0,norm,1.548,1.16,-1.641,-1.659,-4.758,-4.99,-1.49,-2.098,-1.479,-1.952,1.188,-1.293,51.3,47.6,-4.773,-8.428,1.145,-1.436,7.624,5.073,-4.932,-8.434,0,4.595,5.068,4.713,5.2,1.525,1.124,1.647,2.052,0,4.375,4.43,,,,0,0,0,0,377.725,377.756,377.776743285,377.777,377.777,377.78,down,1,1.41802760833,8.58197239167,001,301,1920_1080,Intel(R) Core(TM) i5-3570 CPU @ 3.40GHz,orientation_search,LEPPC096,Intel(R) HD Graphics 2500,2018_Oct_30_1426,testMonitor,
62.6,59.9,43.2,49.1,36,-10,38.8,47.4,51.7,55.4,7.519,8.358,8.486,7.763,8.099,8.258,7.742,4.855,-4.484,-7.791,1.93,-1.902,7.986,4.315,-5.117,-7.562,29.6,25.6,-8.342,30.2,38.9,23.4,47.0,45.5,36,45.2,1,5,prime,10,0,74,norm,36,-4.89,up,norm,42.6363490627,46.5,38.9,41.4,55.5,4,25.0,40.0,35.9,10,5,8.183,4.993,1.601,-1.401,-5.091,-8.069,,5,116.6,-7.923,-7.939,-10,-8.158,-8.139,-4.732,-4.634,-5.016,-4.523,4.55,7.628,10,-1.482,1.42,4.417,8.281,-8.413,-8.209,-1.989,2.038,52.7,38.9,49.7,40.2,38.6,41.7,22.6,42.5,35.8,46.1,1,norm,1.417,1.766,-1.627,-2.09,-4.555,-4.439,-1.486,-1.301,-1.153,-1.527,1.622,-1.786,45.2,49.2,-4.706,-8.271,1.577,-1.61,7.737,5.235,-4.846,-8.102,0,4.916,5.253,4.978,4.803,2.084,1.954,1.395,1.868,0,5.069,5.254,,,,0,1,1,1,379.231,379.243,379.262822454,379.263,379.264,379.267,up,1,1.49985224163,8.50014775837,001,301,1920_1080,Intel(R) Core(TM) i5-3570 CPU @ 3.40GHz,orientation_search,LEPPC096,Intel(R) HD Graphics 2500,2018_Oct_30_1426,testMonitor,
54.7,54.6,34.3,44.3,36,-10,22.6,34.1,26.0,47.4,7.815,7.798,8.042,8.449,8.154,7.525,8.146,5.202,-4.973,-8.231,1.954,-1.456,8.112,4.854,-5.213,-7.885,31.0,36.9,-7.962,46.1,43.4,58.4,35.9,39.9,36,53.4,0,5,prime,10,0,78,norm,36,-4.594,down,norm,42.6363490627,57.9,34.4,48.4,62.6,0,39.1,44.3,30.8,10,5,7.514,4.58,1.211,-1.818,-4.412,-7.9,53.5,5,120.6,-8.143,-8.1,-10,-8.043,-7.902,-4.52,-4.513,-4.93,-5.075,5.194,8.466,0,-1.138,1.763,4.669,7.548,-7.645,-8.182,-1.264,1.913,50.9,37.4,42.1,50.1,47.4,,40.3,28.0,50.7,38.1,2,norm,1.902,1.987,-1.402,-1.39,-4.414,-5.223,-1.329,-1.355,-1.135,-1.764,1.592,-1.563,35.9,53.9,-4.339,-7.604,2.009,-1.21,8.361,4.349,-4.446,-8.474,0,4.332,4.55,5.241,5.209,1.548,1.198,1.644,1.755,0,5.124,4.786,,,,0,2,2,2,380.786,380.796,380.801998647,380.802,380.804,380.806,down,1,1.10981601592,8.89018398408,001,301,1920_1080,Intel(R) Core(TM) i5-3570 CPU @ 3.40GHz,orientation_search,LEPPC096,Intel(R) HD Graphics 2500,2018_Oct_30_1426,testMonitor,
45.2,42.9,45.9,49.0,36,-10,38.5,35.8,46.2,32.9,8.052,8.496,8.008,8.367,8.003,7.622,8.307,4.865,-4.524,-7.915,1.68,-1.688,7.549,4.659,-5.1,-7.748,49.4,27.2,-8.42,40.9,48.6,55.1,48.4,37.4,36,33.8,0,5,prime,10,0,83,norm,36,-4.729,up,norm,42.6363490627,53.7,42.6,49.0,46.3,3,62.6,44.2,51.7,10,5,8.471,4.914,1.113,-2.024,-5.0,-8.195,37.8,5,125.6,-8.44,-8.015,-10,-8.179,-8.443,-4.71,-5.04,-4.826,-5.054,4.979,7.718,3,-1.999,1.31,4.831,8.076,-7.661,-8.015,-1.357,1.318,44.8,29.0,,39.7,52.1,40.0,34.3,30.6,40.4,22.6,3,norm,1.315,1.765,-2.003,-1.794,-5.266,-5.048,-1.506,-2.02,-1.511,-1.458,1.893,-1.223,29.6,29.8,-4.343,-8.159,2.012,-1.119,7.924,4.988,-4.632,-7.956,0,4.648,5.144,4.727,4.57,1.818,1.55,1.638,1.988,0,4.629,5.288,,,,0,3,3,3,381.956,381.966,381.971918061,381.972,381.974,381.976,up,1,1.07994890186,8.92005109814,001,301,1920_1080,Intel(R) Core(TM) i5-3570 CPU @ 3.40GHz,orientation_search,LEPPC096,Intel(R) HD Graphics 2500,2018_Oct_30_1426,testMonitor,
35.3,51.4,48.3,46.5,36,-10,39.8,40.9,59.2,34.5,7.513,7.651,8.255,8.367,8.416,8.491,7.776,4.408,-4.982,-7.707,1.226,-1.76,7.841,4.726,-5.135,-7.794,35.3,43.2,-7.898,62.6,47.5,56.5,39.8,60.9,36,53.7,2,5,prime,10,0,72,norm,36,-4.452,down,norm,42.6363490627,27.4,31.2,37.1,34.4,0,46.8,54.2,,10,5,7.971,5.194,1.386,-1.837,-5.187,-8.253,37.2,5,114.6,-7.682,-8.272,-10,-7.83,-8.449,-4.982,-4.398,-5.234,-5.11,4.643,7.635,12,-1.436,1.255,4.502,8.299,-7.575,-8.156,-1.432,1.622,43.3,44.9,41.3,47.8,43.8,53.1,36.8,60.2,22.6,50.9,4,norm,1.171,1.679,-1.177,-1.393,-5.191,-4.583,-1.636,-1.208,-1.191,-1.892,1.394,-1.478,35.0,28.7,-4.976,-7.51,1.17,-1.896,8.289,4.947,-4.34,-7.558,0,5.116,4.635,5.108,5.235,1.449,1.579,1.7,1.693,0,4.802,4.843,,,,0,4,4,4,383.095,383.103,383.111191271,383.111,383.113,383.116,down,1,1.46828839658,8.53171160342,001,301,1920_1080,Intel(R) Core(TM) i5-3570 CPU @ 3.40GHz,orientation_search,LEPPC096,Intel(R) HD Graphics 2500,2018_Oct_30_1426,testMonitor,
103.4,111.8,102.8,109.1,36,-10,115.3,104.9,106.0,111.4,7.505,7.884,7.722,8.088,8.171,8.158,8.453,4.609,-4.488,-8.132,1.967,-1.231,8.329,4.864,-4.447,-8.202,106.0,109.1,-8.02,109.5,97.2,111.5,107.7,102.2,36,107.5,0,5,probe,5,0,77,norm,36,-5.147,down,norm,107.242470202,105.3,109.6,112.3,106.6,2,112.3,101.8,105.2,10,5,8.373,4.707,1.456,-1.141,-4.886,-8.247,111.5,2,30.2,-7.693,-8.476,-10,-8.121,-8.177,-4.343,-4.76,-5.162,-4.425,4.936,8.109,2,-1.602,1.629,5.041,8.262,-8.381,-8.42,-1.746,2.043,103.9,111.8,100.0,,107.1,98.3,106.5,105.0,111.3,104.9,0,norm,1.95,1.156,-1.618,-2.086,-4.918,-4.918,-1.89,-1.113,-1.152,-1.276,1.729,-1.332,117.2,99.9,-4.624,-7.865,1.717,-1.684,7.97,4.357,-4.599,-8.474,1,4.758,5.194,4.971,5.273,2.009,2.015,1.258,1.254,1,4.86,4.697,-10,42.6363490627,norm,0,5,5,5,384.624,384.634,384.63940829,384.64,384.641,384.644,down,1,2.33049397783,7.66950602217,001,301,1920_1080,Intel(R) Core(TM) i5-3570 CPU @ 3.40GHz,orientation_search,LEPPC096,Intel(R) HD Graphics 2500,2018_Oct_30_1426,testMonitor,
102.9,101.5,91.6,102.2,36,-10,100.4,101.8,99.9,91.2,7.802,8.032,8.302,7.939,8.324,7.584,7.584,4.958,-4.377,-7.836,1.462,-1.447,7.614,4.378,-5.185,-7.816,92.5,99.8,-8.386,99.2,98.0,99.3,105.4,95.5,36,95.7,1,5,probe,5,0,71,norm,36,-5.113,down,norm,101.242470202,102.7,96.3,102.9,106.5,1,111.2,101.7,110.9,10,5,8.369,4.343,1.547,-1.556,-5.031,-7.722,107.5,2,30.2,-8.467,-8.191,-10,-8.183,-7.828,-5.046,-4.743,-4.879,-4.888,4.317,7.736,7,-1.268,2.028,4.829,7.867,-8.137,-8.096,-1.124,1.114,101.3,96.5,98.2,110.2,99.6,106.2,,109.6,97.7,104.9,1,norm,1.814,1.714,-1.475,-1.98,-4.802,-4.601,-1.884,-1.166,-1.262,-1.91,1.167,-1.646,101.0,104.7,-4.448,-8.384,1.989,-1.96,7.799,5.213,-5.162,-7.832,1,4.395,4.327,4.421,4.7,1.831,1.336,1.825,1.57,1,4.803,5.279,-10,42.6363490627,norm,0,6,6,6,386.995,387.003,387.011197942,387.011,387.013,387.016,down,1,1.02402197993,8.97597802007,001,301,1920_1080,Intel(R) Core(TM) i5-3570 CPU @ 3.40GHz,orientation_search,LEPPC096,Intel(R) HD Graphics 2500,2018_Oct_30_1426,testMonitor,
18.0,-0.4,-3.3,7.2,36,20,28.8,7.6,9.9,14.5,8.416,8.445,7.593,8.164,7.545,8.341,7.62,5.232,-5.139,-8.103,1.924,-1.621,7.904,5.067,-4.441,-7.533,,15.4,-8.17,5.4,17.7,28.9,-11.1,5.1,36,11.2,5,5,prime,10,0,81,norm,36,-4.491,up,norm,8.92405101676,5.3,12.8,20.2,8.6,5,17.2,27.8,17.5,10,5,7.791,4.689,1.353,-1.454,-4.81,-8.008,13.8,5,89.9,-8.26,-7.607,20,-7.525,-8.001,-5.123,-5.097,-4.941,-4.964,4.653,8.27,35,-1.686,2.016,4.48,8.075,-7.889,-7.927,-1.627,1.841,-6.1,8.8,18.4,3.8,14.4,-5.3,18.4,-8.0,5.4,-3.9,0,norm,1.959,2.037,-1.348,-1.648,-4.322,-5.176,-1.281,-1.875,-1.535,-1.738,1.741,-1.968,18.4,11.4,-4.894,-8.018,1.652,-1.876,8.122,4.941,-4.798,-7.528,2,5.082,4.621,4.915,4.945,1.273,2.074,1.588,1.344,2,4.55,4.306,-10,42.6363490627,norm,0,7,7,7,388.056,388.065,388.072396472,388.073,388.074,388.077,up,1,1.68990120564,8.31009879436,001,301,1920_1080,Intel(R) Core(TM) i5-3570 CPU @ 3.40GHz,orientation_search,LEPPC096,Intel(R) HD Graphics 2500,2018_Oct_30_1426,testMonitor,
2.9,8.3,2.4,21.8,36,20,11.6,2.2,-8.8,13.8,7.779,7.878,7.53,8.094,7.952,8.236,7.744,4.977,-5.104,-8.155,1.919,-1.353,8.053,5.148,-4.721,-8.466,5.7,,-7.669,0.4,13.8,19.9,28.9,-11.1,36,21.5,5,5,prime,10,0,90,norm,36,-4.852,up,norm,8.92405101676,-1.2,9.9,14.1,-0.6,4,15.0,-4.9,23.0,10,5,7.784,4.486,2.028,-1.281,-4.839,-7.919,-1.2,5,98.9,-7.558,-8.382,20,-8.149,-7.855,-4.483,-4.51,-4.617,-5.144,4.369,8.093,34,-1.692,1.224,5.296,8.255,-8.281,-7.576,-1.308,1.698,18.3,15.6,18.1,21.3,24.6,20.7,1.5,15.8,17.6,14.8,1,norm,1.248,1.921,-1.806,-1.508,-4.503,-4.758,-1.187,-1.298,-1.611,-1.868,1.375,-2.047,17.7,5.2,-4.892,-8.06,1.75,-1.11,7.531,4.544,-4.897,-7.807,2,4.908,4.694,4.694,5.27,1.186,1.242,1.193,1.353,2,4.928,4.714,-10,42.6363490627,norm,0,8,8,8,389.787,389.796,389.802928061,389.803,389.805,389.807,up,1,2.27998174377,7.72001825623,001,301,1920_1080,Intel(R) Core(TM) i5-3570 CPU @ 3.40GHz,orientation_search,LEPPC096,Intel(R) HD Graphics 2500,2018_Oct_30_1426,testMonitor,
27.2,-11.1,0.7,-5.1,36,20,-9.6,12.3,1.4,1.5,7.606,7.62,8.375,8.464,7.997,8.349,7.74,4.482,-4.509,-8.186,1.39,-1.213,7.742,5.011,-4.793,-7.616,11.7,10.6,-7.938,-2.1,22.6,28.9,22.0,16.9,36,9.5,0,5,prime,10,0,60,norm,36,-4.538,down,norm,8.92405101676,1.5,14.8,22.7,5.2,2,8.3,4.4,15.7,10,5,8.116,4.815,1.232,-1.553,-4.411,-8.377,5.3,5,68.9,-7.766,-8.089,20,-8.322,-7.671,-5.263,-5.003,-5.23,-4.928,4.741,7.834,2,-1.242,2.06,5.092,7.575,-8.304,-8.206,-1.487,1.563,10.7,3.4,9.7,,10.0,26.1,19.7,-0.5,2.6,26.0,2,norm,1.87,1.969,-1.933,-1.422,-4.316,-4.913,-1.576,-1.92,-1.135,-1.563,1.848,-1.115,7.1,-2.0,-4.348,-8.221,1.682,-1.728,8.092,4.918,-5.263,-8.099,2,4.863,5.002,4.954,4.468,1.535,1.583,1.252,1.815,2,5.017,4.783,-10,42.6363490627,norm,0,9,9,9,392.127,392.139,392.159620096,392.16,392.162,392.165,up,0,2.14026299481,-10,001,301,1920_1080,Intel(R) Core(TM) i5-3570 CPU @ 3.40GHz,orientation_search,LEPPC096,Intel(R) HD Graphics 2500,2018_Oct_30_1426,testMonitor,
5.4,8.0,14.7,16.6,36,20,-4.9,17.7,9.0,-1.1,8.183,8.426,7.883,8.395,7.967,7.805,7.769,4.369,-4.724,-7.868,1.257,-1.793,8.06,4.327,-4.706,-7.653,6.1,7.5,-7.624,3.3,15.6,10.6,6.9,10.5,36,-1.9,1,5,prime,10,0,105,norm,36,-4.79,up,norm,8.92405101676,-11.1,19.5,14.4,11.1,3,15.4,9.8,14.8,10,5,8.478,4.616,1.31,-1.23,-4.42,-8.083,10.5,5,113.9,-7.864,-8.143,20,-8.343,-7.971,-5.191,-4.513,-4.852,-4.779,5.126,7.771,9,-1.13,1.291,4.459,8.043,-7.651,-7.793,-1.389,1.332,,9.8,13.9,28.9,-0.6,12.7,-0.3,5.3,1.6,9.5,3,norm,2.029,1.711,-1.471,-1.649,-5.231,-5.232,-1.306,-1.726,-1.413,-1.875,1.516,-1.751,-5.7,5.6,-5.108,-8.035,1.805,-2.025,7.521,4.733,-4.541,-8.451,2,4.397,4.687,5.294,4.833,1.12,1.877,1.799,1.833,2,4.542,4.761,-10,42.6363490627,norm,0,10,10,10,395.375,395.385,395.40238303,395.403,395.407,395.413,up,1,1.00530300126,8.99469699874,001,301,1920_1080,Intel(R) Core(TM) i5-3570 CPU @ 3.40GHz,orientation_search,LEPPC096,Intel(R) HD Graphics 2500,2018_Oct_30_1426,testMonitor,
16.9,28.9,23.2,,36,20,-1.9,5.0,9.6,7.8,8.084,8.03,7.538,7.6,8.167,8.071,8.051,5.247,-5.107,-7.902,2.063,-1.858,8.142,4.354,-4.552,-8.374,17.1,7.5,-8.253,1.0,19.8,20.5,-10.0,8.6,36,4.8,3,5,prime,10,0,89,norm,36,-4.562,up,norm,8.92405101676,-1.2,19.4,5.5,14.0,3,4.9,17.4,11.8,10,5,8.34,4.419,1.272,-1.541,-4.627,-8.088,8.6,5,97.9,-7.79,-8.338,20,-8.152,-7.922,-4.537,-4.953,-4.698,-5.037,4.877,7.708,21,-1.747,2.099,5.182,8.034,-8.38,-8.483,-1.207,2.018,-11.1,12.2,5.9,17.8,19.9,-2.5,12.8,11.0,22.7,11.7,4,norm,1.283,1.2,-1.889,-1.104,-4.948,-4.326,-1.228,-1.339,-1.761,-1.186,1.373,-1.353,10.7,3.3,-4.381,-8.051,1.441,-1.646,8.389,4.634,-4.324,-7.526,2,5.067,5.113,4.521,5.064,1.773,1.63,1.2,1.578,2,5.191,5.16,-10,42.6363490627,norm,0,11,11,11,396.435,396.448,396.467581752,396.468,396.47,396.473,up,1,2.0409992511,7.9590007489,001,301,1920_1080,Intel(R) Core(TM) i5-3570 CPU @ 3.40GHz,orientation_search,LEPPC096,Intel(R) HD Graphics 2500,2018_Oct_30_1426,testMonitor,
,113.6,115.5,122.1,36,10,112.8,108.3,108.7,119.8,7.619,8.035,7.839,8.227,7.535,7.874,7.938,4.431,-4.325,-8.493,1.393,-1.905,7.688,4.448,-4.969,-8.41,114.2,121.2,-7.536,114.9,113.9,112.1,118.5,116.7,36,117.3,3,5,probe,5,0,89,norm,36,-4.988,up,norm,116.128900835,114.4,123.2,112.3,126.1,4,113.8,117.4,119.5,10,5,8.425,4.317,1.669,-1.263,-4.605,-7.502,109.6,2,27.1,-8.428,-8.232,20,-8.043,-7.527,-4.625,-5.166,-4.467,-5.22,4.341,7.665,22,-1.687,1.21,5.115,7.996,-8.416,-7.985,-1.102,2.058,107.4,106.1,119.0,119.7,115.5,120.2,108.0,113.1,116.4,114.4,0,norm,1.15,1.504,-2.068,-1.732,-5.196,-5.294,-1.979,-1.51,-1.651,-1.7,1.853,-1.253,125.8,108.7,-5.137,-7.519,2.011,-1.885,7.594,4.915,-4.985,-8.448,3,5.246,5.276,4.669,4.408,1.795,1.386,1.92,2.048,3,4.936,5.224,20,8.92405101676,norm,0,12,12,12,398.547,398.556,398.569105188,398.569,398.571,398.574,up,1,1.31585910703,8.68414089297,001,301,1920_1080,Intel(R) Core(TM) i5-3570 CPU @ 3.40GHz,orientation_search,LEPPC096,Intel(R) HD Graphics 2500,2018_Oct_30_1426,testMonitor,
,83.1,89.9,88.1,36,10,90.2,96.5,95.9,95.3,8.263,7.926,7.959,7.886,7.662,7.772,8.042,4.34,-5.057,-8.182,1.159,-1.776,7.512,4.791,-4.616,-7.548,92.6,88.8,-7.527,103.1,89.3,90.3,91.5,94.0,36,98.6,3,5,probe,5,0,66,norm,36,-5.024,up,norm,93.1289008348,94.2,89.0,94.6,88.4,4,92.6,93.4,96.4,10,5,7.838,4.904,1.582,-1.911,-5.248,-8.25,91.4,2,27.1,-7.813,-7.987,20,-7.746,-7.659,-4.466,-4.842,-4.828,-4.519,4.54,7.603,22,-1.831,2.061,4.97,8.131,-7.52,-8.295,-1.762,1.226,94.4,95.7,96.5,87.5,86.7,92.4,99.2,98.4,93.9,91.2,1,norm,1.577,1.401,-1.973,-1.525,-5.015,-4.862,-1.185,-1.907,-1.587,-2.088,1.537,-1.256,92.8,93.3,-4.504,-7.998,1.155,-1.122,7.969,4.627,-5.23,-8.1,3,5.193,4.802,5.073,5.277,1.559,1.992,2.056,1.566,3,4.348,4.652,20,8.92405101676,norm,0,13,13,13,399.927,399.936,399.944075191,399.944,399.946,399.948,up,1,1.28033612238,8.71966387762,001,301,1920_1080,Intel(R) Core(TM) i5-3570 CPU @ 3.40GHz,orientation_search,LEPPC096,Intel(R) HD Graphics 2500,2018_Oct_30_1426,testMonitor,
36.1,30.0,31.5,52.8,36,20,38.1,46.7,13.5,13.0,7.611,8.021,8.045,8.085,7.692,7.838,8.42,4.566,-4.687,-7.925,1.313,-1.739,7.939,4.601,-4.459,-8.225,41.5,31.9,-8.156,46.0,42.3,31.6,23.7,40.9,36,23.0,0,5,prime,10,0,88,norm,36,-5.091,up,norm,33.0499776306,33.1,25.5,37.0,36.0,5,53.0,43.4,31.8,10,6,8.243,5.284,1.93,-1.827,-4.648,-7.933,32.5,6,121.0,-8.172,-7.663,20,-8.399,-8.019,-4.551,-4.852,-4.934,-4.354,4.527,7.968,5,-1.285,1.816,4.443,7.982,-8.482,-8.386,-1.209,2.065,24.8,49.4,34.9,17.6,21.2,42.4,26.4,27.3,,42.0,0,norm,1.776,1.693,-1.254,-1.741,-4.897,-4.887,-1.261,-1.386,-1.572,-1.923,1.516,-2.041,38.7,34.8,-4.437,-7.513,1.338,-1.741,8.105,4.829,-5.202,-7.546,4,4.84,4.746,5.035,4.619,1.964,1.497,1.294,1.394,4,5.046,4.328,10,8.92405101676,norm,0,14,14,14,401.261,401.271,401.283412032,401.284,401.285,401.288,up,1,1.24922626833,8.75077373167,001,301,1920_1080,Intel(R) Core(TM) i5-3570 CPU @ 3.40GHz,orientation_search,LEPPC096,Intel(R) HD Graphics 2500,2018_Oct_30_1426,testMonitor,
47.8,32.8,37.4,38.6,36,20,53.0,37.4,23.5,31.3,7.806,8.07,7.584,7.944,7.648,7.76,7.88,5.196,-4.504,-7.813,1.77,-1.433,7.797,5.278,-4.564,-7.773,29.7,,-8.029,24.0,25.3,24.7,32.0,39.0,36,38.7,5,5,prime,10,0,81,norm,36,-5.194,up,norm,33.0499776306,40.7,35.6,39.7,35.2,4,28.6,40.4,44.2,10,6,8.27,4.936,1.107,-1.298,-4.388,-8.134,30.8,6,114.0,-7.578,-8.317,20,-8.236,-7.5,-4.931,-4.355,-4.976,-4.738,4.595,7.571,34,-1.851,1.658,4.405,7.754,-8.073,-7.904,-2.057,2.067,32.9,23.4,35.7,38.8,13.0,47.6,32.7,32.5,30.0,30.1,1,norm,1.383,1.991,-1.51,-2.008,-5.173,-4.957,-2.0,-2.086,-1.7,-1.253,1.337,-1.139,24.5,42.7,-4.89,-8.057,1.372,-1.657,8.12,4.87,-4.708,-8.111,4,5.034,4.467,5.3,4.917,1.213,1.565,1.99,1.778,4,4.472,4.891,10,8.92405101676,norm,0,15,15,15,402.579,402.6,402.611494786,402.612,402.614,402.616,up,1,0.995488464433,9.00451153557,001,301,1920_1080,Intel(R) Core(TM) i5-3570 CPU @ 3.40GHz,orientation_search,LEPPC096,Intel(R) HD Graphics 2500,2018_Oct_30_1426,testMonitor,
34.5,53.0,44.9,,36,20,21.7,30.7,33.6,36.9,7.768,7.738,7.908,7.765,8.225,8.123,8.257,4.747,-4.567,-8.366,1.179,-1.279,7.674,4.946,-4.992,-8.205,36.8,23.5,-7.988,30.7,47.5,28.8,44.4,27.6,36,39.5,3,5,prime,10,0,86,norm,36,-5.042,up,norm,33.0499776306,34.4,30.4,29.1,44.9,3,33.7,25.3,40.9,10,6,7.81,4.756,1.673,-1.628,-5.164,-8.39,27.0,6,119.0,-8.427,-7.606,20,-8.299,-7.776,-4.538,-4.891,-4.854,-4.579,5.159,7.592,21,-2.079,1.407,4.799,8.16,-7.673,-7.967,-1.338,1.469,13.0,31.9,18.6,42.5,23.9,43.5,25.0,36.4,26.3,41.2,2,norm,1.27,1.101,-1.488,-1.588,-5.134,-4.498,-1.911,-1.988,-1.16,-1.699,1.468,-1.53,24.4,41.9,-5.055,-7.974,1.305,-1.719,8.31,4.695,-5.247,-7.992,4,4.661,5.088,5.187,5.235,1.861,1.852,1.675,1.358,4,4.344,4.739,10,8.92405101676,norm,0,16,16,16,403.644,403.658,403.676498812,403.677,403.678,403.681,up,1,1.2970996797,8.7029003203,001,301,1920_1080,Intel(R) Core(TM) i5-3570 CPU @ 3.40GHz,orientation_search,LEPPC096,Intel(R) HD Graphics 2500,2018_Oct_30_1426,testMonitor,
37.9,53.0,36.1,25.1,36,20,34.4,37.7,25.5,18.2,7.516,8.033,8.38,7.77,7.966,7.803,7.889,4.411,-4.616,-7.851,1.908,-1.196,8.316,4.867,-4.328,-8.247,21.3,40.1,-7.921,33.7,38.2,43.9,30.7,34.3,36,39.9,2,5,prime,10,0,93,norm,36,-5.099,up,norm,33.0499776306,38.6,48.0,,34.3,3,21.3,29.4,13.0,10,6,7.774,4.873,1.368,-1.932,-4.926,-8.125,40.9,6,126.0,-7.525,-8.214,20,-7.739,-7.57,-5.147,-4.881,-4.899,-4.935,4.874,7.676,15,-1.137,1.933,4.712,7.631,-8.36,-8.374,-1.82,1.881,22.0,45.0,34.4,26.9,41.0,43.2,23.9,28.8,33.6,34.7,3,norm,1.734,2.003,-2.087,-1.971,-4.67,-4.393,-1.903,-1.801,-1.923,-1.344,1.353,-1.448,48.6,30.7,-5.162,-8.354,1.685,-1.195,8.02,4.68,-5.282,-7.622,4,4.855,4.541,4.802,5.139,1.541,1.369,1.116,1.974,4,4.375,5.136,10,8.92405101676,norm,0,17,17,17,404.997,405.006,405.012698768,405.013,405.015,405.017,up,1,0.822818843404,9.1771811566,001,301,1920_1080,Intel(R) Core(TM) i5-3570 CPU @ 3.40GHz,orientation_search,LEPPC096,Intel(R) HD Graphics 2500,2018_Oct_30_1426,testMonitor,
35.1,37.0,32.7,28.1,36,20,32.2,23.2,18.2,27.1,7.958,7.533,8.367,8.029,7.714,7.877,7.977,4.704,-5.158,-8.403,1.388,-1.797,7.812,4.617,-5.254,-7.937,25.2,15.0,-8.132,13.3,39.1,35.9,23.1,25.7,36,25.9,1,5,prime,10,0,74,norm,36,-5.267,up,norm,33.0499776306,13.0,30.2,28.1,41.6,4,16.8,30.1,46.6,10,6,8.003,5.037,1.649,-1.885,-5.106,-7.579,,6,107.0,-8.411,-7.536,20,-7.798,-7.577,-5.231,-4.601,-4.844,-4.653,4.565,7.929,10,-1.373,1.235,4.322,7.882,-7.965,-7.623,-1.764,1.186,29.6,33.6,20.7,37.4,35.5,29.9,25.0,53.0,52.4,35.0,4,norm,1.805,1.77,-2.094,-1.457,-4.792,-5.256,-1.831,-2.039,-2.051,-1.498,1.533,-1.591,33.8,27.5,-5.01,-8.381,1.569,-1.351,7.696,4.737,-4.575,-8.473,4,4.994,4.422,4.751,4.96,1.755,1.299,1.856,1.115,4,4.715,4.638,10,8.92405101676,norm,0,18,18,18,405.857,405.866,405.885357915,405.886,405.887,405.89,up,1,0.844691006903,9.1553089931,001,301,1920_1080,Intel(R) Core(TM) i5-3570 CPU @ 3.40GHz,orientation_search,LEPPC096,Intel(R) HD Graphics 2500,2018_Oct_30_1426,testMonitor,
38.5,47.5,53.0,51.8,36,20,23.9,38.7,38.4,36.2,7.906,7.51,8.362,7.754,7.771,8.406,8.477,4.657,-4.55,-7.902,1.167,-1.578,8.274,4.877,-5.226,-7.686,45.8,33.8,-7.644,13.0,38.4,34.8,34.2,49.5,36,19.9,2,5,prime,10,0,94,norm,36,-4.877,up,norm,33.0499776306,32.5,,52.5,23.9,4,24.5,32.5,34.9,10,6,8.428,5.227,1.122,-1.512,-4.341,-7.963,15.4,6,127.0,-7.846,-7.643,20,-8.269,-8.394,-5.125,-5.185,-5.291,-4.768,4.349,7.512,16,-1.835,1.446,5.039,8.336,-7.73,-8.162,-1.522,1.844,20.5,35.9,43.8,27.4,23.4,29.1,29.3,36.9,25.5,21.0,5,norm,1.468,1.134,-1.894,-2.037,-4.551,-5.02,-1.297,-1.916,-1.219,-1.934,2.074,-1.127,25.9,17.2,-4.869,-7.558,1.652,-1.919,8.191,4.725,-4.648,-7.883,4,5.142,4.38,4.656,4.598,1.357,1.369,1.943,2.032,4,4.919,4.751,10,8.92405101676,norm,0,19,19,19,406.767,406.778,406.782989887,406.783,406.785,406.787,up,1,1.41018811346,8.58981188654,001,301,1920_1080,Intel(R) Core(TM) i5-3570 CPU @ 3.40GHz,orientation_search,LEPPC096,Intel(R) HD Graphics 2500,2018_Oct_30_1426,testMonitor,
158.6,155.6,167.0,147.0,36,60,153.2,151.8,160.9,157.8,8.28,7.599,8.312,8.05,8.086,8.421,8.123,5.252,-5.084,-8.152,1.174,-2.054,7.651,4.675,-5.144,-8.427,157.6,157.4,-8.288,157.4,147.3,161.9,158.2,166.5,36,160.2,0,5,probe,5,0,99,norm,36,-4.68,down,norm,157.037563012,153.6,165.1,154.6,160.8,1,157.6,164.1,154.3,10,6,7.659,5.211,1.271,-1.73,-5.249,-7.54,153.8,2,58.0,-8.012,-7.574,20,-7.58,-8.414,-4.341,-4.561,-4.887,-4.698,4.313,7.682,1,-1.44,1.307,4.642,7.648,-8.027,-8.488,-1.382,1.674,148.5,157.9,157.4,163.9,,150.6,163.0,158.3,163.4,148.4,0,norm,1.281,2.004,-1.229,-2.066,-4.898,-4.522,-1.79,-1.795,-1.11,-1.876,1.126,-1.892,162.9,158.8,-4.81,-8.209,2.016,-1.886,7.957,5.098,-5.259,-7.964,5,4.658,4.888,4.421,4.998,1.902,2.099,1.487,2.034,5,5.11,4.593,20,33.0499776306,norm,0,20,20,20,408.23,408.239,408.256584605,408.257,408.259,408.261,down,1,1.26645106119,8.73354893881,001,301,1920_1080,Intel(R) Core(TM) i5-3570 CPU @ 3.40GHz,orientation_search,LEPPC096,Intel(R) HD Graphics 2500,2018_Oct_30_1426,testMonitor,
165.1,164.3,169.1,169.0,36,60,159.1,164.8,153.0,163.7,8.27,8.265,8.47,7.933,8.443,7.549,8.101,5.263,-5.126,-8.426,1.774,-1.102,7.889,4.923,-4.68,-7.99,169.1,159.3,-8.283,159.4,169.8,157.4,158.1,169.2,36,165.7,3,5,probe,5,0,105,norm,36,-4.837,down,norm,163.037563012,172.5,169.6,170.4,157.9,1,171.1,157.0,162.9,10,6,7.714,4.934,1.994,-2.062,-5.268,-7.893,168.5,2,58.0,-8.147,-8.142,20,-7.753,-7.956,-5.206,-4.87,-5.003,-4.708,4.941,8.125,19,-1.837,2.073,4.517,7.552,-8.279,-7.72,-1.262,1.427,164.8,163.4,157.6,158.6,157.6,163.5,167.0,162.3,171.9,173.0,1,norm,1.367,1.372,-1.732,-1.405,-4.435,-4.326,-1.415,-1.501,-1.501,-1.696,1.494,-2.031,,169.9,-4.949,-7.894,2.044,-1.828,8.01,4.332,-4.577,-7.718,5,4.801,4.554,5.18,4.663,1.405,1.8,1.917,1.442,5,4.928,5.173,20,33.0499776306,norm,0,21,21,21,409.568,409.588,409.600173386,409.6,409.602,409.605,down,1,0.722730429864,9.27726957014,001,301,1920_1080,Intel(R) Core(TM) i5-3570 CPU @ 3.40GHz,orientation_search,LEPPC096,Intel(R) HD Graphics 2500,2018_Oct_30_1426,testMonitor,
207.5,196.3,197.6,180.7,36,40,181.7,180.7,194.8,187.6,7.758,8.414,7.654,7.751,8.223,7.545,8.43,4.658,-5.039,-8.315,1.959,-1.585,8.263,5.077,-4.601,-7.574,186.6,186.2,-7.82,191.4,195.1,183.1,198.1,183.9,36,195.2,2,5,prime,10,0,102,norm,36,-4.957,up,norm,187.473950011,189.9,185.7,,172.9,3,189.7,186.6,181.1,10,5,8.04,4.469,1.824,-1.587,-4.812,-8.113,189.4,5,289.5,-8.308,-8.438,40,-7.948,-8.265,-5.207,-5.032,-5.078,-4.645,4.528,8.221,15,-1.765,1.831,5.024,7.569,-7.706,-8.102,-1.736,1.368,195.5,174.0,202.8,189.4,191.1,167.5,186.8,180.4,167.6,188.0,0,norm,2.09,1.94,-1.803,-1.851,-4.611,-4.973,-1.283,-1.26,-1.804,-1.992,1.783,-1.555,182.2,176.4,-4.352,-7.714,1.79,-1.305,8.353,4.615,-4.915,-7.826,6,4.709,5.044,5.124,4.979,2.039,1.794,2.025,2.013,6,5.116,4.827,60,33.0499776306,norm,0,22,22,22,410.36,410.369,410.377972562,410.378,410.38,410.383,up,1,1.28249831489,8.71750168511,001,301,1920_1080,Intel(R) Core(TM) i5-3570 CPU @ 3.40GHz,orientation_search,LEPPC096,Intel(R) HD Graphics 2500,2018_Oct_30_1426,testMonitor,
206.7,200.5,,194.7,36,40,188.3,178.1,179.1,175.9,7.887,8.257,7.893,7.954,8.246,7.812,7.53,4.574,-4.515,-8.486,1.55,-1.651,7.713,4.505,-5.277,-8.156,176.3,195.2,-7.617,188.2,182.4,188.1,191.4,195.2,36,177.0,3,5,prime,10,0,64,norm,36,-4.973,down,norm,187.473950011,185.9,167.5,176.2,190.2,2,171.1,197.7,196.4,10,5,8.009,4.364,1.506,-1.9,-4.476,-7.908,203.6,5,251.5,-7.812,-8.178,40,-7.82,-8.028,-4.372,-4.858,-4.891,-5.024,4.509,8.404,20,-1.832,1.697,5.099,8.021,-8.452,-7.71,-1.393,1.36,176.6,184.1,192.1,202.0,177.5,186.6,199.7,181.5,207.5,189.2,1,norm,1.681,1.416,-1.87,-1.961,-4.4,-4.925,-2.052,-1.726,-1.879,-1.363,1.802,-1.511,176.3,189.6,-4.941,-8.458,1.186,-1.55,7.541,4.982,-5.003,-7.774,6,5.212,4.571,4.717,4.357,1.866,1.429,2.081,1.633,6,4.4,4.83,60,33.0499776306,norm,0,23,23,23,411.698,411.709,411.71361167,411.714,411.715,411.718,up,0,2.60351673986,-10,001,301,1920_1080,Intel(R) Core(TM) i5-3570 CPU @ 3.40GHz,orientation_search,LEPPC096,Intel(R) HD Graphics 2500,2018_Oct_30_1426,testMonitor,
189.5,184.2,174.0,184.0,36,40,189.1,188.3,174.1,185.6,8.288,7.98,7.89,8.39,7.774,7.957,8.2,4.705,-4.452,-8.205,1.106,-1.941,7.803,4.434,-4.434,-7.513,181.2,187.1,-7.976,193.6,181.8,192.8,185.4,187.3,36,189.3,3,5,prime,10,0,82,norm,36,-4.336,down,norm,187.473950011,190.4,192.9,207.5,185.2,1,186.4,199.2,193.4,10,5,8.185,4.391,1.952,-1.306,-4.739,-8.214,204.7,5,269.5,-7.551,-8.232,40,-7.586,-8.038,-5.059,-4.592,-4.53,-4.758,5.232,7.655,19,-1.256,1.404,5.052,8.239,-7.585,-8.341,-1.859,1.187,192.9,167.5,176.6,182.0,201.6,182.3,196.2,179.6,194.7,185.1,2,norm,1.715,2.025,-1.383,-1.266,-4.637,-4.691,-1.29,-1.568,-1.888,-2.043,1.13,-1.314,,183.6,-4.64,-7.559,1.465,-1.782,7.507,5.152,-5.067,-7.628,6,4.663,4.636,4.481,5.117,1.961,2.058,1.783,1.672,6,4.911,4.884,60,33.0499776306,norm,0,24,24,24,415.374,415.384,415.40136638,415.402,415.403,415.406,down,1,2.73207256249,7.26792743751,001,301,1920_1080,Intel(R) Core(TM) i5-3570 CPU @ 3.40GHz,orientation_search,LEPPC096,Intel(R) HD Graphics 2500,2018_Oct_30_1426,testMonitor,
186.1,191.0,188.3,187.5,36,40,176.8,171.3,,170.3,8.212,8.424,7.534,8.019,7.845,8.492,7.957,4.933,-4.311,-7.804,1.446,-1.66,7.836,5.119,-4.993,-8.116,183.0,203.6,-8.18,187.1,167.5,184.9,198.0,185.8,36,170.0,4,5,prime,10,0,116,norm,36,-4.553,up,norm,187.473950011,192.6,183.2,183.4,193.7,4,176.8,177.7,182.8,10,5,8.307,4.693,1.91,-1.57,-4.804,-8.31,195.5,5,303.5,-8.5,-7.551,40,-7.939,-7.663,-4.49,-4.81,-5.141,-5.287,5.083,8.192,28,-1.912,1.576,4.987,8.258,-7.947,-8.216,-1.421,1.617,192.5,188.1,198.3,179.3,185.8,200.3,182.2,194.0,192.3,199.4,3,norm,1.757,1.195,-1.168,-1.68,-4.461,-5.148,-1.324,-1.598,-1.413,-1.842,1.983,-1.966,207.5,197.1,-4.727,-7.995,1.105,-1.257,7.566,4.408,-5.248,-8.107,6,5.268,4.372,4.839,5.122,1.719,1.849,1.208,1.491,6,4.729,4.566,60,33.0499776306,norm,0,25,25,25,418.171,418.183,418.209162468,418.209,418.211,418.214,up,1,1.45303321228,8.54696678772,001,301,1920_1080,Intel(R) Core(TM) i5-3570 CPU @ 3.40GHz,orientation_search,LEPPC096,Intel(R) HD Graphics 2500,2018_Oct_30_1426,testMonitor,
193.0,203.3,174.1,207.5,36,40,179.5,193.3,175.8,176.8,8.49,8.082,8.089,8.0,7.734,8.035,8.201,4.45,-4.442,-7.541,1.774,-1.407,7.594,4.724,-4.967,-7.706,186.7,186.4,-7.85,184.7,178.4,,185.5,187.5,36,198.3,5,5,prime,10,0,85,norm,36,-4.747,up,norm,187.473950011,173.1,187.2,167.5,182.4,3,177.8,183.4,171.8,10,5,7.655,5.017,1.128,-1.664,-4.598,-8.041,197.4,5,272.5,-7.657,-7.722,40,-7.767,-7.995,-5.191,-4.811,-4.697,-4.744,4.486,7.665,33,-1.896,1.996,5.276,7.788,-7.736,-7.837,-1.116,1.119,176.0,203.8,199.2,198.2,200.1,185.7,190.2,189.9,190.9,197.3,4,norm,1.501,1.233,-1.221,-1.163,-4.734,-4.307,-1.539,-1.636,-1.787,-1.134,1.558,-1.978,179.9,188.5,-4.535,-7.623,1.762,-1.359,8.23,5.148,-5.282,-7.89,6,5.03,4.38,5.155,4.311,1.443,1.221,1.485,1.39,6,4.895,4.614,60,33.0499776306,norm,0,26,26,26,419.708,419.73,419.740064494,419.74,419.742,419.745,up,1,1.90703689069,8.09296310931,001,301,1920_1080,Intel(R) Core(TM) i5-3570 CPU @ 3.40GHz,orientation_search,LEPPC096,Intel(R) HD Graphics 2500,2018_Oct_30_1426,testMonitor,
339.9,334.6,334.7,335.6,36,30,337.4,342.2,338.5,343.1,7.734,7.584,7.896,8.085,7.522,7.787,7.905,5.165,-4.541,-7.978,1.256,-1.437,8.176,4.404,-5.03,-7.871,342.8,337.7,-7.531,343.9,341.9,332.9,342.2,337.1,36,342.6,0,5,probe,5,0,110,norm,36,-5.281,down,norm,338.648917289,340.7,333.6,339.9,348.6,2,336.2,337.6,337.0,10,5,7.85,4.887,1.544,-1.455,-5.026,-8.386,334.6,2,228.6,-8.159,-8.041,40,-8.174,-8.124,-4.662,-4.558,-4.476,-4.789,5.055,8.17,2,-1.935,1.415,4.805,8.15,-7.822,-7.51,-1.918,1.61,328.6,346.0,335.5,,347.0,332.3,335.7,336.8,336.5,330.4,0,norm,1.156,1.24,-2.004,-2.01,-4.351,-4.593,-1.964,-1.495,-1.698,-1.202,1.821,-2.097,332.2,334.2,-4.926,-7.582,1.923,-1.678,7.62,4.522,-4.842,-7.711,7,4.937,4.726,5.135,4.929,1.986,1.878,1.766,1.645,7,4.648,5.14,40,187.473950011,norm,0,27,27,27,421.689,421.701,421.721223264,421.721,421.724,421.727,down,1,1.10993253223,8.89006746777,001,301,1920_1080,Intel(R) Core(TM) i5-3570 CPU @ 3.40GHz,orientation_search,LEPPC096,Intel(R) HD Graphics 2500,2018_Oct_30_1426,testMonitor,
306.0,298.4,306.7,300.8,36,30,303.2,299.6,310.6,311.8,7.67,8.191,7.847,8.002,7.576,7.617,8.135,5.051,-4.449,-8.236,1.303,-1.81,8.079,5.139,-5.255,-7.785,298.5,304.4,-7.642,297.4,296.0,312.6,297.3,298.1,36,299.5,1,5,probe,5,0,74,norm,36,-4.814,up,norm,302.648917289,310.4,309.9,305.9,308.9,3,298.9,300.6,302.4,10,5,8.287,5.274,1.462,-1.249,-4.555,-7.57,300.6,2,228.6,-7.941,-7.808,40,-8.18,-7.815,-4.57,-4.326,-4.694,-5.165,5.078,7.941,9,-1.599,1.999,4.663,8.436,-8.202,-7.794,-1.347,2.063,,307.9,300.1,299.4,305.9,292.6,295.2,301.1,301.8,298.4,1,norm,1.726,1.979,-1.704,-1.348,-5.223,-4.561,-1.826,-1.84,-1.338,-1.934,1.36,-1.839,304.8,304.8,-5.067,-8.114,1.819,-1.416,7.891,4.747,-5.125,-8.323,7,4.581,5.199,5.29,4.592,1.302,1.452,1.64,1.89,7,4.826,4.856,40,187.473950011,norm,0,28,28,28,422.87,422.88,422.888999502,422.889,422.891,422.893,up,1,1.6902921088,8.3097078912,001,301,1920_1080,Intel(R) Core(TM) i5-3570 CPU @ 3.40GHz,orientation_search,LEPPC096,Intel(R) HD Graphics 2500,2018_Oct_30_1426,testMonitor,
307.2,310.0,296.7,323.4,36,-20,305.6,315.6,319.6,306.8,7.843,7.99,7.94,7.652,7.702,8.022,7.875,4.536,-4.473,-7.555,1.53,-1.928,7.626,4.784,-5.181,-8.328,326.4,313.7,-7.872,320.6,311.0,311.8,313.4,303.1,36,299.0,1,5,prime,10,0,86,norm,36,-5.172,down,norm,313.303993986,305.4,297.3,300.3,312.1,1,319.9,297.7,297.9,10,5,7.51,4.692,1.632,-1.232,-4.536,-7.767,301.8,5,399.3,-7.748,-7.513,-20,-7.999,-7.85,-4.386,-5.011,-5.265,-5.263,4.484,8.032,7,-1.861,1.597,5.04,7.68,-7.72,-8.437,-1.475,1.182,293.3,325.5,316.0,314.3,333.3,314.1,,307.4,314.1,324.8,0,norm,1.682,1.348,-1.181,-1.225,-5.073,-5.033,-1.887,-1.173,-1.182,-1.481,2.087,-1.864,318.2,320.8,-5.047,-7.778,1.946,-1.867,8.376,4.518,-4.692,-8.288,8,4.682,4.826,4.496,5.032,1.686,1.837,1.968,1.645,8,4.488,5.285,30,187.473950011,norm,0,29,29,29,424.621,424.631,424.637286245,424.637,424.639,424.642,down,1,1.18161330411,8.81838669589,001,301,1920_1080,Intel(R) Core(TM) i5-3570 CPU @ 3.40GHz,orientation_search,LEPPC096,Intel(R) HD Graphics 2500,2018_Oct_30_1426,testMonitor,
329.6,302.8,315.1,298.7,36,-20,314.4,309.6,314.8,331.4,7.891,8.07,8.142,8.183,7.95,8.314,8.433,4.962,-5.132,-8.315,1.754,-1.25,8.391,4.505,-4.692,-7.754,309.7,310.9,-7.978,319.0,293.3,306.0,305.6,322.8,36,308.3,1,5,prime,10,0,113,norm,36,-4.455,down,norm,313.303993986,317.6,316.2,333.3,317.4,0,317.9,310.9,320.3,10,5,8.382,4.736,1.885,-1.213,-4.603,-7.555,325.6,5,426.3,-8.119,-8.406,-20,-8.377,-7.64,-4.332,-4.583,-4.624,-5.095,4.524,8.397,6,-1.223,1.6,4.939,8.257,-8.0,-7.939,-1.789,1.379,316.3,320.4,309.9,310.3,315.5,332.3,309.8,,315.9,314.6,1,norm,1.318,2.035,-2.021,-1.669,-4.44,-4.513,-1.579,-1.432,-1.934,-2.015,1.704,-1.571,327.6,307.6,-4.972,-8.354,1.416,-2.092,8.349,4.42,-4.629,-7.999,8,4.566,4.363,4.566,4.649,2.028,1.753,1.675,1.141,8,5.066,4.997,30,187.473950011,norm,0,30,30,30,425.856,425.866,425.884160755,425.884,425.886,425.889,down,1,1.2307122497,8.7692877503,001,301,1920_1080,Intel(R) Core(TM) i5-3570 CPU @ 3.40GHz,orientation_search,LEPPC096,Intel(R) HD Graphics 2500,2018_Oct_30_1426,testMonitor,
303.1,321.7,311.8,310.5,36,-20,302.6,312.6,309.3,319.9,8.349,8.066,8.109,8.021,7.58,7.608,8.01,5.08,-4.31,-7.961,1.791,-1.422,8.263,4.704,-5.152,-7.968,319.0,305.0,-8.494,302.6,322.0,313.1,304.9,,36,307.1,4,5,prime,10,0,110,norm,36,-5.151,down,norm,313.303993986,319.0,306.6,333.3,318.9,2,310.0,318.1,301.3,10,5,8.291,4.685,1.401,-1.355,-4.502,-8.211,313.6,5,423.3,-7.727,-7.77,-20,-8.275,-8.274,-4.339,-5.261,-5.042,-4.583,5.246,8.331,26,-1.717,1.311,4.325,7.936,-7.632,-8.026,-1.281,1.908,310.7,307.8,308.0,321.3,298.4,325.0,304.7,323.2,297.2,300.1,2,norm,1.41,2.083,-1.705,-1.923,-4.412,-4.491,-1.378,-1.701,-1.392,-1.779,1.741,-1.355,307.6,293.3,-4.681,-7.92,1.762,-2.017,7.932,5.06,-4.589,-7.93,8,5.168,4.656,4.402,5.284,1.774,1.807,1.286,1.415,8,5.237,4.519,30,187.473950011,norm,0,31,31,31,427.153,427.163,427.179069264,427.179,427.181,427.183,down,1,1.19413790158,8.80586209842,001,301,1920_1080,Intel(R) Core(TM) i5-3570 CPU @ 3.40GHz,orientation_search,LEPPC096,Intel(R) HD Graphics 2500,2018_Oct_30_1426,testMonitor,
303.7,299.5,309.7,327.6,36,-20,293.3,310.7,311.9,309.0,7.777,7.871,7.805,7.897,8.406,7.924,8.071,5.299,-4.371,-7.881,1.494,-1.457,8.156,4.834,-4.837,-7.992,308.0,319.7,-7.707,301.7,333.3,320.6,327.2,315.6,36,322.0,2,5,prime,10,0,83,norm,36,-5.196,down,norm,313.303993986,325.0,319.2,315.5,,2,323.5,319.8,294.8,10,5,8.433,4.751,1.422,-1.131,-4.4,-7.701,321.7,5,396.3,-7.811,-8.295,-20,-7.593,-8.069,-5.148,-4.337,-4.431,-4.365,4.929,7.837,14,-1.411,1.405,4.894,7.99,-8.342,-7.887,-1.77,1.282,321.7,296.7,294.9,302.4,318.7,308.8,305.8,319.3,314.6,324.9,3,norm,1.162,1.283,-1.136,-1.623,-5.059,-4.933,-1.434,-1.734,-1.688,-1.691,1.459,-1.72,322.5,301.4,-5.252,-8.106,1.207,-1.562,7.585,4.522,-5.092,-8.128,8,5.025,4.535,5.196,4.69,1.446,1.456,1.641,1.697,8,4.383,4.885,30,187.473950011,norm,0,32,32,32,428.409,428.419,428.426787159,428.427,428.429,428.431,down,1,1.23388233845,8.76611766155,001,301,1920_1080,Intel(R) Core(TM) i5-3570 CPU @ 3.40GHz,orientation_search,LEPPC096,Intel(R) HD Graphics 2500,2018_Oct_30_1426,testMonitor,
302.1,306.8,320.1,321.2,36,-20,307.9,307.9,318.0,312.4,8.099,8.128,8.138,8.247,8.493,8.173,8.453,4.987,-4.728,-8.357,1.854,-2.035,7.807,4.948,-4.481,-7.538,311.7,325.9,-7.917,329.1,303.4,314.7,311.8,303.2,36,333.3,1,5,prime,10,0,98,norm,36,-4.861,down,norm,313.303993986,318.9,313.3,312.2,312.3,0,304.9,305.5,317.9,10,5,7.987,5.02,1.366,-1.591,-5.094,-8.122,319.3,5,411.3,-8.306,-7.956,-20,-7.588,-8.143,-5.041,-4.402,-4.915,-5.109,4.633,8.025,6,-1.156,1.745,5.104,8.488,-8.088,-7.642,-1.188,1.992,303.5,303.5,319.9,321.8,293.3,322.9,314.2,,310.4,323.6,4,norm,1.711,2.004,-1.722,-1.723,-4.813,-5.087,-2.034,-1.982,-1.453,-1.775,1.527,-1.191,316.8,316.6,-4.661,-8.143,1.726,-1.701,8.119,4.364,-5.298,-8.34,8,4.377,5.114,4.604,4.819,1.3,1.587,1.62,1.446,8,5.051,4.492,30,187.473950011,norm,0,33,33,33,429.708,429.723,429.739549227,429.74,429.742,429.744,down,1,1.25065163103,8.74934836897,001,301,1920_1080,Intel(R) Core(TM) i5-3570 CPU @ 3.40GHz,orientation_search,LEPPC096,Intel(R) HD Graphics 2500,2018_Oct_30_1426,testMonitor,
372.8,372.1,366.6,372.6,36,80,382.3,368.5,377.1,367.6,8.249,7.87,8.196,8.035,7.729,7.646,8.318,4.834,-5.204,-7.673,1.559,-1.264,7.972,4.49,-4.932,-7.755,,367.6,-8.385,381.0,366.1,371.7,374.1,362.4,36,377.7,5,5,probe,5,0,78,norm,36,-4.517,up,norm,372.393333718,370.9,379.6,376.3,373.6,5,372.4,382.4,373.8,10,5,7.937,5.26,1.422,-1.58,-5.132,-7.544,371.7,2,294.4,-7.683,-7.977,-20,-7.558,-7.738,-4.958,-4.475,-5.24,-4.551,5.12,7.969,35,-2.09,1.377,5.202,7.713,-8.419,-7.668,-1.232,1.531,366.5,378.1,375.1,367.5,372.4,373.9,373.5,365.7,368.9,373.3,0,norm,1.192,1.93,-1.501,-1.701,-4.826,-5.039,-1.909,-1.77,-1.428,-1.841,2.014,-1.543,372.8,371.7,-4.461,-7.96,1.948,-1.97,8.052,4.481,-4.76,-7.593,9,5.291,4.521,4.858,4.868,1.828,1.977,1.501,1.139,9,4.665,5.238,-20,313.303993986,norm,0,34,34,34,431.033,431.042,431.048712268,431.049,431.051,431.053,up,1,2.55377997314,7.44622002686,001,301,1920_1080,Intel(R) Core(TM) i5-3570 CPU @ 3.40GHz,orientation_search,LEPPC096,Intel(R) HD Graphics 2500,2018_Oct_30_1426,testMonitor,
372.4,359.2,360.8,369.6,36,80,363.2,362.5,365.2,353.5,8.21,7.658,8.497,7.894,7.802,8.474,7.595,5.1,-5.232,-8.409,1.266,-1.61,8.456,4.548,-4.387,-8.237,366.9,365.1,-7.735,365.6,362.7,362.6,366.9,361.0,36,367.2,2,5,probe,5,0,68,norm,36,-4.681,up,norm,362.393333718,,365.9,367.6,360.5,5,364.3,364.4,364.7,10,5,8.159,5.151,1.407,-1.512,-5.083,-7.674,352.4,2,294.4,-8.138,-8.252,-20,-7.663,-7.632,-4.709,-5.088,-5.238,-5.29,4.965,7.871,17,-1.112,1.591,4.556,7.558,-8.188,-8.297,-1.21,1.632,360.0,357.9,361.4,361.4,365.0,361.3,362.7,368.4,370.7,364.4,1,norm,1.822,1.85,-1.638,-1.427,-4.445,-5.004,-1.833,-2.029,-1.819,-1.565,1.958,-1.459,368.8,354.3,-4.993,-8.115,1.456,-1.739,7.844,4.967,-4.787,-7.938,9,4.96,5.161,5.091,4.828,1.339,1.648,1.588,1.377,9,4.788,4.813,-20,313.303993986,norm,0,35,35,35,433.623,433.633,433.639520581,433.64,433.642,433.644,up,1,1.43385360179,8.56614639821,001,301,1920_1080,Intel(R) Core(TM) i5-3570 CPU @ 3.40GHz,orientation_search,LEPPC096,Intel(R) HD Graphics 2500,2018_Oct_30_1426,testMonitor,
247.4,228.3,243.9,224.2,36,30,233.4,226.7,228.4,238.4,8.26,8.409,7.646,8.141,8.07,8.087,8.267,5.104,-4.457,-8.372,1.515,-1.825,8.206,4.305,-4.796,-7.87,230.9,216.7,-8.225,220.5,236.1,249.2,236.7,215.6,36,232.6,1,5,prime,10,0,80,norm,36,-4.653,up,norm,229.178513366,233.5,209.2,218.3,228.9,3,230.0,227.1,238.6,10,6,8.091,4.528,2.092,-1.749,-4.763,-8.111,232.1,6,309.2,-8.114,-7.887,30,-7.82,-7.543,-4.731,-5.241,-4.956,-4.879,4.9,7.805,9,-1.171,1.505,4.949,8.477,-8.414,-8.325,-1.331,1.331,,235.6,218.7,244.5,223.5,237.6,218.7,227.8,221.4,240.7,0,norm,1.721,1.348,-1.274,-1.202,-4.68,-4.651,-1.707,-1.731,-1.342,-1.663,1.376,-1.427,227.1,209.8,-4.418,-7.697,1.163,-1.98,7.573,4.67,-4.599,-8.401,10,5.138,4.949,4.491,5.208,1.488,1.591,1.626,1.31,10,5.185,4.682,80,313.303993986,norm,0,36,36,36,435.12,435.129,435.135934082,435.136,435.138,435.14,up,1,1.24718662924,8.75281337076,001,301,1920_1080,Intel(R) Core(TM) i5-3570 CPU @ 3.40GHz,orientation_search,LEPPC096,Intel(R) HD Graphics 2500,2018_Oct_30_1426,testMonitor,
232.5,229.6,235.6,225.5,36,30,233.8,230.2,228.5,234.5,7.717,7.672,7.956,8.241,7.921,7.628,8.376,5.022,-4.516,-7.531,1.194,-1.7,8.128,4.962,-4.973,-8.039,233.2,224.1,-7.992,231.6,231.4,232.7,248.1,,36,210.3,4,5,prime,10,0,82,norm,36,-4.717,down,norm,229.178513366,242.9,246.8,244.6,229.8,2,223.0,249.2,222.4,10,6,8.251,5.015,1.348,-1.534,-4.492,-8.166,235.2,6,311.2,-8.389,-7.843,30,-8.239,-8.141,-4.414,-4.939,-4.883,-4.584,4.873,8.403,26,-1.503,1.98,5.138,7.716,-7.906,-8.448,-1.419,1.378,209.2,233.1,238.2,242.5,220.9,241.0,235.7,216.2,226.8,231.4,1,norm,1.955,1.64,-1.798,-1.249,-4.482,-4.957,-1.539,-1.836,-1.127,-1.841,1.615,-1.987,232.6,228.6,-4.714,-7.58,1.613,-1.898,7.677,5.281,-5.068,-7.61,10,4.902,4.626,5.048,5.093,1.966,1.455,1.689,1.739,10,5.136,4.773,80,313.303993986,norm,0,37,37,37,436.43,436.439,436.446332317,436.446,436.448,436.451,down,1,1.09757365355,8.90242634645,001,301,1920_1080,Intel(R) Core(TM) i5-3570 CPU @ 3.40GHz,orientation_search,LEPPC096,Intel(R) HD Graphics 2500,2018_Oct_30_1426,testMonitor,
233.1,239.2,243.9,230.1,36,30,232.0,236.8,232.9,239.3,8.242,7.653,8.096,7.56,8.111,8.05,8.003,5.153,-5.021,-8.496,1.672,-1.29,7.817,4.533,-4.767,-7.951,216.1,223.8,-7.749,231.1,227.5,231.9,225.5,232.4,36,248.0,1,5,prime,10,0,60,norm,36,-4.301,down,norm,229.178513366,233.4,221.0,224.4,213.6,2,233.5,218.9,233.6,10,6,8.168,4.625,1.701,-2.015,-4.687,-7.588,246.1,6,289.2,-7.702,-8.139,30,-7.939,-7.599,-4.316,-4.851,-4.613,-4.334,4.734,7.562,8,-1.683,1.587,4.666,7.554,-8.085,-8.249,-2.012,1.296,228.0,,236.5,209.2,227.2,228.3,219.3,241.7,249.2,229.0,2,norm,1.128,2.073,-1.658,-1.98,-4.704,-4.449,-1.676,-1.321,-1.791,-1.602,1.25,-1.547,236.0,229.8,-4.462,-8.111,1.872,-1.21,7.925,5.043,-5.207,-8.199,10,4.69,4.424,5.108,4.338,1.75,1.847,1.893,1.414,10,4.331,4.869,80,313.303993986,norm,0,38,38,38,437.581,437.591,437.599723017,437.6,437.602,437.604,down,1,1.11290490549,8.88709509451,001,301,1920_1080,Intel(R) Core(TM) i5-3570 CPU @ 3.40GHz,orientation_search,LEPPC096,Intel(R) HD Graphics 2500,2018_Oct_30_1426,testMonitor,
220.8,225.1,236.0,,36,30,221.4,228.2,228.5,249.2,8.416,7.876,7.57,7.819,7.624,7.908,7.899,4.308,-5.029,-7.795,1.82,-2.059,7.717,4.992,-4.697,-7.543,248.7,236.2,-8.214,231.7,226.1,224.0,215.0,222.8,36,227.5,3,5,prime,10,0,81,norm,36,-5.166,up,norm,229.178513366,217.5,226.3,209.2,230.4,3,243.8,236.5,218.3,10,6,7.786,4.361,1.87,-1.564,-4.737,-7.623,241.8,6,310.2,-7.707,-8.04,30,-7.727,-7.617,-5.231,-4.474,-5.156,-5.145,5.262,8.017,21,-1.504,1.665,4.718,7.916,-8.49,-7.607,-1.947,1.822,227.3,237.9,246.5,240.5,234.8,227.8,242.0,229.9,224.7,238.1,3,norm,1.458,2.03,-1.634,-1.869,-5.023,-4.471,-1.957,-1.842,-1.909,-1.184,1.546,-1.489,227.3,222.5,-4.528,-7.833,1.899,-1.221,7.558,4.303,-4.827,-8.074,10,4.969,4.944,4.578,5.292,1.851,2.068,2.058,1.482,10,5.18,4.793,80,313.303993986,norm,0,39,39,39,438.755,438.768,438.787417808,438.788,438.791,438.795,down,0,1.34776616203,-10,001,301,1920_1080,Intel(R) Core(TM) i5-3570 CPU @ 3.40GHz,orientation_search,LEPPC096,Intel(R) HD Graphics 2500,2018_Oct_30_1426,testMonitor,
227.9,226.2,,226.1,36,30,217.9,239.9,241.2,244.6,8.362,8.307,7.745,8.011,7.53,7.859,8.294,4.407,-4.684,-7.749,1.211,-1.86,7.721,4.593,-5.277,-7.537,224.3,242.5,-8.198,229.4,249.2,222.8,230.9,231.0,36,236.6,3,5,prime,10,0,79,norm,36,-5.145,down,norm,229.178513366,228.0,233.8,238.1,230.8,2,232.9,225.7,237.4,10,6,8.105,5.095,1.743,-1.368,-5.275,-8.364,209.2,6,308.2,-8.027,-8.182,30,-7.793,-8.367,-4.944,-5.129,-4.985,-4.358,4.849,8.458,20,-1.958,1.75,4.868,8.437,-8.381,-7.503,-1.537,1.834,226.6,222.5,227.0,223.3,249.1,241.1,216.3,226.1,230.7,225.8,4,norm,1.283,1.829,-1.593,-1.434,-4.965,-4.738,-1.875,-1.996,-1.709,-1.149,2.097,-1.139,234.6,243.9,-4.757,-7.836,1.266,-1.471,7.841,4.994,-5.242,-8.03,10,4.885,5.128,4.794,5.232,1.92,1.512,1.818,1.528,10,5.099,4.633,80,313.303993986,norm,0,40,40,40,441.21,441.219,441.234497219,441.235,441.236,441.239,down,1,0.99466802059,9.00533197941,001,301,1920_1080,Intel(R) Core(TM) i5-3570 CPU @ 3.40GHz,orientation_search,LEPPC096,Intel(R) HD Graphics 2500,2018_Oct_30_1426,testMonitor,
220.6,229.3,229.8,229.9,36,30,230.9,218.6,228.1,240.4,7.919,7.588,7.806,8.317,7.567,8.37,7.988,4.745,-5.19,-7.811,1.263,-1.758,7.848,4.354,-4.509,-7.979,215.1,209.5,-8.136,223.8,233.5,237.4,249.2,240.3,36,222.2,0,5,prime,10,0,61,norm,36,-4.451,up,norm,229.178513366,227.1,221.1,228.0,230.7,5,238.2,226.5,225.5,10,6,7.849,4.976,2.079,-1.669,-4.992,-7.915,209.2,6,290.2,-7.949,-7.511,30,-7.929,-8.307,-4.818,-4.727,-4.447,-4.597,5.064,7.932,5,-1.566,1.18,4.943,7.703,-7.669,-7.992,-1.354,1.895,241.2,216.4,247.3,240.9,220.7,223.5,247.7,240.7,,210.9,5,norm,1.116,1.154,-1.431,-1.223,-4.444,-4.85,-1.297,-1.521,-1.828,-2.018,2.061,-1.442,229.5,237.6,-4.55,-7.636,1.207,-1.107,8.365,4.767,-4.868,-8.348,10,5.175,5.172,4.917,5.242,1.429,1.728,1.166,1.512,10,5.204,4.556,80,313.303993986,norm,0,41,41,41,442.267,442.28,442.299436949,442.3,442.302,442.305,up,1,1.54670296582,8.45329703418,001,301,1920_1080,Intel(R) Core(TM) i5-3570 CPU @ 3.40GHz,orientation_search,LEPPC096,Intel(R) HD Graphics 2500,2018_Oct_30_1426,testMonitor,
383.0,383.7,374.1,378.0,36,-60,379.2,377.2,381.0,386.3,7.696,8.044,8.24,7.632,8.073,7.777,8.444,4.809,-5.049,-7.502,1.822,-1.274,7.91,5.199,-4.846,-7.963,370.8,385.0,-7.988,379.7,386.8,383.5,387.5,382.3,36,389.6,0,5,probe,5,0,117,norm,36,-4.649,up,norm,379.586410877,386.6,381.6,384.7,376.1,4,377.8,375.8,381.1,10,6,8.117,5.076,1.61,-1.746,-5.235,-8.17,387.9,2,262.6,-7.923,-7.969,30,-7.638,-8.483,-4.891,-4.88,-4.782,-5.189,4.345,8.14,4,-1.881,1.224,4.716,8.499,-8.039,-7.722,-2.003,1.999,380.2,375.6,382.4,378.0,382.2,376.7,377.1,371.1,379.8,,0,norm,1.488,1.595,-1.22,-1.662,-4.822,-4.3,-2.072,-1.636,-1.951,-1.241,1.13,-1.293,369.6,379.1,-5.052,-8.385,1.597,-1.494,8.45,5.218,-4.438,-8.288,11,4.489,4.952,4.374,5.08,1.373,1.967,1.982,2.039,11,5.047,5.044,30,229.178513366,norm,0,42,42,42,443.871,443.881,443.8873399,443.888,443.889,443.892,up,1,2.75256343422,7.24743656578,001,301,1920_1080,Intel(R) Core(TM) i5-3570 CPU @ 3.40GHz,orientation_search,LEPPC096,Intel(R) HD Graphics 2500,2018_Oct_30_1426,testMonitor,
360.8,363.7,356.6,368.0,36,-60,361.4,374.3,366.4,358.8,7.795,7.844,7.667,7.608,8.369,7.697,8.104,4.949,-5.004,-8.485,1.158,-1.408,7.978,4.322,-4.309,-8.46,376.6,367.5,-7.612,361.8,371.8,371.8,367.8,362.7,36,369.1,2,5,probe,5,0,104,norm,36,-4.652,up,norm,366.586410877,365.1,,366.3,363.2,4,366.8,362.4,361.6,10,6,7.718,5.251,1.497,-1.746,-5.068,-8.221,371.6,2,262.6,-8.499,-8.353,30,-7.67,-8.115,-5.149,-4.543,-4.307,-4.572,4.73,8.225,16,-2.078,1.488,4.306,7.821,-8.024,-8.031,-1.459,1.131,368.0,375.2,366.8,371.8,360.4,368.6,365.8,369.0,374.1,359.8,1,norm,2.077,2.044,-1.465,-1.339,-4.861,-4.489,-2.088,-1.535,-1.757,-1.307,1.297,-1.987,367.9,370.5,-5.129,-7.705,1.533,-1.964,8.482,4.562,-4.58,-7.774,11,4.891,5.012,4.711,4.353,2.001,2.082,1.702,1.635,11,4.661,4.735,30,229.178513366,norm,0,43,43,43,446.676,446.685,446.694384367,446.695,446.696,446.699,up,1,1.68602658564,8.31397341436,001,301,1920_1080,Intel(R) Core(TM) i5-3570 CPU @ 3.40GHz,orientation_search,LEPPC096,Intel(R) HD Graphics 2500,2018_Oct_30_1426,testMonitor,
312.3,319.0,325.9,334.5,36,40,324.9,328.5,316.0,340.3,7.62,7.712,8.303,8.187,8.316,7.896,7.921,5.293,-5.039,-7.736,1.206,-1.89,7.554,5.179,-5.015,-8.041,317.7,319.7,-7.543,326.7,321.9,320.0,320.2,,36,322.2,4,5,prime,10,0,98,norm,36,-4.809,down,norm,320.264260959,313.3,316.8,311.3,323.2,2,332.1,328.3,325.0,10,6,7.652,4.624,1.818,-1.205,-4.86,-7.967,319.0,6,418.3,-8.155,-8.183,40,-7.915,-8.353,-4.332,-4.683,-4.552,-4.429,4.96,7.788,26,-1.974,1.759,4.604,8.099,-7.77,-7.877,-1.788,1.878,319.2,315.2,320.4,323.6,300.3,317.1,314.0,317.2,336.7,324.1,0,norm,1.687,1.436,-1.394,-1.443,-4.963,-5.104,-2.051,-1.544,-1.372,-2.097,1.596,-1.418,318.4,305.6,-5.292,-8.066,2.021,-1.23,7.793,5.054,-4.609,-8.033,12,4.946,4.775,4.544,5.165,1.46,1.55,1.55,2.09,12,5.159,4.765,-60,229.178513366,norm,0,44,44,44,448.418,448.43,448.449930437,448.45,448.452,448.454,down,1,1.28548306423,8.71451693577,001,301,1920_1080,Intel(R) Core(TM) i5-3570 CPU @ 3.40GHz,orientation_search,LEPPC096,Intel(R) HD Graphics 2500,2018_Oct_30_1426,testMonitor,
303.0,334.0,320.0,315.3,36,40,333.8,308.0,331.7,335.5,8.457,8.151,7.8,7.696,8.342,7.981,8.019,5.158,-4.385,-8.041,1.492,-1.341,7.928,4.804,-4.413,-7.769,327.7,320.4,-8.337,323.5,313.5,321.0,340.3,334.4,36,300.3,1,5,prime,10,0,117,norm,36,-4.554,up,norm,320.264260959,316.1,331.3,311.0,317.5,5,,323.3,313.2,10,6,7.632,5.274,1.712,-1.328,-5.065,-8.062,322.4,6,437.3,-7.697,-8.257,40,-8.424,-7.844,-4.322,-4.633,-4.909,-4.665,5.29,8.371,11,-1.627,2.056,4.893,8.134,-7.72,-7.689,-1.332,1.859,311.6,311.1,313.8,315.7,316.3,328.2,324.4,332.7,321.0,308.5,1,norm,1.796,1.995,-2.086,-1.482,-5.137,-4.498,-1.959,-1.559,-1.118,-1.302,1.298,-1.739,304.6,328.4,-4.927,-8.229,1.873,-1.877,7.872,4.876,-4.562,-8.018,12,4.929,4.603,4.386,5.106,2.022,1.391,1.748,2.053,12,4.439,4.394,-60,229.178513366,norm,0,45,45,45,449.772,449.782,449.7986239,449.799,449.801,449.803,up,1,1.01195801428,8.98804198572,001,301,1920_1080,Intel(R) Core(TM) i5-3570 CPU @ 3.40GHz,orientation_search,LEPPC096,Intel(R) HD Graphics 2500,2018_Oct_30_1426,testMonitor,
317.0,330.5,329.0,324.3,36,40,326.3,321.1,314.9,327.3,7.84,7.875,7.501,7.65,7.614,8.375,8.412,4.32,-5.147,-8.084,1.221,-1.933,7.599,5.226,-4.315,-7.801,315.0,335.9,-8.45,340.3,323.4,324.4,325.3,315.5,36,314.0,0,5,prime,10,0,108,norm,36,-5.21,up,norm,320.264260959,300.3,323.8,331.5,313.5,5,324.3,324.8,324.1,10,6,8.116,4.337,1.548,-2.002,-4.342,-7.952,302.5,6,428.3,-7.924,-7.593,40,-7.97,-8.473,-4.77,-4.596,-4.839,-4.939,4.418,8.228,5,-1.676,1.802,4.315,8.048,-8.357,-7.97,-1.896,1.776,334.7,327.1,316.9,312.0,317.1,331.1,312.5,324.2,,325.9,2,norm,1.11,1.321,-1.516,-1.785,-4.889,-5.183,-1.948,-1.256,-1.83,-2.052,1.334,-1.754,314.4,302.5,-4.497,-7.953,1.534,-1.836,8.468,4.323,-4.923,-7.514,12,5.204,5.174,5.072,5.223,1.188,1.959,1.408,1.394,12,5.074,4.779,-60,229.178513366,norm,0,46,46,46,450.848,450.857,450.874987964,450.875,450.877,450.879,up,1,1.88989359888,8.11010640112,001,301,1920_1080,Intel(R) Core(TM) i5-3570 CPU @ 3.40GHz,orientation_search,LEPPC096,Intel(R) HD Graphics 2500,2018_Oct_30_1426,testMonitor,
302.5,321.8,325.2,306.3,36,40,313.7,324.9,310.4,313.9,8.104,7.795,7.661,7.906,7.743,7.843,8.089,5.281,-4.331,-7.788,1.872,-1.722,8.224,5.091,-4.355,-7.902,328.1,322.4,-7.531,328.6,322.9,323.6,315.9,332.1,36,337.3,3,5,prime,10,0,118,norm,36,-5.062,down,norm,320.264260959,334.3,317.7,330.7,319.0,0,314.6,340.3,313.0,10,6,8.354,4.339,1.888,-1.439,-4.907,-7.843,303.8,6,438.3,-7.86,-8.406,40,-8.311,-8.084,-4.754,-5.076,-4.843,-4.606,4.419,8.496,18,-2.001,1.2,4.389,7.562,-7.884,-7.763,-1.644,1.578,325.6,318.0,320.6,325.5,333.7,309.3,300.3,327.7,313.7,335.4,3,norm,1.396,1.692,-1.537,-1.389,-5.191,-4.783,-1.334,-1.609,-1.904,-1.403,1.199,-1.388,324.8,,-5.292,-7.915,1.916,-1.171,8.053,4.865,-5.28,-7.89,12,4.502,4.684,5.011,4.492,1.684,1.432,2.018,1.602,12,4.989,5.195,-60,229.178513366,norm,0,47,47,47,452.81,452.819,452.825955124,452.826,452.828,452.83,down,1,0.939560033216,9.06043996678,001,301,1920_1080,Intel(R) Core(TM) i5-3570 CPU @ 3.40GHz,orientation_search,LEPPC096,Intel(R) HD Graphics 2500,2018_Oct_30_1426,testMonitor,
340.3,316.0,320.1,330.3,36,40,336.6,317.5,327.3,313.8,7.737,7.741,8.449,8.314,7.508,7.941,7.545,5.248,-4.83,-7.985,1.389,-1.187,8.251,4.796,-4.634,-7.587,311.4,,-8.168,324.3,322.6,310.0,333.0,310.1,36,322.0,5,5,prime,10,0,70,norm,36,-4.638,up,norm,320.264260959,326.1,318.1,323.9,329.0,4,333.2,327.6,300.7,10,6,8.121,5.29,1.119,-1.591,-4.588,-8.237,313.5,6,390.3,-7.603,-8.061,40,-7.772,-8.424,-4.377,-5.2,-4.993,-4.856,4.754,7.942,34,-1.109,1.999,4.969,7.905,-7.541,-8.39,-1.273,1.784,321.6,313.9,305.9,308.4,320.4,327.9,333.3,314.7,329.9,300.3,4,norm,1.826,1.291,-1.559,-1.968,-4.56,-4.571,-2.022,-1.876,-1.409,-1.71,1.569,-1.552,323.4,315.1,-5.256,-8.093,1.828,-1.44,7.834,5.251,-5.168,-7.904,12,4.932,4.514,4.49,4.656,1.342,1.865,1.381,1.931,12,4.385,4.836,-60,229.178513366,norm,0,48,48,48,453.808,453.818,453.826058661,453.826,453.828,453.83,up,1,1.02617028707,8.97382971293,001,301,1920_1080,Intel(R) Core(TM) i5-3570 CPU @ 3.40GHz,orientation_search,LEPPC096,Intel(R) HD Graphics 2500,2018_Oct_30_1426,testMonitor,
303.3,332.0,323.6,325.1,36,40,325.8,326.0,321.9,317.3,7.606,8.096,7.818,8.257,8.019,7.946,8.096,4.405,-4.615,-7.89,1.477,-1.664,7.659,4.332,-5.055,-7.828,339.8,324.6,-7.773,333.0,327.0,,329.0,306.9,36,322.1,5,5,prime,10,0,64,norm,36,-5.098,up,norm,320.264260959,317.7,320.0,312.2,327.7,3,305.1,332.7,334.9,10,6,7.928,5.179,1.335,-1.347,-4.833,-8.452,314.2,6,384.3,-8.459,-7.571,40,-8.429,-8.419,-5.223,-4.369,-4.881,-4.633,4.714,7.711,33,-1.766,1.775,4.991,7.827,-8.161,-7.801,-1.15,1.305,317.9,314.5,320.6,314.7,321.3,340.3,321.0,320.5,317.7,335.0,5,norm,1.15,1.107,-1.382,-1.154,-4.622,-5.096,-1.106,-2.04,-1.622,-1.495,1.67,-2.001,300.3,333.0,-5.153,-7.862,1.117,-1.14,8.358,4.482,-4.367,-7.515,12,4.493,4.303,4.99,5.083,1.915,1.307,1.837,1.885,12,5.274,5.09,-60,229.178513366,norm,0,49,49,49,454.89,454.903,454.921805484,454.922,454.924,454.926,up,1,1.3528795979,8.6471204021,001,301,1920_1080,Intel(R) Core(TM) i5-3570 CPU @ 3.40GHz,orientation_search,LEPPC096,Intel(R) HD Graphics 2500,2018_Oct_30_1426,testMonitor,
418.6,425.4,428.2,425.5,36,-40,433.2,432.3,434.1,427.8,8.223,7.891,7.984,8.476,7.647,7.527,7.956,5.195,-4.955,-8.033,1.226,-1.814,8.147,4.979,-4.7,-7.951,427.3,429.8,-7.752,431.9,430.0,436.1,418.5,426.4,36,429.1,3,5,probe,5,0,69,norm,36,-4.308,down,norm,428.468085084,431.5,436.2,422.2,428.5,0,427.4,429.3,431.0,10,6,7.779,5.249,1.609,-1.337,-5.246,-8.147,434.1,1,359.5,-8.331,-7.929,40,-8.364,-8.379,-5.007,-4.502,-4.437,-4.708,5.264,8.247,18,-1.975,1.721,4.34,7.611,-8.176,-8.289,-1.663,1.481,431.9,429.1,420.3,426.4,427.9,430.8,434.0,433.0,438.5,419.1,0,norm,1.644,1.89,-1.292,-1.208,-4.577,-4.332,-1.388,-1.428,-1.965,-1.413,1.896,-1.279,435.0,,-4.749,-8.169,1.429,-1.893,7.651,4.344,-4.315,-7.997,13,4.818,4.867,4.606,4.65,1.663,1.668,1.711,1.653,13,5.192,5.213,40,320.264260959,norm,0,50,50,50,456.312,456.321,456.335058036,456.335,456.337,456.339,down,1,1.53669463762,8.46330536238,001,301,1920_1080,Intel(R) Core(TM) i5-3570 CPU @ 3.40GHz,orientation_search,LEPPC096,Intel(R) HD Graphics 2500,2018_Oct_30_1426,testMonitor,
172.9,173.8,200.4,191.3,36,-60,187.2,191.2,169.2,191.1,8.338,8.468,8.11,7.763,7.666,8.471,7.892,4.987,-4.41,-7.586,1.728,-1.126,8.033,4.968,-4.704,-8.132,175.3,175.9,-8.394,185.1,195.6,170.3,189.0,176.0,36,196.0,3,5,prime,10,0,97,norm,36,-5.215,down,norm,181.099905336,168.3,163.4,181.7,183.3,0,172.9,164.4,191.1,10,6,8.441,4.475,1.573,-1.291,-4.879,-8.309,161.1,6,278.1,-7.564,-8.213,-60,-7.671,-8.23,-5.134,-5.237,-4.317,-4.676,4.348,7.705,18,-1.3,1.475,5.041,8.204,-7.88,-7.634,-1.712,1.928,166.8,181.1,181.9,176.3,176.4,176.0,201.1,183.7,187.7,173.5,0,norm,1.94,1.466,-1.365,-1.176,-5.023,-4.853,-1.301,-1.298,-1.444,-1.289,1.326,-1.472,174.7,,-4.693,-7.941,1.735,-1.26,8.219,4.413,-4.706,-8.235,14,5.037,4.413,4.449,4.989,1.809,1.596,1.831,1.955,14,4.532,4.755,-40,320.264260959,norm,0,51,51,51,457.907,457.917,457.926103305,457.926,457.928,457.93,down,1,1.58231197935,8.41768802065,001,301,1920_1080,Intel(R) Core(TM) i5-3570 CPU @ 3.40GHz,orientation_search,LEPPC096,Intel(R) HD Graphics 2500,2018_Oct_30_1426,testMonitor,
161.1,180.0,188.7,178.2,36,-60,165.5,195.2,186.7,199.8,7.727,7.786,8.061,8.375,8.245,8.319,7.787,5.007,-4.807,-7.992,1.335,-1.852,7.944,5.102,-4.556,-8.224,171.1,201.1,-8.5,177.9,196.5,179.4,175.5,188.8,36,184.8,3,5,prime,10,0,70,norm,36,-4.636,down,norm,181.099905336,187.5,176.1,189.0,164.1,1,164.7,198.6,184.6,10,6,7.695,4.77,1.877,-2.098,-4.522,-8.116,181.3,6,251.1,-8.246,-7.88,-60,-8.369,-7.811,-5.099,-4.56,-4.598,-4.512,5.237,8.286,19,-1.614,1.105,4.922,7.611,-7.555,-8.115,-1.116,1.812,196.9,184.9,173.6,179.4,184.0,179.2,181.8,174.0,172.6,176.1,1,norm,1.724,1.355,-1.136,-1.549,-5.017,-4.411,-1.11,-2.029,-1.903,-1.438,1.303,-1.544,,174.8,-4.629,-8.12,1.502,-2.099,7.743,4.685,-4.455,-8.258,14,4.68,5.185,5.111,4.66,1.399,1.574,1.727,1.318,14,4.704,5.176,-40,320.264260959,norm,0,52,52,52,459.545,459.555,459.564101929,459.564,459.566,459.568,down,1,1.37988149748,8.62011850252,001,301,1920_1080,Intel(R) Core(TM) i5-3570 CPU @ 3.40GHz,orientation_search,LEPPC096,Intel(R) HD Graphics 2500,2018_Oct_30_1426,testMonitor,
201.1,170.4,191.6,188.5,36,-60,185.3,188.8,180.8,177.3,8.312,8.18,8.401,8.112,8.022,7.509,8.295,4.36,-4.877,-7.761,2.068,-1.34,7.601,4.713,-4.334,-7.554,170.3,184.9,-7.503,181.0,176.8,175.4,190.2,194.2,36,188.1,2,5,prime,10,0,67,norm,36,-4.578,down,norm,181.099905336,183.1,195.5,185.9,167.0,1,169.9,,184.4,10,6,7.766,4.651,2.012,-1.358,-4.591,-8.258,171.2,6,248.1,-8.216,-8.469,-60,-7.629,-8.127,-5.276,-4.884,-4.351,-4.442,4.824,8.207,13,-1.191,1.467,4.656,7.548,-8.138,-7.908,-1.289,1.573,174.9,175.9,195.8,177.7,188.4,185.0,161.1,171.3,186.6,173.6,2,norm,1.882,1.577,-1.14,-1.512,-5.264,-4.627,-1.685,-1.153,-2.007,-1.966,1.218,-1.123,178.3,181.5,-4.882,-7.501,1.931,-2.006,7.882,4.76,-5.067,-8.097,14,4.667,5.149,4.477,4.986,1.103,1.296,1.927,1.448,14,4.323,5.036,-40,320.264260959,norm,0,53,53,53,460.969,460.978,460.984669654,460.985,460.987,460.989,down,1,2.70491611279,7.29508388721,001,301,1920_1080,Intel(R) Core(TM) i5-3570 CPU @ 3.40GHz,orientation_search,LEPPC096,Intel(R) HD Graphics 2500,2018_Oct_30_1426,testMonitor,
187.2,183.7,161.1,176.5,36,-60,173.6,191.2,,185.6,8.021,7.611,7.727,8.244,8.018,8.035,7.738,5.02,-4.908,-7.531,2.002,-1.978,7.822,5.245,-4.636,-7.971,196.2,188.2,-7.888,162.4,169.6,169.5,184.7,171.7,36,164.8,4,5,prime,10,0,79,norm,36,-4.766,up,norm,181.099905336,184.6,172.9,198.4,180.0,4,180.8,194.0,184.7,10,6,7.516,4.804,1.79,-1.443,-4.584,-7.688,184.9,6,260.1,-8.481,-8.456,-60,-8.175,-8.432,-5.267,-5.158,-5.031,-5.213,4.633,7.908,28,-1.369,1.93,5.284,7.914,-7.752,-7.843,-1.55,1.165,167.9,180.4,184.8,170.2,190.4,170.3,201.1,191.6,187.3,188.3,3,norm,1.169,1.739,-2.085,-1.216,-4.71,-4.65,-1.188,-1.91,-1.261,-1.32,1.227,-1.562,188.6,171.2,-5.221,-8.427,1.107,-1.294,8.41,4.94,-4.498,-7.902,14,4.662,4.629,5.151,4.629,1.206,1.545,1.132,1.678,14,5.087,4.567,-40,320.264260959,norm,0,54,54,54,463.73,463.739,463.745840806,463.746,463.748,463.75,up,1,2.1325240179,7.8674759821,001,301,1920_1080,Intel(R) Core(TM) i5-3570 CPU @ 3.40GHz,orientation_search,LEPPC096,Intel(R) HD Graphics 2500,2018_Oct_30_1426,testMonitor,
201.1,192.8,179.5,182.3,36,-60,188.2,169.5,196.0,192.7,8.38,8.278,8.111,8.293,7.732,7.72,7.775,5.057,-4.907,-8.203,1.581,-1.103,7.976,4.567,-5.229,-8.199,179.3,165.3,-8.401,195.8,186.9,194.9,167.9,173.2,36,175.1,0,5,prime,10,0,112,norm,36,-4.526,down,norm,181.099905336,188.4,192.8,182.9,174.8,1,187.8,172.8,198.3,10,6,8.109,5.25,1.99,-1.851,-4.486,-8.044,188.3,6,293.1,-8.212,-8.038,-60,-7.652,-8.246,-4.607,-4.469,-4.822,-4.401,4.816,8.42,1,-1.466,1.354,5.154,7.669,-8.422,-7.786,-1.433,1.21,170.3,179.3,185.6,180.5,,189.5,184.9,161.1,180.6,195.8,4,norm,1.603,1.923,-1.336,-1.175,-5.231,-5.089,-1.219,-1.934,-1.952,-1.834,1.179,-1.434,176.0,180.2,-4.459,-8.166,1.374,-1.48,8.005,4.415,-4.739,-7.81,14,4.912,4.383,4.731,5.185,1.161,2.0,1.635,1.969,14,4.94,4.518,-40,320.264260959,norm,0,55,55,55,465.899,465.91,465.928898489,465.929,465.931,465.933,up,0,2.58111813999,-10,001,301,1920_1080,Intel(R) Core(TM) i5-3570 CPU @ 3.40GHz,orientation_search,LEPPC096,Intel(R) HD Graphics 2500,2018_Oct_30_1426,testMonitor,
161.1,177.1,170.7,200.4,36,-60,192.6,170.0,182.1,193.5,7.91,7.735,7.989,7.622,7.982,7.567,7.591,5.205,-4.866,-8.367,1.29,-1.72,7.537,5.177,-4.388,-7.796,164.3,185.7,-8.276,185.9,170.1,175.8,175.5,197.5,36,186.2,1,5,prime,10,0,103,norm,36,-4.898,down,norm,181.099905336,200.4,182.0,177.2,185.9,1,184.7,177.5,172.7,10,6,7.74,5.035,1.281,-1.592,-4.742,-7.985,167.9,6,284.1,-8.485,-8.117,-60,-8.206,-8.116,-4.977,-4.364,-5.008,-5.23,5.07,7.536,7,-1.858,2.092,4.747,8.26,-7.624,-8.28,-1.904,1.235,174.0,201.1,183.0,173.5,176.2,196.8,,183.8,176.7,171.1,5,norm,1.363,1.419,-1.436,-1.605,-5.167,-4.418,-1.838,-1.346,-1.727,-1.225,1.666,-1.679,186.2,186.9,-4.767,-7.722,1.783,-2.001,8.192,4.931,-4.349,-7.974,14,5.212,5.278,4.985,4.326,1.104,2.01,1.366,1.231,14,4.743,5.123,-40,320.264260959,norm,0,56,56,56,469.568,469.578,469.594844727,469.595,469.597,469.599,down,1,2.32793876917,7.67206123083,001,301,1920_1080,Intel(R) Core(TM) i5-3570 CPU @ 3.40GHz,orientation_search,LEPPC096,Intel(R) HD Graphics 2500,2018_Oct_30_1426,testMonitor,
204.4,200.2,201.2,207.2,36,-80,198.7,204.5,201.7,196.0,8.067,7.51,7.949,8.28,7.656,8.072,7.918,4.459,-5.132,-8.292,1.285,-1.67,8.48,4.807,-4.392,-8.01,196.3,207.4,-7.78,209.4,196.7,208.1,196.6,197.3,36,208.4,1,5,probe,5,0,72,norm,36,-4.782,up,norm,201.287731027,206.6,202.9,205.2,193.8,5,,203.6,191.3,10,6,7.961,4.945,1.382,-1.195,-5.198,-7.611,201.9,2,129.3,-7.576,-8.337,-60,-7.742,-8.343,-4.897,-5.272,-4.938,-5.197,4.44,7.868,11,-1.844,1.251,4.305,8.485,-7.809,-7.685,-1.392,1.184,199.9,195.3,205.1,202.9,210.7,203.8,200.4,195.4,211.3,203.3,0,norm,1.377,1.419,-1.886,-1.823,-4.746,-4.839,-1.647,-1.513,-1.6,-1.364,2.067,-1.742,204.5,200.4,-4.557,-8.138,1.316,-1.707,8.079,5.124,-5.105,-8.379,15,4.316,5.032,4.453,4.522,1.379,1.142,1.748,1.141,15,4.73,4.956,-60,181.099905336,norm,0,57,57,57,471.967,471.981,471.999360066,472.0,472.003,472.007,up,1,1.24321994325,8.75678005675,001,301,1920_1080,Intel(R) Core(TM) i5-3570 CPU @ 3.40GHz,orientation_search,LEPPC096,Intel(R) HD Graphics 2500,2018_Oct_30_1426,testMonitor,
237.3,250.0,244.3,254.3,36,-80,246.2,241.2,253.1,247.8,8.157,8.309,7.511,7.585,7.746,8.305,7.837,5.123,-4.85,-8.128,1.187,-1.535,7.71,4.921,-4.443,-8.117,256.4,255.3,-8.489,243.8,245.9,249.2,255.9,255.1,36,250.0,0,5,probe,5,0,118,norm,36,-4.918,up,norm,247.287731027,254.1,245.2,246.5,240.3,5,246.0,255.5,243.3,10,6,7.951,4.418,1.618,-2.035,-4.81,-7.736,257.3,2,129.3,-8.095,-7.89,-60,-7.954,-7.522,-5.12,-5.107,-4.732,-4.873,4.989,7.69,5,-2.076,1.632,5.247,8.036,-7.697,-7.697,-1.352,1.239,252.2,243.0,250.2,246.5,251.6,242.4,241.6,240.8,,248.4,1,norm,1.856,1.593,-1.475,-1.457,-4.846,-4.471,-1.626,-1.612,-1.943,-1.732,1.296,-1.317,238.5,246.5,-4.906,-7.957,1.818,-1.924,8.252,4.498,-4.809,-8.024,15,5.165,4.934,4.665,4.584,1.939,1.782,1.727,2.011,15,4.462,4.485,-60,181.099905336,norm,0,58,58,58,473.284,473.296,473.316049578,473.316,473.318,473.32,up,1,0.88203267226,9.11796732774,001,301,1920_1080,Intel(R) Core(TM) i5-3570 CPU @ 3.40GHz,orientation_search,LEPPC096,Intel(R) HD Graphics 2500,2018_Oct_30_1426,testMonitor,
95.0,123.5,128.4,90.7,36,0,105.4,110.1,106.5,89.7,8.09,8.079,7.903,7.705,8.036,7.66,7.802,5.28,-4.516,-8.023,1.656,-1.159,8.3,4.846,-4.602,-7.879,96.8,102.4,-7.643,105.0,94.1,104.6,115.6,114.6,36,102.1,0,5,prime,10,0,82,norm,36,-5.117,down,norm,108.369255805,108.4,106.3,112.8,104.5,1,113.4,111.2,109.2,10,6,8.437,4.324,1.845,-1.526,-4.313,-7.884,88.4,6,190.4,-7.508,-7.939,0,-8.15,-8.025,-4.528,-4.462,-4.689,-4.773,4.855,8.409,1,-1.866,1.839,5.088,7.52,-8.041,-8.321,-2.098,1.742,119.4,123.1,109.0,112.6,,119.6,117.3,96.3,98.7,113.4,0,norm,1.372,1.228,-1.26,-1.557,-4.736,-4.79,-1.459,-1.736,-1.938,-1.723,1.194,-1.611,108.4,119.4,-5.21,-7.569,1.707,-1.806,7.72,4.442,-4.426,-8.396,16,4.523,4.846,5.025,5.111,2.094,1.348,2.082,1.402,16,4.556,4.571,-80,181.099905336,norm,0,59,59,59,474.235,474.247,474.267641882,474.268,474.27,474.272,down,1,1.3602696296,8.6397303704,001,301,1920_1080,Intel(R) Core(TM) i5-3570 CPU @ 3.40GHz,orientation_search,LEPPC096,Intel(R) HD Graphics 2500,2018_Oct_30_1426,testMonitor,
104.5,113.2,99.5,98.5,36,0,110.3,125.0,103.7,113.5,7.558,7.831,7.957,7.963,8.182,7.964,8.455,5.015,-4.836,-7.781,1.227,-1.489,7.924,5.038,-4.422,-7.504,109.6,107.0,-7.892,94.2,109.4,100.5,113.7,88.4,36,111.1,0,5,prime,10,0,74,norm,36,-5.227,up,norm,108.369255805,95.0,125.7,116.1,103.8,4,94.8,101.3,122.8,10,6,7.705,4.523,1.865,-2.034,-4.334,-8.414,105.4,6,182.4,-8.208,-7.769,0,-7.927,-7.901,-4.86,-4.731,-4.745,-4.991,4.692,8.412,4,-1.809,1.181,4.51,8.004,-7.86,-8.06,-2.081,1.63,113.4,113.2,117.6,111.3,92.4,128.4,92.9,106.8,111.7,,1,norm,1.372,1.214,-1.341,-1.276,-5.098,-5.237,-1.173,-1.995,-1.256,-1.162,2.014,-1.812,117.9,109.1,-4.968,-8.208,1.692,-1.746,8.243,4.697,-4.491,-7.682,16,5.197,4.395,5.281,4.833,1.599,1.712,1.482,1.539,16,4.335,4.453,-80,181.099905336,norm,0,60,60,60,475.664,475.674,475.679799,475.68,475.682,475.685,up,1,2.43422941216,7.56577058784,001,301,1920_1080,Intel(R) Core(TM) i5-3570 CPU @ 3.40GHz,orientation_search,LEPPC096,Intel(R) HD Graphics 2500,2018_Oct_30_1426,testMonitor,
101.0,108.5,103.2,106.9,36,0,100.7,92.2,114.4,114.5,8.328,8.27,7.712,8.154,8.264,8.334,7.781,4.324,-5.003,-7.785,1.861,-1.64,7.928,4.99,-4.576,-8.49,95.9,116.9,-7.537,108.4,107.1,109.3,124.0,99.8,36,88.4,2,5,prime,10,0,100,norm,36,-4.51,down,norm,108.369255805,118.1,112.0,118.4,126.9,0,124.0,100.5,,10,6,8.492,4.865,1.131,-1.854,-4.937,-7.579,107.0,6,208.4,-7.951,-7.63,0,-7.694,-7.765,-4.814,-5.17,-4.393,-4.757,5.091,7.626,12,-1.573,1.128,5.277,8.179,-7.903,-8.21,-1.772,1.273,99.6,120.2,111.7,106.5,128.4,115.4,127.7,115.1,113.5,106.7,2,norm,1.436,1.625,-1.465,-1.57,-4.37,-4.881,-1.508,-1.741,-2.007,-1.506,1.532,-1.307,93.9,101.3,-5.102,-8.408,1.217,-1.483,7.791,4.972,-5.013,-7.773,16,5.114,4.5,5.165,5.121,1.88,1.198,1.705,1.131,16,5.09,5.001,-80,181.099905336,norm,0,61,61,61,478.16,478.169,478.175475672,478.176,478.177,478.18,down,1,1.34970739616,8.65029260384,001,301,1920_1080,Intel(R) Core(TM) i5-3570 CPU @ 3.40GHz,orientation_search,LEPPC096,Intel(R) HD Graphics 2500,2018_Oct_30_1426,testMonitor,
103.0,100.9,,105.3,36,0,104.5,95.1,117.4,116.2,7.978,7.666,7.835,8.235,7.816,8.042,7.924,4.385,-4.772,-8.368,1.167,-1.836,8.291,4.762,-5.174,-7.853,128.4,112.3,-8.102,117.9,88.4,102.9,92.0,113.3,36,112.3,3,5,prime,10,0,107,norm,36,-5.271,down,norm,108.369255805,107.1,122.1,120.1,98.0,2,96.3,119.2,118.1,10,6,8.368,4.868,1.785,-1.55,-5.049,-7.61,98.7,6,215.4,-7.961,-7.844,0,-7.894,-7.547,-4.529,-4.594,-4.497,-4.715,5.176,8.215,20,-1.93,1.296,4.951,8.03,-7.66,-7.924,-1.618,1.976,111.2,112.2,99.7,124.9,116.4,97.2,108.7,119.9,99.3,106.8,3,norm,1.223,1.298,-1.995,-2.069,-4.36,-4.909,-1.494,-1.192,-1.452,-1.457,1.82,-1.483,109.9,104.3,-4.437,-7.551,1.111,-1.392,7.726,4.68,-4.677,-7.999,16,5.253,4.513,4.837,5.028,1.402,1.103,1.185,2.025,16,4.913,5.116,-80,181.099905336,norm,0,62,62,62,479.548,479.557,479.563966094,479.564,479.566,479.568,down,1,1.07785583431,8.92214416569,001,301,1920_1080,Intel(R) Core(TM) i5-3570 CPU @ 3.40GHz,orientation_search,LEPPC096,Intel(R) HD Graphics 2500,2018_Oct_30_1426,testMonitor,
117.7,107.6,103.0,120.4,36,0,,100.3,102.0,103.2,8.0,7.727,7.813,7.623,8.477,7.693,8.261,5.06,-4.679,-8.082,1.305,-1.275,8.199,5.2,-4.844,-7.785,103.5,112.0,-7.504,112.5,100.7,99.3,100.7,124.1,36,104.0,4,5,prime,10,0,108,norm,36,-4.985,down,norm,108.369255805,110.5,128.4,99.0,117.3,0,97.2,110.6,99.1,10,6,8.461,4.99,1.352,-2.077,-4.62,-8.481,109.0,6,216.4,-8.324,-7.92,0,-8.462,-7.89,-4.899,-5.172,-4.326,-5.236,4.618,7.676,24,-1.44,2.01,4.959,8.384,-7.797,-7.746,-1.572,1.598,98.3,114.9,119.8,102.9,113.9,101.1,102.6,103.8,88.4,107.2,4,norm,1.992,1.401,-1.785,-1.315,-4.708,-4.614,-1.127,-1.471,-2.09,-1.495,1.409,-1.312,95.2,112.1,-4.569,-7.583,1.612,-1.352,8.423,5.209,-4.481,-8.067,16,5.242,4.669,4.962,5.028,1.543,1.481,1.103,1.504,16,5.153,4.352,-80,181.099905336,norm,0,63,63,63,480.687,480.697,480.703097432,480.703,480.705,480.708,down,1,2.07770943429,7.92229056571,001,301,1920_1080,Intel(R) Core(TM) i5-3570 CPU @ 3.40GHz,orientation_search,LEPPC096,Intel(R) HD Graphics 2500,2018_Oct_30_1426,testMonitor,
110.0,99.3,115.9,88.4,36,0,125.6,100.3,100.4,116.2,7.805,7.942,7.65,7.707,8.497,7.931,7.711,4.976,-4.712,-8.427,1.213,-1.35,7.887,4.519,-4.763,-8.198,103.3,106.3,-8.484,113.0,115.2,128.4,95.6,100.9,36,104.2,1,5,prime,10,0,77,norm,36,-4.376,down,norm,108.369255805,117.0,103.1,91.2,111.7,0,117.4,111.0,96.5,10,6,7.84,4.446,1.394,-1.392,-4.445,-7.819,105.8,6,185.4,-7.816,-8.021,0,-7.6,-8.296,-5.103,-4.835,-4.578,-5.118,4.778,8.193,6,-1.156,1.663,4.641,7.615,-8.354,-7.792,-1.848,1.264,125.4,98.8,113.3,93.7,117.8,105.1,99.5,,109.3,106.2,5,norm,1.416,1.11,-1.524,-1.732,-4.938,-4.809,-1.25,-1.446,-1.576,-1.705,1.482,-1.285,109.3,111.9,-4.375,-7.559,1.514,-1.699,8.348,5.116,-4.891,-7.671,16,4.965,4.74,5.081,4.916,1.272,1.849,1.295,1.679,16,5.215,4.713,-80,181.099905336,norm,0,64,64,64,482.818,482.828,482.839074679,482.839,482.841,482.843,down,1,1.38440239058,8.61559760942,001,301,1920_1080,Intel(R) Core(TM) i5-3570 CPU @ 3.40GHz,orientation_search,LEPPC096,Intel(R) HD Graphics 2500,2018_Oct_30_1426,testMonitor,
212.8,209.1,,213.3,36,-40,217.5,220.2,214.6,219.5,7.879,7.951,8.075,8.052,8.099,8.351,8.144,4.933,-5.164,-8.224,1.981,-2.03,7.86,4.3,-4.479,-8.393,209.2,216.4,-8.286,219.1,214.0,218.4,211.2,211.5,36,215.5,3,5,probe,5,0,109,norm,36,-4.875,down,norm,216.213381056,216.9,213.0,220.1,218.5,2,219.7,220.9,220.0,10,6,8.014,4.931,1.755,-1.56,-5.286,-7.865,211.7,2,107.2,-7.709,-7.83,0,-8.324,-8.407,-4.714,-4.584,-4.66,-5.272,4.96,8.495,20,-1.368,1.607,4.757,7.534,-7.561,-8.247,-1.759,2.015,223.0,211.7,216.8,211.8,220.9,226.2,206.2,210.0,212.0,224.8,0,norm,1.151,1.517,-1.999,-1.952,-4.558,-4.765,-1.597,-1.625,-1.133,-1.542,1.267,-1.787,218.7,220.4,-5.207,-7.881,1.635,-1.975,8.057,4.934,-4.837,-8.341,17,5.013,4.303,5.134,5.299,1.879,1.223,1.388,1.842,17,5.123,4.867,0,108.369255805,norm,0,65,65,65,484.244,484.254,484.274157136,484.274,484.276,484.279,down,1,1.28373531962,8.71626468038,001,301,1920_1080,Intel(R) Core(TM) i5-3570 CPU @ 3.40GHz,orientation_search,LEPPC096,Intel(R) HD Graphics 2500,2018_Oct_30_1426,testMonitor,
214.9,213.5,210.1,213.7,36,-40,204.0,212.0,207.8,210.1,8.081,8.084,7.726,8.034,8.307,7.831,7.65,4.505,-5.198,-7.675,1.428,-1.102,7.704,5.213,-5.179,-8.446,201.5,211.1,-7.969,204.1,208.9,207.6,205.5,203.5,36,198.2,2,5,probe,5,0,101,norm,36,-4.656,up,norm,208.213381056,211.3,214.2,,211.8,3,207.8,210.9,209.6,10,6,8.236,4.657,1.68,-1.558,-5.028,-7.985,207.6,2,107.2,-7.677,-7.706,0,-8.155,-8.004,-5.228,-4.459,-5.2,-4.849,4.331,7.629,15,-1.237,1.408,4.445,8.24,-8.218,-8.349,-1.803,1.145,205.8,213.6,210.6,203.1,218.2,203.6,215.2,209.1,200.9,210.8,1,norm,1.558,1.216,-1.15,-1.32,-4.318,-4.901,-1.804,-1.396,-1.106,-1.562,1.656,-1.202,202.1,205.8,-5.114,-8.423,1.687,-1.528,7.987,4.878,-4.802,-7.531,17,4.378,5.16,4.455,4.776,1.98,1.912,1.834,1.695,17,5.245,5.158,0,108.369255805,norm,0,66,66,66,485.601,485.61,485.617034443,485.617,485.619,485.622,up,1,0.859926872434,9.14007312757,001,301,1920_1080,Intel(R) Core(TM) i5-3570 CPU @ 3.40GHz,orientation_search,LEPPC096,Intel(R) HD Graphics 2500,2018_Oct_30_1426,testMonitor,
192.5,204.5,227.7,193.0,36,0,197.8,216.2,210.2,207.0,8.467,7.853,7.682,8.013,7.957,8.19,7.806,4.978,-5.047,-7.774,1.606,-1.427,8.319,4.43,-4.976,-8.493,203.8,206.4,-8.168,202.0,202.6,201.1,,218.8,36,209.3,5,5,prime,10,0,110,norm,36,-4.936,down,norm,207.679767185,199.9,217.5,226.5,201.6,2,204.6,202.6,211.5,10,5,7.758,5.235,1.87,-2.005,-4.402,-7.67,215.4,5,317.7,-7.672,-7.511,0,-7.537,-7.849,-4.807,-4.811,-4.933,-5.024,4.557,8.062,32,-1.403,1.41,4.575,8.406,-8.399,-8.368,-1.472,1.322,206.5,188.8,206.9,211.9,187.7,207.4,205.0,205.5,199.7,213.5,0,norm,1.925,1.164,-2.033,-1.763,-4.543,-4.578,-1.652,-1.986,-1.105,-1.214,1.319,-1.695,218.3,198.2,-4.371,-7.701,1.831,-1.504,8.291,4.558,-4.551,-8.489,18,4.454,4.915,4.473,4.573,1.534,2.013,1.944,1.72,18,4.67,4.936,-40,108.369255805,norm,0,67,67,67,486.522,500.347,500.357687254,500.358,500.36,500.362,down,1,1.62128940085,8.37871059915,001,301,1920_1080,Intel(R) Core(TM) i5-3570 CPU @ 3.40GHz,orientation_search,LEPPC096,Intel(R) HD Graphics 2500,2018_Oct_30_1426,testMonitor,
213.3,,220.3,215.5,36,0,222.5,202.6,212.0,206.4,7.779,8.405,8.451,7.766,8.142,7.826,8.27,5.02,-4.95,-7.992,1.283,-2.012,7.669,5.24,-4.757,-7.504,210.4,187.7,-7.637,199.1,205.7,220.7,211.0,217.4,36,221.1,3,5,prime,10,0,115,norm,36,-4.407,up,norm,207.679767185,218.3,202.1,211.4,203.8,5,222.9,227.7,205.9,10,5,8.199,4.621,1.989,-1.586,-4.88,-7.814,208.2,5,322.7,-7.582,-7.941,0,-8.279,-8.222,-5.284,-4.844,-4.687,-5.142,4.461,8.177,23,-1.7,1.671,5.104,7.681,-8.315,-8.405,-1.119,1.978,189.9,197.6,227.7,218.9,213.3,205.5,226.2,212.8,211.4,227.6,1,norm,1.182,1.562,-1.731,-2.054,-4.722,-4.809,-1.521,-1.68,-1.423,-1.305,1.848,-1.908,221.9,221.6,-4.584,-8.245,1.61,-1.966,7.536,4.557,-4.715,-8.037,18,4.311,5.071,5.242,4.319,1.649,1.69,1.388,1.133,18,4.958,4.322,-40,108.369255805,norm,0,68,68,68,502.016,502.029,502.048678762,502.049,502.051,502.053,up,1,0.797148429399,9.2028515706,001,301,1920_1080,Intel(R) Core(TM) i5-3570 CPU @ 3.40GHz,orientation_search,LEPPC096,Intel(R) HD Graphics 2500,2018_Oct_30_1426,testMonitor,
214.3,200.4,191.5,215.4,36,0,212.8,209.0,194.7,208.7,7.767,7.597,7.913,7.521,7.669,8.083,7.895,4.434,-4.76,-7.583,1.223,-1.181,7.828,4.81,-4.934,-8.431,204.9,213.8,-7.884,215.1,209.9,207.2,213.6,202.9,36,200.1,3,5,prime,10,0,119,norm,36,-4.495,down,norm,207.679767185,216.4,227.7,187.7,204.6,1,210.6,213.7,210.2,10,5,8.479,4.402,1.27,-1.918,-5.149,-7.75,209.6,5,326.7,-7.739,-7.714,0,-8.105,-7.518,-4.87,-4.852,-4.965,-4.793,4.554,7.548,19,-1.223,2.084,4.941,7.6,-8.238,-8.029,-2.069,1.289,208.9,187.7,207.3,204.7,202.6,210.0,215.7,215.2,198.2,222.2,2,norm,1.204,1.418,-1.283,-1.373,-4.904,-4.421,-1.232,-1.868,-1.572,-1.19,1.711,-1.734,,191.2,-4.791,-8.187,1.968,-1.535,8.312,4.734,-4.961,-7.597,18,4.695,5.205,4.972,4.62,1.852,1.544,1.907,1.405,18,4.787,4.851,-40,108.369255805,norm,0,69,69,69,502.87,502.879,502.885705049,502.886,502.888,502.89,down,1,1.73849393919,8.26150606081,001,301,1920_1080,Intel(R) Core(TM) i5-3570 CPU @ 3.40GHz,orientation_search,LEPPC096,Intel(R) HD Graphics 2500,2018_Oct_30_1426,testMonitor,
213.7,203.7,196.3,200.6,36,0,213.2,227.7,215.7,208.1,8.293,7.772,8.25,8.257,8.411,7.519,7.599,5.042,-4.535,-8.107,1.54,-1.843,7.599,5.121,-5.233,-8.068,204.5,213.7,-8.146,211.3,196.9,224.7,202.5,201.2,36,207.0,1,5,prime,10,0,76,norm,36,-4.434,down,norm,207.679767185,227.5,195.4,212.1,226.6,2,205.1,201.9,198.4,10,5,8.207,4.536,1.386,-1.734,-4.736,-8.252,221.6,5,283.7,-7.792,-8.471,0,-7.553,-8.193,-5.14,-5.114,-5.262,-5.24,4.664,8.417,8,-2.079,1.648,4.318,7.604,-7.567,-7.84,-1.812,1.322,205.6,,187.7,196.4,212.1,214.6,204.1,220.5,196.6,221.3,3,norm,1.445,1.216,-1.632,-2.01,-4.933,-4.81,-2.017,-1.43,-1.326,-1.48,1.889,-2.074,212.4,215.7,-4.375,-8.008,1.658,-1.204,7.91,4.958,-5.199,-8.384,18,4.828,4.548,4.503,5.111,1.378,1.83,1.142,1.124,18,4.796,4.685,-40,108.369255805,norm,0,70,70,70,504.648,504.657,504.66404998,504.664,504.666,504.668,down,1,1.34784041854,8.65215958146,001,301,1920_1080,Intel(R) Core(TM) i5-3570 CPU @ 3.40GHz,orientation_search,LEPPC096,Intel(R) HD Graphics 2500,2018_Oct_30_1426,testMonitor,
225.8,218.1,201.2,207.4,36,0,201.3,209.0,211.6,217.7,8.312,7.834,7.622,7.674,8.189,8.273,8.279,4.518,-4.397,-7.8,1.77,-2.077,7.711,4.486,-5.156,-7.638,188.6,221.9,-8.208,227.7,218.3,209.7,206.8,212.9,36,224.4,2,5,prime,10,0,114,norm,36,-4.365,up,norm,207.679767185,197.3,,209.2,208.1,4,198.8,208.7,209.1,10,5,7.564,4.634,1.311,-1.658,-4.898,-7.502,206.3,5,321.7,-8.189,-7.783,0,-7.636,-8.34,-4.496,-4.674,-4.564,-4.815,4.414,8.0,16,-1.811,1.713,4.446,7.911,-7.79,-7.723,-1.752,1.256,210.7,212.5,208.4,210.9,187.7,201.6,190.6,209.9,189.9,203.0,4,norm,2.09,1.126,-1.365,-1.294,-4.458,-5.193,-1.192,-1.638,-2.022,-1.927,1.108,-2.093,215.1,215.8,-4.52,-8.249,1.684,-1.536,7.643,5.224,-4.624,-8.128,18,4.996,4.764,4.443,4.577,1.134,2.066,1.659,1.944,18,4.588,4.599,-40,108.369255805,norm,0,71,71,71,506.037,506.046,506.052556099,506.053,506.054,506.057,up,1,0.691576806735,9.30842319327,001,301,1920_1080,Intel(R) Core(TM) i5-3570 CPU @ 3.40GHz,orientation_search,LEPPC096,Intel(R) HD Graphics 2500,2018_Oct_30_1426,testMonitor,
301.5,300.5,,304.7,36,10,299.5,302.7,305.9,310.0,8.184,8.021,8.046,7.736,8.384,7.975,8.432,4.482,-4.611,-7.668,1.755,-1.39,8.126,4.654,-5.05,-7.734,301.3,303.6,-7.997,292.7,306.2,300.7,304.9,304.7,36,307.1,3,5,probe,5,0,98,norm,36,-4.632,down,norm,302.667169405,312.7,294.8,308.3,298.2,2,307.4,298.8,297.8,10,5,8.072,4.929,1.686,-1.836,-5.236,-7.739,308.2,2,204.7,-8.017,-8.378,0,-8.409,-7.943,-4.531,-4.751,-4.412,-4.884,4.921,7.788,20,-1.834,1.823,4.941,8.235,-7.636,-7.589,-2.095,1.709,304.8,304.6,308.8,305.0,303.1,300.6,303.4,307.1,294.7,300.6,0,norm,1.295,1.412,-1.727,-1.784,-4.465,-5.031,-1.2,-1.39,-1.204,-1.881,1.821,-1.138,309.3,310.2,-4.399,-8.391,1.775,-1.322,7.924,4.647,-4.743,-7.953,19,4.889,5.165,4.805,4.879,1.35,2.041,1.708,1.501,19,4.608,4.952,0,207.679767185,norm,0,72,72,72,506.785,506.795,506.801403689,506.802,506.803,506.806,down,1,0.87539848728,9.12460151272,001,301,1920_1080,Intel(R) Core(TM) i5-3570 CPU @ 3.40GHz,orientation_search,LEPPC096,Intel(R) HD Graphics 2500,2018_Oct_30_1426,testMonitor,
269.1,268.2,282.2,265.4,36,10,272.1,280.6,269.4,265.2,8.344,8.408,8.2,8.13,8.04,7.539,7.536,4.913,-4.799,-7.756,1.228,-1.587,7.673,5.037,-4.974,-8.017,278.6,283.7,-7.87,275.4,275.3,273.5,271.1,269.1,36,275.7,0,5,probe,5,0,69,norm,36,-4.739,up,norm,273.667169405,280.4,274.1,272.7,265.6,4,274.5,264.9,276.4,10,5,8.044,4.472,1.257,-1.967,-4.851,-8.444,270.3,2,204.7,-7.894,-7.813,0,-8.242,-7.683,-4.904,-4.697,-4.381,-4.57,5.089,8.005,4,-1.203,1.847,4.992,7.739,-7.722,-8.444,-1.365,1.926,273.3,271.1,263.7,270.5,274.7,275.8,280.1,267.5,267.6,,1,norm,2.071,1.952,-1.853,-1.271,-5.164,-5.007,-1.695,-1.62,-1.133,-1.713,1.626,-2.031,266.7,272.1,-5.253,-7.649,1.512,-1.634,8.381,4.757,-4.641,-8.039,19,4.704,4.51,4.632,5.042,1.867,1.494,1.369,1.668,19,5.054,4.413,0,207.679767185,norm,0,73,73,73,507.714,507.724,507.73625417,507.736,507.738,507.741,up,1,0.82804034362,9.17195965638,001,301,1920_1080,Intel(R) Core(TM) i5-3570 CPU @ 3.40GHz,orientation_search,LEPPC096,Intel(R) HD Graphics 2500,2018_Oct_30_1426,testMonitor,
49.7,71.9,72.6,64.2,36,60,68.7,82.3,67.2,69.6,7.536,7.919,8.493,7.79,7.908,8.288,7.565,4.777,-4.384,-7.638,1.443,-1.515,8.457,4.731,-4.807,-7.67,45.0,50.6,-7.61,67.6,62.0,53.9,82.4,68.1,36,65.0,1,5,prime,10,0,68,norm,36,-4.791,up,norm,62.3809970328,54.9,61.1,42.4,77.0,4,50.7,67.5,49.3,10,6,7.867,5.199,1.804,-1.219,-5.007,-8.248,,6,130.4,-8.06,-8.126,60,-8.048,-7.635,-5.227,-4.34,-4.942,-4.756,4.367,8.451,10,-1.869,1.596,4.413,7.808,-7.821,-7.849,-1.102,1.437,51.9,51.4,55.2,56.0,49.8,56.1,48.8,58.4,60.3,80.8,0,norm,1.956,1.792,-1.42,-1.375,-4.897,-4.778,-1.447,-1.191,-1.969,-1.774,1.525,-1.725,62.5,57.1,-4.548,-8.294,1.417,-1.183,8.173,5.002,-5.099,-7.756,20,4.533,4.612,4.998,4.536,1.347,1.353,1.948,2.085,20,4.343,4.843,10,207.679767185,norm,0,74,74,74,508.61,508.62,508.626518749,508.627,508.628,508.631,up,1,0.722155092864,9.27784490714,001,301,1920_1080,Intel(R) Core(TM) i5-3570 CPU @ 3.40GHz,orientation_search,LEPPC096,Intel(R) HD Graphics 2500,2018_Oct_30_1426,testMonitor,
61.7,78.1,66.3,68.6,36,60,60.9,82.0,60.7,61.6,8.364,8.215,8.335,7.597,8.16,7.797,7.71,4.649,-4.574,-8.156,1.422,-1.455,8.288,5.255,-5.272,-8.369,65.2,58.2,-8.077,82.4,74.7,42.4,61.4,79.6,36,66.2,2,5,prime,10,0,117,norm,36,-4.557,down,norm,62.3809970328,55.7,60.5,62.4,76.4,1,70.0,,43.6,10,6,8.306,4.963,1.19,-1.462,-4.736,-7.566,59.2,6,179.4,-7.619,-8.047,60,-7.976,-8.19,-4.575,-5.106,-4.954,-5.213,5.264,7.956,13,-1.598,1.429,4.758,8.011,-8.333,-8.112,-1.945,1.231,53.6,64.2,47.5,62.3,66.5,74.0,71.8,54.7,52.0,62.4,1,norm,1.673,1.915,-2.081,-1.58,-5.156,-4.911,-1.742,-1.611,-1.299,-1.807,1.983,-1.925,59.3,55.9,-4.448,-8.02,1.969,-1.425,7.525,4.525,-4.756,-8.302,20,4.862,5.089,4.961,4.774,1.891,1.869,1.746,1.8,20,5.239,4.374,10,207.679767185,norm,0,75,75,75,509.39,509.4,509.408162058,509.408,509.41,509.413,down,1,0.890425166797,9.1095748332,001,301,1920_1080,Intel(R) Core(TM) i5-3570 CPU @ 3.40GHz,orientation_search,LEPPC096,Intel(R) HD Graphics 2500,2018_Oct_30_1426,testMonitor,
43.0,64.5,70.9,77.9,36,60,62.0,62.3,52.4,72.0,7.557,7.763,7.802,8.054,8.155,8.343,7.733,4.361,-5.154,-7.878,1.506,-1.759,7.705,4.474,-5.118,-7.685,52.6,46.9,-7.992,67.0,59.3,59.0,60.1,61.4,36,,4,5,prime,10,0,93,norm,36,-4.772,up,norm,62.3809970328,80.5,73.0,42.7,65.9,3,67.7,58.8,69.7,10,6,7.811,4.511,1.91,-1.868,-4.883,-7.592,78.4,6,155.4,-7.973,-7.599,60,-7.819,-7.836,-5.065,-4.85,-4.424,-4.395,4.381,8.041,27,-1.993,1.225,5.017,7.521,-7.541,-7.978,-1.8,1.98,65.8,57.3,77.1,42.4,45.5,66.7,53.8,57.4,56.2,48.5,2,norm,1.532,1.691,-1.863,-1.182,-4.874,-4.645,-1.924,-1.173,-1.385,-1.276,1.653,-1.7,73.7,82.4,-4.386,-7.563,1.199,-1.407,7.852,4.634,-4.791,-8.262,20,4.974,4.7,4.601,4.331,1.662,1.316,1.9,1.108,20,4.987,4.419,10,207.679767185,norm,0,76,76,76,510.319,510.329,510.341191443,510.341,510.343,510.346,up,1,0.67245092656,9.32754907344,001,301,1920_1080,Intel(R) Core(TM) i5-3570 CPU @ 3.40GHz,orientation_search,LEPPC096,Intel(R) HD Graphics 2500,2018_Oct_30_1426,testMonitor,
51.6,74.1,55.6,74.3,36,60,49.8,50.8,58.8,47.2,8.221,8.499,8.26,8.159,7.755,8.189,8.022,4.852,-5.109,-8.314,1.492,-1.829,7.557,5.249,-5.221,-8.001,50.0,,-8.302,61.8,59.2,76.5,82.4,52.6,36,56.6,5,5,prime,10,0,94,norm,36,-4.308,up,norm,62.3809970328,62.2,77.2,66.8,56.2,4,50.9,58.5,63.2,10,6,7.876,5.059,1.868,-1.429,-5.028,-8.26,42.4,6,156.4,-8.15,-7.826,60,-7.973,-7.513,-5.113,-5.077,-4.469,-4.97,4.873,8.387,34,-1.662,1.25,4.927,7.531,-8.172,-7.569,-1.119,1.871,74.1,70.9,76.8,63.6,63.4,69.1,71.9,67.7,58.6,59.5,3,norm,1.274,1.374,-1.893,-1.981,-4.782,-4.64,-1.403,-1.135,-1.483,-1.913,1.645,-2.021,46.6,57.8,-5.286,-8.275,1.516,-1.751,7.623,5.089,-5.007,-8.037,20,4.65,4.614,4.843,4.906,1.679,1.124,1.821,1.29,20,4.894,4.482,10,207.679767185,norm,0,77,77,77,511.06,511.081,511.092331023,511.093,511.094,511.097,up,1,0.753768140397,9.2462318596,001,301,1920_1080,Intel(R) Core(TM) i5-3570 CPU @ 3.40GHz,orientation_search,LEPPC096,Intel(R) HD Graphics 2500,2018_Oct_30_1426,testMonitor,
53.4,66.2,53.4,55.7,36,60,82.4,56.8,49.9,51.8,8.442,7.773,7.674,8.278,7.882,8.471,7.823,4.458,-4.88,-8.354,1.777,-1.179,7.946,4.828,-5.116,-7.752,72.1,47.4,-8.209,74.9,53.2,58.0,50.7,72.4,36,63.0,1,5,prime,10,0,109,norm,36,-5.17,up,norm,62.3809970328,42.4,65.2,50.1,64.7,3,52.9,65.5,66.1,10,6,7.855,5.115,1.292,-1.625,-5.039,-7.667,60.3,6,171.4,-7.753,-7.598,60,-7.652,-8.337,-4.502,-4.647,-5.14,-5.203,4.555,7.518,9,-2.038,1.376,4.654,7.716,-7.725,-7.898,-1.603,1.181,,58.2,59.4,63.5,45.7,48.7,52.0,70.3,65.3,43.3,4,norm,1.851,1.625,-1.28,-1.12,-5.079,-4.77,-1.457,-1.159,-1.665,-2.081,1.923,-1.819,53.3,60.0,-4.689,-8.468,1.839,-1.308,8.132,4.567,-4.981,-7.825,20,4.501,4.939,4.795,4.571,1.516,2.014,1.152,1.527,20,4.828,4.68,10,207.679767185,norm,0,78,78,78,511.886,511.896,511.902341525,511.903,511.904,511.907,up,1,0.860390824673,9.13960917533,001,301,1920_1080,Intel(R) Core(TM) i5-3570 CPU @ 3.40GHz,orientation_search,LEPPC096,Intel(R) HD Graphics 2500,2018_Oct_30_1426,testMonitor,
64.5,48.7,53.0,60.2,36,60,73.8,56.6,75.9,68.2,8.38,8.05,8.434,7.556,8.003,7.6,7.606,4.945,-4.569,-7.587,2.085,-1.449,8.184,4.896,-5.154,-8.456,55.9,65.1,-8.316,50.7,68.8,61.5,71.0,68.6,36,62.8,1,5,prime,10,0,99,norm,36,-5.256,up,norm,62.3809970328,58.2,53.6,63.5,61.5,5,,53.7,51.5,10,6,7.776,4.766,1.826,-2.04,-5.192,-7.82,42.4,6,161.4,-8.48,-7.592,60,-7.581,-7.568,-4.934,-4.916,-4.942,-5.14,4.948,8.253,11,-2.065,1.512,4.916,7.686,-8.143,-7.965,-1.801,1.267,74.0,68.1,66.5,55.4,81.3,64.9,82.4,73.0,74.1,72.6,5,norm,1.605,1.334,-2.07,-1.975,-4.997,-4.571,-1.123,-1.511,-1.595,-1.534,1.223,-1.849,63.3,55.3,-4.957,-7.571,2.013,-1.9,8.228,5.264,-5.256,-7.893,20,4.578,5.276,5.2,4.916,1.184,1.273,1.721,1.123,20,4.382,4.368,10,207.679767185,norm,0,79,79,79,512.8,512.809,512.82179193,512.822,512.824,512.826,up,1,0.688649409978,9.31135059002,001,301,1920_1080,Intel(R) Core(TM) i5-3570 CPU @ 3.40GHz,orientation_search,LEPPC096,Intel(R) HD Graphics 2500,2018_Oct_30_1426,testMonitor,
179.1,198.4,183.0,195.1,36,-80,183.5,181.5,187.3,189.5,8.279,7.82,8.103,7.784,8.038,8.059,8.206,4.917,-4.861,-7.92,2.039,-1.843,7.881,5.274,-5.129,-8.219,190.3,189.8,-7.97,189.1,186.5,187.9,191.7,185.8,36,188.8,0,5,probe,5,0,64,norm,36,-5.185,up,norm,188.429229909,178.4,194.1,192.2,187.8,5,192.0,187.9,183.0,10,6,7.792,4.317,1.899,-1.945,-4.963,-7.521,186.1,1,124.4,-8.36,-7.824,60,-7.586,-8.443,-5.3,-5.128,-5.185,-4.849,5.047,8.331,5,-1.201,1.467,4.588,7.574,-7.636,-7.628,-1.252,1.249,196.6,191.3,187.5,198.0,188.6,196.7,194.3,194.3,,179.1,0,norm,1.797,1.452,-1.521,-1.856,-5.095,-4.672,-1.679,-1.767,-1.745,-1.593,1.199,-1.357,184.3,191.4,-5.219,-7.809,2.041,-1.821,8.397,4.614,-5.006,-7.878,21,4.485,4.848,4.437,4.652,2.031,1.49,1.2,1.216,21,4.898,4.923,60,62.3809970328,norm,0,80,80,80,513.548,513.56,513.586250895,513.586,513.588,513.591,up,1,0.590446387255,9.40955361275,001,301,1920_1080,Intel(R) Core(TM) i5-3570 CPU @ 3.40GHz,orientation_search,LEPPC096,Intel(R) HD Graphics 2500,2018_Oct_30_1426,testMonitor,
222.6,219.9,221.1,226.1,36,80,231.2,210.9,227.9,210.9,7.522,8.373,7.741,8.092,7.905,8.466,7.7,5.121,-5.204,-7.501,2.052,-1.528,8.344,4.731,-5.148,-7.59,221.5,228.6,-8.354,211.6,209.3,227.7,231.9,,36,225.1,4,5,prime,10,0,78,norm,36,-4.369,down,norm,222.898755887,225.4,220.1,226.8,220.9,2,210.6,202.9,242.9,10,6,7.541,5.298,1.992,-1.947,-5.076,-8.382,232.4,6,300.9,-8.221,-7.605,80,-7.812,-7.882,-4.602,-4.746,-5.276,-5.023,4.998,8.277,26,-1.222,1.536,5.251,7.622,-7.849,-7.752,-1.606,1.32,223.7,232.6,231.7,208.2,231.1,211.7,207.5,203.4,218.8,222.6,0,norm,1.315,1.363,-1.475,-1.966,-4.305,-5.298,-1.593,-1.433,-1.523,-1.532,1.628,-1.743,239.6,218.4,-4.909,-7.794,1.698,-1.615,7.64,4.52,-4.582,-8.102,22,4.709,4.895,5.185,5.076,2.023,1.138,2.039,1.166,22,4.908,4.39,-80,62.3809970328,norm,0,81,81,81,514.214,514.223,514.241299839,514.242,514.243,514.246,down,1,1.07663362051,8.92336637949,001,301,1920_1080,Intel(R) Core(TM) i5-3570 CPU @ 3.40GHz,orientation_search,LEPPC096,Intel(R) HD Graphics 2500,2018_Oct_30_1426,testMonitor,
228.2,216.2,216.2,218.1,36,80,222.9,240.4,226.4,209.4,7.792,7.573,7.507,8.114,7.95,8.402,8.177,5.014,-4.836,-8.329,1.439,-1.251,7.714,4.558,-4.517,-8.339,242.9,237.8,-8.493,204.7,204.5,226.4,224.9,229.8,36,230.4,2,5,prime,10,0,64,norm,36,-5.208,up,norm,222.898755887,218.3,229.8,,202.9,3,221.0,220.9,211.4,10,6,8.437,4.318,1.339,-1.311,-5.258,-7.78,224.1,6,286.9,-8.143,-7.876,80,-7.903,-7.588,-4.513,-5.055,-4.403,-4.335,4.898,8.32,15,-1.985,1.796,4.366,7.606,-8.231,-8.356,-1.423,1.821,224.6,215.6,215.7,218.1,221.4,233.2,211.5,232.1,229.5,219.2,1,norm,1.142,1.868,-1.295,-1.738,-5.067,-4.831,-1.692,-1.554,-1.803,-1.996,1.676,-1.674,227.1,213.4,-4.689,-7.804,1.954,-1.218,7.539,4.46,-5.159,-8.157,22,5.129,4.636,5.205,4.68,1.873,1.829,1.153,1.693,22,4.69,4.966,-80,62.3809970328,norm,0,82,82,82,515.365,515.374,515.381080468,515.381,515.383,515.385,up,1,0.572461823553,9.42753817645,001,301,1920_1080,Intel(R) Core(TM) i5-3570 CPU @ 3.40GHz,orientation_search,LEPPC096,Intel(R) HD Graphics 2500,2018_Oct_30_1426,testMonitor,
239.0,208.3,223.9,231.2,36,80,222.9,230.1,236.4,213.7,8.129,8.125,7.931,7.932,8.039,8.374,8.005,4.385,-5.282,-8.074,1.963,-1.806,7.721,4.883,-4.874,-7.872,207.0,210.2,-8.076,217.4,211.6,217.9,226.8,222.2,36,222.2,0,5,prime,10,0,73,norm,36,-5.14,down,norm,222.898755887,229.4,210.4,213.1,229.1,0,230.1,242.9,211.7,10,6,8.168,4.394,1.399,-1.664,-4.907,-7.963,216.2,6,295.9,-7.994,-7.79,80,-7.571,-7.558,-4.434,-5.249,-5.101,-5.291,4.865,7.992,0,-1.454,1.721,4.488,8.117,-7.579,-7.878,-1.934,1.167,222.2,229.6,221.6,237.8,211.8,,207.5,223.9,202.9,233.7,2,norm,1.697,1.517,-1.399,-1.472,-4.549,-5.075,-2.016,-1.139,-1.423,-1.975,1.958,-1.108,221.1,215.6,-4.323,-8.489,1.504,-1.498,7.698,4.802,-5.255,-7.945,22,4.581,4.952,4.795,4.622,1.249,1.993,1.462,1.709,22,4.827,4.654,-80,62.3809970328,norm,0,83,83,83,515.976,515.985,516.004225376,516.004,516.006,516.009,down,1,0.705024780846,9.29497521915,001,301,1920_1080,Intel(R) Core(TM) i5-3570 CPU @ 3.40GHz,orientation_search,LEPPC096,Intel(R) HD Graphics 2500,2018_Oct_30_1426,testMonitor,
219.5,229.6,222.9,218.5,36,80,,229.9,215.3,228.6,7.857,8.33,7.529,7.633,7.942,8.2,8.255,5.116,-4.404,-8.349,1.101,-1.422,7.606,4.863,-5.282,-8.424,234.6,216.1,-8.446,202.9,217.0,225.6,225.8,220.6,36,242.9,4,5,prime,10,0,70,norm,36,-4.488,down,norm,222.898755887,217.5,220.1,228.8,209.2,0,230.1,224.7,229.2,10,6,8.097,4.32,1.782,-1.239,-4.462,-7.757,207.6,6,292.9,-7.532,-8.078,80,-7.74,-7.746,-4.404,-4.787,-4.789,-4.407,5.01,8.451,24,-1.51,2.022,4.433,8.465,-7.593,-7.958,-1.369,1.509,214.4,231.9,220.7,220.0,234.2,207.1,226.2,219.2,203.3,224.6,3,norm,1.623,1.168,-1.324,-1.77,-5.009,-4.539,-1.47,-2.098,-1.754,-1.441,1.786,-1.442,204.2,232.5,-4.654,-8.346,1.617,-1.348,7.996,5.001,-5.219,-7.881,22,4.773,5.122,4.504,5.044,1.443,1.455,1.58,1.263,22,5.205,5.174,-80,62.3809970328,norm,0,84,84,84,516.746,516.757,516.768373429,516.769,516.77,516.773,down,1,0.910391715148,9.08960828485,001,301,1920_1080,Intel(R) Core(TM) i5-3570 CPU @ 3.40GHz,orientation_search,LEPPC096,Intel(R) HD Graphics 2500,2018_Oct_30_1426,testMonitor,
214.9,214.9,212.0,242.9,36,80,220.4,224.2,241.4,218.4,7.644,7.78,7.672,8.41,8.335,8.147,7.658,4.907,-4.439,-7.83,1.737,-1.183,7.96,5.041,-4.937,-8.008,221.3,228.5,-7.801,229.3,220.8,230.2,217.2,216.1,36,212.7,2,5,prime,10,0,100,norm,36,-5.009,up,norm,222.898755887,210.5,,213.9,226.1,4,227.7,222.5,218.3,10,6,7.792,4.469,1.932,-1.754,-4.771,-7.812,207.9,6,322.9,-7.54,-7.977,80,-7.853,-8.195,-5.237,-4.715,-4.921,-4.85,5.035,7.761,16,-1.262,2.044,4.49,8.302,-7.553,-7.926,-1.816,1.679,226.9,225.5,216.9,228.3,220.3,202.9,204.8,238.0,223.1,221.1,4,norm,1.106,1.588,-1.399,-1.258,-5.251,-4.774,-1.759,-1.707,-1.242,-1.94,1.265,-1.512,216.5,206.3,-4.948,-8.214,2.076,-1.306,8.406,4.424,-5.172,-7.731,22,5.282,5.266,5.273,4.732,1.72,1.391,1.139,1.279,22,4.812,4.566,-80,62.3809970328,norm,0,85,85,85,517.716,517.728,517.74850106,517.749,517.75,517.753,up,1,0.675869442573,9.32413055743,001,301,1920_1080,Intel(R) Core(TM) i5-3570 CPU @ 3.40GHz,orientation_search,LEPPC096,Intel(R) HD Graphics 2500,2018_Oct_30_1426,testMonitor,
242.9,225.4,224.5,221.1,36,80,229.6,208.4,212.0,225.8,7.727,7.579,8.405,7.773,7.764,7.542,8.071,4.505,-4.597,-7.906,2.077,-1.214,8.434,4.648,-5.027,-8.282,220.3,222.2,-7.772,210.8,224.0,225.8,232.2,,36,231.1,4,5,prime,10,0,96,norm,36,-4.553,down,norm,222.898755887,202.9,223.3,219.7,227.6,2,207.7,205.5,224.1,10,6,7.714,5.168,1.899,-1.216,-5.098,-7.623,229.3,6,318.9,-8.18,-7.57,80,-7.551,-8.432,-4.738,-5.038,-4.496,-4.402,4.642,7.508,26,-1.263,1.874,4.513,7.665,-7.553,-8.333,-1.447,1.712,219.6,220.1,215.2,220.5,232.7,213.4,218.4,219.9,203.4,206.1,5,norm,1.984,1.433,-1.832,-1.996,-4.516,-4.353,-1.286,-1.785,-1.508,-1.516,1.145,-1.675,223.9,215.9,-5.243,-8.025,1.404,-1.436,7.974,4.611,-4.572,-8.109,22,4.511,4.585,5.08,5.164,1.376,1.625,1.977,1.613,22,5.121,4.901,-80,62.3809970328,norm,0,86,86,86,518.462,518.473,518.477457264,518.478,518.479,518.482,down,1,0.931933950346,9.06806604965,001,301,1920_1080,Intel(R) Core(TM) i5-3570 CPU @ 3.40GHz,orientation_search,LEPPC096,Intel(R) HD Graphics 2500,2018_Oct_30_1426,testMonitor,
390.7,388.0,388.1,387.7,36,-20,382.1,389.9,381.6,391.5,7.799,8.425,7.644,8.052,8.219,8.074,8.339,4.428,-4.856,-7.517,1.424,-1.556,7.549,4.594,-4.799,-7.946,384.5,382.4,-8.166,393.4,382.7,391.7,,383.6,36,378.6,5,5,probe,5,0,88,norm,36,-4.464,down,norm,387.140714875,397.1,378.2,388.7,381.8,2,382.8,383.8,390.9,10,6,7.635,4.76,1.155,-1.219,-4.709,-8.242,391.1,1,299.1,-8.161,-7.882,80,-8.392,-8.421,-5.169,-4.519,-4.513,-5.231,4.479,8.162,32,-1.913,1.289,4.889,8.287,-7.71,-7.953,-1.307,2.05,391.4,385.2,377.6,388.0,380.2,391.1,390.8,383.7,377.1,384.6,0,norm,1.802,1.879,-1.117,-1.355,-4.791,-4.56,-1.195,-1.914,-1.26,-1.779,1.216,-1.107,384.7,386.4,-4.628,-8.265,1.332,-1.118,8.202,4.718,-5.192,-7.706,23,4.677,4.879,5.097,5.182,1.711,1.196,1.706,1.372,23,4.689,5.254,80,222.898755887,norm,0,87,87,87,519.446,519.456,519.467273256,519.467,519.469,519.472,down,1,0.738874277396,9.2611257226,001,301,1920_1080,Intel(R) Core(TM) i5-3570 CPU @ 3.40GHz,orientation_search,LEPPC096,Intel(R) HD Graphics 2500,2018_Oct_30_1426,testMonitor,
164.8,173.7,170.9,161.6,36,-30,175.0,160.7,,154.6,8.201,8.366,7.71,7.573,8.466,7.539,7.981,4.387,-5.281,-8.068,1.292,-1.745,7.913,4.432,-4.755,-7.93,185.2,174.5,-8.001,167.3,171.3,153.7,171.6,171.5,36,166.2,4,5,prime,10,0,93,norm,36,-4.355,up,norm,170.197440982,181.6,175.5,177.4,152.7,4,177.0,177.2,162.9,10,6,7.565,5.02,1.483,-1.414,-4.718,-7.719,174.4,6,263.2,-8.487,-8.431,-30,-7.876,-8.179,-4.462,-4.954,-5.131,-4.801,4.848,8.222,28,-1.703,2.049,4.727,8.215,-8.31,-8.197,-1.716,1.232,183.7,190.2,174.0,183.7,165.1,172.3,182.8,150.2,161.9,165.3,0,norm,1.44,1.671,-2.017,-1.829,-5.093,-5.036,-1.965,-1.885,-1.412,-1.267,1.934,-1.456,171.1,154.6,-4.719,-8.297,1.406,-1.346,7.886,4.69,-5.262,-7.62,24,4.462,4.481,4.918,5.006,1.938,1.877,1.537,1.652,24,4.942,5.21,-20,222.898755887,norm,0,88,88,88,520.244,520.253,520.262814303,520.263,520.265,520.267,up,1,0.874653809223,9.12534619078,001,301,1920_1080,Intel(R) Core(TM) i5-3570 CPU @ 3.40GHz,orientation_search,LEPPC096,Intel(R) HD Graphics 2500,2018_Oct_30_1426,testMonitor,
150.2,174.4,161.2,168.5,36,-30,182.5,190.2,170.1,169.9,8.3,7.671,7.861,8.25,8.429,8.358,7.897,5.284,-4.943,-7.819,1.468,-1.855,7.947,5.004,-4.597,-8.237,186.0,171.1,-7.762,160.7,182.4,169.3,176.6,156.5,36,179.6,2,5,prime,10,0,72,norm,36,-4.882,down,norm,170.197440982,160.0,158.6,169.4,163.2,1,150.9,,161.2,10,6,8.355,4.784,1.659,-1.742,-5.072,-8.305,161.5,6,242.2,-8.044,-8.206,-30,-7.761,-8.246,-4.999,-4.696,-5.221,-4.823,4.372,7.582,13,-1.742,1.462,5.152,7.965,-8.186,-8.213,-1.448,1.647,162.7,165.5,174.9,180.4,168.2,170.0,176.3,163.8,159.9,183.5,1,norm,1.232,1.901,-1.948,-1.623,-4.646,-5.178,-1.592,-1.106,-1.274,-1.32,1.421,-1.715,179.3,184.5,-4.915,-8.477,1.284,-1.6,7.926,4.613,-4.773,-7.964,24,4.411,5.266,5.27,4.78,1.506,1.608,1.1,1.505,24,5.056,4.891,-20,222.898755887,norm,0,89,89,89,521.184,521.193,521.200000543,521.2,521.202,521.204,down,1,1.14940137483,8.85059862517,001,301,1920_1080,Intel(R) Core(TM) i5-3570 CPU @ 3.40GHz,orientation_search,LEPPC096,Intel(R) HD Graphics 2500,2018_Oct_30_1426,testMonitor,
167.8,162.1,181.5,170.6,36,-30,169.9,180.0,158.4,168.6,7.521,8.067,8.137,7.654,7.914,7.504,8.123,4.882,-4.516,-7.859,1.801,-1.727,7.872,4.73,-4.476,-8.007,172.9,178.3,-8.088,156.2,161.7,165.6,180.7,150.2,36,179.0,0,5,prime,10,0,92,norm,36,-4.425,up,norm,170.197440982,182.6,173.5,171.4,177.3,5,169.5,189.6,164.1,10,6,7.784,4.416,1.842,-1.117,-4.978,-8.143,176.7,6,262.2,-8.293,-7.758,-30,-8.203,-7.668,-4.973,-4.416,-5.124,-4.604,5.056,7.8,5,-1.301,1.365,4.402,7.871,-8.323,-8.402,-1.7,1.984,182.1,168.2,163.7,167.7,176.9,159.2,190.2,187.7,,156.8,2,norm,1.363,1.341,-1.99,-1.22,-4.781,-5.015,-1.539,-2.038,-1.882,-1.801,1.933,-1.888,162.6,160.4,-5.112,-7.635,1.449,-2.007,7.555,5.244,-4.918,-7.601,24,5.181,5.087,5.232,4.56,1.303,1.638,1.243,1.956,24,4.671,4.531,-20,222.898755887,norm,0,90,90,90,522.37,522.38,522.386562772,522.387,522.388,522.391,up,1,0.892548721778,9.10745127822,001,301,1920_1080,Intel(R) Core(TM) i5-3570 CPU @ 3.40GHz,orientation_search,LEPPC096,Intel(R) HD Graphics 2500,2018_Oct_30_1426,testMonitor,
175.8,188.6,174.2,190.2,36,-30,170.7,178.4,178.3,167.8,8.38,8.272,7.689,7.958,8.401,7.648,7.589,5.186,-4.899,-8.167,1.103,-2.041,8.182,5.279,-4.919,-7.956,156.0,163.4,-8.489,165.1,166.9,180.9,150.2,173.3,36,162.0,2,5,prime,10,0,118,norm,36,-5.091,down,norm,170.197440982,177.9,170.1,165.5,173.6,0,162.9,167.7,,10,6,8.222,4.921,1.927,-1.566,-4.545,-7.524,161.2,6,288.2,-8.225,-8.424,-30,-7.671,-8.033,-4.653,-4.706,-5.013,-4.633,4.904,8.045,12,-1.447,1.987,5.115,7.598,-8.365,-8.191,-1.955,1.579,186.4,179.7,166.4,150.3,181.8,161.2,156.2,163.3,169.3,181.5,3,norm,2.057,1.256,-1.897,-1.91,-5.061,-4.754,-1.322,-2.053,-1.652,-1.318,1.918,-1.454,188.3,169.2,-4.876,-7.827,1.143,-1.701,8.103,4.94,-5.146,-7.871,24,4.794,4.735,4.588,4.581,1.402,1.607,2.071,1.454,24,5.032,5.094,-20,222.898755887,norm,0,91,91,91,523.322,523.343,523.353795428,523.354,523.356,523.358,down,1,1.6723238453,8.3276761547,001,301,1920_1080,Intel(R) Core(TM) i5-3570 CPU @ 3.40GHz,orientation_search,LEPPC096,Intel(R) HD Graphics 2500,2018_Oct_30_1426,testMonitor,
161.6,177.6,178.0,190.2,36,-30,179.4,186.6,165.4,173.0,8.005,8.325,7.883,7.631,7.622,8.406,8.222,4.679,-5.206,-8.251,1.36,-1.91,7.861,5.124,-4.56,-7.893,165.6,171.9,-7.512,178.3,162.2,166.5,168.1,,36,177.0,4,5,prime,10,0,91,norm,36,-5.229,down,norm,170.197440982,150.2,173.0,177.3,173.8,2,163.1,169.0,162.5,10,6,7.845,4.791,1.897,-1.187,-4.385,-7.872,174.3,6,261.2,-8.214,-7.921,-30,-8.23,-7.761,-4.327,-4.398,-4.802,-4.899,5.063,8.355,26,-1.159,1.545,4.928,8.367,-7.983,-8.125,-1.113,1.585,169.3,178.3,161.6,164.3,185.8,170.0,166.6,170.5,170.8,177.7,4,norm,1.795,1.482,-1.476,-1.748,-4.897,-4.945,-1.648,-1.194,-1.215,-1.112,1.899,-1.664,189.5,166.8,-4.375,-7.674,1.153,-2.057,7.619,4.781,-5.183,-7.896,24,4.966,4.755,4.554,4.706,1.397,1.984,1.483,1.933,24,4.898,4.794,-20,222.898755887,norm,0,92,92,92,525.063,525.073,525.08298557,525.083,525.085,525.087,down,1,1.53459040141,8.46540959859,001,301,1920_1080,Intel(R) Core(TM) i5-3570 CPU @ 3.40GHz,orientation_search,LEPPC096,Intel(R) HD Graphics 2500,2018_Oct_30_1426,testMonitor,
173.8,155.3,173.1,181.2,36,-30,188.9,168.8,179.0,172.8,7.868,8.005,7.697,7.852,8.393,8.316,7.546,4.413,-4.531,-8.187,1.767,-1.444,7.932,4.303,-4.926,-8.446,165.7,172.9,-8.485,190.2,167.2,166.9,161.5,162.1,36,159.8,0,5,prime,10,0,99,norm,36,-4.821,down,norm,170.197440982,171.2,181.8,175.7,155.9,2,166.8,168.7,171.5,10,6,7.945,4.534,1.435,-1.539,-5.068,-7.969,150.2,6,269.2,-7.774,-7.532,-30,-7.655,-8.257,-4.495,-4.504,-5.267,-5.197,4.697,8.214,2,-1.994,1.664,4.841,8.236,-7.965,-7.872,-1.51,1.688,153.4,176.3,169.7,,164.7,178.7,177.4,163.4,163.2,160.5,5,norm,1.397,1.576,-1.571,-1.994,-4.419,-4.41,-2.061,-1.273,-1.105,-1.147,2.044,-2.01,156.8,161.7,-4.462,-7.785,1.555,-1.331,7.609,4.57,-4.936,-8.246,24,5.287,4.497,4.997,4.418,1.147,1.913,1.906,1.189,24,5.226,4.62,-20,222.898755887,norm,0,93,93,93,526.655,526.665,526.67432696,526.675,526.676,526.679,down,1,0.857103314044,9.14289668596,001,301,1920_1080,Intel(R) Core(TM) i5-3570 CPU @ 3.40GHz,orientation_search,LEPPC096,Intel(R) HD Graphics 2500,2018_Oct_30_1426,testMonitor,
235.6,229.9,239.6,,36,-30,241.2,236.2,239.6,230.2,7.928,8.386,8.448,8.192,8.375,7.759,8.497,4.639,-5.0,-8.249,1.344,-1.346,8.048,4.559,-4.925,-8.386,230.1,241.0,-8.455,232.0,236.5,240.0,227.6,230.9,36,236.3,3,5,probe,5,0,95,norm,36,-5.054,up,norm,234.503259533,233.8,228.0,224.5,238.1,3,237.4,230.5,228.9,10,6,7.934,5.141,1.306,-1.393,-4.606,-7.517,230.2,1,139.5,-8.202,-8.146,-30,-7.582,-8.383,-4.637,-5.001,-4.482,-4.615,4.529,7.516,21,-1.423,1.402,5.283,7.901,-7.529,-8.224,-1.317,1.6,244.5,230.9,230.9,232.9,235.5,233.8,231.5,239.2,231.7,233.6,0,norm,1.425,1.74,-1.959,-1.322,-4.926,-4.303,-1.922,-2.034,-1.536,-1.402,1.586,-2.031,241.7,232.9,-4.303,-8.41,1.137,-1.107,7.916,5.159,-4.46,-7.995,25,5.209,4.49,4.99,4.764,1.902,1.73,2.01,2.024,25,4.865,5.039,-30,170.197440982,norm,0,94,94,94,527.568,527.578,527.594726701,527.595,527.597,527.599,up,1,1.56695869195,8.43304130805,001,301,1920_1080,Intel(R) Core(TM) i5-3570 CPU @ 3.40GHz,orientation_search,LEPPC096,Intel(R) HD Graphics 2500,2018_Oct_30_1426,testMonitor,
279.1,260.1,283.9,292.9,36,-30,273.0,274.6,272.2,264.1,8.366,8.158,8.018,8.285,7.81,8.276,8.173,5.045,-4.311,-8.082,1.128,-2.084,7.519,4.418,-4.491,-7.674,273.7,275.7,-7.607,278.9,273.8,258.8,271.6,264.7,36,290.5,0,5,prime,10,0,117,norm,36,-4.399,up,norm,272.911053079,270.1,252.9,268.5,277.8,3,279.9,268.0,290.0,10,5,7.661,4.86,1.282,-1.968,-5.064,-7.879,260.7,5,389.9,-7.814,-7.714,-30,-8.422,-7.517,-4.517,-4.546,-5.176,-5.261,4.496,7.851,3,-2.017,1.508,5.037,8.297,-7.953,-8.423,-1.402,1.38,269.4,267.1,,275.0,268.6,274.0,270.5,282.6,273.9,258.9,0,norm,1.443,1.713,-1.218,-1.234,-4.53,-4.409,-1.531,-1.623,-1.555,-1.276,1.54,-1.95,287.1,283.6,-4.723,-8.188,1.63,-1.844,7.623,5.215,-5.028,-7.669,26,5.247,4.308,4.867,4.872,1.953,1.641,1.793,1.181,26,4.499,4.408,-30,170.197440982,norm,0,95,95,95,529.187,529.196,529.202394863,529.203,529.204,529.207,up,1,1.73948915749,8.26051084251,001,301,1920_1080,Intel(R) Core(TM) i5-3570 CPU @ 3.40GHz,orientation_search,LEPPC096,Intel(R) HD Graphics 2500,2018_Oct_30_1426,testMonitor,
