d_ori_22,d_ori_23,d_ori_20,d_ori_21,set_size,ctpd,d_ori_24,d_ori_25,d_ori_28,d_ori_29,stim_pos_x_30,stim_pos_x_31,stim_pos_x_32,stim_pos_x_33,stim_pos_x_34,stim_pos_x_35,stim_pos_y_11,stim_pos_y_10,stim_pos_y_13,stim_pos_y_12,stim_pos_y_15,stim_pos_y_14,stim_pos_y_17,stim_pos_y_16,stim_pos_y_19,stim_pos_y_18,d_ori_35,d_ori_34,stim_pos_x_3,d_ori_31,d_ori_30,d_ori_33,d_ori_32,d_ori_26,test_set_size,d_ori_27,targetCol,dsd_test,seq_type,dsd,blockRepN,targetDist,dtype_test,prime_set_size,stim_pos_y_25,correctResponse,dtype,distrMean,d_ori_17,d_ori_16,d_ori_15,d_ori_14,targetRow,d_ori_11,d_ori_13,d_ori_12,dsd_prime,streak_length_prime,stim_pos_y_35,stim_pos_y_34,stim_pos_y_33,stim_pos_y_32,stim_pos_y_31,stim_pos_y_30,d_ori_10,nextProbe,targetOri,stim_pos_x_1,stim_pos_x_2,ctpd_prime,stim_pos_x_4,stim_pos_x_5,stim_pos_x_6,stim_pos_x_7,stim_pos_x_8,stim_pos_x_9,stim_pos_y_28,stim_pos_y_29,targetPos,stim_pos_y_20,stim_pos_y_21,stim_pos_y_22,stim_pos_y_23,stim_pos_y_24,stim_pos_x_0,stim_pos_y_26,stim_pos_y_27,d_ori_9,d_ori_8,d_ori_3,d_ori_2,d_ori_1,d_ori_0,d_ori_7,d_ori_6,d_ori_5,d_ori_4,trialN,dtype_prime,stim_pos_x_18,stim_pos_x_19,stim_pos_x_12,stim_pos_x_13,stim_pos_x_10,stim_pos_x_11,stim_pos_x_16,stim_pos_x_17,stim_pos_x_14,stim_pos_x_15,stim_pos_y_9,stim_pos_y_8,d_ori_19,d_ori_18,stim_pos_y_1,stim_pos_y_0,stim_pos_y_3,stim_pos_y_2,stim_pos_y_5,stim_pos_y_4,stim_pos_y_7,stim_pos_y_6,totBlockN,stim_pos_x_27,stim_pos_x_26,stim_pos_x_25,stim_pos_x_24,stim_pos_x_23,stim_pos_x_22,stim_pos_x_21,stim_pos_x_20,blockN,stim_pos_x_29,stim_pos_x_28,prevDistrCTPD,prevDistrMean,prevDistrType,trials.thisRepN,trials.thisTrialN,trials.thisN,trials.thisIndex,timeStart,timeBeforeDraw,timeDraw,timeAfterSaving,timeAfterWritingToTemp,timeAfterPreparingNext,answer,correct,rt,trialScore,session,participant,resolution,cpu_info,expName,pc_name,graphic_card,date,monitorName,
270.1,282.9,275.5,280.8,36,60,287.5,273.2,280.5,302.9,7.891,7.605,8.187,8.413,8.334,7.988,7.75,5.007,-5.062,-8.42,2.042,-1.753,8.276,4.45,-4.626,-7.681,270.3,281.4,-7.956,288.8,283.1,288.3,273.0,295.9,36,280.4,0,5,prime,10,0,66,norm,36,-4.672,down,norm,282.948255165,280.5,295.8,266.4,282.6,2,283.5,286.8,290.1,10,6,8.069,4.89,1.138,-1.829,-4.687,-8.36,301.5,6,348.9,-8.117,-7.86,60,-8.068,-7.927,-4.591,-5.06,-4.42,-4.34,4.428,8.127,2,-1.127,1.981,5.16,8.088,-7.646,-8.018,-1.138,1.576,269.6,293.5,288.6,,274.4,275.7,264.7,279.5,284.3,262.9,0,norm,1.311,1.366,-1.425,-1.198,-5.092,-4.67,-2.041,-1.765,-1.788,-1.112,1.728,-1.481,289.6,284.1,-4.579,-8.107,1.878,-1.371,8.494,5.124,-4.51,-7.67,0,4.865,5.028,4.576,4.919,1.258,1.79,1.504,1.9,0,4.484,4.915,,,,0,0,0,0,210.082,210.111,210.132170908,210.132,210.133,210.135,up,0,2.39733134112,-10,001,326,1920_1200,Intel(R) Core(TM) i5-3570 CPU @ 3.40GHz,orientation_search,LEPPC096,Intel(R) HD Graphics 2500,2019_Jan_12_1541,testMonitor,
299.2,282.8,294.5,295.4,36,60,280.6,274.6,284.9,293.4,8.074,8.367,8.046,7.895,8.491,8.333,7.508,4.697,-4.926,-8.16,1.654,-1.116,7.663,4.939,-4.869,-8.458,292.0,272.7,-8.179,302.9,286.6,275.0,272.4,286.3,36,279.4,1,5,prime,10,0,117,norm,36,-4.813,down,norm,282.948255165,280.3,293.1,284.9,262.9,2,290.2,290.2,280.5,10,6,8.398,4.963,1.893,-1.924,-4.584,-8.21,282.2,6,399.9,-7.62,-7.722,60,-8.033,-7.55,-5.237,-5.207,-4.653,-4.689,4.7,7.901,8,-1.367,1.68,4.723,8.055,-7.641,-8.407,-1.198,1.6,296.3,,285.4,276.3,283.7,296.0,282.3,274.6,281.9,299.7,1,norm,2.034,1.248,-1.73,-1.985,-4.689,-4.443,-1.753,-2.006,-1.154,-1.724,1.931,-1.767,280.3,290.9,-5.201,-7.987,1.672,-1.524,7.841,4.606,-4.422,-7.636,0,4.819,4.641,4.794,4.409,1.735,2.059,1.732,1.121,0,4.321,5.053,,,,0,1,1,1,213.583,213.593,213.608207915,213.608,213.609,213.612,down,1,1.45379848471,8.54620151529,001,326,1920_1200,Intel(R) Core(TM) i5-3570 CPU @ 3.40GHz,orientation_search,LEPPC096,Intel(R) HD Graphics 2500,2019_Jan_12_1541,testMonitor,
288.8,288.5,292.5,298.8,36,60,290.1,284.7,278.0,279.4,7.814,8.01,7.572,8.211,7.559,8.179,8.475,4.855,-4.844,-7.505,1.434,-1.185,7.978,5.149,-4.608,-8.495,294.7,287.5,-7.523,269.7,276.0,275.9,298.7,296.4,36,281.9,2,5,prime,10,0,111,norm,36,-4.946,up,norm,282.948255165,,262.9,275.0,298.5,5,280.4,289.2,290.3,10,6,7.675,4.631,1.745,-1.293,-4.963,-8.346,296.2,6,393.9,-8.113,-8.247,60,-8.473,-7.812,-4.964,-5.061,-5.241,-4.689,5.077,8.317,17,-1.289,2.058,5.205,7.865,-8.206,-8.42,-1.478,1.641,280.2,274.0,268.2,274.9,284.2,270.4,280.8,271.0,281.9,281.3,2,norm,1.393,1.582,-2.07,-1.881,-4.617,-5.228,-1.367,-1.291,-1.475,-1.309,1.601,-1.995,294.6,302.9,-4.348,-8.349,1.363,-1.869,7.787,4.636,-4.596,-7.591,0,5.113,5.202,4.877,4.499,1.285,1.878,1.16,1.518,0,4.341,4.764,,,,0,2,2,2,215.099,215.111,215.115108817,215.115,215.117,215.12,down,0,2.01685864348,-10,001,326,1920_1200,Intel(R) Core(TM) i5-3570 CPU @ 3.40GHz,orientation_search,LEPPC096,Intel(R) HD Graphics 2500,2019_Jan_12_1541,testMonitor,
277.0,287.8,279.9,280.7,36,60,273.6,283.3,293.6,287.9,8.332,7.657,7.908,8.462,8.353,8.231,8.076,4.653,-4.535,-8.4,1.669,-1.729,8.493,4.912,-4.634,-7.82,280.9,285.0,-8.189,302.9,275.2,282.1,296.2,287.3,36,283.2,0,5,prime,10,0,84,norm,36,-4.845,down,norm,282.948255165,302.1,273.6,283.2,283.0,0,279.2,276.9,274.4,10,6,8.258,4.51,1.493,-1.813,-4.636,-8.276,283.1,6,366.9,-8.485,-7.531,60,-7.817,-8.309,-4.439,-5.074,-4.82,-5.042,4.905,7.751,0,-1.854,1.476,4.427,8.283,-8.306,-7.899,-1.69,1.665,285.5,268.7,288.7,265.4,273.6,,284.1,271.6,296.2,282.2,3,norm,1.538,1.598,-1.3,-1.874,-4.337,-4.912,-1.207,-1.654,-1.575,-1.245,1.424,-1.974,271.5,262.9,-5.162,-7.671,1.648,-1.2,8.382,4.456,-4.851,-7.749,0,4.785,5.045,5.088,4.594,1.279,1.212,1.864,1.102,0,4.856,4.4,,,,0,3,3,3,218.203,218.214,218.225707084,218.226,218.228,218.23,down,1,2.312333605,7.687666395,001,326,1920_1200,Intel(R) Core(TM) i5-3570 CPU @ 3.40GHz,orientation_search,LEPPC096,Intel(R) HD Graphics 2500,2019_Jan_12_1541,testMonitor,
299.0,290.2,282.1,289.0,36,60,273.3,283.0,278.5,281.8,7.808,8.179,8.38,7.931,8.198,7.93,7.931,5.079,-5.014,-7.619,1.604,-1.214,8.073,4.764,-4.557,-8.283,278.0,277.1,-8.142,,275.1,268.6,279.5,287.2,36,281.8,5,5,prime,10,0,89,norm,36,-4.447,down,norm,282.948255165,280.0,279.6,282.9,279.0,1,277.1,293.0,278.7,10,6,8.167,5.083,1.992,-2.099,-4.589,-8.009,302.9,6,371.9,-7.993,-7.53,60,-8.413,-7.906,-4.392,-5.153,-4.879,-4.871,4.736,7.721,31,-1.118,1.784,5.22,8.146,-8.149,-7.921,-1.421,1.18,287.7,284.8,262.9,297.4,283.0,284.9,284.5,289.7,297.1,297.1,4,norm,1.46,1.591,-2.019,-1.867,-5.265,-4.785,-1.189,-1.606,-1.67,-2.01,2.02,-1.522,269.9,299.8,-5.077,-7.657,1.879,-1.621,8.26,4.569,-5.292,-7.841,0,4.817,5.128,4.392,4.727,1.183,1.631,1.982,1.954,0,5.001,4.692,,,,0,4,4,4,220.582,220.605,220.614987473,220.615,220.617,220.62,down,1,2.61439222434,7.38560777566,001,326,1920_1200,Intel(R) Core(TM) i5-3570 CPU @ 3.40GHz,orientation_search,LEPPC096,Intel(R) HD Graphics 2500,2019_Jan_12_1541,testMonitor,
283.9,278.1,285.6,296.9,36,60,274.6,287.1,278.5,262.9,7.739,8.025,8.275,8.124,7.943,8.367,7.766,5.157,-4.564,-7.974,1.94,-2.011,7.87,4.943,-4.756,-7.624,275.6,279.9,-8.196,271.0,289.1,264.6,293.7,271.5,36,298.2,2,5,prime,10,0,91,norm,36,-5.122,up,norm,282.948255165,275.0,286.6,,279.5,3,287.8,268.6,289.2,10,6,8.449,4.524,1.801,-1.56,-4.723,-7.887,274.6,6,373.9,-8.038,-7.738,60,-7.564,-8.375,-4.709,-4.317,-4.82,-4.859,4.336,7.543,15,-1.59,1.56,4.5,7.761,-8.458,-7.778,-1.219,1.677,287.3,287.9,270.2,289.1,285.9,268.1,278.5,280.1,272.3,292.7,5,norm,1.578,1.527,-1.247,-1.333,-5.248,-4.842,-1.739,-1.88,-1.824,-1.278,2.047,-2.049,273.2,302.9,-5.054,-7.998,1.501,-1.827,8.161,4.419,-5.201,-7.766,0,5.068,4.519,5.079,5.204,1.849,1.227,1.878,1.139,0,4.809,5.282,,,,0,5,5,5,223.268,223.279,223.283894171,223.284,223.286,223.289,down,0,2.438059706,-10,001,326,1920_1200,Intel(R) Core(TM) i5-3570 CPU @ 3.40GHz,orientation_search,LEPPC096,Intel(R) HD Graphics 2500,2019_Jan_12_1541,testMonitor,
441.2,444.7,438.4,447.8,36,20,442.0,436.1,442.2,442.1,8.225,7.957,7.843,7.759,7.581,7.934,7.809,4.928,-4.995,-8.025,1.496,-1.24,8.17,4.762,-5.125,-7.694,429.9,435.6,-8.051,446.4,444.0,,448.0,442.4,36,449.9,5,5,probe,5,0,99,norm,36,-5.189,up,norm,439.884317625,437.6,444.5,441.8,438.6,3,439.4,435.6,441.2,10,6,7.809,5.292,1.154,-1.509,-4.326,-8.181,439.3,1,340.9,-8.187,-8.182,60,-7.579,-7.816,-4.329,-5.144,-5.041,-5.029,4.533,7.619,33,-1.197,1.234,4.765,8.02,-8.308,-7.973,-1.274,1.581,440.5,448.9,441.6,436.6,442.2,442.4,435.8,441.4,447.6,440.3,0,norm,1.436,1.389,-1.285,-1.645,-5.235,-5.125,-1.161,-1.222,-2.018,-1.155,1.288,-1.817,439.4,440.0,-4.981,-8.165,1.232,-1.373,8.251,4.428,-4.819,-7.886,1,4.994,4.348,5.245,4.877,1.555,2.088,1.376,1.111,1,5.116,4.965,60,282.948255165,norm,0,6,6,6,226.793,226.803,226.809490778,226.81,226.811,226.814,up,1,1.17227715898,8.82772284102,001,326,1920_1200,Intel(R) Core(TM) i5-3570 CPU @ 3.40GHz,orientation_search,LEPPC096,Intel(R) HD Graphics 2500,2019_Jan_12_1541,testMonitor,
212.1,200.0,201.0,217.3,36,-40,218.0,213.7,219.1,206.2,8.034,7.837,7.793,7.864,8.296,8.317,8.333,4.487,-4.773,-7.971,1.789,-1.637,8.49,5.288,-4.458,-8.161,217.2,240.0,-7.68,224.0,220.1,214.1,229.7,221.0,36,221.9,1,5,prime,10,0,84,norm,36,-5.213,up,norm,219.970716898,221.1,228.8,206.4,227.9,3,220.0,228.4,222.6,10,5,7.928,5.183,1.135,-1.272,-4.681,-8.164,221.1,5,304.0,-7.629,-8.259,-40,-8.314,-8.112,-4.758,-5.152,-4.934,-4.838,4.612,8.37,9,-1.357,1.551,4.903,8.169,-8.286,-7.8,-1.502,1.776,,200.4,225.1,225.0,222.7,221.1,221.2,225.9,210.4,232.4,0,norm,1.366,1.443,-1.467,-1.604,-5.204,-4.65,-1.615,-1.469,-1.473,-1.495,1.97,-1.36,231.5,229.5,-4.773,-8.483,1.489,-1.21,7.518,5.018,-5.278,-8.152,2,4.426,4.848,4.515,5.09,1.489,1.321,1.346,1.693,2,4.415,4.911,20,282.948255165,norm,0,7,7,7,228.004,228.016,228.035489148,228.036,228.037,228.04,up,1,1.41196172538,8.58803827462,001,326,1920_1200,Intel(R) Core(TM) i5-3570 CPU @ 3.40GHz,orientation_search,LEPPC096,Intel(R) HD Graphics 2500,2019_Jan_12_1541,testMonitor,
236.1,216.4,205.1,200.0,36,-40,206.4,235.8,230.7,212.7,8.228,7.903,8.449,7.813,8.031,7.652,8.265,5.171,-4.691,-8.443,1.401,-1.636,7.807,4.503,-4.755,-8.074,214.2,240.0,-8.312,214.6,225.0,236.7,223.6,214.5,36,218.9,1,5,prime,10,0,86,norm,36,-5.2,down,norm,219.970716898,211.7,230.2,220.7,225.5,0,218.6,211.7,213.9,10,5,8.403,4.496,1.274,-2.07,-4.838,-8.425,204.8,5,306.0,-8.466,-7.883,-40,-7.877,-8.433,-4.997,-4.693,-4.624,-4.89,4.956,7.953,6,-1.433,1.625,4.684,8.169,-8.16,-7.704,-2.077,1.723,225.1,225.8,222.5,228.7,229.0,217.5,217.8,,219.3,214.6,1,norm,1.542,1.706,-1.65,-1.889,-4.628,-4.78,-1.728,-1.457,-1.244,-2.031,1.476,-1.157,202.0,223.5,-5.013,-8.39,1.699,-1.505,7.786,4.322,-5.073,-8.04,2,4.831,4.796,4.673,4.567,1.828,1.771,1.713,2.03,2,4.714,5.274,20,282.948255165,norm,0,8,8,8,229.489,229.499,229.519675209,229.52,229.522,229.525,down,1,0.739098674877,9.26090132512,001,326,1920_1200,Intel(R) Core(TM) i5-3570 CPU @ 3.40GHz,orientation_search,LEPPC096,Intel(R) HD Graphics 2500,2019_Jan_12_1541,testMonitor,
214.0,211.0,213.9,216.2,36,-40,236.4,209.3,,213.5,7.853,8.294,7.626,8.019,8.281,8.335,7.672,5.166,-4.613,-8.368,1.732,-1.286,7.59,5.102,-4.434,-8.314,209.8,222.2,-8.495,209.9,208.1,222.8,209.7,224.4,36,213.7,4,5,prime,10,0,95,norm,36,-5.185,up,norm,219.970716898,240.0,218.5,210.0,223.4,4,206.3,212.6,219.0,10,5,8.328,5.202,1.632,-1.809,-5.161,-8.292,221.6,5,315.0,-8.212,-7.983,-40,-8.437,-7.732,-5.167,-4.89,-5.144,-4.914,5.286,7.566,28,-1.371,1.746,4.885,7.72,-8.273,-8.347,-1.493,1.105,208.5,220.0,219.0,228.4,221.2,228.8,216.6,212.3,222.8,211.9,2,norm,1.946,2.065,-1.623,-1.479,-4.877,-4.7,-1.527,-1.749,-2.091,-1.79,1.275,-1.418,212.3,200.0,-4.631,-8.236,1.642,-1.219,8.011,5.234,-5.133,-8.471,2,4.387,4.594,5.127,4.868,1.891,2.082,1.473,1.93,2,5.142,5.228,20,282.948255165,norm,0,9,9,9,230.3,230.31,230.316394096,230.317,230.318,230.321,up,1,0.705975731232,9.29402426877,001,326,1920_1200,Intel(R) Core(TM) i5-3570 CPU @ 3.40GHz,orientation_search,LEPPC096,Intel(R) HD Graphics 2500,2019_Jan_12_1541,testMonitor,
221.6,224.0,208.2,217.6,36,-40,216.8,220.3,219.8,225.9,8.358,8.385,8.332,8.179,8.286,7.834,7.819,4.95,-5.173,-8.195,2.061,-1.255,8.41,4.966,-5.258,-8.363,200.0,201.8,-7.947,209.6,221.0,206.5,231.6,240.0,36,216.2,2,5,prime,10,0,62,norm,36,-4.601,down,norm,219.970716898,229.0,212.6,217.8,,2,218.2,225.5,216.5,10,5,8.206,5.263,1.258,-1.514,-4.495,-8.275,207.4,5,282.0,-7.661,-7.776,-40,-8.231,-8.02,-4.997,-4.608,-5.162,-5.007,4.718,8.306,14,-1.771,1.598,4.764,8.199,-8.095,-8.288,-1.126,1.467,208.3,207.5,228.5,227.2,230.2,231.2,224.9,207.9,231.6,213.7,3,norm,2.014,1.908,-1.658,-1.739,-4.7,-4.383,-1.374,-1.681,-1.821,-1.536,1.824,-1.655,218.5,200.7,-4.34,-7.976,1.455,-1.172,8.47,4.762,-4.81,-7.659,2,4.549,4.475,4.901,4.366,1.934,1.926,1.808,1.834,2,4.585,4.697,20,282.948255165,norm,0,10,10,10,231.06,231.07,231.079582541,231.08,231.081,231.084,down,1,0.753926469256,9.24607353074,001,326,1920_1200,Intel(R) Core(TM) i5-3570 CPU @ 3.40GHz,orientation_search,LEPPC096,Intel(R) HD Graphics 2500,2019_Jan_12_1541,testMonitor,
235.1,207.6,213.1,221.0,36,-40,218.5,240.0,218.4,217.0,7.856,7.805,7.687,7.812,7.869,8.06,7.881,5.164,-4.518,-7.896,1.594,-1.629,8.405,4.576,-4.612,-7.872,220.0,218.8,-8.19,200.0,236.3,224.2,,228.5,36,230.7,5,5,prime,10,0,94,norm,36,-4.531,down,norm,219.970716898,214.9,211.8,215.4,224.7,2,206.7,221.9,213.7,10,5,8.167,4.596,1.59,-1.484,-4.835,-8.432,218.8,5,314.0,-7.803,-8.013,-40,-7.608,-7.593,-5.048,-4.73,-5.125,-4.882,4.865,7.763,32,-1.149,1.848,4.627,8.161,-8.36,-7.966,-1.137,1.621,228.3,216.2,228.3,223.0,215.8,217.1,210.1,217.3,207.1,226.9,4,norm,1.566,1.208,-1.97,-1.598,-4.301,-4.367,-1.362,-1.542,-1.963,-1.54,2.081,-2.046,218.1,214.4,-5.239,-7.556,1.287,-1.791,7.832,4.92,-4.925,-8.463,2,5.044,4.539,4.394,4.949,1.373,1.289,1.932,1.166,2,5.057,4.567,20,282.948255165,norm,0,11,11,11,231.871,231.882,231.88727248,231.887,231.889,231.892,up,0,0.690614869148,-10,001,326,1920_1200,Intel(R) Core(TM) i5-3570 CPU @ 3.40GHz,orientation_search,LEPPC096,Intel(R) HD Graphics 2500,2019_Jan_12_1541,testMonitor,
291.1,286.2,289.5,295.6,36,-20,276.7,276.9,,286.6,8.405,8.309,8.108,8.246,7.878,7.653,8.02,5.092,-4.615,-7.517,1.171,-1.121,8.317,4.345,-4.806,-7.563,286.1,281.1,-8.177,281.4,286.3,295.2,280.1,287.0,36,283.9,4,5,probe,5,0,101,norm,36,-4.728,up,norm,285.602166421,276.5,284.4,287.4,284.1,4,290.8,287.1,287.9,10,5,8.461,5.26,1.487,-1.764,-4.679,-8.455,285.0,2,184.6,-8.207,-7.865,-40,-8.306,-8.086,-4.725,-5.23,-5.217,-4.98,5.115,8.465,28,-1.191,1.96,4.667,7.829,-7.877,-8.241,-1.625,1.191,281.7,284.7,285.1,275.6,277.5,287.2,288.8,285.6,283.1,285.2,0,norm,1.711,1.24,-1.723,-1.546,-4.897,-4.955,-1.384,-1.887,-1.117,-1.593,1.797,-1.716,293.9,276.8,-4.737,-8.085,1.25,-1.282,7.618,4.437,-5.179,-7.917,3,4.87,4.503,5.231,4.734,1.529,1.748,1.999,1.805,3,4.637,5.22,-40,219.970716898,norm,0,12,12,12,233.658,233.668,233.684773159,233.685,233.687,233.689,up,1,1.64419843641,8.35580156359,001,326,1920_1200,Intel(R) Core(TM) i5-3570 CPU @ 3.40GHz,orientation_search,LEPPC096,Intel(R) HD Graphics 2500,2019_Jan_12_1541,testMonitor,
297.7,294.9,300.0,297.9,36,-20,300.6,302.7,303.8,294.7,7.99,8.108,8.06,8.126,7.506,8.203,8.172,4.501,-4.415,-8.488,1.862,-1.182,8.484,4.436,-4.565,-8.118,298.7,311.8,-8.224,302.7,309.7,309.1,313.6,297.0,36,310.7,2,5,probe,5,0,119,norm,36,-4.496,up,norm,303.602166421,293.6,,306.8,300.4,4,299.7,307.7,297.0,10,5,8.464,4.874,1.845,-1.484,-4.734,-8.003,297.0,2,184.6,-8.427,-8.498,-40,-7.677,-7.772,-4.826,-5.211,-4.812,-4.44,5.104,8.424,16,-1.408,1.375,4.898,7.584,-8.327,-7.824,-1.995,1.411,306.2,306.6,301.1,306.9,302.8,307.9,301.1,304.3,306.8,306.6,1,norm,1.28,1.656,-1.507,-1.892,-5.063,-5.195,-1.404,-1.938,-1.297,-1.298,1.567,-1.691,306.3,308.1,-4.892,-7.595,1.391,-1.625,8.31,4.376,-4.367,-8.102,3,5.298,4.762,5.113,4.809,1.991,1.61,1.635,2.068,3,4.686,4.887,-40,219.970716898,norm,0,13,13,13,235.37,235.38,235.387631682,235.388,235.389,235.392,up,1,1.31005704972,8.68994295028,001,326,1920_1200,Intel(R) Core(TM) i5-3570 CPU @ 3.40GHz,orientation_search,LEPPC096,Intel(R) HD Graphics 2500,2019_Jan_12_1541,testMonitor,
117.6,103.3,123.7,110.1,36,40,105.3,95.8,101.8,127.5,8.253,8.105,8.412,7.828,8.113,7.571,8.138,5.203,-4.382,-8.285,1.97,-1.267,8.409,4.442,-4.823,-8.056,113.2,109.2,-7.833,110.1,112.1,93.9,102.9,114.0,36,119.5,2,5,prime,10,0,115,norm,36,-4.6,up,norm,111.259048074,114.5,,131.3,121.8,4,101.9,101.3,109.5,10,5,8.23,4.578,1.19,-1.393,-5.064,-7.719,120.8,5,226.3,-7.54,-8.362,40,-8.375,-7.968,-5.212,-5.15,-4.301,-4.796,4.961,8.456,16,-1.865,1.299,4.478,8.186,-7.945,-8.049,-1.329,1.856,95.2,118.7,127.2,115.9,117.4,91.3,126.8,114.0,107.0,102.3,0,norm,1.922,1.619,-1.219,-1.594,-4.411,-5.168,-1.74,-1.829,-1.823,-1.699,1.604,-1.872,115.3,101.1,-5.152,-7.643,1.77,-1.357,7.651,4.668,-4.494,-7.745,4,4.348,4.722,5.287,4.342,1.492,2.049,1.778,1.497,4,5.259,4.489,-20,219.970716898,norm,0,14,14,14,236.743,236.752,236.759025929,236.759,236.761,236.763,up,1,0.946661837061,9.05333816294,001,326,1920_1200,Intel(R) Core(TM) i5-3570 CPU @ 3.40GHz,orientation_search,LEPPC096,Intel(R) HD Graphics 2500,2019_Jan_12_1541,testMonitor,
101.1,116.1,127.0,116.8,36,40,101.8,114.5,110.9,131.3,8.022,7.787,7.926,7.563,8.167,7.511,8.079,5.02,-4.611,-8.25,1.258,-2.005,7.9,4.532,-4.338,-7.914,112.7,111.5,-8.37,,117.2,100.5,106.9,105.5,36,121.5,5,5,prime,10,0,103,norm,36,-5.171,down,norm,111.259048074,105.3,116.7,118.0,109.2,1,112.0,118.5,123.7,10,5,7.59,4.621,2.037,-1.405,-4.389,-8.08,98.9,5,214.3,-8.165,-8.095,40,-7.847,-8.378,-5.15,-4.742,-4.324,-4.786,4.755,8.225,31,-1.694,1.583,4.42,8.062,-7.97,-8.43,-1.537,1.206,100.3,91.3,110.3,94.9,121.5,100.7,113.6,110.8,107.8,110.4,1,norm,1.454,1.295,-1.973,-1.928,-5.046,-4.654,-2.023,-1.486,-1.579,-1.19,1.265,-1.427,94.6,107.8,-4.423,-8.36,1.871,-1.541,8.131,4.997,-5.292,-7.892,4,4.34,4.675,4.967,4.502,2.067,1.638,1.681,1.807,4,4.647,5.104,-20,219.970716898,norm,0,15,15,15,237.727,237.738,237.743139545,237.743,237.745,237.748,down,1,2.95215068369,7.04784931631,001,326,1920_1200,Intel(R) Core(TM) i5-3570 CPU @ 3.40GHz,orientation_search,LEPPC096,Intel(R) HD Graphics 2500,2019_Jan_12_1541,testMonitor,
108.6,115.5,98.9,131.3,36,40,101.9,120.1,118.4,125.5,7.847,8.099,8.226,8.425,8.334,8.086,7.684,5.122,-5.077,-7.743,1.184,-1.597,7.738,5.296,-4.684,-8.49,91.5,111.9,-7.774,97.2,123.0,100.0,107.5,114.9,36,104.5,0,5,prime,10,0,106,norm,36,-4.651,down,norm,111.259048074,111.6,110.9,110.8,97.5,2,116.0,103.2,106.7,10,5,7.612,5.108,1.427,-1.34,-4.95,-7.989,106.8,5,217.3,-8.473,-8.106,40,-8.397,-7.925,-4.548,-4.554,-4.947,-4.402,5.028,8.416,2,-1.717,1.757,4.398,7.88,-8.054,-8.0,-1.808,1.653,120.9,104.5,97.1,,103.7,111.1,110.6,107.7,105.8,91.3,2,norm,1.753,1.973,-1.559,-1.562,-4.448,-5.087,-1.387,-1.101,-1.477,-2.064,1.835,-1.454,99.8,112.4,-4.404,-7.754,1.902,-2.086,7.783,5.217,-4.72,-7.941,4,4.743,5.11,4.628,4.73,1.574,1.785,1.475,1.963,4,4.771,4.471,-20,219.970716898,norm,0,16,16,16,240.736,240.746,240.75262157,240.753,240.755,240.757,down,1,1.18038334994,8.81961665006,001,326,1920_1200,Intel(R) Core(TM) i5-3570 CPU @ 3.40GHz,orientation_search,LEPPC096,Intel(R) HD Graphics 2500,2019_Jan_12_1541,testMonitor,
112.3,111.3,103.6,101.2,36,40,126.2,108.3,106.0,115.4,8.268,7.884,8.015,8.233,8.492,8.426,7.73,4.424,-4.541,-7.882,1.616,-1.917,7.794,4.943,-4.534,-7.854,113.5,100.6,-8.028,109.5,111.3,104.6,121.8,115.0,36,108.6,0,5,prime,10,0,99,norm,36,-4.451,down,norm,111.259048074,96.6,120.8,103.7,118.7,1,99.7,105.9,101.5,10,5,8.072,5.219,1.67,-1.836,-5.13,-7.917,103.8,5,210.3,-7.865,-8.164,40,-8.104,-8.451,-4.968,-4.337,-4.983,-4.55,5.236,7.784,1,-1.823,1.907,4.519,8.15,-8.335,-8.176,-2.091,1.333,103.1,105.4,114.5,91.3,,113.8,112.5,117.7,131.3,114.3,3,norm,1.212,1.526,-1.572,-1.251,-4.477,-5.29,-1.244,-1.493,-1.564,-1.715,2.076,-1.483,110.4,103.6,-5.026,-8.465,1.967,-1.465,7.864,4.705,-5.286,-8.236,4,4.762,5.189,4.659,4.789,2.084,1.802,1.47,1.782,4,5.245,4.651,-20,219.970716898,norm,0,17,17,17,241.971,241.983,242.014891485,242.015,242.019,242.025,down,1,2.84491714208,7.15508285792,001,326,1920_1200,Intel(R) Core(TM) i5-3570 CPU @ 3.40GHz,orientation_search,LEPPC096,Intel(R) HD Graphics 2500,2019_Jan_12_1541,testMonitor,
108.3,102.1,106.6,105.7,36,40,107.1,115.4,105.7,115.6,8.39,8.261,7.691,7.666,8.261,8.363,8.126,4.472,-4.424,-8.118,1.429,-1.895,8.446,5.164,-5.106,-8.158,117.3,107.5,-7.526,111.5,,121.2,117.1,118.8,36,118.1,5,5,prime,10,0,76,norm,36,-4.598,down,norm,111.259048074,102.6,102.1,115.8,103.1,0,104.3,112.2,111.7,10,5,7.632,4.909,1.345,-1.293,-4.799,-8.284,124.2,5,187.3,-8.384,-7.941,40,-7.632,-7.849,-4.699,-5.236,-5.193,-4.431,4.692,8.446,30,-1.567,2.012,4.883,7.96,-8.056,-8.316,-1.613,1.114,94.4,116.8,105.5,114.8,105.2,106.9,91.3,101.3,131.3,99.4,4,norm,1.994,1.702,-1.481,-1.405,-4.357,-5.152,-1.751,-1.523,-1.604,-1.528,1.836,-1.868,110.2,113.5,-5.11,-7.966,1.928,-1.36,8.115,5.109,-5.024,-8.134,4,4.677,4.928,4.791,5.067,1.584,1.478,1.223,1.419,4,4.74,4.324,-20,219.970716898,norm,0,18,18,18,244.887,244.899,244.903461318,244.904,244.906,244.909,down,1,1.36112922213,8.63887077787,001,326,1920_1200,Intel(R) Core(TM) i5-3570 CPU @ 3.40GHz,orientation_search,LEPPC096,Intel(R) HD Graphics 2500,2019_Jan_12_1541,testMonitor,
243.5,235.5,250.9,241.0,36,-80,241.6,251.5,239.9,247.2,8.207,7.884,7.936,7.997,7.838,8.344,7.571,4.759,-4.358,-8.192,1.402,-1.265,8.327,4.762,-4.988,-8.035,235.9,239.1,-8.445,236.8,243.7,241.1,238.6,244.8,36,240.3,0,5,probe,5,0,81,norm,36,-4.709,down,norm,241.500762366,239.8,246.2,241.2,241.8,2,240.5,238.1,240.4,10,5,7.522,4.594,1.458,-1.605,-4.781,-7.735,234.1,2,160.5,-7.88,-8.25,40,-7.928,-7.889,-5.002,-5.292,-5.166,-5.058,4.791,7.652,2,-2.014,1.743,4.89,7.981,-7.909,-7.596,-1.412,1.835,245.8,237.0,239.7,,241.9,243.7,231.5,243.4,239.6,237.4,0,norm,2.095,2.006,-1.534,-1.624,-5.173,-5.264,-1.17,-1.772,-1.847,-1.492,1.45,-1.233,241.4,238.3,-4.505,-7.743,1.257,-2.095,7.982,4.618,-4.702,-8.359,5,5.214,4.558,5.2,4.963,1.262,1.759,1.921,1.387,5,4.562,4.83,40,111.259048074,norm,0,19,19,19,246.305,246.318,246.351566905,246.352,246.356,246.362,down,1,1.24819493495,8.75180506505,001,326,1920_1200,Intel(R) Core(TM) i5-3570 CPU @ 3.40GHz,orientation_search,LEPPC096,Intel(R) HD Graphics 2500,2019_Jan_12_1541,testMonitor,
225.9,221.8,227.7,221.5,36,-80,231.9,228.7,221.1,219.8,7.735,7.833,7.977,8.374,8.052,7.783,7.825,4.366,-4.671,-8.277,1.682,-2.014,7.603,4.66,-5.176,-7.791,227.9,221.3,-8.045,224.9,232.5,214.7,222.0,215.0,36,217.1,2,5,probe,5,0,62,norm,36,-5.27,down,norm,222.500762366,228.5,212.5,217.7,227.4,0,220.7,226.6,,10,5,8.112,4.474,1.785,-1.522,-4.39,-7.619,217.9,2,160.5,-8.426,-8.029,40,-7.98,-7.838,-5.005,-4.729,-4.708,-4.762,4.746,8.498,12,-1.314,1.889,5.171,7.811,-7.723,-8.184,-2.031,1.693,217.6,219.8,220.2,227.5,222.3,230.9,222.8,225.1,220.1,218.0,1,norm,1.216,1.974,-1.389,-1.189,-5.253,-4.457,-1.779,-1.778,-1.299,-1.137,1.66,-1.652,224.4,227.2,-5.112,-7.92,1.612,-2.06,7.572,4.766,-4.596,-7.725,5,5.049,4.53,5.115,5.219,1.952,1.546,1.38,1.342,5,4.617,4.701,40,111.259048074,norm,0,20,20,20,247.643,247.656,247.677594856,247.678,247.68,247.683,down,1,0.801790576233,9.19820942377,001,326,1920_1200,Intel(R) Core(TM) i5-3570 CPU @ 3.40GHz,orientation_search,LEPPC096,Intel(R) HD Graphics 2500,2019_Jan_12_1541,testMonitor,
256.2,253.3,265.6,246.7,36,30,253.2,246.0,257.8,248.4,7.876,7.797,8.5,8.017,7.515,8.139,8.422,4.804,-4.644,-7.62,1.472,-1.159,8.123,5.25,-4.967,-8.083,,253.4,-8.498,269.8,249.6,240.1,253.1,247.7,36,267.7,5,5,prime,10,0,92,norm,36,-5.22,up,norm,257.757115354,264.4,237.8,269.0,269.8,5,277.8,256.9,248.2,10,6,7.903,5.267,1.716,-1.81,-5.236,-8.038,265.5,6,349.8,-7.904,-8.135,30,-7.743,-7.535,-4.835,-5.107,-4.672,-4.595,4.883,7.569,35,-1.252,1.526,5.014,8.195,-7.621,-7.863,-1.873,1.111,255.6,254.5,254.1,256.8,253.4,253.5,256.8,273.4,265.7,252.8,0,norm,1.593,1.34,-1.872,-2.037,-4.629,-4.789,-1.146,-1.803,-1.894,-1.912,1.573,-1.496,254.2,254.0,-4.539,-8.228,1.316,-1.778,7.719,5.155,-4.47,-7.753,6,4.719,4.809,5.142,4.727,1.823,1.554,1.87,1.608,6,4.491,4.9,-80,111.259048074,norm,0,21,21,21,248.505,248.514,248.521703945,248.522,248.524,248.526,up,1,0.983319448218,9.01668055178,001,326,1920_1200,Intel(R) Core(TM) i5-3570 CPU @ 3.40GHz,orientation_search,LEPPC096,Intel(R) HD Graphics 2500,2019_Jan_12_1541,testMonitor,
264.4,267.1,254.6,269.7,36,30,252.9,257.6,261.8,,7.839,7.707,7.976,7.554,7.976,7.637,8.273,5.097,-4.482,-8.487,1.382,-1.966,8.385,4.839,-4.491,-7.605,269.7,264.3,-8.35,240.7,252.7,274.1,256.7,247.8,36,269.3,4,5,prime,10,0,78,norm,36,-4.507,up,norm,257.757115354,273.7,237.8,277.8,272.3,5,250.9,263.9,248.6,10,6,7.587,5.235,2.04,-1.652,-4.313,-8.351,249.9,6,335.8,-7.68,-7.991,30,-7.862,-8.216,-4.581,-4.948,-4.398,-4.872,4.343,8.402,29,-1.921,1.948,4.65,8.299,-8.178,-7.84,-1.33,1.389,251.7,239.9,270.5,251.0,260.1,263.4,253.1,261.4,255.2,262.2,1,norm,1.733,1.913,-1.826,-1.616,-4.702,-4.649,-1.499,-1.651,-1.606,-2.082,1.111,-1.98,243.7,264.0,-4.894,-7.761,1.237,-1.927,7.59,5.093,-4.879,-8.13,6,5.181,4.934,4.32,4.694,1.259,1.445,1.645,1.707,6,4.673,5.148,-80,111.259048074,norm,0,22,22,22,249.55,249.56,249.568467808,249.569,249.57,249.573,up,1,1.3234830511,8.6765169489,001,326,1920_1200,Intel(R) Core(TM) i5-3570 CPU @ 3.40GHz,orientation_search,LEPPC096,Intel(R) HD Graphics 2500,2019_Jan_12_1541,testMonitor,
241.3,248.5,253.9,250.7,36,30,253.1,254.7,260.4,239.7,7.925,8.199,8.039,8.15,8.466,8.408,8.305,4.726,-5.206,-8.426,1.439,-1.724,7.992,5.209,-4.52,-7.897,237.8,251.9,-7.878,254.9,250.8,,244.2,252.3,36,259.8,5,5,prime,10,0,77,norm,36,-4.987,up,norm,257.757115354,249.6,268.5,261.2,238.5,3,253.4,238.4,259.4,10,6,7.84,5.192,1.362,-1.508,-4.618,-8.289,254.6,6,334.8,-8.224,-7.573,30,-7.573,-7.682,-4.347,-4.539,-4.746,-4.347,4.806,8.183,33,-1.358,1.158,4.404,8.278,-8.45,-7.618,-1.705,1.67,261.3,277.8,256.4,239.4,253.9,249.5,257.3,262.8,245.0,275.9,2,norm,1.909,1.607,-1.708,-1.528,-5.15,-4.901,-1.869,-1.898,-1.785,-1.226,1.867,-1.915,264.7,263.9,-4.938,-8.496,1.461,-1.33,7.761,4.635,-4.72,-7.58,6,5.233,4.964,4.71,4.827,1.892,1.864,1.774,1.174,6,4.934,5.253,-80,111.259048074,norm,0,23,23,23,250.938,250.948,250.954675058,250.955,250.957,250.959,up,1,1.239429201,8.760570799,001,326,1920_1200,Intel(R) Core(TM) i5-3570 CPU @ 3.40GHz,orientation_search,LEPPC096,Intel(R) HD Graphics 2500,2019_Jan_12_1541,testMonitor,
271.5,256.6,256.5,259.8,36,30,265.6,273.8,256.1,240.9,7.523,8.421,7.926,8.494,8.431,7.751,8.04,4.971,-4.759,-8.02,1.925,-1.69,8.481,4.364,-5.018,-8.159,256.6,241.9,-8.335,240.2,262.0,273.7,242.8,260.0,36,268.4,2,5,prime,10,0,64,norm,36,-5.141,down,norm,257.757115354,237.8,275.8,267.9,242.0,1,270.4,,264.6,10,6,8.15,4.797,1.932,-1.436,-4.667,-7.644,267.4,6,321.8,-7.931,-7.578,30,-8.107,-8.196,-5.091,-4.755,-4.652,-4.668,5.142,7.517,13,-1.978,1.672,4.847,7.6,-7.658,-8.155,-1.724,2.07,250.3,277.8,261.4,255.1,259.5,276.7,254.1,254.8,260.1,254.5,3,norm,1.549,1.741,-1.913,-1.361,-4.34,-4.368,-1.14,-1.777,-1.389,-2.098,1.357,-1.168,259.7,252.0,-4.705,-8.359,1.992,-1.897,8.397,5.002,-4.339,-8.074,6,4.499,5.241,4.922,4.684,1.436,1.395,1.117,1.737,6,4.923,4.815,-80,111.259048074,norm,0,24,24,24,252.217,252.227,252.233734794,252.234,252.236,252.238,down,1,1.03486462012,8.96513537988,001,326,1920_1200,Intel(R) Core(TM) i5-3570 CPU @ 3.40GHz,orientation_search,LEPPC096,Intel(R) HD Graphics 2500,2019_Jan_12_1541,testMonitor,
239.5,244.6,242.2,252.2,36,30,248.3,259.1,250.0,259.4,8.277,7.557,7.801,8.096,8.428,8.302,7.754,5.176,-4.355,-7.739,1.414,-1.593,7.54,5.0,-5.211,-7.684,255.6,277.8,-7.853,265.9,262.1,250.8,,248.1,36,266.1,5,5,prime,10,0,93,norm,36,-4.762,down,norm,257.757115354,264.9,269.9,252.8,268.7,2,237.8,261.8,262.1,10,6,8.363,4.367,1.349,-2.031,-4.694,-7.611,266.6,6,350.8,-8.236,-7.542,30,-8.227,-7.651,-4.652,-5.239,-4.561,-5.017,4.532,8.066,32,-1.868,1.275,4.784,8.2,-8.205,-7.733,-1.769,1.968,271.4,246.5,247.7,256.5,241.9,260.0,247.5,251.1,248.7,263.7,4,norm,1.493,1.394,-1.719,-1.973,-5.187,-4.863,-1.475,-2.083,-1.408,-1.706,1.556,-1.685,254.0,274.1,-4.704,-7.588,1.26,-1.618,7.585,4.5,-4.435,-7.909,6,4.541,4.442,4.73,4.729,1.592,1.881,2.079,1.486,6,4.743,4.504,-80,111.259048074,norm,0,25,25,25,253.309,253.319,253.32643877,253.327,253.328,253.331,down,1,1.46545775604,8.53454224396,001,326,1920_1200,Intel(R) Core(TM) i5-3570 CPU @ 3.40GHz,orientation_search,LEPPC096,Intel(R) HD Graphics 2500,2019_Jan_12_1541,testMonitor,
274.3,252.8,265.5,,36,30,247.6,255.7,267.5,255.2,7.985,8.347,7.949,7.824,8.023,8.343,7.795,4.572,-4.871,-8.39,2.03,-1.726,7.727,4.922,-5.006,-7.93,237.8,266.1,-8.25,253.2,273.2,261.6,268.1,251.0,36,252.2,3,5,prime,10,0,117,norm,36,-4.714,up,norm,257.757115354,250.5,277.8,266.2,273.3,3,248.9,265.1,257.7,10,6,8.226,4.315,1.976,-1.564,-4.388,-8.146,251.3,6,374.8,-7.958,-7.896,30,-8.364,-7.988,-5.024,-5.054,-4.972,-4.597,4.836,8.072,21,-1.762,1.208,4.403,7.968,-7.872,-7.775,-1.57,1.977,252.1,254.8,251.1,261.0,270.3,264.1,274.8,258.3,242.2,260.3,5,norm,1.963,1.58,-1.951,-1.414,-5.049,-4.906,-1.752,-1.529,-2.059,-1.719,2.078,-1.757,249.4,265.4,-4.878,-8.201,1.553,-1.974,8.188,4.635,-4.791,-8.486,6,4.311,4.717,5.082,4.873,1.372,1.646,1.37,1.243,6,4.955,5.099,-80,111.259048074,norm,0,26,26,26,254.838,254.848,254.856096471,254.856,254.858,254.86,down,0,3.75294968155,-10,001,326,1920_1200,Intel(R) Core(TM) i5-3570 CPU @ 3.40GHz,orientation_search,LEPPC096,Intel(R) HD Graphics 2500,2019_Jan_12_1541,testMonitor,
382.4,386.6,386.5,394.8,36,-80,,380.3,393.6,393.4,8.285,8.008,7.702,7.969,7.612,8.468,7.856,4.371,-4.575,-7.524,1.732,-1.435,7.925,5.096,-4.988,-7.663,396.1,385.5,-7.71,394.9,381.2,386.5,382.2,395.6,36,389.1,4,5,probe,5,0,97,norm,36,-5.244,down,norm,387.897437699,391.8,390.7,386.2,386.0,0,384.0,387.3,384.7,10,6,7.688,4.537,1.963,-1.359,-4.986,-7.505,391.6,2,290.9,-7.51,-7.638,30,-8.134,-7.866,-5.181,-5.188,-4.869,-4.773,4.532,8.424,24,-1.395,1.118,4.361,8.209,-8.021,-7.995,-1.862,1.602,391.7,388.3,393.4,385.2,392.8,389.7,385.2,385.5,389.7,380.0,0,norm,1.328,1.208,-1.373,-1.925,-5.219,-4.712,-1.253,-1.583,-1.226,-1.861,1.917,-1.466,397.9,377.9,-4.33,-8.008,1.328,-1.41,7.622,4.959,-4.599,-8.118,7,4.966,4.888,5.09,4.374,1.593,1.921,1.856,1.488,7,4.553,5.27,30,257.757115354,norm,0,27,27,27,259.681,259.691,259.704734523,259.705,259.707,259.709,down,1,0.826330103535,9.17366989647,001,326,1920_1200,Intel(R) Core(TM) i5-3570 CPU @ 3.40GHz,orientation_search,LEPPC096,Intel(R) HD Graphics 2500,2019_Jan_12_1541,testMonitor,
362.7,362.7,364.0,372.3,36,-80,370.4,353.7,371.4,361.0,7.867,8.074,7.774,8.411,7.713,7.571,7.737,4.846,-4.609,-8.088,1.706,-2.033,8.19,5.266,-4.367,-8.476,357.9,358.7,-8.235,363.8,366.0,357.6,360.4,352.9,36,355.8,3,5,probe,5,0,72,norm,36,-4.315,down,norm,362.897437699,365.4,358.9,362.9,357.1,0,372.9,370.2,362.0,10,6,8.454,4.5,1.775,-1.43,-5.104,-7.735,367.7,2,290.9,-8.333,-8.293,30,-8.046,-8.197,-4.643,-4.332,-4.72,-5.222,5.217,8.309,18,-1.926,1.572,5.149,7.704,-7.966,-7.558,-1.318,1.346,354.3,360.9,367.0,367.1,358.2,361.7,353.7,369.8,358.6,362.0,1,norm,2.089,1.587,-1.545,-1.83,-4.969,-4.588,-1.485,-2.082,-1.384,-1.355,1.816,-1.485,357.9,,-5.124,-8.496,2.019,-1.477,8.068,5.277,-4.859,-8.145,7,4.414,4.988,5.234,5.265,1.464,1.825,1.929,1.419,7,4.984,4.583,30,257.757115354,norm,0,28,28,28,260.569,260.582,260.601936974,260.602,260.604,260.607,down,1,0.818138488938,9.18186151106,001,326,1920_1200,Intel(R) Core(TM) i5-3570 CPU @ 3.40GHz,orientation_search,LEPPC096,Intel(R) HD Graphics 2500,2019_Jan_12_1541,testMonitor,
103.3,109.4,108.6,106.2,36,-30,103.9,114.5,103.9,109.4,7.781,8.048,7.51,7.507,8.195,8.252,7.524,4.508,-4.728,-8.228,2.0,-1.581,7.704,4.718,-5.102,-8.283,106.3,96.3,-7.922,103.8,108.3,110.4,119.6,95.7,36,108.1,0,5,prime,10,0,110,norm,36,-5.29,down,norm,102.885747175,95.0,83.6,122.0,109.7,2,106.4,105.5,102.3,10,5,7.577,4.392,1.372,-1.374,-4.355,-7.777,107.9,5,212.9,-8.005,-8.055,-30,-7.745,-7.595,-4.873,-4.337,-4.802,-4.452,4.369,7.95,2,-1.377,2.06,4.574,8.092,-8.48,-7.775,-1.571,1.236,107.0,103.0,91.8,,92.5,108.1,108.6,108.9,82.9,90.2,0,norm,2.035,1.201,-1.94,-1.69,-4.419,-4.845,-1.574,-1.185,-1.756,-1.222,1.981,-1.827,122.9,113.9,-4.463,-7.559,1.949,-1.904,7.841,5.03,-4.828,-8.097,8,5.129,5.17,4.639,4.895,1.578,1.749,1.682,1.536,8,5.085,4.736,-80,257.757115354,norm,0,29,29,29,261.468,261.478,261.484345438,261.485,261.486,261.489,down,1,1.31002052582,8.68997947418,001,326,1920_1200,Intel(R) Core(TM) i5-3570 CPU @ 3.40GHz,orientation_search,LEPPC096,Intel(R) HD Graphics 2500,2019_Jan_12_1541,testMonitor,
89.7,96.6,105.2,82.9,36,-30,101.9,114.1,122.9,94.7,8.123,8.088,7.908,7.569,7.877,7.544,7.788,4.714,-4.393,-8.253,1.282,-1.483,8.275,4.535,-5.068,-8.455,106.6,106.4,-8.458,91.7,96.0,102.7,99.9,99.5,36,92.6,0,5,prime,10,0,116,norm,36,-4.609,up,norm,102.885747175,108.2,109.9,97.9,100.5,4,120.2,87.9,99.6,10,5,7.93,4.603,1.8,-1.253,-4.327,-8.465,102.1,5,218.9,-8.159,-7.974,-30,-8.376,-8.332,-5.287,-5.23,-4.855,-5.038,5.138,8.198,4,-2.071,1.932,4.373,7.685,-8.17,-8.148,-1.452,1.847,105.8,107.0,93.8,97.6,100.4,101.6,103.7,102.2,120.2,,1,norm,1.618,2.076,-1.393,-1.372,-5.095,-4.796,-1.796,-1.341,-1.644,-1.235,1.352,-1.339,107.1,93.3,-4.722,-8.168,1.242,-1.81,7.98,4.648,-4.46,-7.958,8,5.201,5.083,4.303,4.97,1.49,1.683,1.749,2.016,8,4.748,5.154,-80,257.757115354,norm,0,30,30,30,262.841,262.85,262.85712065,262.857,262.859,262.861,up,1,1.55962962963,8.44037037037,001,326,1920_1200,Intel(R) Core(TM) i5-3570 CPU @ 3.40GHz,orientation_search,LEPPC096,Intel(R) HD Graphics 2500,2019_Jan_12_1541,testMonitor,
103.3,103.9,111.2,90.6,36,-30,93.9,82.9,96.7,102.3,8.303,8.149,7.873,7.895,8.254,8.04,8.435,5.049,-4.812,-8.236,2.0,-1.472,7.73,4.485,-5.251,-8.093,95.0,114.7,-7.788,93.7,,102.9,90.3,106.3,36,115.2,5,5,prime,10,0,77,norm,36,-4.972,down,norm,102.885747175,122.9,119.8,101.5,108.3,0,102.7,100.1,117.0,10,5,8.476,4.834,1.468,-1.315,-4.825,-7.964,122.0,5,179.9,-8.127,-7.838,-30,-8.269,-7.896,-5.033,-4.788,-4.862,-5.086,4.486,7.725,30,-1.185,1.21,4.469,7.579,-8.086,-8.139,-2.061,1.357,109.0,98.2,95.9,97.6,118.4,100.3,101.7,105.2,90.7,95.3,2,norm,1.733,1.174,-1.717,-1.389,-4.781,-4.458,-1.904,-1.106,-1.344,-1.717,1.92,-1.898,115.5,106.9,-4.934,-8.036,1.566,-1.638,8.073,4.913,-4.996,-8.198,8,5.035,4.79,4.345,4.398,1.801,1.342,1.295,2.026,8,4.826,5.038,-80,257.757115354,norm,0,31,31,31,264.463,264.474,264.493785807,264.494,264.496,264.498,down,1,1.05126445109,8.94873554891,001,326,1920_1200,Intel(R) Core(TM) i5-3570 CPU @ 3.40GHz,orientation_search,LEPPC096,Intel(R) HD Graphics 2500,2019_Jan_12_1541,testMonitor,
,104.2,103.1,115.1,36,-30,96.5,116.5,82.9,101.3,7.757,8.422,8.429,8.499,8.103,7.581,7.985,4.495,-5.052,-8.401,2.024,-1.325,8.047,5.048,-5.117,-8.397,104.7,112.2,-8.024,99.4,89.6,89.7,87.8,109.0,36,111.8,3,5,prime,10,0,118,norm,36,-4.775,up,norm,102.885747175,101.5,92.9,100.3,89.9,4,98.9,112.9,99.5,10,5,8.308,4.482,1.809,-2.031,-4.643,-7.578,92.8,5,220.9,-8.449,-8.193,-30,-8.26,-8.209,-4.372,-4.672,-4.842,-4.657,4.538,8.461,22,-1.279,1.128,4.942,7.534,-7.547,-7.879,-1.716,1.181,94.5,106.8,91.7,105.2,122.9,117.1,83.1,118.8,92.6,89.5,3,norm,1.188,1.231,-1.84,-1.217,-4.531,-4.829,-1.715,-1.498,-1.453,-1.689,1.673,-1.949,91.9,104.6,-4.381,-8.382,1.157,-1.33,7.866,4.609,-4.901,-8.265,8,5.211,4.707,4.36,4.707,1.281,1.212,2.047,1.242,8,4.735,4.544,-80,257.757115354,norm,0,32,32,32,265.583,265.592,265.601228531,265.601,265.603,265.606,up,1,3.63572157324,6.36427842676,001,326,1920_1200,Intel(R) Core(TM) i5-3570 CPU @ 3.40GHz,orientation_search,LEPPC096,Intel(R) HD Graphics 2500,2019_Jan_12_1541,testMonitor,
101.2,99.4,122.9,103.7,36,-30,91.4,105.4,97.4,122.9,7.624,7.515,7.558,7.687,7.952,8.444,7.587,4.672,-4.847,-7.923,1.185,-1.636,8.266,4.956,-5.157,-7.871,119.4,101.3,-7.624,96.3,93.9,101.9,105.9,82.9,36,93.9,1,5,prime,10,0,76,norm,36,-4.583,down,norm,102.885747175,91.5,93.3,101.8,116.1,0,100.2,111.8,122.1,10,5,8.233,4.716,1.119,-1.76,-5.019,-7.73,108.4,5,178.9,-7.816,-8.216,-30,-8.392,-8.314,-4.599,-5.238,-4.52,-4.326,4.543,8.354,6,-1.551,1.292,5.042,7.688,-7.811,-7.577,-1.933,2.078,100.6,100.7,93.9,105.8,107.7,90.4,90.3,,94.7,108.4,4,norm,1.611,1.364,-1.875,-1.337,-4.386,-4.903,-1.516,-2.06,-1.114,-1.886,1.659,-1.81,111.4,95.8,-4.902,-7.646,1.272,-1.155,8.22,4.817,-5.188,-8.225,8,5.119,4.326,5.028,4.573,1.781,1.51,1.8,1.901,8,5.067,5.169,-80,257.757115354,norm,0,33,33,33,269.284,269.306,269.316637085,269.317,269.319,269.322,down,1,3.13740348335,6.86259651665,001,326,1920_1200,Intel(R) Core(TM) i5-3570 CPU @ 3.40GHz,orientation_search,LEPPC096,Intel(R) HD Graphics 2500,2019_Jan_12_1541,testMonitor,
191.5,193.9,188.4,183.3,36,80,,181.3,192.3,190.9,8.422,8.319,8.281,8.39,8.084,7.97,8.04,4.399,-4.795,-7.944,1.695,-1.131,7.704,4.552,-4.738,-7.726,195.3,186.8,-8.09,189.1,196.3,190.3,190.4,192.4,36,179.1,4,5,probe,5,0,116,norm,36,-5.255,down,norm,189.10777505,183.6,194.3,199.1,198.7,0,188.8,193.1,179.8,10,5,7.544,5.011,1.576,-1.454,-4.342,-8.294,180.5,2,73.1,-7.669,-7.956,-30,-8.006,-7.792,-4.988,-5.137,-4.849,-4.621,4.616,7.83,24,-1.611,1.786,5.006,7.523,-8.449,-7.648,-1.695,1.313,191.4,191.0,191.0,195.4,195.1,187.2,186.9,193.2,188.0,179.9,0,norm,1.744,1.781,-1.34,-1.136,-4.82,-5.056,-1.934,-1.996,-1.831,-1.107,1.979,-1.963,193.2,189.8,-4.435,-7.589,1.661,-1.893,8.475,5.242,-4.876,-7.674,9,5.174,5.056,5.136,4.884,1.605,1.346,1.159,1.852,9,4.575,5.039,-30,102.885747175,norm,0,34,34,34,272.497,272.507,272.543099399,272.543,272.547,272.553,down,1,1.50802921911,8.49197078089,001,326,1920_1200,Intel(R) Core(TM) i5-3570 CPU @ 3.40GHz,orientation_search,LEPPC096,Intel(R) HD Graphics 2500,2019_Jan_12_1541,testMonitor,
138.2,139.5,130.5,145.3,36,80,147.3,,132.6,131.7,7.828,8.469,8.033,7.914,7.822,7.731,7.634,5.252,-4.53,-8.458,1.361,-2.039,7.746,4.665,-5.002,-8.274,136.3,142.7,-7.917,143.7,143.6,134.4,143.0,136.6,36,138.2,4,5,probe,5,0,65,norm,36,-4.382,down,norm,138.10777505,139.2,136.2,135.6,141.4,1,141.1,141.6,128.1,10,5,8.227,4.415,1.245,-2.039,-5.287,-7.81,148.1,2,73.1,-7.698,-7.789,-30,-8.047,-7.641,-4.525,-4.379,-4.775,-5.121,5.227,7.832,25,-1.1,1.482,4.931,8.014,-8.369,-7.561,-1.947,1.918,139.5,131.3,131.2,136.5,145.8,130.8,139.7,135.0,132.8,134.0,1,norm,1.827,1.858,-1.13,-1.811,-4.687,-4.956,-2.049,-1.86,-1.514,-1.962,1.475,-2.035,133.3,136.2,-4.711,-7.732,1.401,-1.332,8.377,5.195,-4.464,-8.398,9,4.999,4.873,4.971,4.527,1.774,1.961,1.241,1.118,9,4.612,4.696,-30,102.885747175,norm,0,35,35,35,274.104,274.125,274.136897884,274.137,274.139,274.142,down,1,1.08576202119,8.91423797881,001,326,1920_1200,Intel(R) Core(TM) i5-3570 CPU @ 3.40GHz,orientation_search,LEPPC096,Intel(R) HD Graphics 2500,2019_Jan_12_1541,testMonitor,
199.2,175.2,169.9,206.8,36,30,182.8,179.0,188.8,198.5,8.084,7.562,8.259,8.074,7.87,7.876,7.777,5.092,-5.001,-8.218,1.737,-1.914,8.357,4.647,-4.547,-8.403,192.0,181.3,-7.694,176.5,170.8,185.1,188.5,194.6,36,193.1,1,5,prime,10,0,104,norm,36,-5.011,down,norm,187.177705465,196.2,177.4,168.1,192.3,1,180.5,196.1,195.6,10,5,8.435,5.132,1.974,-1.549,-4.619,-7.831,186.8,5,291.2,-7.9,-8.046,30,-8.387,-7.877,-5.278,-4.605,-4.889,-4.719,4.452,8.086,7,-1.163,1.276,5.033,7.597,-8.225,-8.054,-1.197,1.278,182.4,207.2,171.5,182.8,167.2,178.0,,205.4,170.2,185.4,0,norm,1.233,1.486,-1.217,-1.438,-4.729,-4.837,-1.34,-1.875,-1.869,-1.707,1.602,-1.411,198.5,189.6,-4.461,-7.949,1.779,-1.545,8.214,4.551,-4.893,-7.536,10,4.639,4.652,4.793,4.794,1.121,1.258,1.654,1.9,10,4.927,4.698,80,102.885747175,norm,0,36,36,36,275.258,275.267,275.288589453,275.289,275.29,275.293,down,1,1.2218983368,8.7781016632,001,326,1920_1200,Intel(R) Core(TM) i5-3570 CPU @ 3.40GHz,orientation_search,LEPPC096,Intel(R) HD Graphics 2500,2019_Jan_12_1541,testMonitor,
190.6,192.1,180.7,173.1,36,30,185.0,186.1,173.3,206.5,8.268,8.302,8.428,7.902,7.506,7.996,8.037,5.141,-4.431,-7.666,1.268,-1.233,7.897,4.541,-5.109,-7.889,174.8,194.1,-7.974,185.6,197.3,196.4,180.3,167.2,36,191.8,0,5,prime,10,0,64,norm,36,-4.599,down,norm,187.177705465,195.9,184.3,175.1,207.2,2,193.5,176.2,191.1,10,5,8.477,4.351,1.157,-1.514,-5.044,-7.674,186.6,5,251.2,-8.258,-7.58,30,-7.973,-8.359,-4.889,-4.412,-4.718,-4.549,4.405,8.407,2,-1.796,2.018,4.753,8.414,-8.052,-7.98,-1.36,1.675,186.9,188.8,188.2,,186.6,198.1,178.6,174.2,181.7,182.9,1,norm,1.591,1.699,-1.968,-1.185,-5.014,-4.908,-1.993,-1.677,-1.777,-1.72,1.506,-1.582,197.3,180.3,-5.194,-8.129,1.199,-1.842,8.358,4.509,-5.103,-8.221,10,4.846,4.447,4.417,5.135,1.205,1.528,1.171,1.449,10,4.825,5.139,80,102.885747175,norm,0,37,37,37,276.553,276.562,276.569579522,276.57,276.571,276.574,down,1,2.46925382595,7.53074617405,001,326,1920_1200,Intel(R) Core(TM) i5-3570 CPU @ 3.40GHz,orientation_search,LEPPC096,Intel(R) HD Graphics 2500,2019_Jan_12_1541,testMonitor,
183.4,182.3,195.8,190.2,36,30,178.4,191.7,186.4,186.5,7.923,7.558,7.706,7.99,7.757,7.552,7.854,4.962,-4.789,-7.769,1.789,-1.273,8.471,4.33,-5.033,-8.17,183.5,183.0,-8.192,177.6,193.9,199.1,197.7,191.5,36,189.0,2,5,prime,10,0,104,norm,36,-5.037,down,norm,187.177705465,207.2,194.5,167.2,,2,201.5,182.9,189.3,10,5,7.542,4.927,1.618,-1.157,-5.289,-7.74,181.9,5,291.2,-7.839,-8.363,30,-7.718,-7.55,-5.221,-4.328,-5.256,-4.53,4.707,8.15,14,-1.501,1.344,5.102,8.346,-8.411,-8.414,-1.149,1.229,190.3,200.2,179.3,192.8,171.6,189.1,200.4,197.4,178.3,182.6,2,norm,1.993,1.96,-1.228,-1.324,-4.963,-5.273,-1.879,-1.177,-1.23,-1.176,2.089,-1.533,178.2,174.7,-4.776,-8.5,1.655,-1.677,7.611,5.106,-4.869,-8.456,10,5.226,5.187,4.565,5.233,1.806,1.93,2.023,1.269,10,4.379,4.346,80,102.885747175,norm,0,38,38,38,279.08,279.089,279.096643122,279.097,279.099,279.101,down,1,2.96588940203,7.03411059797,001,326,1920_1200,Intel(R) Core(TM) i5-3570 CPU @ 3.40GHz,orientation_search,LEPPC096,Intel(R) HD Graphics 2500,2019_Jan_12_1541,testMonitor,
191.8,182.2,179.1,189.3,36,30,188.9,194.6,181.8,175.2,8.192,8.226,7.975,8.225,7.782,7.962,7.676,5.037,-4.842,-7.907,1.289,-1.464,7.656,5.284,-4.64,-7.906,199.0,171.4,-7.78,205.3,188.1,171.1,186.5,178.2,36,207.2,1,5,prime,10,0,60,norm,36,-4.874,down,norm,187.177705465,188.2,184.7,186.8,194.2,1,175.1,182.6,188.0,10,5,7.747,4.57,1.907,-1.536,-4.932,-8.461,191.8,5,247.2,-8.4,-8.122,30,-8.189,-7.877,-5.203,-4.484,-4.584,-4.611,4.559,7.668,7,-1.374,2.008,4.843,7.692,-7.836,-7.66,-1.616,1.689,196.5,167.2,190.8,195.0,186.0,179.4,,185.9,201.8,168.9,3,norm,2.026,1.375,-1.807,-2.076,-4.643,-4.9,-1.595,-1.932,-1.223,-1.331,1.34,-2.025,182.0,187.1,-4.543,-7.553,1.92,-1.158,7.582,4.468,-4.595,-8.223,10,4.519,4.881,5.109,4.781,1.692,1.162,1.148,1.135,10,5.138,4.62,80,102.885747175,norm,0,39,39,39,282.106,282.116,282.122954813,282.123,282.125,282.127,down,1,1.67446406472,8.32553593528,001,326,1920_1200,Intel(R) Core(TM) i5-3570 CPU @ 3.40GHz,orientation_search,LEPPC096,Intel(R) HD Graphics 2500,2019_Jan_12_1541,testMonitor,
173.1,167.2,181.7,196.1,36,30,200.6,190.7,199.6,180.9,8.077,7.887,8.449,7.655,8.442,8.441,8.467,4.906,-4.478,-7.67,1.729,-2.02,7.856,5.175,-4.38,-8.127,197.6,202.6,-7.631,207.2,192.1,,179.4,203.8,36,200.8,5,5,prime,10,0,97,norm,36,-5.167,up,norm,187.177705465,175.4,183.1,182.6,195.3,3,202.9,183.2,184.3,10,5,8.009,4.37,1.571,-1.912,-5.073,-8.339,185.3,5,284.2,-7.721,-8.323,30,-7.998,-8.388,-4.957,-4.644,-4.421,-4.736,4.309,8.495,33,-2.012,1.185,4.331,7.804,-8.359,-8.322,-2.018,1.899,190.5,179.4,183.7,174.9,183.5,182.3,193.6,202.8,195.6,175.1,4,norm,1.747,1.304,-1.404,-1.384,-5.0,-4.42,-1.391,-1.33,-1.123,-1.145,2.053,-1.305,174.9,194.3,-4.373,-8.276,1.997,-1.596,8.371,4.829,-4.531,-8.193,10,4.998,4.383,5.249,5.112,1.248,1.859,1.616,1.358,10,4.335,4.556,80,102.885747175,norm,0,40,40,40,283.838,283.848,283.854115126,283.854,283.856,283.859,up,1,1.60093513236,8.39906486764,001,326,1920_1200,Intel(R) Core(TM) i5-3570 CPU @ 3.40GHz,orientation_search,LEPPC096,Intel(R) HD Graphics 2500,2019_Jan_12_1541,testMonitor,
301.5,298.9,297.5,297.0,36,-40,301.5,291.5,300.8,305.4,7.81,8.016,7.831,7.987,7.522,7.527,7.509,4.682,-5.086,-8.48,1.324,-1.57,8.366,4.861,-5.228,-8.195,302.0,295.1,-7.976,302.8,304.6,293.8,305.5,,36,294.2,4,5,probe,5,0,84,norm,36,-5.023,down,norm,297.97668498,307.2,288.0,299.5,300.1,2,304.3,306.5,297.7,10,5,8.167,5.133,1.86,-2.021,-4.903,-7.517,302.5,2,214.0,-8.367,-8.328,30,-8.43,-7.843,-4.573,-4.596,-4.312,-4.965,4.937,7.87,26,-1.82,1.635,5.294,7.797,-7.986,-7.899,-1.648,1.546,297.8,299.0,305.4,303.4,307.1,291.8,304.3,292.3,308.0,295.2,0,norm,1.524,1.384,-1.638,-1.651,-5.121,-4.753,-1.842,-1.746,-1.438,-1.184,1.806,-1.674,291.8,299.3,-5.075,-7.936,1.626,-1.31,8.16,4.91,-4.881,-7.939,11,5.254,4.55,4.739,4.703,1.409,1.911,1.363,1.847,11,4.693,5.156,30,187.177705465,norm,0,41,41,41,285.477,285.486,285.506288146,285.506,285.508,285.511,down,1,1.30024419693,8.69975580307,001,326,1920_1200,Intel(R) Core(TM) i5-3570 CPU @ 3.40GHz,orientation_search,LEPPC096,Intel(R) HD Graphics 2500,2019_Jan_12_1541,testMonitor,
334.0,325.5,331.2,323.8,36,-40,320.9,322.9,319.4,325.1,7.72,8.116,7.957,7.631,7.801,8.389,8.175,4.383,-4.459,-7.902,1.891,-1.277,8.01,4.997,-4.397,-7.969,317.9,326.3,-8.17,325.3,331.8,330.5,326.8,320.0,36,318.5,0,5,probe,5,0,110,norm,36,-4.378,up,norm,323.97668498,321.6,316.1,318.1,331.0,3,333.1,314.0,321.2,10,5,8.047,4.394,2.077,-1.736,-4.369,-7.605,329.6,2,214.0,-8.437,-8.136,30,-8.355,-7.52,-4.904,-4.376,-5.011,-4.737,4.63,8.237,3,-1.392,1.148,5.223,8.393,-8.455,-7.901,-1.751,1.926,317.8,328.0,,327.6,325.9,316.6,333.5,327.1,325.6,331.1,1,norm,1.577,1.758,-2.001,-1.211,-5.173,-4.911,-1.476,-2.012,-1.399,-1.926,1.375,-2.085,315.4,318.5,-4.378,-8.197,1.896,-1.87,8.249,4.651,-5.17,-7.81,11,5.264,4.968,4.845,4.981,1.862,2.062,1.388,1.578,11,5.069,4.655,30,187.177705465,norm,0,42,42,42,286.848,286.859,286.864585409,286.865,286.867,286.869,up,1,1.08124754747,8.91875245253,001,326,1920_1200,Intel(R) Core(TM) i5-3570 CPU @ 3.40GHz,orientation_search,LEPPC096,Intel(R) HD Graphics 2500,2019_Jan_12_1541,testMonitor,
218.7,218.0,218.9,227.6,36,-60,204.9,213.7,233.2,217.7,8.24,8.158,7.824,7.92,7.531,8.026,8.139,4.684,-4.491,-8.146,1.523,-1.188,8.027,4.967,-5.185,-8.125,223.4,197.5,-8.321,224.1,210.8,213.8,224.4,208.5,36,222.2,0,5,prime,10,0,75,norm,36,-4.719,down,norm,216.867424475,215.5,208.0,229.7,211.8,0,220.0,221.3,219.5,10,6,7.634,4.735,1.287,-1.92,-4.51,-8.022,206.8,6,291.9,-8.366,-7.514,-60,-7.509,-7.59,-4.585,-4.964,-4.461,-5.176,5.288,8.494,0,-1.269,1.877,4.59,7.904,-8.408,-8.113,-1.866,1.834,230.7,206.4,196.9,205.3,207.5,,207.6,206.2,236.9,219.1,0,norm,1.647,1.551,-1.689,-1.771,-4.8,-5.058,-1.535,-1.19,-1.296,-1.878,2.093,-1.175,228.3,210.0,-4.615,-8.17,2.027,-1.513,8.303,4.348,-4.763,-7.628,12,5.08,4.756,4.953,5.228,1.789,2.006,2.034,1.407,12,5.268,4.723,-40,187.177705465,norm,0,43,43,43,287.987,287.996,288.003316732,288.004,288.005,288.008,down,1,1.1723311902,8.8276688098,001,326,1920_1200,Intel(R) Core(TM) i5-3570 CPU @ 3.40GHz,orientation_search,LEPPC096,Intel(R) HD Graphics 2500,2019_Jan_12_1541,testMonitor,
216.6,213.3,207.4,213.7,36,-60,200.9,221.9,221.9,208.2,8.128,7.544,7.838,7.977,8.073,8.025,8.045,4.542,-4.763,-7.526,1.26,-1.627,8.111,4.573,-5.259,-8.248,217.2,,-7.703,221.1,213.2,210.3,217.6,219.1,36,221.2,5,5,prime,10,0,100,norm,36,-5.22,up,norm,216.867424475,217.9,217.3,210.8,224.9,4,221.5,224.1,231.8,10,6,8.4,4.687,1.168,-1.451,-5.12,-8.191,214.0,6,316.9,-8.071,-7.531,-60,-7.655,-7.838,-5.273,-4.64,-4.413,-4.499,4.419,8.053,34,-1.535,1.252,4.331,7.565,-7.79,-8.103,-1.624,1.658,209.8,227.7,224.2,222.2,205.1,213.3,235.7,196.9,214.2,236.9,1,norm,1.756,1.596,-1.552,-1.257,-4.329,-5.097,-1.156,-1.256,-1.379,-1.881,1.537,-1.75,214.5,216.5,-4.689,-7.515,1.314,-2.077,8.261,5.224,-4.351,-7.633,12,4.764,4.75,4.728,4.466,2.013,1.994,1.129,1.961,12,5.247,4.497,-40,187.177705465,norm,0,44,44,44,289.22,289.242,289.252796643,289.253,289.255,289.257,up,1,0.925276343989,9.07472365601,001,326,1920_1200,Intel(R) Core(TM) i5-3570 CPU @ 3.40GHz,orientation_search,LEPPC096,Intel(R) HD Graphics 2500,2019_Jan_12_1541,testMonitor,
222.1,225.2,214.9,227.5,36,-60,235.8,214.6,211.4,196.9,8.358,7.855,7.689,7.823,8.227,7.71,7.85,4.903,-5.084,-8.208,1.248,-1.223,8.364,4.738,-4.852,-8.327,227.4,236.9,-7.926,207.2,227.1,223.2,202.4,214.6,36,227.5,2,5,prime,10,0,74,norm,36,-4.457,up,norm,216.867424475,,213.2,232.0,214.2,5,215.8,208.8,211.0,10,6,7.863,5.047,1.904,-1.873,-5.274,-7.544,224.9,6,290.9,-8.382,-8.137,-60,-8.281,-8.058,-4.525,-5.077,-4.875,-4.556,5.247,8.081,17,-1.724,2.023,5.252,8.198,-8.042,-7.597,-1.17,1.482,216.8,227.3,224.9,204.1,231.9,225.2,200.4,213.8,223.8,220.4,2,norm,1.765,1.899,-1.94,-1.58,-4.443,-5.022,-1.691,-1.923,-1.417,-1.907,1.41,-1.525,198.1,226.3,-4.674,-8.291,1.685,-1.238,7.953,5.205,-5.078,-7.815,12,5.138,4.783,5.132,5.169,1.199,1.847,1.806,1.496,12,4.586,4.406,-40,187.177705465,norm,0,45,45,45,290.218,290.23,290.251165142,290.251,290.253,290.257,up,1,1.08786440883,8.91213559117,001,326,1920_1200,Intel(R) Core(TM) i5-3570 CPU @ 3.40GHz,orientation_search,LEPPC096,Intel(R) HD Graphics 2500,2019_Jan_12_1541,testMonitor,
221.3,218.9,224.1,217.2,36,-60,214.9,221.2,236.8,229.9,7.823,8.084,8.257,8.262,7.851,8.288,7.603,5.163,-5.183,-8.355,1.279,-1.173,7.536,4.787,-4.351,-7.601,213.2,205.8,-8.3,216.2,224.6,196.9,220.5,216.7,36,228.1,0,5,prime,10,0,72,norm,36,-4.46,up,norm,216.867424475,204.8,214.8,213.5,215.0,5,208.1,216.9,199.1,10,6,7.509,4.516,1.825,-1.351,-5.134,-7.72,218.4,6,288.9,-7.65,-7.502,-60,-8.232,-7.797,-4.376,-5.178,-4.593,-5.118,4.325,7.949,5,-1.713,2.0,4.913,7.621,-7.722,-8.395,-1.555,1.629,210.2,211.8,205.4,219.1,236.9,202.5,215.3,226.3,,219.9,3,norm,1.251,1.311,-1.109,-1.798,-4.786,-5.182,-2.058,-1.902,-1.282,-1.293,1.823,-1.925,198.3,200.2,-4.449,-8.273,1.723,-1.535,7.773,4.831,-4.375,-8.332,12,4.327,4.969,5.173,4.438,1.812,1.559,1.161,1.375,12,5.105,4.513,-40,187.177705465,norm,0,46,46,46,291.378,291.391,291.410936642,291.411,291.413,291.415,up,1,1.00529656796,8.99470343204,001,326,1920_1200,Intel(R) Core(TM) i5-3570 CPU @ 3.40GHz,orientation_search,LEPPC096,Intel(R) HD Graphics 2500,2019_Jan_12_1541,testMonitor,
225.4,215.3,220.1,206.5,36,-60,213.5,214.5,204.0,231.4,7.993,7.966,7.884,8.192,8.326,8.219,8.062,4.952,-5.189,-7.912,1.788,-1.572,8.206,4.893,-4.646,-7.824,211.5,209.8,-8.409,206.5,198.0,207.2,218.8,220.8,36,221.1,3,5,prime,10,0,114,norm,36,-4.761,down,norm,216.867424475,223.8,221.6,211.1,196.9,0,203.5,209.4,230.6,10,6,8.07,5.27,1.787,-1.367,-5.101,-8.396,215.3,6,330.9,-8.067,-7.568,-60,-7.881,-8.078,-5.195,-4.472,-4.936,-4.557,5.235,7.723,18,-1.263,1.404,5.045,8.285,-7.98,-7.656,-1.767,1.676,205.2,203.7,204.9,225.4,236.9,225.1,226.0,229.2,211.2,233.2,4,norm,1.561,1.556,-1.749,-2.057,-4.818,-4.775,-2.027,-1.705,-2.029,-2.054,1.403,-1.686,226.3,,-4.403,-7.861,1.169,-1.987,7.686,4.741,-5.019,-8.247,12,4.846,4.781,5.043,5.239,1.368,1.193,2.04,1.449,12,5.294,4.78,-40,187.177705465,norm,0,47,47,47,292.454,292.467,292.487175586,292.487,292.489,292.492,down,1,1.02114371095,8.97885628905,001,326,1920_1200,Intel(R) Core(TM) i5-3570 CPU @ 3.40GHz,orientation_search,LEPPC096,Intel(R) HD Graphics 2500,2019_Jan_12_1541,testMonitor,
230.9,213.6,214.1,223.5,36,-60,222.3,210.1,200.4,217.5,8.091,7.999,8.371,8.446,8.397,8.064,8.346,4.844,-4.833,-7.544,1.376,-1.263,8.173,4.894,-4.55,-8.469,222.5,207.5,-7.939,204.5,210.7,218.5,236.4,,36,207.1,4,5,prime,10,0,69,norm,36,-5.041,down,norm,216.867424475,212.9,216.9,205.7,221.1,2,221.3,224.7,216.2,10,6,7.948,4.708,1.482,-2.084,-4.431,-8.408,214.0,6,285.9,-7.808,-8.063,-60,-8.427,-8.08,-5.277,-4.907,-4.854,-4.813,4.856,8.137,26,-1.532,1.101,4.791,7.995,-7.746,-7.521,-1.755,1.234,196.9,200.9,226.0,207.5,204.2,236.9,219.4,209.7,214.5,232.2,5,norm,1.339,1.599,-1.411,-2.068,-5.213,-4.842,-1.195,-1.299,-1.248,-1.995,1.171,-1.214,217.2,198.1,-4.379,-7.726,1.234,-2.062,7.967,4.619,-4.943,-8.294,12,5.077,4.658,5.264,4.389,1.101,1.488,1.911,2.03,12,4.972,4.564,-40,187.177705465,norm,0,48,48,48,293.556,293.566,293.572460684,293.573,293.575,293.577,down,1,1.12265628302,8.87734371698,001,326,1920_1200,Intel(R) Core(TM) i5-3570 CPU @ 3.40GHz,orientation_search,LEPPC096,Intel(R) HD Graphics 2500,2019_Jan_12_1541,testMonitor,
,258.2,249.3,247.4,36,-10,245.8,256.8,246.3,253.7,7.518,8.297,7.775,8.413,7.753,7.971,8.42,4.527,-5.204,-8.302,1.746,-1.789,8.243,4.535,-4.51,-8.368,241.7,253.8,-7.89,248.9,256.5,255.4,248.7,260.5,36,247.6,3,5,probe,5,0,86,norm,36,-4.328,up,norm,251.720725824,256.0,250.0,246.6,258.5,4,252.7,251.4,253.9,10,6,8.294,4.965,2.008,-1.499,-5.167,-7.79,261.7,2,165.7,-8.447,-7.877,-60,-7.615,-7.751,-5.239,-4.404,-4.908,-4.367,4.338,8.101,22,-1.952,1.844,4.787,8.419,-7.785,-7.908,-1.634,1.614,247.9,255.7,258.7,249.4,243.7,258.9,248.1,255.0,242.4,256.5,0,norm,1.152,1.119,-1.526,-1.761,-4.927,-5.062,-1.659,-1.895,-2.09,-1.924,1.878,-1.426,260.3,250.5,-5.137,-7.557,1.154,-2.025,8.123,4.653,-4.694,-7.755,13,4.745,4.527,5.296,4.751,1.401,1.858,1.507,1.297,13,4.345,4.519,-60,216.867424475,norm,0,49,49,49,294.742,294.763,294.775231972,294.775,294.777,294.78,up,1,0.828254399469,9.17174560053,001,326,1920_1200,Intel(R) Core(TM) i5-3570 CPU @ 3.40GHz,orientation_search,LEPPC096,Intel(R) HD Graphics 2500,2019_Jan_12_1541,testMonitor,
241.9,234.9,234.4,231.8,36,-10,236.3,232.8,234.9,231.5,8.292,7.806,8.334,8.419,8.243,7.575,8.089,4.696,-4.413,-7.504,1.901,-1.523,8.384,4.614,-4.358,-8.468,225.7,237.0,-7.569,,233.5,241.9,240.4,230.9,36,233.8,5,5,probe,5,0,70,norm,36,-4.556,down,norm,235.720725824,230.0,238.8,230.1,231.7,1,238.4,232.5,240.4,10,6,8.148,5.102,1.404,-1.503,-4.664,-7.96,229.9,2,165.7,-7.613,-7.566,-60,-8.227,-7.69,-4.801,-4.343,-5.061,-4.778,5.271,7.889,31,-1.694,2.04,5.2,8.389,-7.718,-7.904,-1.637,1.967,229.9,245.6,229.8,228.5,243.4,242.2,228.4,233.3,238.8,241.8,1,norm,1.745,1.837,-1.286,-1.97,-4.51,-4.338,-1.159,-1.403,-1.821,-1.248,1.403,-1.766,245.7,234.1,-5.074,-7.92,2.085,-1.262,7.526,4.893,-4.561,-7.819,13,5.048,4.728,4.76,4.971,1.931,2.054,1.999,1.866,13,4.434,4.792,-60,216.867424475,norm,0,50,50,50,295.642,295.652,295.661550002,295.662,295.663,295.666,down,1,0.827795285098,9.1722047149,001,326,1920_1200,Intel(R) Core(TM) i5-3570 CPU @ 3.40GHz,orientation_search,LEPPC096,Intel(R) HD Graphics 2500,2019_Jan_12_1541,testMonitor,
103.0,107.0,114.2,116.9,36,20,115.7,103.0,119.7,108.9,8.083,7.54,7.867,8.227,8.175,7.946,7.562,5.299,-4.858,-7.663,1.996,-1.628,7.915,4.399,-4.573,-8.388,108.0,89.6,-8.407,92.8,103.2,113.0,110.4,129.6,36,101.4,0,5,prime,10,0,63,norm,36,-4.529,down,norm,109.579233517,102.0,104.9,116.0,104.2,0,106.0,111.0,112.4,10,5,8.269,4.69,1.851,-1.9,-4.749,-7.632,109.7,5,172.6,-7.508,-7.782,20,-8.252,-7.502,-4.945,-5.103,-4.645,-4.943,4.507,8.265,0,-1.373,1.355,4.344,8.082,-7.88,-8.452,-1.223,1.688,123.8,122.7,110.8,110.8,119.7,,118.4,118.1,116.5,99.5,0,norm,1.887,1.632,-1.872,-1.189,-4.75,-4.544,-1.888,-1.978,-1.113,-1.889,1.604,-1.775,113.9,100.7,-4.646,-7.582,1.486,-2.088,8.054,5.271,-5.062,-8.421,14,4.483,5.027,4.543,4.667,1.212,1.43,1.537,1.913,14,4.501,4.605,-10,216.867424475,norm,0,51,51,51,296.536,296.546,296.553743246,296.554,296.556,296.558,down,1,0.769105013735,9.23089498627,001,326,1920_1200,Intel(R) Core(TM) i5-3570 CPU @ 3.40GHz,orientation_search,LEPPC096,Intel(R) HD Graphics 2500,2019_Jan_12_1541,testMonitor,
107.9,97.0,122.4,100.1,36,20,89.6,104.4,105.3,119.5,7.986,8.357,8.212,8.177,8.056,7.667,8.203,5.152,-4.385,-8.225,1.539,-1.544,7.812,4.95,-4.934,-7.708,95.0,115.8,-8.007,120.0,112.9,110.3,117.7,96.5,36,117.9,0,5,prime,10,0,68,norm,36,-5.263,up,norm,109.579233517,103.2,124.2,111.8,109.5,3,102.4,112.8,95.0,10,5,7.991,4.774,1.233,-1.528,-4.685,-7.8,105.5,5,177.6,-7.541,-7.718,20,-7.998,-8.274,-4.605,-5.009,-4.902,-4.533,4.671,7.638,3,-1.125,1.965,4.361,8.205,-7.882,-8.242,-1.333,1.333,110.0,106.6,,122.7,129.6,122.3,99.7,97.0,119.2,100.4,1,norm,1.436,1.952,-1.551,-1.159,-4.373,-4.698,-1.86,-1.43,-1.984,-1.156,1.228,-2.022,116.5,98.4,-4.383,-8.185,1.397,-1.333,7.715,4.688,-4.619,-8.201,14,4.327,4.735,5.161,5.154,1.105,2.081,1.714,1.255,14,4.644,5.14,-10,216.867424475,norm,0,52,52,52,297.343,297.354,297.361803858,297.362,297.364,297.366,up,1,0.772667753327,9.22733224667,001,326,1920_1200,Intel(R) Core(TM) i5-3570 CPU @ 3.40GHz,orientation_search,LEPPC096,Intel(R) HD Graphics 2500,2019_Jan_12_1541,testMonitor,
117.2,98.3,103.4,109.6,36,20,108.2,,117.0,113.6,8.435,7.948,8.085,8.228,8.012,7.964,7.908,4.458,-4.336,-8.11,1.891,-1.266,8.307,4.544,-5.273,-7.781,129.6,99.2,-8.285,126.9,124.1,100.9,110.2,89.6,36,105.7,4,5,prime,10,0,63,norm,36,-5.113,down,norm,109.579233517,122.5,101.9,99.1,103.8,1,105.0,113.9,120.7,10,5,8.204,4.843,2.041,-2.043,-5.242,-8.461,107.9,5,172.6,-7.719,-7.809,20,-7.99,-7.701,-4.805,-4.591,-4.896,-4.86,4.784,7.943,25,-1.166,1.378,4.954,7.767,-8.031,-7.818,-1.804,1.108,122.5,116.3,108.1,98.3,119.4,111.3,106.5,116.1,97.9,99.0,2,norm,1.538,2.091,-1.39,-1.844,-5.07,-5.134,-1.323,-1.805,-1.496,-1.895,1.775,-1.657,98.4,119.9,-4.761,-7.801,1.49,-1.872,8.224,4.557,-5.01,-7.801,14,5.147,5.005,5.288,4.776,2.032,1.474,1.689,1.303,14,4.707,4.346,-10,216.867424475,norm,0,53,53,53,298.158,298.168,298.174259712,298.174,298.176,298.179,down,1,1.08153732379,8.91846267621,001,326,1920_1200,Intel(R) Core(TM) i5-3570 CPU @ 3.40GHz,orientation_search,LEPPC096,Intel(R) HD Graphics 2500,2019_Jan_12_1541,testMonitor,
103.4,95.1,109.2,94.4,36,20,121.3,105.2,106.2,109.4,8.242,8.128,7.87,8.123,7.788,8.359,7.991,5.248,-4.873,-7.613,1.463,-1.432,8.323,4.986,-5.014,-8.115,,112.9,-8.443,89.6,115.4,119.3,101.5,104.2,36,122.5,5,5,prime,10,0,77,norm,36,-4.348,up,norm,109.579233517,99.3,127.0,129.6,118.8,5,116.2,112.9,111.5,10,5,7.703,5.099,1.679,-1.544,-5.05,-7.793,115.0,5,186.6,-8.111,-7.762,20,-7.658,-8.414,-4.546,-5.228,-5.112,-4.512,4.8,8.339,35,-2.055,1.583,4.732,8.01,-7.507,-7.576,-1.494,1.367,93.3,105.6,106.2,124.6,110.6,109.3,118.6,120.0,115.2,111.8,3,norm,1.973,1.685,-1.181,-1.581,-5.196,-4.766,-1.734,-1.581,-1.325,-2.077,1.455,-1.51,114.0,115.9,-5.211,-8.263,1.625,-1.235,7.532,4.713,-4.831,-8.123,14,4.646,5.285,4.958,5.175,1.989,1.892,2.086,1.358,14,5.008,5.124,-10,216.867424475,norm,0,54,54,54,299.297,299.306,299.313619487,299.314,299.315,299.318,up,1,0.828251682816,9.17174831718,001,326,1920_1200,Intel(R) Core(TM) i5-3570 CPU @ 3.40GHz,orientation_search,LEPPC096,Intel(R) HD Graphics 2500,2019_Jan_12_1541,testMonitor,
,102.0,106.5,110.3,36,20,109.4,101.5,112.7,112.6,7.688,7.921,7.759,8.08,7.577,7.827,8.233,4.414,-4.562,-8.211,1.244,-1.688,8.249,4.581,-4.369,-7.876,106.9,103.7,-7.827,106.5,117.1,108.7,89.6,115.0,36,96.5,3,5,prime,10,0,69,norm,36,-4.457,up,norm,109.579233517,121.1,102.4,94.4,108.0,4,90.4,123.3,104.4,10,5,8.497,4.797,1.469,-1.207,-4.772,-7.892,114.7,5,178.6,-7.978,-7.903,20,-7.821,-7.602,-4.931,-4.361,-4.67,-4.746,4.781,7.939,22,-2.033,1.957,4.452,7.765,-7.773,-8.229,-2.044,1.22,129.6,103.1,115.6,98.6,98.4,111.5,117.1,103.5,115.6,107.7,4,norm,1.39,2.025,-1.819,-1.346,-4.435,-4.726,-1.969,-2.052,-1.767,-1.17,1.177,-1.567,97.4,106.6,-5.091,-7.618,1.622,-1.158,7.558,4.392,-4.761,-8.046,14,4.603,5.185,4.665,4.843,1.689,1.438,1.382,1.727,14,4.918,4.986,-10,216.867424475,norm,0,55,55,55,300.186,300.195,300.20217453,300.202,300.204,300.207,up,1,1.27421624559,8.72578375441,001,326,1920_1200,Intel(R) Core(TM) i5-3570 CPU @ 3.40GHz,orientation_search,LEPPC096,Intel(R) HD Graphics 2500,2019_Jan_12_1541,testMonitor,
230.3,236.8,231.3,235.1,36,-30,239.6,232.6,240.1,234.2,7.901,8.386,7.557,7.555,7.677,7.923,7.501,4.393,-4.587,-8.31,1.557,-1.24,7.997,5.203,-4.743,-7.627,233.9,232.9,-7.589,242.7,230.7,244.1,229.3,234.5,36,225.4,2,5,probe,5,0,103,norm,36,-4.978,down,norm,235.373093117,235.3,235.3,234.3,,2,232.6,236.3,231.3,10,5,7.982,4.939,1.166,-2.005,-5.231,-8.335,238.4,2,132.4,-7.811,-8.384,20,-7.846,-7.971,-5.194,-5.131,-4.493,-5.182,4.843,7.888,14,-1.6,2.065,4.648,8.37,-7.954,-8.062,-1.846,1.291,237.9,239.0,245.4,226.5,243.6,233.3,228.4,234.8,236.9,238.3,0,norm,2.064,1.907,-2.013,-1.195,-4.88,-5.188,-1.773,-2.063,-1.197,-1.742,1.589,-1.873,236.1,234.0,-5.017,-7.558,1.18,-1.324,8.423,5.007,-4.489,-7.894,15,4.758,4.982,4.753,5.22,1.6,1.8,1.104,2.047,15,4.958,4.706,20,109.579233517,norm,0,56,56,56,301.515,301.527,301.547899423,301.548,301.551,301.554,down,1,0.800225482206,9.19977451779,001,326,1920_1200,Intel(R) Core(TM) i5-3570 CPU @ 3.40GHz,orientation_search,LEPPC096,Intel(R) HD Graphics 2500,2019_Jan_12_1541,testMonitor,
257.1,244.5,246.8,255.3,36,-30,250.5,246.8,255.0,254.0,8.163,7.524,8.024,8.16,7.723,7.686,7.943,5.28,-5.22,-8.405,1.219,-1.343,8.147,5.08,-4.602,-8.033,252.8,248.0,-7.922,251.8,250.1,249.3,253.7,249.5,36,243.9,1,5,probe,5,0,119,norm,36,-4.806,up,norm,251.373093117,254.8,246.1,253.8,261.4,3,244.8,258.3,248.1,10,5,8.452,5.078,1.152,-2.044,-5.151,-7.918,256.9,2,132.4,-7.994,-8.131,20,-8.272,-7.911,-5.289,-4.678,-5.237,-4.607,4.782,7.773,9,-1.733,1.662,4.377,8.173,-7.953,-7.637,-1.791,1.508,,253.1,250.4,256.2,243.3,249.1,257.0,258.6,250.8,258.4,1,norm,1.837,1.184,-1.702,-1.453,-5.091,-4.828,-1.564,-1.209,-1.862,-1.848,1.504,-1.236,241.4,255.5,-5.253,-8.007,1.314,-1.728,7.545,5.061,-4.939,-7.949,15,4.884,4.417,4.864,5.028,1.685,1.931,1.302,1.667,15,5.126,4.513,20,109.579233517,norm,0,57,57,57,302.373,302.384,302.404499079,302.405,302.407,302.409,up,1,0.896448428869,9.10355157113,001,326,1920_1200,Intel(R) Core(TM) i5-3570 CPU @ 3.40GHz,orientation_search,LEPPC096,Intel(R) HD Graphics 2500,2019_Jan_12_1541,testMonitor,
257.9,243.9,240.9,244.8,36,10,227.3,251.7,262.0,244.9,8.188,8.27,8.163,7.695,7.803,8.285,7.802,4.756,-4.676,-8.296,1.274,-1.366,8.481,5.164,-4.816,-7.993,225.8,252.2,-8.31,235.2,235.8,250.6,253.4,253.8,36,253.2,3,5,prime,10,0,78,norm,36,-4.929,down,norm,242.1340854,240.5,239.9,222.1,262.1,1,239.4,241.4,256.3,10,6,7.572,4.641,1.461,-1.969,-4.75,-7.772,237.7,6,320.1,-8.055,-7.97,10,-8.332,-7.823,-4.358,-4.303,-4.433,-4.853,4.693,7.688,19,-1.111,1.554,4.616,8.256,-8.182,-8.012,-1.181,1.258,234.7,244.0,244.2,243.9,247.3,240.7,250.6,231.5,236.7,240.5,0,norm,1.343,1.515,-1.296,-1.237,-5.162,-4.433,-1.831,-1.106,-1.132,-1.281,1.418,-1.35,,226.4,-4.778,-7.996,1.269,-1.302,8.095,5.192,-5.256,-7.771,16,4.905,5.2,5.213,5.277,1.887,1.606,1.121,1.359,16,5.258,4.487,-30,109.579233517,norm,0,58,58,58,303.34,303.352,303.372993148,303.373,303.375,303.379,down,1,0.640905249177,9.35909475082,001,326,1920_1200,Intel(R) Core(TM) i5-3570 CPU @ 3.40GHz,orientation_search,LEPPC096,Intel(R) HD Graphics 2500,2019_Jan_12_1541,testMonitor,
235.8,249.8,257.2,,36,10,242.6,236.9,243.4,240.5,7.798,7.954,7.937,8.24,7.87,8.039,8.031,5.201,-4.962,-8.004,1.464,-1.443,8.151,4.848,-4.523,-8.296,235.7,235.2,-8.319,243.4,246.3,234.6,230.8,253.0,36,237.6,3,5,prime,10,0,83,norm,36,-4.935,up,norm,242.1340854,246.2,238.7,244.3,242.1,3,241.4,255.3,241.1,10,6,7.953,4.442,1.932,-1.976,-5.242,-7.735,257.5,6,325.1,-7.557,-8.292,10,-8.228,-7.886,-4.988,-5.038,-4.859,-4.994,4.378,7.539,21,-1.769,2.006,4.598,8.03,-7.872,-7.951,-2.008,1.915,237.9,237.8,222.1,226.7,224.0,240.6,237.9,245.5,247.5,249.2,1,norm,1.647,1.794,-2.062,-1.944,-4.617,-5.268,-1.834,-1.987,-1.622,-2.002,1.511,-2.019,239.7,237.2,-4.56,-7.675,1.515,-1.547,8.483,4.679,-4.895,-8.353,16,5.053,4.303,4.833,5.149,1.481,2.037,1.834,1.639,16,4.575,5.195,-30,109.579233517,norm,0,59,59,59,304.039,304.048,304.055335205,304.056,304.057,304.06,up,1,0.532725104893,9.46727489511,001,326,1920_1200,Intel(R) Core(TM) i5-3570 CPU @ 3.40GHz,orientation_search,LEPPC096,Intel(R) HD Graphics 2500,2019_Jan_12_1541,testMonitor,
223.4,248.8,232.3,259.9,36,10,246.8,232.5,239.0,246.3,7.846,7.872,8.141,8.023,7.517,8.314,8.027,4.706,-4.394,-7.58,1.936,-1.365,8.03,4.403,-4.883,-8.217,231.6,238.7,-7.882,251.1,260.9,246.1,236.0,,36,250.1,4,5,prime,10,0,112,norm,36,-4.474,down,norm,242.1340854,250.0,245.5,257.5,252.3,2,239.6,245.3,244.3,10,6,8.359,4.68,1.483,-1.856,-4.512,-7.521,257.9,6,354.1,-8.357,-8.45,10,-7.89,-7.553,-4.546,-4.685,-5.194,-5.008,4.771,7.926,26,-1.174,1.77,5.001,8.13,-7.872,-7.688,-1.996,1.376,247.4,252.0,234.8,233.5,248.0,243.5,222.1,225.2,262.1,237.8,2,norm,1.139,1.416,-2.025,-1.492,-5.067,-5.11,-1.798,-1.281,-1.718,-1.646,1.927,-2.014,250.0,243.8,-5.091,-7.546,1.798,-1.448,7.7,4.359,-5.032,-8.481,16,4.596,5.207,4.926,4.604,1.902,2.039,1.717,1.402,16,5.297,4.371,-30,109.579233517,norm,0,60,60,60,304.632,304.641,304.650310906,304.65,304.652,304.655,down,1,0.856849286123,9.14315071388,001,326,1920_1200,Intel(R) Core(TM) i5-3570 CPU @ 3.40GHz,orientation_search,LEPPC096,Intel(R) HD Graphics 2500,2019_Jan_12_1541,testMonitor,
229.9,261.7,247.0,243.6,36,10,233.4,252.0,231.4,242.3,8.416,8.274,7.708,7.719,8.355,7.685,7.88,4.543,-4.37,-7.582,1.9,-1.376,8.014,5.101,-5.126,-7.875,228.6,235.6,-8.247,235.1,244.3,237.1,234.9,247.6,36,262.1,1,5,prime,10,0,113,norm,36,-4.756,down,norm,242.1340854,226.6,244.6,247.5,232.1,2,253.4,227.8,222.1,10,6,7.821,4.413,1.638,-1.624,-5.008,-7.603,249.1,6,355.1,-8.343,-8.407,10,-7.663,-7.603,-5.136,-4.308,-4.75,-4.842,4.658,7.564,8,-1.61,1.477,5.082,7.969,-8.416,-7.822,-2.074,1.652,243.4,,237.2,244.3,242.8,247.9,224.4,226.6,234.1,233.7,3,norm,1.453,2.027,-1.9,-1.662,-4.4,-4.828,-1.103,-1.61,-1.318,-1.99,1.684,-1.771,249.7,237.7,-4.515,-8.374,1.431,-1.554,8.091,5.07,-4.98,-7.582,16,4.89,4.478,4.482,4.309,1.855,2.094,2.008,2.041,16,4.672,4.783,-30,109.579233517,norm,0,61,61,61,305.553,305.574,305.585620755,305.586,305.588,305.591,up,0,0.547533279,-10,001,326,1920_1200,Intel(R) Core(TM) i5-3570 CPU @ 3.40GHz,orientation_search,LEPPC096,Intel(R) HD Graphics 2500,2019_Jan_12_1541,testMonitor,
261.6,226.0,,235.6,36,10,262.1,247.9,242.1,244.5,7.887,8.452,8.429,7.657,7.811,7.905,7.691,4.684,-5.232,-7.735,1.155,-2.0,7.962,4.798,-4.563,-7.734,247.9,228.0,-8.093,242.0,249.0,241.4,249.6,255.8,36,237.5,3,5,prime,10,0,109,norm,36,-4.635,down,norm,242.1340854,236.3,233.7,235.6,233.5,2,239.3,244.4,248.6,10,6,8.354,4.685,1.485,-2.028,-5.074,-7.712,225.8,6,351.1,-7.836,-8.446,10,-8.247,-7.718,-5.06,-4.861,-4.867,-5.165,4.457,8.133,20,-1.623,1.829,5.27,7.553,-7.729,-8.08,-2.038,1.321,260.6,255.7,251.5,248.8,241.3,239.2,240.5,230.0,230.2,252.8,4,norm,1.512,1.754,-1.476,-2.1,-4.967,-5.204,-1.909,-1.253,-1.21,-1.816,1.437,-1.977,251.8,244.8,-5.217,-7.918,1.731,-1.494,8.262,4.833,-4.897,-8.438,16,4.33,4.739,5.161,4.751,2.081,1.398,1.173,1.901,16,4.423,4.528,-30,109.579233517,norm,0,62,62,62,307.188,307.198,307.205169187,307.205,307.207,307.21,down,1,1.06845694105,8.93154305895,001,326,1920_1200,Intel(R) Core(TM) i5-3570 CPU @ 3.40GHz,orientation_search,LEPPC096,Intel(R) HD Graphics 2500,2019_Jan_12_1541,testMonitor,
229.9,248.1,238.4,255.7,36,10,244.5,245.9,248.5,249.0,7.749,8.32,7.878,7.713,8.11,8.363,8.327,5.155,-5.24,-7.857,1.259,-1.815,8.408,4.715,-4.562,-8.331,232.7,238.0,-8.221,245.0,236.6,242.2,238.1,239.3,36,245.6,3,5,prime,10,0,89,norm,36,-4.392,down,norm,242.1340854,257.7,237.5,231.7,251.5,0,245.3,240.9,223.2,10,6,7.691,4.974,1.504,-1.791,-4.684,-8.436,247.4,6,331.1,-8.221,-8.123,10,-8.229,-8.013,-4.479,-4.44,-4.456,-4.781,4.3,8.28,18,-1.586,1.383,5.123,7.864,-7.868,-7.788,-1.407,1.449,249.5,252.1,227.6,222.1,240.9,239.6,234.3,254.3,262.1,261.2,5,norm,1.567,1.79,-2.098,-1.394,-4.945,-4.483,-1.439,-1.534,-1.824,-1.637,1.998,-1.284,254.1,,-4.814,-7.868,1.61,-1.487,7.788,4.934,-4.951,-7.937,16,5.165,4.584,4.992,5.04,1.749,1.569,1.854,2.011,16,4.891,5.24,-30,109.579233517,norm,0,63,63,63,308.314,308.325,308.35956775,308.36,308.364,308.37,down,1,0.696990853935,9.30300914607,001,326,1920_1200,Intel(R) Core(TM) i5-3570 CPU @ 3.40GHz,orientation_search,LEPPC096,Intel(R) HD Graphics 2500,2019_Jan_12_1541,testMonitor,
343.6,341.0,343.2,339.0,36,10,353.0,342.7,342.5,351.8,7.72,8.25,8.495,7.988,8.452,8.018,8.228,4.903,-4.833,-7.711,1.957,-1.313,8.031,4.533,-4.568,-8.426,344.2,349.2,-8.392,345.0,352.2,341.9,349.2,334.6,36,345.8,1,5,probe,5,0,96,norm,36,-4.594,up,norm,344.603631971,350.1,344.7,335.3,348.4,5,,351.5,342.7,10,6,8.406,4.919,2.037,-1.951,-4.721,-8.011,337.8,2,248.6,-7.924,-7.99,10,-7.734,-7.969,-4.522,-4.789,-5.061,-4.879,5.196,8.264,11,-1.988,1.292,4.547,7.985,-8.375,-7.604,-1.722,1.663,350.1,342.5,345.4,344.3,347.6,340.9,351.8,344.2,354.6,345.2,0,norm,2.076,1.6,-1.833,-1.271,-4.779,-4.711,-1.335,-1.584,-1.185,-2.095,1.598,-1.619,347.2,341.0,-4.478,-8.211,1.251,-1.224,7.737,5.272,-5.016,-8.179,17,4.351,5.254,4.488,4.634,1.419,1.772,2.057,2.02,17,4.909,5.211,10,242.1340854,norm,0,64,64,64,309.11,309.132,309.142173322,309.142,309.144,309.147,up,1,0.931661686136,9.06833831386,001,326,1920_1200,Intel(R) Core(TM) i5-3570 CPU @ 3.40GHz,orientation_search,LEPPC096,Intel(R) HD Graphics 2500,2019_Jan_12_1541,testMonitor,
326.1,327.7,326.1,311.6,36,10,316.4,321.5,317.1,317.8,8.437,7.61,7.862,8.468,8.0,7.926,8.029,4.359,-4.824,-8.108,1.682,-1.454,8.001,4.603,-4.938,-8.453,325.9,324.8,-7.692,314.9,326.3,326.4,324.2,323.9,36,328.1,0,5,probe,5,0,73,norm,36,-5.137,down,norm,321.603631971,330.3,319.3,327.5,316.5,2,324.9,321.6,327.0,10,6,7.75,4.716,1.807,-1.697,-5.29,-7.895,318.8,2,248.6,-7.918,-8.435,10,-7.806,-8.215,-4.873,-4.843,-4.935,-4.535,5.07,8.357,2,-1.718,1.489,4.677,7.868,-8.181,-7.672,-1.726,1.824,321.2,331.6,319.4,,324.9,326.2,328.0,318.4,317.3,328.7,1,norm,1.55,1.92,-1.79,-1.646,-5.186,-5.228,-1.398,-1.376,-1.232,-1.974,1.826,-1.848,321.6,321.8,-5.0,-8.088,1.501,-1.145,7.726,4.848,-5.033,-8.143,17,4.41,4.592,4.975,5.147,1.939,1.427,1.624,1.951,17,4.912,5.032,10,242.1340854,norm,0,65,65,65,310.111,310.121,310.137789248,310.138,310.14,310.142,down,1,0.670547254671,9.32945274533,001,326,1920_1200,Intel(R) Core(TM) i5-3570 CPU @ 3.40GHz,orientation_search,LEPPC096,Intel(R) HD Graphics 2500,2019_Jan_12_1541,testMonitor,
277.4,283.2,275.7,271.9,36,60,289.6,273.6,278.3,272.0,7.548,8.075,8.092,7.83,8.103,7.613,8.093,5.159,-4.561,-8.216,1.147,-1.163,8.174,4.65,-4.602,-7.955,278.1,279.1,-8.194,277.3,269.7,268.5,293.0,264.5,36,277.1,3,5,prime,10,0,110,norm,36,-4.446,down,norm,273.023837734,276.4,282.5,285.4,279.9,0,281.7,263.2,259.9,10,5,8.388,4.345,1.445,-1.707,-4.453,-7.84,280.7,5,383.0,-8.416,-8.392,60,-8.056,-8.496,-5.13,-4.974,-4.578,-5.172,5.011,7.748,18,-2.097,2.051,4.952,7.923,-7.911,-7.775,-1.731,1.174,266.2,264.9,275.9,280.0,268.6,284.4,257.0,276.3,268.5,282.6,0,norm,1.371,1.288,-2.066,-1.131,-5.153,-5.29,-1.666,-2.044,-1.198,-1.868,1.683,-1.489,253.0,,-4.727,-8.004,1.643,-1.139,7.754,4.787,-4.393,-8.397,18,4.301,4.578,4.478,5.278,1.959,1.809,1.766,1.591,18,5.006,4.927,10,242.1340854,norm,0,66,66,66,310.846,319.278,319.294805759,319.295,319.297,319.299,down,1,1.20482477588,8.79517522412,001,326,1920_1200,Intel(R) Core(TM) i5-3570 CPU @ 3.40GHz,orientation_search,LEPPC096,Intel(R) HD Graphics 2500,2019_Jan_12_1541,testMonitor,
263.1,259.6,278.6,279.2,36,60,268.2,293.0,281.9,285.2,8.018,8.128,7.698,8.269,8.151,8.486,8.191,5.001,-5.164,-8.493,1.68,-1.594,8.299,4.512,-5.174,-7.872,255.1,268.0,-8.404,259.6,276.2,263.2,253.0,269.5,36,254.8,3,5,prime,10,0,82,norm,36,-4.885,down,norm,273.023837734,284.4,253.9,288.5,271.5,1,257.9,274.6,266.0,10,5,8.317,4.68,1.998,-1.132,-4.842,-8.442,274.0,5,355.0,-7.884,-7.671,60,-7.736,-7.801,-4.504,-4.692,-4.667,-4.441,5.216,8.181,19,-1.105,1.362,4.969,7.864,-8.126,-7.616,-1.488,1.714,281.2,266.1,272.0,254.5,255.3,271.2,279.7,283.4,292.5,282.2,1,norm,1.838,1.143,-1.776,-1.122,-4.677,-4.304,-2.031,-1.703,-1.493,-2.099,1.7,-1.74,,271.7,-5.216,-7.756,1.896,-1.619,8.306,5.243,-5.035,-8.379,18,4.66,5.15,5.123,4.483,1.836,1.919,1.386,1.19,18,4.362,4.687,10,242.1340854,norm,0,67,67,67,320.537,320.548,320.558270398,320.558,320.56,320.563,down,1,0.998062422651,9.00193757735,001,326,1920_1200,Intel(R) Core(TM) i5-3570 CPU @ 3.40GHz,orientation_search,LEPPC096,Intel(R) HD Graphics 2500,2019_Jan_12_1541,testMonitor,
293.0,280.4,257.2,,36,60,258.8,290.6,275.6,282.6,8.038,7.593,7.779,7.756,8.313,7.575,7.518,4.815,-4.765,-8.325,1.837,-2.039,7.573,4.378,-4.907,-8.303,273.2,273.7,-8.095,279.3,272.4,271.7,259.5,286.3,36,270.6,3,5,prime,10,0,74,norm,36,-4.455,up,norm,273.023837734,274.3,266.3,292.9,287.1,3,283.5,285.5,264.0,10,5,8.494,5.099,1.164,-1.892,-4.639,-7.51,292.7,5,347.0,-8.091,-8.3,60,-7.765,-8.247,-5.081,-4.344,-4.608,-5.019,4.315,7.523,21,-1.115,1.218,5.038,8.059,-7.638,-8.492,-1.876,1.558,271.7,270.6,267.8,271.0,279.9,269.2,263.7,286.8,256.2,278.8,2,norm,1.6,1.785,-1.125,-1.473,-5.238,-4.508,-1.632,-1.746,-1.226,-2.006,1.109,-1.462,272.9,260.7,-5.082,-7.509,2.002,-1.673,7.979,4.899,-4.837,-8.473,18,4.812,4.716,4.72,4.833,1.278,1.164,1.477,1.675,18,4.487,4.996,10,242.1340854,norm,0,68,68,68,321.604,321.613,321.620402668,321.621,321.622,321.625,down,0,1.86782697938,-10,001,326,1920_1200,Intel(R) Core(TM) i5-3570 CPU @ 3.40GHz,orientation_search,LEPPC096,Intel(R) HD Graphics 2500,2019_Jan_12_1541,testMonitor,
278.2,268.2,264.0,276.1,36,60,274.5,284.9,286.1,272.6,7.873,7.918,8.024,8.089,8.111,8.407,8.027,4.817,-5.297,-7.687,1.902,-1.417,8.256,4.396,-4.568,-7.931,253.0,266.9,-8.118,276.1,265.9,270.4,286.6,286.1,36,269.2,1,5,prime,10,0,115,norm,36,-4.536,down,norm,273.023837734,286.7,291.6,274.0,256.4,2,258.2,271.7,274.6,10,5,8.122,4.474,1.526,-1.308,-4.678,-8.423,277.6,5,388.0,-8.312,-8.488,60,-8.495,-7.583,-4.974,-5.178,-4.311,-4.75,4.841,7.545,8,-1.153,1.604,4.588,7.938,-8.337,-8.173,-1.164,1.231,280.5,,262.1,289.1,293.0,273.7,258.7,275.8,274.1,273.1,3,norm,1.131,1.115,-1.843,-1.958,-4.804,-4.586,-1.513,-1.122,-1.158,-2.084,1.783,-1.181,274.9,274.1,-4.957,-7.926,1.557,-1.127,8.039,4.346,-4.868,-7.922,18,4.618,4.373,4.621,4.441,1.954,1.979,1.175,1.105,18,4.89,5.166,10,242.1340854,norm,0,69,69,69,324.559,324.569,324.58307012,324.583,324.585,324.587,down,1,0.982362582632,9.01763741737,001,326,1920_1200,Intel(R) Core(TM) i5-3570 CPU @ 3.40GHz,orientation_search,LEPPC096,Intel(R) HD Graphics 2500,2019_Jan_12_1541,testMonitor,
275.2,276.5,259.2,293.0,36,60,268.8,277.6,275.2,253.0,7.743,7.735,8.332,8.309,8.218,8.056,7.638,5.028,-5.212,-8.327,1.909,-1.766,8.269,4.96,-5.258,-8.099,260.7,259.9,-8.236,286.6,276.0,290.3,274.8,269.4,36,284.8,0,5,prime,10,0,108,norm,36,-5.06,up,norm,273.023837734,258.6,278.7,270.7,276.2,4,259.9,255.2,264.8,10,5,7.58,4.398,1.488,-2.089,-5.208,-8.023,280.7,5,381.0,-7.697,-8.364,60,-8.004,-8.058,-4.725,-5.019,-4.91,-4.315,4.478,8.393,4,-1.468,1.993,5.023,7.853,-7.577,-7.835,-1.597,1.737,268.3,283.1,264.1,266.0,260.7,271.7,273.4,279.4,276.3,,4,norm,1.986,1.843,-1.516,-2.09,-4.666,-5.151,-1.357,-1.362,-1.533,-1.234,1.983,-1.223,276.7,262.3,-4.377,-8.218,1.339,-1.599,7.576,4.528,-4.794,-8.151,18,4.747,4.883,5.091,4.833,1.994,1.855,1.783,1.502,18,4.328,4.964,10,242.1340854,norm,0,70,70,70,325.604,325.616,325.636211174,325.636,325.638,325.641,up,1,1.47341875698,8.52658124302,001,326,1920_1200,Intel(R) Core(TM) i5-3570 CPU @ 3.40GHz,orientation_search,LEPPC096,Intel(R) HD Graphics 2500,2019_Jan_12_1541,testMonitor,
403.0,405.4,405.9,406.1,36,-60,410.5,400.0,404.1,410.5,7.691,7.687,8.144,7.989,7.994,7.68,7.937,4.743,-4.781,-8.052,1.687,-1.332,7.66,4.947,-4.873,-7.844,401.2,402.1,-8.008,397.7,399.7,401.1,399.9,400.9,36,407.0,1,5,probe,5,0,62,norm,36,-4.931,up,norm,402.528118649,404.4,393.4,401.5,395.7,5,,406.1,412.5,10,5,7.947,4.783,1.556,-1.326,-4.9,-8.481,408.1,2,340.5,-7.683,-7.89,60,-8.168,-8.207,-4.627,-4.896,-4.502,-4.796,5.03,8.198,11,-1.133,2.097,4.802,8.176,-8.296,-7.619,-1.58,1.915,404.2,409.8,394.9,392.5,398.3,402.7,400.5,406.5,400.2,404.5,0,norm,1.502,1.608,-1.228,-1.749,-4.774,-5.111,-1.887,-1.716,-1.143,-1.518,1.334,-1.272,393.9,403.8,-4.37,-7.727,1.287,-1.915,7.881,5.295,-4.673,-8.481,19,4.838,4.413,4.741,4.859,1.136,1.313,2.095,2.09,19,5.226,4.329,60,273.023837734,norm,0,71,71,71,327.157,327.167,327.173725135,327.174,327.176,327.178,up,1,2.09145310755,7.90854689245,001,326,1920_1200,Intel(R) Core(TM) i5-3570 CPU @ 3.40GHz,orientation_search,LEPPC096,Intel(R) HD Graphics 2500,2019_Jan_12_1541,testMonitor,
436.9,433.9,438.8,438.2,36,-60,441.3,429.7,430.1,433.5,7.73,8.159,8.496,8.243,7.584,8.294,8.098,5.23,-5.274,-8.146,1.427,-1.452,7.571,4.938,-4.512,-8.264,446.7,442.2,-7.823,430.1,438.0,434.7,435.4,447.5,36,438.3,0,5,probe,5,0,97,norm,36,-5.152,down,norm,437.528118649,442.6,441.7,434.4,438.8,0,439.2,445.8,435.0,10,5,8.479,4.766,1.588,-2.04,-5.16,-8.307,439.9,2,340.5,-8.246,-8.28,60,-8.324,-7.821,-4.667,-4.667,-4.624,-4.636,5.15,8.153,0,-2.08,2.074,4.757,8.235,-8.475,-8.319,-1.189,1.724,440.8,439.1,437.0,434.4,427.5,,435.0,434.2,436.7,438.7,1,norm,2.01,1.864,-1.492,-1.687,-4.909,-5.129,-1.248,-1.462,-1.551,-1.673,1.738,-1.215,442.0,438.6,-4.617,-7.894,1.369,-1.106,7.707,4.394,-5.224,-7.64,19,4.612,4.49,4.349,4.413,1.839,1.137,1.251,1.45,19,4.547,4.888,60,273.023837734,norm,0,72,72,72,329.311,329.332,329.343500257,329.344,329.346,329.348,down,1,1.01714449576,8.98285550424,001,326,1920_1200,Intel(R) Core(TM) i5-3570 CPU @ 3.40GHz,orientation_search,LEPPC096,Intel(R) HD Graphics 2500,2019_Jan_12_1541,testMonitor,
220.1,219.1,215.3,243.8,36,40,,230.6,234.7,235.1,7.784,8.0,7.591,8.36,7.814,7.794,7.855,4.839,-4.315,-7.7,1.137,-1.11,7.54,4.548,-4.438,-8.38,203.8,223.2,-7.999,231.0,224.3,219.2,222.7,230.1,36,233.3,4,5,prime,10,0,66,norm,36,-4.391,down,norm,223.819191479,231.3,226.2,218.5,223.6,0,217.8,223.0,224.4,10,6,7.703,5.023,1.443,-1.679,-4.473,-7.568,205.1,6,289.8,-7.511,-7.98,40,-8.007,-7.711,-4.683,-4.408,-5.182,-5.173,4.898,7.965,24,-1.702,1.613,4.782,8.289,-8.334,-8.302,-1.204,1.193,214.6,205.6,213.9,222.6,229.2,218.8,239.1,218.9,235.1,232.3,0,norm,1.391,1.574,-1.416,-1.442,-4.669,-5.15,-1.333,-1.201,-1.649,-2.052,1.465,-1.348,236.2,230.6,-4.96,-8.079,1.915,-1.829,7.756,5.181,-4.431,-7.615,20,4.336,5.163,4.63,4.996,1.656,1.332,1.786,1.487,20,5.127,4.931,-60,273.023837734,norm,0,73,73,73,330.402,330.412,330.420474509,330.421,330.422,330.425,down,1,2.26102266896,7.73897733104,001,326,1920_1200,Intel(R) Core(TM) i5-3570 CPU @ 3.40GHz,orientation_search,LEPPC096,Intel(R) HD Graphics 2500,2019_Jan_12_1541,testMonitor,
232.3,219.4,216.6,217.0,36,40,237.3,203.8,222.5,212.8,7.755,8.007,7.535,8.251,7.642,7.594,8.169,5.086,-5.267,-8.405,1.238,-1.931,8.411,4.729,-5.286,-7.686,228.5,228.8,-8.448,229.2,212.1,226.8,220.4,222.7,36,225.5,1,5,prime,10,0,82,norm,36,-4.974,down,norm,223.819191479,220.5,209.5,218.7,236.9,0,216.4,224.1,216.3,10,6,8.014,4.383,1.907,-1.177,-4.774,-7.642,243.8,6,305.8,-8.172,-7.997,40,-7.626,-7.904,-4.471,-5.036,-4.692,-5.272,4.431,8.403,6,-2.082,1.369,4.32,7.802,-7.916,-8.141,-1.818,2.088,216.7,209.7,218.5,215.6,228.5,213.7,208.0,,232.6,214.4,1,norm,1.471,1.548,-1.194,-1.185,-4.892,-4.559,-1.725,-1.336,-1.326,-1.252,1.671,-1.852,218.5,208.9,-4.423,-8.331,1.142,-1.567,7.575,5.084,-4.556,-8.424,20,5.079,4.574,4.53,5.206,1.769,2.005,1.118,1.464,20,4.678,5.214,-60,273.023837734,norm,0,74,74,74,332.727,332.748,332.759776329,332.76,332.762,332.765,down,1,1.50608952881,8.49391047119,001,326,1920_1200,Intel(R) Core(TM) i5-3570 CPU @ 3.40GHz,orientation_search,LEPPC096,Intel(R) HD Graphics 2500,2019_Jan_12_1541,testMonitor,
228.0,,221.3,227.4,36,40,209.8,214.2,243.6,221.8,7.75,7.566,7.675,8.489,8.489,7.954,8.357,4.389,-4.72,-7.77,1.878,-1.613,8.304,4.948,-4.359,-7.986,218.1,223.1,-7.592,212.2,234.9,214.9,231.6,222.6,36,237.2,3,5,prime,10,0,117,norm,36,-5.261,up,norm,223.819191479,243.8,221.0,219.0,225.1,5,218.0,217.2,218.7,10,6,7.643,4.64,1.164,-1.89,-4.767,-8.497,223.6,6,340.8,-7.683,-7.79,40,-7.768,-7.95,-5.205,-4.777,-4.742,-5.292,4.564,8.14,23,-1.956,1.159,5.286,7.622,-7.844,-8.24,-1.476,1.798,203.8,218.9,226.5,203.9,224.6,217.2,228.4,230.5,235.1,227.3,2,norm,1.282,1.12,-1.641,-1.716,-5.142,-4.649,-1.814,-1.46,-1.287,-1.396,1.274,-1.738,214.6,217.3,-4.557,-8.354,1.763,-2.022,7.696,4.452,-4.971,-7.7,20,4.436,4.636,4.394,4.985,1.526,1.399,2.01,1.415,20,4.581,4.973,-60,273.023837734,norm,0,75,75,75,334.318,334.34,334.350949017,334.351,334.353,334.355,up,1,0.812259047963,9.18774095204,001,326,1920_1200,Intel(R) Core(TM) i5-3570 CPU @ 3.40GHz,orientation_search,LEPPC096,Intel(R) HD Graphics 2500,2019_Jan_12_1541,testMonitor,
219.6,222.7,233.5,240.8,36,40,231.5,243.8,215.5,226.0,7.522,8.3,8.259,7.689,7.799,7.718,7.959,4.594,-4.387,-8.338,1.84,-1.212,7.696,4.732,-5.206,-7.719,221.5,220.1,-8.348,223.5,232.2,211.9,213.7,203.8,36,218.5,2,5,prime,10,0,116,norm,36,-5.288,down,norm,223.819191479,219.8,221.6,214.0,,2,212.2,215.9,241.8,10,6,8.415,5.152,1.837,-1.557,-4.588,-7.968,221.9,6,339.8,-7.502,-8.112,40,-7.644,-8.316,-4.869,-4.462,-4.857,-4.968,5.169,8.433,14,-2.091,1.808,5.112,7.734,-8.127,-7.768,-1.918,2.005,209.7,223.9,218.6,227.6,227.8,225.2,222.8,233.6,225.0,233.7,3,norm,1.94,2.034,-1.868,-1.963,-4.674,-4.977,-1.52,-1.888,-1.723,-1.115,1.761,-1.15,226.7,218.4,-4.809,-8.004,1.242,-1.631,8.27,4.762,-4.962,-8.332,20,5.018,4.381,5.12,5.149,1.275,2.018,1.945,2.032,20,4.418,5.177,-60,273.023837734,norm,0,76,76,76,335.207,335.219,335.240178695,335.241,335.245,335.25,down,1,0.673614356003,9.326385644,001,326,1920_1200,Intel(R) Core(TM) i5-3570 CPU @ 3.40GHz,orientation_search,LEPPC096,Intel(R) HD Graphics 2500,2019_Jan_12_1541,testMonitor,
214.7,232.2,227.4,232.7,36,40,229.6,221.3,204.1,213.0,7.847,8.205,7.809,8.0,7.564,7.773,7.809,4.674,-4.573,-8.125,2.072,-1.972,8.165,4.98,-5.241,-7.794,236.2,221.6,-7.876,203.8,224.9,233.9,232.7,226.7,36,235.2,0,5,prime,10,0,118,norm,36,-5.06,down,norm,223.819191479,229.1,216.1,222.9,227.3,2,217.9,203.9,227.3,10,6,8.225,4.978,1.38,-1.931,-5.182,-8.345,243.8,6,341.8,-7.982,-8.17,40,-8.202,-7.7,-4.705,-4.651,-4.321,-5.205,5.037,7.99,2,-1.943,1.304,4.637,8.35,-8.221,-7.706,-1.8,1.788,211.1,211.8,221.9,,217.6,233.1,222.3,221.5,236.5,240.0,4,norm,1.683,1.3,-1.677,-1.413,-4.943,-4.615,-1.243,-2.025,-1.787,-1.792,1.905,-1.495,236.4,221.5,-4.439,-8.316,1.813,-1.946,8.304,5.064,-5.055,-7.78,20,5.049,4.343,5.212,4.567,1.536,1.425,1.822,1.54,20,5.257,4.454,-60,273.023837734,norm,0,77,77,77,335.942,335.953,335.95806846,335.958,335.96,335.963,down,1,0.704551903167,9.29544809683,001,326,1920_1200,Intel(R) Core(TM) i5-3570 CPU @ 3.40GHz,orientation_search,LEPPC096,Intel(R) HD Graphics 2500,2019_Jan_12_1541,testMonitor,
212.5,229.5,228.8,,36,40,223.0,226.0,219.4,222.4,7.615,8.5,7.846,7.675,7.869,7.665,8.127,4.748,-5.026,-8.32,1.566,-1.138,8.313,5.11,-5.231,-7.946,229.9,237.1,-7.601,210.4,241.7,222.1,233.2,218.3,36,227.4,3,5,prime,10,0,102,norm,36,-4.601,up,norm,223.819191479,221.8,215.2,218.0,220.9,3,228.0,206.2,217.6,10,6,8.13,4.591,1.717,-2.028,-4.443,-7.669,234.7,6,325.8,-8.03,-8.3,40,-8.445,-7.653,-4.471,-4.647,-4.431,-4.636,4.713,7.664,21,-1.236,1.565,5.248,8.322,-8.037,-8.22,-2.048,1.82,232.6,225.9,203.8,220.7,233.5,214.4,204.1,227.6,220.1,223.6,5,norm,1.715,1.634,-1.417,-1.436,-4.399,-5.132,-1.415,-1.174,-1.965,-1.908,2.092,-1.452,217.1,232.5,-4.639,-8.416,1.88,-1.622,8.181,4.778,-4.435,-8.459,20,4.984,4.722,4.882,4.871,1.15,1.104,1.788,1.718,20,4.965,4.868,-60,273.023837734,norm,0,78,78,78,336.704,336.714,336.722126536,336.722,336.724,336.726,up,1,0.806819704791,9.19318029521,001,326,1920_1200,Intel(R) Core(TM) i5-3570 CPU @ 3.40GHz,orientation_search,LEPPC096,Intel(R) HD Graphics 2500,2019_Jan_12_1541,testMonitor,
355.6,360.6,359.2,354.9,36,-10,354.2,354.2,352.2,354.6,7.62,7.501,7.959,8.206,7.524,8.085,7.589,4.742,-5.263,-8.356,1.169,-1.639,8.04,5.218,-4.875,-8.309,364.3,361.1,-7.589,351.1,355.1,355.0,356.2,346.1,36,353.7,1,5,probe,5,0,88,norm,36,-4.48,down,norm,356.086535146,361.7,359.6,357.6,346.4,0,351.3,356.0,361.5,10,6,7.647,4.782,1.803,-1.496,-4.527,-8.309,361.1,1,268.1,-7.834,-7.807,40,-8.379,-8.123,-4.787,-4.717,-4.623,-4.323,4.664,8.15,6,-1.17,1.565,4.583,8.079,-8.494,-7.829,-1.961,1.226,360.2,353.6,366.1,359.7,347.4,355.9,356.5,,354.8,358.1,0,norm,1.436,1.385,-1.215,-1.124,-4.821,-4.657,-1.564,-1.357,-2.003,-1.532,1.514,-1.112,357.6,353.1,-4.928,-8.13,1.965,-1.407,7.958,5.014,-4.511,-7.879,21,5.241,4.528,5.259,4.874,1.255,1.603,1.894,1.488,21,4.875,5.004,40,223.819191479,norm,0,79,79,79,337.566,337.576,337.592885689,337.593,337.595,337.597,down,1,1.52143801503,8.47856198497,001,326,1920_1200,Intel(R) Core(TM) i5-3570 CPU @ 3.40GHz,orientation_search,LEPPC096,Intel(R) HD Graphics 2500,2019_Jan_12_1541,testMonitor,
164.4,170.1,158.8,165.6,36,80,174.0,183.6,195.8,191.7,8.46,7.909,7.768,7.787,8.276,7.852,8.352,5.144,-5.06,-7.536,1.661,-1.252,7.51,5.144,-4.478,-8.016,171.1,188.6,-8.445,184.9,173.6,177.6,166.9,176.6,36,170.8,1,5,prime,10,0,114,norm,36,-4.75,up,norm,175.817649871,184.1,172.8,178.7,184.6,4,170.8,177.3,176.5,10,6,8.201,4.608,1.938,-1.505,-4.954,-7.953,,6,289.8,-7.888,-7.668,80,-7.581,-8.063,-4.338,-4.577,-4.997,-4.973,5.048,8.446,10,-1.58,1.766,5.052,7.572,-8.4,-7.622,-1.474,1.499,169.0,161.4,173.2,155.8,184.5,180.1,181.5,192.5,167.8,173.7,0,norm,1.478,1.842,-1.464,-1.865,-4.316,-5.147,-1.777,-1.493,-1.804,-1.887,2.035,-2.004,166.9,160.3,-5.063,-7.604,2.086,-1.77,8.011,5.099,-4.9,-7.521,22,5.083,4.793,5.031,4.309,1.96,1.785,1.698,1.523,22,5.251,4.647,-10,223.819191479,norm,0,80,80,80,339.138,339.147,339.154144707,339.154,339.156,339.159,up,1,3.96562135893,6.03437864107,001,326,1920_1200,Intel(R) Core(TM) i5-3570 CPU @ 3.40GHz,orientation_search,LEPPC096,Intel(R) HD Graphics 2500,2019_Jan_12_1541,testMonitor,
182.2,166.2,179.3,174.3,36,80,174.5,167.3,179.3,,8.475,8.398,8.275,8.231,7.502,7.835,8.103,5.271,-5.175,-7.737,2.064,-1.97,8.077,5.141,-4.635,-7.629,186.1,173.5,-7.98,171.8,172.3,155.8,193.5,178.9,36,171.3,4,5,prime,10,0,102,norm,36,-4.592,up,norm,175.817649871,170.8,180.9,175.6,182.2,5,172.9,175.3,169.7,10,6,8.285,4.404,1.813,-1.224,-5.195,-8.414,178.2,6,277.8,-8.408,-8.26,80,-8.033,-7.691,-4.707,-5.246,-4.319,-4.718,5.105,7.772,29,-1.211,1.566,5.286,7.935,-7.958,-8.069,-1.334,1.881,188.7,167.1,175.7,163.8,169.0,166.4,195.8,170.8,175.3,172.5,1,norm,1.373,1.852,-1.245,-1.441,-4.552,-5.282,-1.838,-1.793,-2.048,-1.659,1.833,-1.181,182.0,181.5,-4.488,-7.958,1.999,-1.619,7.522,4.578,-4.402,-7.669,22,4.584,5.254,4.841,4.514,1.221,1.176,1.555,1.801,22,4.884,5.234,-10,223.819191479,norm,0,81,81,81,343.163,343.175,343.195831447,343.196,343.198,343.202,up,1,0.861410546651,9.13858945335,001,326,1920_1200,Intel(R) Core(TM) i5-3570 CPU @ 3.40GHz,orientation_search,LEPPC096,Intel(R) HD Graphics 2500,2019_Jan_12_1541,testMonitor,
181.3,173.1,182.8,173.8,36,80,170.2,172.2,174.7,187.4,7.893,8.313,7.921,7.946,7.584,7.61,8.489,4.619,-4.962,-7.643,1.264,-1.534,7.704,4.548,-5.186,-7.941,180.9,155.8,-7.973,,180.1,156.5,179.3,176.8,36,189.0,5,5,prime,10,0,73,norm,36,-4.527,down,norm,175.817649871,170.4,160.8,191.2,178.3,1,183.3,175.4,183.2,10,6,8.419,5.297,1.566,-1.689,-4.748,-8.034,168.9,6,248.8,-8.136,-8.3,80,-8.351,-8.449,-4.881,-4.772,-4.776,-4.374,5.168,8.402,31,-2.019,1.983,4.328,7.766,-7.618,-8.077,-1.606,1.702,174.5,185.3,195.8,180.4,177.3,157.8,166.6,162.1,186.1,178.7,2,norm,1.531,1.194,-1.976,-1.443,-5.116,-5.104,-1.976,-1.477,-1.571,-1.209,1.448,-1.343,155.9,191.5,-4.781,-7.734,1.813,-1.402,8.058,5.052,-5.141,-7.881,22,4.93,4.441,5.143,4.947,1.344,1.909,1.982,1.217,22,4.726,5.038,-10,223.819191479,norm,0,82,82,82,344.099,344.11,344.11477648,344.115,344.117,344.12,down,1,1.43539678228,8.56460321772,001,326,1920_1200,Intel(R) Core(TM) i5-3570 CPU @ 3.40GHz,orientation_search,LEPPC096,Intel(R) HD Graphics 2500,2019_Jan_12_1541,testMonitor,
168.6,163.4,189.9,187.3,36,80,185.1,168.4,168.6,187.0,7.546,8.222,7.548,8.441,7.686,7.987,8.063,5.084,-4.647,-7.533,1.723,-1.448,7.543,4.607,-4.536,-7.876,186.4,155.8,-7.579,166.6,158.4,175.7,172.4,176.5,36,172.7,1,5,prime,10,0,73,norm,36,-4.974,down,norm,175.817649871,188.9,176.9,176.9,172.3,2,181.9,195.8,170.7,10,6,8.387,5.098,1.54,-1.912,-4.783,-8.386,169.7,6,248.8,-8.431,-7.947,80,-8.262,-8.495,-4.962,-5.082,-4.446,-4.573,5.096,8.016,8,-1.253,1.722,4.525,8.379,-8.13,-8.391,-1.846,1.448,190.7,,164.1,177.5,180.3,178.4,170.4,183.2,170.6,176.2,3,norm,1.982,1.793,-1.955,-1.181,-5.181,-5.242,-1.559,-1.445,-1.186,-1.807,1.754,-1.256,166.0,183.7,-4.893,-7.951,1.442,-1.163,8.108,4.662,-4.625,-7.874,22,4.846,5.205,4.543,4.759,1.413,1.726,1.214,1.304,22,4.852,4.722,-10,223.819191479,norm,0,83,83,83,345.597,345.617,345.629389659,345.63,345.632,345.634,down,1,2.23250505599,7.76749494401,001,326,1920_1200,Intel(R) Core(TM) i5-3570 CPU @ 3.40GHz,orientation_search,LEPPC096,Intel(R) HD Graphics 2500,2019_Jan_12_1541,testMonitor,
182.8,189.8,187.3,163.6,36,80,180.4,183.1,179.0,,8.352,8.332,7.653,7.959,7.569,8.428,8.263,4.398,-5.154,-8.181,1.793,-1.915,8.265,4.454,-4.761,-7.568,175.8,186.7,-7.68,195.8,160.8,170.1,177.1,177.9,36,186.2,4,5,prime,10,0,69,norm,36,-5.215,up,norm,175.817649871,175.5,172.0,172.0,184.4,5,169.0,177.2,181.2,10,6,7.856,4.321,1.543,-1.286,-4.769,-8.388,175.9,6,244.8,-8.371,-8.143,80,-7.913,-8.163,-4.335,-4.647,-4.559,-4.797,4.395,8.034,29,-1.166,1.795,4.977,8.117,-7.848,-8.039,-1.293,1.263,175.2,184.7,155.8,175.6,170.0,192.9,167.7,187.2,171.7,176.4,4,norm,2.006,1.719,-1.566,-1.205,-4.64,-5.296,-1.704,-1.691,-1.662,-1.779,1.34,-1.583,184.3,181.6,-4.805,-8.356,1.426,-1.119,8.488,5.253,-5.249,-8.401,22,4.879,4.99,4.772,4.866,1.166,1.116,1.496,1.909,22,4.93,4.539,-10,223.819191479,norm,0,84,84,84,347.9,347.91,347.919737994,347.92,347.922,347.924,up,1,1.2599082375,8.7400917625,001,326,1920_1200,Intel(R) Core(TM) i5-3570 CPU @ 3.40GHz,orientation_search,LEPPC096,Intel(R) HD Graphics 2500,2019_Jan_12_1541,testMonitor,
182.2,171.2,167.1,189.8,36,80,175.9,165.2,181.0,183.9,7.983,7.913,8.374,8.056,8.056,8.133,7.806,5.033,-4.956,-7.878,1.783,-1.437,8.235,4.478,-4.311,-8.359,180.5,175.3,-8.147,165.1,195.8,189.1,186.5,187.4,36,156.5,2,5,prime,10,0,69,norm,36,-4.686,down,norm,175.817649871,157.8,189.1,194.9,155.8,0,175.3,184.0,,10,6,7.538,4.876,1.242,-1.537,-4.706,-8.161,163.2,6,244.8,-7.592,-7.69,80,-8.387,-7.869,-4.638,-4.346,-4.827,-5.28,4.75,7.643,12,-1.245,1.128,5.248,8.318,-8.479,-8.317,-1.552,1.749,186.9,166.3,174.5,163.1,184.3,176.7,187.8,183.0,177.1,174.7,5,norm,1.562,1.653,-1.448,-1.468,-4.974,-4.72,-1.292,-1.953,-1.194,-1.645,1.141,-1.181,181.0,176.8,-4.463,-8.165,1.372,-1.199,8.042,4.765,-4.42,-7.967,22,4.731,4.895,4.632,4.411,1.121,1.614,1.826,1.956,22,4.351,4.386,-10,223.819191479,norm,0,85,85,85,349.201,349.213,349.217363941,349.218,349.22,349.223,down,1,5.82298288509,4.17701711491,001,326,1920_1200,Intel(R) Core(TM) i5-3570 CPU @ 3.40GHz,orientation_search,LEPPC096,Intel(R) HD Graphics 2500,2019_Jan_12_1541,testMonitor,
364.6,371.7,368.5,374.2,36,-20,370.1,371.9,369.8,366.2,7.922,8.011,8.436,7.686,7.874,8.242,8.235,4.581,-5.253,-8.33,1.778,-1.959,7.846,4.694,-4.5,-7.602,364.6,370.6,-8.068,378.3,369.4,363.5,372.7,374.6,36,367.2,2,5,probe,5,0,108,norm,36,-5.128,up,norm,368.291598111,,366.9,359.9,359.5,5,358.3,364.2,377.1,10,6,8.325,5.009,1.174,-1.125,-5.004,-8.41,368.0,1,260.3,-7.907,-8.269,80,-8.022,-7.554,-4.966,-4.861,-5.089,-4.619,4.366,7.688,17,-1.28,1.233,5.051,7.921,-7.505,-8.047,-1.4,2.084,371.7,370.7,368.2,373.5,364.8,369.3,370.6,376.0,373.0,362.6,0,norm,1.977,1.336,-1.377,-1.378,-4.816,-4.785,-1.211,-1.203,-1.453,-1.967,2.069,-1.532,364.2,360.6,-5.062,-7.788,1.184,-1.812,8.161,5.189,-5.008,-7.566,23,4.391,4.425,4.859,5.143,1.417,2.002,1.322,1.717,23,4.607,5.275,80,175.817649871,norm,0,86,86,86,355.065,355.074,355.081223399,355.081,355.083,355.086,up,1,2.7345814845,7.2654185155,001,326,1920_1200,Intel(R) Core(TM) i5-3570 CPU @ 3.40GHz,orientation_search,LEPPC096,Intel(R) HD Graphics 2500,2019_Jan_12_1541,testMonitor,
100.5,84.8,112.0,99.0,36,0,103.1,107.8,82.4,87.0,7.95,8.351,7.585,7.773,7.84,8.486,7.58,4.64,-4.499,-8.103,1.692,-1.719,8.412,5.122,-4.686,-8.442,108.6,,-8.309,89.7,101.2,95.4,102.9,107.4,36,107.5,5,5,prime,10,0,116,norm,36,-4.725,up,norm,102.356519944,87.2,112.1,107.7,116.8,4,114.0,87.6,103.6,10,5,7.603,5.063,1.993,-1.488,-5.246,-8.462,106.1,5,218.4,-8.448,-8.075,0,-7.707,-7.786,-5.218,-5.217,-4.696,-4.463,4.395,8.046,34,-1.14,2.083,5.007,7.93,-8.153,-8.097,-1.657,1.522,111.2,112.9,104.7,95.6,110.8,122.4,116.9,97.4,93.7,98.6,0,norm,1.127,1.624,-1.243,-1.348,-4.607,-4.788,-1.799,-1.66,-1.419,-1.322,1.905,-1.606,83.3,104.5,-4.534,-7.744,1.25,-1.375,8.145,5.163,-4.777,-8.318,24,4.96,5.146,4.65,4.698,1.297,1.597,1.829,1.744,24,4.572,4.465,-20,175.817649871,norm,0,87,87,87,357.857,357.868,357.887818528,357.888,357.89,357.893,up,1,3.10399076338,6.89600923662,001,326,1920_1200,Intel(R) Core(TM) i5-3570 CPU @ 3.40GHz,orientation_search,LEPPC096,Intel(R) HD Graphics 2500,2019_Jan_12_1541,testMonitor,
99.0,111.4,93.5,103.2,36,0,106.2,108.5,98.7,,7.986,8.287,7.767,8.051,7.991,7.789,7.516,4.845,-4.403,-7.55,1.84,-1.485,7.703,5.049,-4.415,-7.788,88.8,92.6,-7.736,108.6,93.9,105.1,94.0,108.4,36,101.2,4,5,prime,10,0,104,norm,36,-4.774,up,norm,102.356519944,99.5,103.3,105.4,98.7,5,109.5,103.6,82.4,10,5,8.157,4.52,1.291,-1.113,-4.385,-7.606,111.9,5,206.4,-7.599,-7.513,0,-8.039,-7.64,-4.797,-4.655,-4.521,-5.126,5.044,7.886,29,-1.915,1.843,4.731,7.995,-8.09,-7.508,-1.582,1.384,85.4,96.4,105.7,100.1,112.1,97.1,103.2,97.0,122.4,111.9,1,norm,1.796,1.811,-1.646,-1.952,-5.257,-4.675,-1.533,-1.651,-1.618,-1.667,1.674,-1.982,91.3,103.8,-5.048,-8.316,1.765,-1.428,7.843,4.468,-5.056,-7.686,24,5.288,5.298,5.202,5.12,1.554,1.902,1.56,1.775,24,4.863,4.866,-20,175.817649871,norm,0,88,88,88,361.04,361.062,361.072869088,361.073,361.075,361.078,up,1,1.0150683691,8.9849316309,001,326,1920_1200,Intel(R) Core(TM) i5-3570 CPU @ 3.40GHz,orientation_search,LEPPC096,Intel(R) HD Graphics 2500,2019_Jan_12_1541,testMonitor,
107.3,110.1,86.8,114.0,36,0,112.6,109.5,103.7,113.2,8.214,8.359,8.031,8.229,7.52,8.072,7.707,4.947,-4.631,-7.736,1.543,-1.981,7.513,4.73,-4.588,-8.012,89.0,120.2,-8.416,105.7,121.0,90.8,105.5,111.2,36,114.6,1,5,prime,10,0,90,norm,36,-5.076,up,norm,102.356519944,82.4,97.7,102.7,115.3,3,102.7,100.7,106.9,10,5,7.818,4.432,2.063,-1.593,-4.458,-7.727,101.0,5,192.4,-8.033,-8.066,0,-7.716,-8.129,-5.283,-5.084,-4.568,-4.493,4.51,7.561,9,-1.558,1.123,4.895,8.344,-7.559,-7.501,-1.434,1.159,,117.0,111.1,103.9,95.6,107.8,122.4,105.5,94.8,114.6,2,norm,1.408,1.468,-2.074,-1.491,-4.677,-5.18,-1.407,-1.205,-1.617,-1.699,1.888,-1.524,118.2,94.0,-4.347,-8.307,1.63,-2.097,8.182,4.808,-4.73,-8.193,24,4.51,4.83,4.707,4.436,2.009,1.977,1.499,1.362,24,5.259,4.859,-20,175.817649871,norm,0,89,89,89,362.132,362.145,362.164882429,362.165,362.167,362.169,up,1,0.908354010082,9.09164598992,001,326,1920_1200,Intel(R) Core(TM) i5-3570 CPU @ 3.40GHz,orientation_search,LEPPC096,Intel(R) HD Graphics 2500,2019_Jan_12_1541,testMonitor,
104.7,98.3,117.2,120.1,36,0,95.9,122.4,107.9,97.5,7.7,7.617,7.813,7.902,8.084,8.108,8.117,4.863,-5.293,-8.442,1.233,-1.75,7.873,4.845,-4.366,-8.206,101.6,111.4,-7.61,92.8,82.4,90.9,99.2,110.3,36,103.8,1,5,prime,10,0,116,norm,36,-4.463,down,norm,102.356519944,111.2,86.9,106.4,94.9,1,108.1,102.4,115.4,10,5,7.684,5.16,1.398,-1.456,-4.488,-8.348,110.0,5,218.4,-7.777,-8.244,0,-7.927,-7.845,-4.545,-4.948,-5.143,-4.913,4.898,7.627,7,-1.762,1.285,4.805,7.564,-8.087,-7.711,-1.304,2.032,85.7,107.5,106.3,118.4,100.9,109.4,,109.2,106.7,96.3,3,norm,1.885,1.165,-1.677,-1.121,-4.42,-5.217,-1.301,-1.89,-1.513,-1.901,1.364,-1.366,88.0,101.3,-4.304,-8.399,1.88,-1.196,8.095,4.473,-5.08,-8.103,24,4.78,5.233,5.078,5.089,1.442,1.343,1.486,1.717,24,5.001,4.817,-20,175.817649871,norm,0,90,90,90,363.114,363.125,363.130750702,363.131,363.133,363.136,down,1,0.964807268557,9.03519273144,001,326,1920_1200,Intel(R) Core(TM) i5-3570 CPU @ 3.40GHz,orientation_search,LEPPC096,Intel(R) HD Graphics 2500,2019_Jan_12_1541,testMonitor,
104.4,113.7,100.8,84.4,36,0,102.1,116.9,101.6,113.2,7.863,8.298,8.262,8.074,8.359,8.322,8.174,4.437,-4.441,-8.195,1.907,-1.118,8.032,4.742,-4.309,-8.122,112.2,116.6,-7.721,104.8,105.0,102.0,100.0,99.8,36,102.0,0,5,prime,10,0,100,norm,36,-5.137,up,norm,102.356519944,96.0,118.7,104.8,91.4,5,87.4,116.0,118.9,10,5,8.143,4.597,1.545,-1.449,-5.141,-8.217,92.4,5,202.4,-7.696,-8.075,0,-8.316,-7.883,-4.971,-4.879,-4.608,-4.789,4.957,8.056,5,-1.936,1.716,5.06,7.578,-8.075,-7.648,-1.581,1.507,122.4,113.5,112.8,94.0,118.1,82.4,104.5,92.2,,97.2,4,norm,1.999,1.143,-1.537,-1.156,-4.857,-4.472,-1.231,-1.698,-1.927,-1.534,1.581,-1.236,106.6,110.1,-4.825,-7.53,1.438,-1.509,8.132,5.261,-5.005,-8.004,24,4.866,5.201,4.609,4.429,1.907,1.197,1.934,2.027,24,5.282,4.557,-20,175.817649871,norm,0,91,91,91,364.144,364.153,364.160280117,364.16,364.162,364.165,up,1,2.35146578526,7.64853421474,001,326,1920_1200,Intel(R) Core(TM) i5-3570 CPU @ 3.40GHz,orientation_search,LEPPC096,Intel(R) HD Graphics 2500,2019_Jan_12_1541,testMonitor,
222.3,232.6,226.5,,36,0,224.7,223.1,226.0,216.9,7.6,8.319,7.759,7.64,8.259,7.59,7.951,5.006,-4.574,-8.22,1.478,-1.431,7.798,4.355,-4.67,-8.44,228.1,217.9,-8.106,221.5,218.9,224.5,215.9,224.6,36,223.9,3,5,probe,5,0,116,norm,36,-4.517,up,norm,222.579752546,212.6,218.6,218.4,227.8,3,221.8,219.1,224.9,10,5,8.297,4.702,1.402,-1.302,-4.645,-7.51,223.8,1,106.6,-8.196,-7.788,0,-7.828,-7.764,-4.95,-4.843,-5.144,-4.482,4.319,8.348,21,-1.509,1.889,4.978,8.015,-8.192,-8.057,-2.053,1.491,218.1,218.9,226.6,230.4,223.2,226.1,224.4,224.3,230.7,225.1,0,norm,1.725,2.051,-1.748,-1.731,-4.502,-4.34,-1.61,-1.582,-1.617,-1.441,1.219,-1.565,232.6,218.8,-4.697,-7.95,1.789,-2.044,7.614,4.455,-4.554,-8.024,25,4.707,5.036,5.232,4.751,1.413,1.614,1.367,2.037,25,5.144,4.68,0,102.356519944,norm,0,92,92,92,366.563,366.584,366.595087084,366.595,366.597,366.599,up,1,1.38272540674,8.61727459326,001,326,1920_1200,Intel(R) Core(TM) i5-3570 CPU @ 3.40GHz,orientation_search,LEPPC096,Intel(R) HD Graphics 2500,2019_Jan_12_1541,testMonitor,
131.4,135.2,132.7,113.1,36,0,119.9,123.2,121.7,134.0,8.482,8.461,7.734,7.869,8.237,7.719,8.448,5.061,-4.96,-8.146,2.084,-1.532,8.051,4.415,-4.651,-7.841,127.1,136.9,-7.69,123.5,121.6,124.6,129.9,142.3,36,121.3,1,5,prime,10,0,60,norm,36,-4.335,down,norm,122.317466448,135.9,116.8,135.8,113.9,1,116.4,119.9,124.6,10,6,7.976,4.858,1.629,-1.397,-4.937,-8.477,142.3,6,182.3,-8.055,-7.954,0,-8.377,-8.062,-4.836,-5.173,-4.666,-5.272,5.163,7.603,7,-1.132,1.956,5.2,8.242,-7.852,-7.836,-1.992,1.918,127.2,108.2,114.3,126.9,123.5,122.8,,102.3,106.6,123.1,0,norm,1.201,1.596,-1.287,-1.963,-4.337,-4.671,-1.529,-1.584,-2.042,-1.157,1.857,-1.562,105.6,113.8,-4.942,-7.867,1.874,-1.747,7.878,4.332,-4.742,-8.42,26,4.819,4.33,5.03,4.652,1.971,1.715,1.109,1.687,26,4.449,4.901,0,102.356519944,norm,0,93,93,93,368.015,368.026,368.031559661,368.032,368.034,368.037,down,1,1.67846116695,8.32153883305,001,326,1920_1200,Intel(R) Core(TM) i5-3570 CPU @ 3.40GHz,orientation_search,LEPPC096,Intel(R) HD Graphics 2500,2019_Jan_12_1541,testMonitor,
122.4,108.2,128.1,127.6,36,0,132.8,116.2,135.9,116.4,7.58,7.711,7.84,8.139,7.572,7.608,7.516,4.584,-4.937,-7.56,1.575,-1.508,8.417,5.019,-4.91,-7.848,124.2,130.4,-7.728,128.3,135.0,134.7,,136.5,36,115.3,5,5,prime,10,0,88,norm,36,-4.87,down,norm,122.317466448,130.7,139.4,131.9,121.8,2,106.5,126.0,119.9,10,6,7.523,5.213,1.887,-1.578,-4.841,-8.151,138.2,6,210.3,-8.02,-8.203,0,-7.652,-8.052,-5.014,-5.126,-5.112,-4.855,5.11,8.446,32,-1.476,1.524,4.701,7.764,-7.905,-8.436,-1.234,1.78,113.2,111.2,121.7,118.0,123.5,120.7,102.3,114.3,142.3,120.1,1,norm,1.331,1.895,-2.047,-1.491,-5.102,-4.805,-1.502,-1.823,-1.261,-1.586,1.996,-2.016,135.6,128.2,-4.969,-8.497,1.546,-1.45,7.874,4.902,-4.665,-8.043,26,5.04,4.699,4.79,4.61,1.666,1.639,1.782,2.09,26,5.203,4.306,0,102.356519944,norm,0,94,94,94,369.748,369.758,369.774746597,369.775,369.777,369.779,down,1,2.28107911498,7.71892088502,001,326,1920_1200,Intel(R) Core(TM) i5-3570 CPU @ 3.40GHz,orientation_search,LEPPC096,Intel(R) HD Graphics 2500,2019_Jan_12_1541,testMonitor,
122.6,141.0,132.8,112.8,36,0,132.0,102.3,126.4,113.4,7.584,8.186,8.396,8.294,8.448,8.294,7.64,5.128,-4.636,-8.125,1.8,-1.656,8.098,4.419,-4.845,-8.085,120.2,118.9,-8.037,,127.6,117.3,133.4,133.9,36,120.9,5,5,prime,10,0,62,norm,36,-4.882,down,norm,122.317466448,127.3,133.0,112.4,119.2,1,130.1,118.8,131.8,10,6,8.148,4.625,2.027,-1.696,-4.683,-7.865,116.4,6,184.3,-7.611,-7.966,0,-8.058,-8.103,-4.517,-4.397,-5.197,-4.689,4.521,7.719,31,-1.635,1.602,4.748,7.743,-7.667,-7.826,-1.594,1.637,142.3,110.1,119.2,132.3,119.7,139.0,123.3,127.3,124.8,133.2,2,norm,1.555,1.225,-1.151,-1.892,-4.894,-5.11,-2.04,-1.564,-1.395,-1.286,1.545,-1.514,121.9,116.9,-5.009,-7.53,1.454,-1.123,8.095,4.983,-4.98,-8.139,26,4.597,4.434,4.638,4.754,2.069,2.007,1.684,1.621,26,4.69,4.593,0,102.356519944,norm,0,95,95,95,372.1,372.109,372.117951945,372.118,372.12,372.122,down,1,1.68794439917,8.31205560083,001,326,1920_1200,Intel(R) Core(TM) i5-3570 CPU @ 3.40GHz,orientation_search,LEPPC096,Intel(R) HD Graphics 2500,2019_Jan_12_1541,testMonitor,
