d_ori_22,d_ori_23,d_ori_20,d_ori_21,set_size,ctpd,d_ori_24,d_ori_25,d_ori_28,d_ori_29,stim_pos_x_30,stim_pos_x_31,stim_pos_x_32,stim_pos_x_33,stim_pos_x_34,stim_pos_x_35,stim_pos_y_11,stim_pos_y_10,stim_pos_y_13,stim_pos_y_12,stim_pos_y_15,stim_pos_y_14,stim_pos_y_17,stim_pos_y_16,stim_pos_y_19,stim_pos_y_18,d_ori_35,d_ori_34,stim_pos_x_3,d_ori_31,d_ori_30,d_ori_33,d_ori_32,d_ori_26,test_set_size,d_ori_27,targetCol,dsd_test,seq_type,dsd,blockRepN,targetDist,dtype_test,prime_set_size,stim_pos_y_25,correctResponse,dtype,distrMean,d_ori_17,d_ori_16,d_ori_15,d_ori_14,targetRow,d_ori_11,d_ori_13,d_ori_12,dsd_prime,streak_length_prime,stim_pos_y_35,stim_pos_y_34,stim_pos_y_33,stim_pos_y_32,stim_pos_y_31,stim_pos_y_30,d_ori_10,nextProbe,targetOri,stim_pos_x_1,stim_pos_x_2,ctpd_prime,stim_pos_x_4,stim_pos_x_5,stim_pos_x_6,stim_pos_x_7,stim_pos_x_8,stim_pos_x_9,stim_pos_y_28,stim_pos_y_29,targetPos,stim_pos_y_20,stim_pos_y_21,stim_pos_y_22,stim_pos_y_23,stim_pos_y_24,stim_pos_x_0,stim_pos_y_26,stim_pos_y_27,d_ori_9,d_ori_8,d_ori_3,d_ori_2,d_ori_1,d_ori_0,d_ori_7,d_ori_6,d_ori_5,d_ori_4,trialN,dtype_prime,stim_pos_x_18,stim_pos_x_19,stim_pos_x_12,stim_pos_x_13,stim_pos_x_10,stim_pos_x_11,stim_pos_x_16,stim_pos_x_17,stim_pos_x_14,stim_pos_x_15,stim_pos_y_9,stim_pos_y_8,d_ori_19,d_ori_18,stim_pos_y_1,stim_pos_y_0,stim_pos_y_3,stim_pos_y_2,stim_pos_y_5,stim_pos_y_4,stim_pos_y_7,stim_pos_y_6,totBlockN,stim_pos_x_27,stim_pos_x_26,stim_pos_x_25,stim_pos_x_24,stim_pos_x_23,stim_pos_x_22,stim_pos_x_21,stim_pos_x_20,blockN,stim_pos_x_29,stim_pos_x_28,prevDistrCTPD,prevDistrMean,prevDistrType,trials.thisRepN,trials.thisTrialN,trials.thisN,trials.thisIndex,timeStart,timeBeforeDraw,timeDraw,timeAfterSaving,timeAfterWritingToTemp,timeAfterPreparingNext,answer,correct,rt,trialScore,session,participant,resolution,cpu_info,expName,pc_name,graphic_card,date,monitorName,
294.5,282.2,280.5,290.1,36,80,289.6,286.0,291.1,269.8,8.454,7.603,7.561,7.833,8.201,7.692,8.288,4.411,-4.356,-8.35,1.119,-1.846,7.931,4.8,-4.811,-8.317,286.6,302.6,-8.369,279.0,274.2,288.1,271.9,271.0,36,,4,5,prime,10,0,77,norm,36,-4.305,up,norm,282.626034556,274.3,280.7,283.4,285.9,3,288.2,273.9,278.7,10,5,7.522,4.894,1.713,-1.396,-4.68,-7.566,290.9,5,359.6,-8.128,-7.985,80,-8.249,-7.611,-4.848,-4.365,-4.699,-5.234,4.503,7.794,27,-1.795,1.609,5.2,7.69,-7.797,-8.195,-1.185,1.751,296.3,282.9,285.9,284.6,295.7,262.6,290.9,280.8,286.7,263.9,0,norm,1.843,1.126,-1.139,-1.835,-5.193,-4.994,-1.255,-1.234,-1.477,-1.206,1.455,-1.848,268.5,292.9,-5.273,-7.781,1.463,-1.983,8.076,5.226,-4.382,-8.458,0,4.391,4.921,4.847,5.021,1.762,1.86,1.471,1.43,0,5.125,4.513,,,,0,0,0,0,395.452,395.483,395.504340621,395.505,395.505,395.507,up,1,0.845105934697,9.1548940653,001,019,1920_1200,Intel(R) Core(TM) i5-3570 CPU @ 3.40GHz,orientation_search,LEPPC096,Intel(R) HD Graphics 2500,2018_Dec_02_1611,testMonitor,
276.6,294.3,291.1,280.6,36,80,302.6,278.6,279.7,279.3,8.405,7.687,8.355,8.244,7.534,8.322,7.81,4.628,-5.268,-8.396,1.374,-2.056,8.136,4.63,-5.079,-7.699,277.0,278.7,-8.337,278.4,282.6,295.1,276.9,283.2,36,280.4,2,5,prime,10,0,102,norm,36,-5.192,down,norm,282.626034556,281.5,274.8,276.4,287.9,0,279.7,295.7,,10,5,8.118,5.006,1.407,-1.875,-4.547,-7.704,300.6,5,384.6,-8.112,-7.555,80,-8.022,-8.495,-5.003,-4.932,-4.582,-4.829,5.105,7.92,12,-1.168,1.365,4.402,7.859,-7.547,-8.049,-1.535,1.75,278.2,276.5,286.1,291.0,294.9,284.1,284.9,287.2,262.6,277.5,1,norm,1.296,1.231,-1.306,-1.295,-5.183,-4.399,-1.175,-1.33,-1.213,-2.075,1.793,-1.708,286.8,282.4,-4.87,-7.742,1.872,-1.97,7.68,5.016,-5.14,-7.536,0,4.38,4.55,5.269,4.532,1.216,1.757,1.689,1.682,0,4.565,4.632,,,,0,1,1,1,396.393,396.402,396.41125875,396.411,396.413,396.415,down,1,0.792415081696,9.2075849183,001,019,1920_1200,Intel(R) Core(TM) i5-3570 CPU @ 3.40GHz,orientation_search,LEPPC096,Intel(R) HD Graphics 2500,2018_Dec_02_1611,testMonitor,
282.7,269.7,290.3,283.3,36,80,271.9,274.1,297.1,,7.995,7.567,7.681,7.934,7.895,8.014,8.174,4.541,-4.855,-7.581,1.976,-1.139,8.091,4.76,-4.682,-8.336,275.9,262.6,-8.059,301.8,278.2,290.3,279.3,269.4,36,284.8,4,5,prime,10,0,61,norm,36,-4.309,up,norm,282.626034556,279.3,265.5,274.3,274.8,5,279.5,272.9,286.1,10,5,7.857,4.347,1.477,-1.91,-5.287,-7.626,285.4,5,343.6,-7.984,-7.954,80,-8.107,-7.569,-5.067,-4.459,-5.144,-5.28,4.903,8.098,29,-1.91,1.704,4.971,8.369,-8.49,-7.663,-1.453,1.365,287.0,275.8,274.5,271.9,287.0,300.4,277.7,302.6,264.3,285.3,2,norm,2.081,1.723,-1.236,-1.197,-4.813,-5.014,-1.989,-1.729,-1.388,-1.925,1.955,-1.983,285.9,292.8,-4.703,-7.825,1.247,-1.209,8.189,4.606,-4.937,-7.623,0,4.782,4.591,4.415,4.904,1.716,1.216,1.352,2.066,0,4.506,4.563,,,,0,2,2,2,397.241,397.251,397.265884771,397.266,397.268,397.271,up,1,0.772146977413,9.22785302259,001,019,1920_1200,Intel(R) Core(TM) i5-3570 CPU @ 3.40GHz,orientation_search,LEPPC096,Intel(R) HD Graphics 2500,2018_Dec_02_1611,testMonitor,
283.4,281.6,288.4,287.2,36,80,296.2,277.8,286.5,263.0,7.84,7.517,7.884,8.397,8.216,8.0,7.617,4.625,-4.472,-7.987,1.952,-1.479,8.402,4.658,-5.254,-8.375,282.2,263.2,-8.337,274.5,267.8,290.6,289.0,274.9,36,269.5,2,5,prime,10,0,63,norm,36,-4.598,down,norm,282.626034556,290.0,281.5,289.9,289.8,1,280.1,,291.6,10,5,7.529,5.289,1.826,-1.948,-4.739,-8.269,276.9,5,345.6,-8.366,-8.168,80,-8.166,-7.519,-4.603,-5.072,-4.809,-5.139,4.484,7.897,13,-2.083,1.441,4.543,7.654,-8.372,-7.973,-1.828,1.26,287.1,278.5,270.8,290.3,270.3,302.6,277.1,273.7,295.8,262.6,3,norm,1.599,1.677,-1.452,-2.041,-5.148,-4.906,-1.39,-1.311,-1.683,-1.65,2.042,-1.52,287.6,290.8,-4.807,-8.068,1.163,-1.713,8.221,4.364,-4.514,-7.623,0,4.448,4.382,4.379,5.23,1.685,1.849,1.208,1.861,0,4.405,5.24,,,,0,3,3,3,398.074,398.084,398.092658676,398.093,398.095,398.097,down,1,0.794468273925,9.20553172607,001,019,1920_1200,Intel(R) Core(TM) i5-3570 CPU @ 3.40GHz,orientation_search,LEPPC096,Intel(R) HD Graphics 2500,2018_Dec_02_1611,testMonitor,
269.5,273.8,281.8,285.8,36,80,270.9,283.7,285.3,281.1,7.881,7.732,7.5,8.194,8.274,8.368,8.461,4.409,-4.502,-8.134,1.81,-1.555,8.448,5.292,-4.645,-8.432,276.5,302.6,-8.136,284.4,287.6,281.3,288.6,291.8,36,270.6,0,5,prime,10,0,106,norm,36,-5.096,down,norm,282.626034556,283.1,291.8,288.7,280.6,0,285.0,287.2,291.2,10,5,7.532,4.836,1.543,-1.799,-5.158,-7.87,296.1,5,388.6,-7.84,-7.621,80,-7.832,-8.193,-5.299,-4.818,-4.671,-5.041,4.398,8.048,0,-1.54,1.806,5.065,8.355,-7.702,-8.218,-1.42,1.649,278.0,292.8,262.6,280.0,267.0,,297.3,266.1,283.6,289.6,4,norm,1.644,1.197,-1.55,-1.71,-5.122,-5.044,-1.716,-1.127,-1.159,-1.198,1.11,-1.265,287.0,275.6,-4.332,-7.925,1.888,-1.528,7.53,4.77,-4.556,-8.143,0,5.097,5.017,5.234,5.056,2.088,1.914,1.626,1.369,0,5.115,5.283,,,,0,4,4,4,398.924,398.935,398.966271745,398.966,398.968,398.971,up,0,1.40276465563,-10,001,019,1920_1200,Intel(R) Core(TM) i5-3570 CPU @ 3.40GHz,orientation_search,LEPPC096,Intel(R) HD Graphics 2500,2018_Dec_02_1611,testMonitor,
457.0,452.9,455.6,450.8,36,-30,448.8,455.9,442.9,458.2,7.698,7.556,7.552,8.348,7.812,7.623,7.615,5.1,-4.431,-8.186,1.165,-1.674,8.339,5.071,-5.172,-7.799,451.2,450.7,-7.537,450.9,448.6,451.3,462.9,449.7,36,448.8,2,5,probe,5,0,93,norm,36,-4.483,down,norm,452.856936842,445.7,455.4,455.8,450.0,0,456.2,448.0,,10,5,7.755,4.935,1.599,-1.865,-5.088,-7.806,451.3,2,359.9,-8.277,-8.133,80,-7.561,-7.88,-4.656,-5.143,-4.562,-4.476,4.722,7.9,12,-1.632,1.34,5.15,7.759,-7.534,-7.547,-1.896,1.743,454.1,446.8,448.3,451.8,455.8,444.6,450.4,460.0,447.5,456.8,0,norm,1.85,1.201,-2.074,-1.141,-4.309,-4.994,-1.808,-1.752,-2.086,-2.045,1.303,-1.944,458.4,448.3,-4.403,-7.89,1.11,-2.009,8.226,5.102,-4.387,-7.98,1,4.842,5.043,4.832,4.597,1.238,2.046,1.735,1.171,1,4.56,4.349,80,282.626034556,norm,0,5,5,5,401.441,401.45,401.462338623,401.463,401.464,401.467,down,1,0.861523322537,9.13847667746,001,019,1920_1200,Intel(R) Core(TM) i5-3570 CPU @ 3.40GHz,orientation_search,LEPPC096,Intel(R) HD Graphics 2500,2018_Dec_02_1611,testMonitor,
432.7,,436.8,431.5,36,-30,429.3,433.9,431.0,435.4,7.572,8.376,7.581,7.946,8.473,8.388,7.836,4.818,-4.374,-8.479,1.887,-2.044,7.689,5.281,-5.249,-7.837,432.0,433.4,-8.158,431.8,440.0,432.8,430.8,437.1,36,436.2,3,5,probe,5,0,75,norm,36,-5.117,up,norm,434.856936842,440.4,434.7,434.3,434.1,5,440.3,432.7,435.8,10,5,7.919,4.336,1.755,-1.603,-5.016,-8.062,439.2,2,359.9,-7.729,-7.812,80,-7.679,-7.886,-5.215,-5.235,-4.46,-4.934,5.057,8.001,23,-1.41,1.938,4.709,8.445,-7.994,-7.874,-1.893,2.057,424.9,444.9,435.1,438.4,430.2,444.6,437.2,441.4,434.5,436.4,1,norm,1.297,2.082,-1.548,-1.715,-5.016,-4.664,-1.115,-1.405,-1.398,-1.847,1.311,-2.019,438.0,440.3,-4.777,-7.631,1.156,-2.017,7.777,4.75,-4.777,-7.671,1,5.135,4.82,5.056,4.743,1.208,1.216,1.869,1.659,1,5.05,5.218,80,282.626034556,norm,0,6,6,6,402.362,402.371,402.382643855,402.383,402.384,402.387,up,1,1.39476740852,8.60523259148,001,019,1920_1200,Intel(R) Core(TM) i5-3570 CPU @ 3.40GHz,orientation_search,LEPPC096,Intel(R) HD Graphics 2500,2018_Dec_02_1611,testMonitor,
210.6,203.7,210.0,198.6,36,40,211.6,228.0,221.5,229.3,7.635,8.462,8.139,8.368,8.37,7.666,7.957,4.951,-4.438,-8.235,1.172,-1.784,7.838,5.043,-4.303,-8.317,209.6,220.3,-8.162,218.4,209.7,218.8,230.6,210.1,36,214.4,0,5,prime,10,0,61,norm,36,-4.586,down,norm,215.10818076,203.6,216.7,224.5,204.3,0,214.0,210.0,217.3,10,5,7.563,5.258,1.614,-1.414,-5.058,-8.168,214.5,5,276.1,-7.666,-7.926,40,-8.379,-8.18,-4.544,-4.369,-4.547,-4.324,4.628,7.968,0,-1.946,1.219,4.521,7.675,-8.096,-8.272,-1.441,1.646,208.5,213.4,235.1,230.1,207.3,,195.1,222.4,215.5,221.2,0,norm,1.974,1.229,-1.785,-2.019,-4.533,-4.657,-2.016,-1.686,-1.297,-1.32,1.631,-1.272,218.6,201.3,-4.509,-8.33,1.944,-2.025,7.764,4.733,-4.434,-7.64,2,5.105,4.54,4.909,4.628,1.909,1.509,1.618,1.508,2,4.762,4.803,-30,282.626034556,norm,0,7,7,7,403.818,403.829,403.834622943,403.835,403.837,403.839,down,1,0.89412567275,9.10587432725,001,019,1920_1200,Intel(R) Core(TM) i5-3570 CPU @ 3.40GHz,orientation_search,LEPPC096,Intel(R) HD Graphics 2500,2018_Dec_02_1611,testMonitor,
209.0,208.9,230.6,215.8,36,40,208.9,216.9,224.4,218.2,8.461,7.535,8.294,7.715,8.153,7.913,8.482,4.629,-5.211,-7.839,2.041,-1.831,7.955,5.03,-5.18,-8.457,223.0,235.1,-8.274,209.8,205.7,198.1,224.4,228.8,36,210.0,1,5,prime,10,0,83,norm,36,-4.768,down,norm,215.10818076,213.8,235.0,215.2,215.3,1,202.3,220.3,227.1,10,5,7.812,4.732,1.275,-2.069,-4.988,-7.984,226.1,5,298.1,-7.752,-8.153,40,-8.05,-8.473,-4.804,-4.344,-4.779,-4.869,5.164,8.014,7,-1.581,1.153,5.132,8.188,-8.429,-7.762,-1.395,1.661,211.2,217.6,205.3,223.0,206.4,203.4,,218.0,203.4,202.9,1,norm,1.134,1.969,-1.899,-1.865,-5.179,-4.763,-1.787,-1.98,-1.122,-1.531,1.819,-1.502,195.1,200.9,-4.809,-7.997,2.066,-1.791,7.764,5.282,-5.268,-7.771,2,5.285,4.74,4.957,4.511,1.141,2.035,1.16,1.68,2,4.746,4.763,-30,282.626034556,norm,0,8,8,8,404.77,404.782,404.816078409,404.816,404.819,404.822,down,1,0.75460941957,9.24539058043,001,019,1920_1200,Intel(R) Core(TM) i5-3570 CPU @ 3.40GHz,orientation_search,LEPPC096,Intel(R) HD Graphics 2500,2018_Dec_02_1611,testMonitor,
,208.7,219.9,234.7,36,40,223.4,214.0,220.7,217.3,8.021,8.193,8.084,7.774,7.565,8.148,8.024,4.313,-4.584,-7.921,1.478,-1.85,7.69,5.227,-5.028,-7.929,226.5,195.1,-8.173,206.9,202.6,223.3,217.9,234.8,36,206.3,3,5,prime,10,0,78,norm,36,-5.029,up,norm,215.10818076,214.8,219.0,202.2,203.8,4,220.1,210.9,221.7,10,5,8.231,4.879,1.664,-1.331,-5.186,-7.858,231.1,5,293.1,-8.12,-7.862,40,-7.641,-8.395,-4.587,-4.557,-4.362,-4.58,5.284,8.368,22,-1.557,1.776,5.095,7.562,-8.149,-8.222,-1.218,1.896,204.8,224.1,207.4,209.6,218.2,220.6,203.8,235.1,213.7,215.5,2,norm,1.953,1.411,-1.587,-1.717,-5.079,-4.723,-1.992,-1.681,-1.813,-1.684,1.435,-1.849,212.7,215.7,-4.458,-7.902,2.013,-1.744,8.478,5.107,-4.303,-7.6,2,4.311,4.999,4.683,5.286,1.69,1.663,1.356,1.467,2,4.672,4.399,-30,282.626034556,norm,0,9,9,9,405.593,405.605,405.609560837,405.61,405.611,405.614,up,1,0.859704668732,9.14029533127,001,019,1920_1200,Intel(R) Core(TM) i5-3570 CPU @ 3.40GHz,orientation_search,LEPPC096,Intel(R) HD Graphics 2500,2018_Dec_02_1611,testMonitor,
222.6,220.3,,207.4,36,40,209.8,233.0,215.5,220.7,7.922,8.447,7.627,7.743,8.429,8.287,7.564,4.59,-4.547,-7.812,2.009,-1.33,7.884,5.141,-4.442,-8.359,222.5,202.6,-8.249,202.7,202.0,203.7,231.7,230.7,36,219.9,3,5,prime,10,0,83,norm,36,-5.165,down,norm,215.10818076,211.0,212.6,235.1,225.3,2,228.5,226.7,203.8,10,5,7.603,4.617,2.054,-1.298,-4.857,-7.975,195.1,5,298.1,-8.489,-7.772,40,-7.866,-7.655,-4.88,-4.729,-4.473,-4.755,5.25,7.715,20,-1.244,1.977,4.455,7.564,-8.32,-7.714,-1.539,1.329,222.9,210.2,213.1,223.9,209.8,233.4,214.9,216.8,216.3,209.5,3,norm,1.442,1.304,-1.568,-1.254,-4.508,-4.677,-1.436,-1.933,-1.499,-1.173,1.877,-1.291,212.4,217.7,-4.885,-7.822,1.764,-1.125,8.238,4.376,-4.354,-7.571,2,4.865,4.864,4.384,4.43,1.249,1.676,1.811,1.4,2,5.246,4.659,-30,282.626034556,norm,0,10,10,10,406.508,406.521,406.540071358,406.54,406.542,406.545,down,1,0.801079721936,9.19892027806,001,019,1920_1200,Intel(R) Core(TM) i5-3570 CPU @ 3.40GHz,orientation_search,LEPPC096,Intel(R) HD Graphics 2500,2018_Dec_02_1611,testMonitor,
210.7,222.7,223.0,221.4,36,40,195.1,215.2,228.6,217.4,8.149,8.175,8.329,7.582,7.9,7.575,7.789,4.467,-5.096,-7.696,1.931,-1.565,8.13,4.745,-4.416,-7.908,235.1,217.9,-8.04,223.7,211.5,201.6,205.1,224.7,36,234.3,2,5,prime,10,0,110,norm,36,-5.005,down,norm,215.10818076,213.2,213.1,214.9,218.7,1,209.4,,223.2,10,5,8.257,5.087,1.254,-1.803,-4.424,-8.067,222.9,5,325.1,-8.418,-8.26,40,-7.549,-7.83,-4.59,-4.572,-4.823,-4.63,4.661,7.509,13,-1.564,1.543,5.264,7.832,-7.755,-8.109,-1.151,2.085,220.7,206.9,207.6,214.4,198.3,214.9,226.1,230.7,198.6,230.0,4,norm,1.56,1.653,-2.022,-1.202,-4.954,-4.332,-1.205,-1.966,-1.654,-2.078,1.89,-1.843,203.6,225.0,-4.569,-7.949,1.858,-1.597,8.344,4.518,-4.377,-8.029,2,5.116,4.491,5.052,4.445,1.342,1.444,1.296,1.943,2,4.55,4.653,-30,282.626034556,norm,0,11,11,11,407.379,407.391,407.395365376,407.396,407.398,407.401,down,1,0.838296170414,9.16170382959,001,019,1920_1200,Intel(R) Core(TM) i5-3570 CPU @ 3.40GHz,orientation_search,LEPPC096,Intel(R) HD Graphics 2500,2018_Dec_02_1611,testMonitor,
320.6,325.5,324.8,315.9,36,-40,324.1,,322.9,326.2,8.417,7.876,7.836,7.661,8.136,8.238,8.217,4.464,-4.906,-8.485,1.663,-1.629,8.334,4.818,-4.674,-8.088,329.1,326.3,-8.414,324.0,317.2,326.9,330.8,330.0,36,319.7,4,5,probe,5,0,71,norm,36,-5.044,down,norm,325.0026523,324.9,318.2,328.7,328.3,1,325.4,324.3,334.9,10,5,7.596,4.907,1.272,-2.067,-4.731,-7.587,325.4,2,254.0,-8.062,-7.625,40,-7.785,-8.465,-4.809,-4.562,-4.39,-4.463,4.447,8.013,25,-2.01,1.143,4.523,7.93,-8.484,-8.466,-1.265,1.967,315.0,323.5,317.3,328.6,315.4,331.6,330.8,319.6,335.0,326.3,0,norm,1.577,2.08,-1.339,-1.538,-4.34,-4.47,-1.546,-1.348,-1.816,-1.918,1.4,-2.01,323.7,331.1,-5.07,-7.543,1.532,-1.966,7.633,4.97,-5.264,-8.253,3,4.45,4.517,5.137,5.2,1.536,1.165,1.585,1.871,3,5.217,4.916,40,215.10818076,norm,0,12,12,12,408.281,408.301,408.313159507,408.313,408.315,408.318,down,1,0.737990696945,9.26200930305,001,019,1920_1200,Intel(R) Core(TM) i5-3570 CPU @ 3.40GHz,orientation_search,LEPPC096,Intel(R) HD Graphics 2500,2018_Dec_02_1611,testMonitor,
329.0,337.1,343.0,339.5,36,-40,,344.2,344.1,346.6,8.482,8.374,8.148,8.062,8.004,8.022,7.966,4.654,-4.798,-8.161,1.557,-2.028,7.819,4.482,-5.044,-8.321,337.9,345.5,-7.575,333.4,336.1,344.7,338.1,335.3,36,335.9,4,5,probe,5,0,85,norm,36,-5.145,down,norm,339.0026523,348.0,333.0,336.8,336.7,0,338.5,337.9,344.8,10,5,8.25,4.598,2.023,-1.103,-5.077,-7.561,341.9,2,254.0,-8.222,-7.874,40,-8.022,-7.652,-4.358,-4.766,-4.844,-4.671,4.387,8.311,24,-1.832,1.186,5.255,7.653,-7.964,-8.18,-2.034,1.91,333.5,334.2,340.2,349.0,337.3,341.6,342.9,348.9,334.3,341.2,1,norm,1.166,1.78,-1.926,-1.716,-4.628,-4.597,-1.296,-2.09,-1.395,-2.049,1.949,-1.204,343.1,343.2,-5.211,-8.23,1.65,-1.715,7.929,4.944,-4.302,-7.761,3,4.698,5.051,4.766,5.13,1.627,1.303,1.923,1.967,3,5.033,5.121,40,215.10818076,norm,0,13,13,13,409.075,409.085,409.091688224,409.092,409.094,409.096,down,1,0.827603391601,9.1723966084,001,019,1920_1200,Intel(R) Core(TM) i5-3570 CPU @ 3.40GHz,orientation_search,LEPPC096,Intel(R) HD Graphics 2500,2018_Dec_02_1611,testMonitor,
302.0,289.2,284.5,303.7,36,-80,291.1,296.2,275.1,279.9,8.16,7.723,7.879,7.916,8.138,7.654,8.403,4.919,-4.505,-7.69,1.467,-1.534,7.685,4.716,-4.685,-8.071,287.1,294.6,-7.609,281.4,272.0,286.9,298.1,274.5,36,290.9,3,5,prime,10,0,101,norm,36,-4.513,down,norm,289.4396372,277.3,305.1,284.8,278.6,0,309.4,277.0,307.1,10,6,8.223,4.913,2.066,-1.981,-4.666,-8.284,270.1,6,390.4,-8.217,-7.668,-80,-8.111,-8.311,-4.464,-4.566,-4.306,-4.839,4.927,8.276,18,-2.002,1.623,4.966,8.412,-8.245,-7.561,-1.692,1.673,298.7,293.5,294.3,295.7,285.8,287.3,305.2,269.4,291.8,288.0,0,norm,1.311,1.976,-1.741,-1.231,-4.376,-4.612,-1.49,-1.984,-1.987,-1.529,1.588,-1.828,295.6,,-4.464,-7.833,1.383,-1.859,7.914,5.143,-4.884,-8.236,4,4.485,5.135,4.831,4.998,1.335,1.769,1.937,2.024,4,4.46,4.665,-40,215.10818076,norm,0,14,14,14,409.965,409.987,409.997832104,409.998,410.0,410.003,down,1,0.809441303514,9.19055869649,001,019,1920_1200,Intel(R) Core(TM) i5-3570 CPU @ 3.40GHz,orientation_search,LEPPC096,Intel(R) HD Graphics 2500,2018_Dec_02_1611,testMonitor,
280.9,,276.6,290.5,36,-80,270.9,290.5,283.1,309.2,8.25,8.428,8.373,8.399,8.279,7.914,7.901,4.558,-5.134,-7.671,1.691,-1.894,7.928,4.922,-4.511,-7.696,285.9,279.9,-8.065,309.4,288.0,276.7,294.4,307.5,36,283.7,3,5,prime,10,0,91,norm,36,-4.395,up,norm,289.4396372,279.3,307.4,296.6,303.4,5,305.0,284.5,302.4,10,6,7.52,5.163,1.935,-1.331,-5.085,-7.703,294.7,6,380.4,-8.367,-7.586,-80,-7.98,-8.053,-5.211,-4.548,-4.564,-4.793,4.655,7.955,23,-1.271,1.82,4.908,7.581,-8.42,-7.957,-1.886,1.852,280.8,280.0,271.9,293.8,290.3,269.4,292.2,289.9,282.4,288.7,1,norm,1.845,1.689,-1.834,-2.021,-4.333,-4.884,-1.597,-1.968,-1.395,-1.561,1.781,-1.297,296.4,292.4,-4.794,-8.459,1.173,-1.545,7.689,5.023,-4.41,-8.303,4,4.991,5.251,4.48,4.987,1.294,1.473,1.702,1.203,4,5.192,4.689,-40,215.10818076,norm,0,15,15,15,410.855,410.876,410.887039715,410.887,410.889,410.892,up,1,0.793313692879,9.20668630712,001,019,1920_1200,Intel(R) Core(TM) i5-3570 CPU @ 3.40GHz,orientation_search,LEPPC096,Intel(R) HD Graphics 2500,2018_Dec_02_1611,testMonitor,
287.0,287.7,292.8,281.2,36,-80,290.6,280.5,289.9,269.4,7.93,7.932,8.112,7.74,8.271,8.325,7.519,4.947,-4.849,-7.612,1.44,-1.511,8.256,4.574,-4.726,-7.984,306.3,291.4,-8.472,294.0,285.4,289.3,280.3,286.3,36,284.4,2,5,prime,10,0,88,norm,36,-4.327,up,norm,289.4396372,288.9,291.7,,292.9,3,296.0,290.9,287.9,10,6,7.635,4.791,1.437,-1.91,-5.164,-8.075,272.2,6,377.4,-8.078,-8.181,-80,-8.483,-8.095,-5.186,-4.485,-4.389,-4.331,4.555,8.449,15,-1.242,1.914,4.915,8.421,-8.063,-8.217,-1.7,1.912,309.4,293.9,283.1,277.6,301.3,282.8,293.1,270.0,298.6,292.2,2,norm,2.069,1.622,-2.076,-1.261,-4.954,-5.111,-1.863,-2.025,-1.58,-1.249,1.58,-1.812,299.2,286.6,-5.033,-8.004,1.823,-1.528,7.832,5.295,-5.107,-7.774,4,4.372,4.613,5.264,5.245,1.623,1.747,1.704,1.391,4,4.866,4.844,-40,215.10818076,norm,0,16,16,16,411.728,411.748,411.760615052,411.761,411.763,411.766,up,1,0.808832167684,9.19116783232,001,019,1920_1200,Intel(R) Core(TM) i5-3570 CPU @ 3.40GHz,orientation_search,LEPPC096,Intel(R) HD Graphics 2500,2018_Dec_02_1611,testMonitor,
298.8,298.2,286.8,291.6,36,-80,302.7,284.6,285.7,288.9,7.891,8.153,7.705,7.846,7.835,8.202,7.578,4.37,-5.079,-7.662,1.476,-1.544,8.397,5.061,-4.611,-8.132,291.7,291.8,-7.913,273.5,289.9,292.9,288.9,309.4,36,286.8,1,5,prime,10,0,78,norm,36,-4.536,down,norm,289.4396372,272.3,290.0,278.4,294.3,0,269.4,300.8,279.6,10,6,8.388,4.329,1.166,-2.027,-4.64,-8.128,273.5,6,367.4,-8.142,-7.819,-80,-8.452,-8.496,-4.91,-4.616,-5.166,-5.104,5.05,7.533,6,-1.794,1.464,5.015,8.344,-8.404,-7.626,-1.11,1.855,282.1,282.6,282.5,272.6,288.8,285.1,299.7,,309.0,302.7,3,norm,1.918,1.838,-1.217,-1.663,-4.806,-4.435,-1.5,-2.029,-1.886,-1.309,2.085,-1.225,298.5,292.3,-4.365,-8.27,1.919,-1.278,7.969,5.154,-4.762,-8.132,4,4.937,4.914,4.328,4.962,1.548,1.507,1.436,1.344,4,4.556,4.455,-40,215.10818076,norm,0,17,17,17,412.616,412.626,412.632829342,412.633,412.635,412.637,down,1,0.844715339175,9.15528466082,001,019,1920_1200,Intel(R) Core(TM) i5-3570 CPU @ 3.40GHz,orientation_search,LEPPC096,Intel(R) HD Graphics 2500,2018_Dec_02_1611,testMonitor,
297.3,292.2,294.1,289.3,36,-80,294.0,276.9,309.4,283.2,8.002,8.404,7.949,8.278,8.375,7.613,8.358,4.834,-5.038,-8.255,2.092,-1.845,8.464,4.631,-4.691,-8.136,289.1,,-7.677,295.5,284.1,288.5,290.6,297.4,36,290.2,5,5,prime,10,0,101,norm,36,-5.108,up,norm,289.4396372,286.1,287.8,286.3,276.7,4,289.2,284.3,280.3,10,6,7.838,4.85,1.385,-1.897,-4.704,-8.002,292.3,6,390.4,-8.431,-8.05,-80,-7.789,-8.137,-4.364,-4.694,-4.594,-4.924,4.86,7.605,34,-1.969,2.04,4.945,8.236,-8.24,-7.924,-1.873,1.386,291.2,299.8,296.1,278.8,301.1,290.4,283.8,270.1,269.4,288.0,4,norm,2.025,1.407,-1.356,-1.604,-5.226,-4.573,-1.74,-1.87,-1.712,-1.518,1.67,-1.415,277.4,290.7,-4.314,-8.342,1.729,-1.131,7.567,4.401,-4.559,-7.891,4,4.79,4.393,4.507,4.651,1.866,2.087,1.888,1.945,4,4.424,5.242,-40,215.10818076,norm,0,18,18,18,413.521,413.531,413.537433781,413.538,413.539,413.542,up,1,0.917529407858,9.08247059214,001,019,1920_1200,Intel(R) Core(TM) i5-3570 CPU @ 3.40GHz,orientation_search,LEPPC096,Intel(R) HD Graphics 2500,2018_Dec_02_1611,testMonitor,
275.5,293.1,293.0,285.1,36,-80,291.4,294.0,289.5,294.3,7.76,8.116,8.105,7.654,8.109,7.755,7.817,4.565,-4.704,-8.254,1.205,-1.951,8.343,5.018,-4.877,-8.326,288.0,275.7,-7.784,307.6,288.6,286.2,290.1,309.4,36,295.8,1,5,prime,10,0,71,norm,36,-4.563,up,norm,289.4396372,286.9,283.3,302.3,282.1,4,294.4,303.5,288.3,10,6,8.107,5.024,1.847,-1.14,-5.194,-7.921,,6,360.4,-8.419,-8.222,-80,-8.129,-7.586,-4.661,-5.216,-4.407,-4.618,5.013,7.877,10,-1.515,1.23,4.995,8.203,-8.208,-7.697,-1.765,1.741,285.8,284.3,307.0,298.2,288.5,275.8,290.7,269.4,299.1,293.8,5,norm,1.401,1.786,-1.489,-1.696,-4.459,-4.491,-1.111,-1.561,-1.374,-1.542,1.104,-2.078,290.9,270.5,-5.276,-8.259,1.643,-2.031,8.1,5.14,-4.835,-7.712,4,4.85,4.797,4.44,4.46,1.484,1.349,1.465,1.626,4,4.396,4.552,-40,215.10818076,norm,0,19,19,19,414.492,414.502,414.519098431,414.519,414.521,414.524,up,1,1.8626579814,8.1373420186,001,019,1920_1200,Intel(R) Core(TM) i5-3570 CPU @ 3.40GHz,orientation_search,LEPPC096,Intel(R) HD Graphics 2500,2018_Dec_02_1611,testMonitor,
291.7,282.9,297.6,296.2,36,60,297.6,289.8,279.6,291.6,7.794,8.151,7.871,7.846,8.045,8.074,8.057,4.807,-4.621,-7.819,1.952,-1.577,8.127,4.493,-4.559,-8.443,285.1,294.0,-8.177,285.8,290.0,288.1,287.7,294.2,36,,4,5,probe,5,0,81,norm,36,-4.729,up,norm,289.587861824,288.7,287.4,289.5,292.0,3,291.6,289.3,293.5,10,6,8.106,5.152,1.514,-1.791,-4.367,-7.89,298.8,2,208.6,-8.448,-7.773,-80,-8.388,-8.265,-4.39,-5.113,-4.372,-5.234,4.645,8.302,27,-1.178,1.195,5.252,8.236,-7.706,-7.551,-1.446,1.35,283.6,281.9,287.8,296.6,293.1,290.9,292.0,284.8,287.4,296.9,0,norm,1.94,1.424,-1.258,-1.735,-4.629,-5.074,-1.753,-1.153,-1.176,-1.497,1.46,-1.488,288.3,291.5,-4.408,-8.047,1.276,-1.416,8.081,5.291,-5.21,-7.571,5,4.501,4.941,4.85,4.322,1.703,1.149,1.698,1.883,5,4.609,4.588,-80,289.4396372,norm,0,20,20,20,416.423,416.432,416.438988315,416.439,416.441,416.443,up,1,0.981262885276,9.01873711472,001,019,1920_1200,Intel(R) Core(TM) i5-3570 CPU @ 3.40GHz,orientation_search,LEPPC096,Intel(R) HD Graphics 2500,2018_Dec_02_1611,testMonitor,
278.8,275.1,283.5,274.1,36,60,277.0,279.2,272.5,281.4,8.099,7.556,8.032,7.797,8.276,7.867,7.578,4.578,-5.222,-7.601,1.143,-1.315,8.445,4.884,-5.0,-8.389,281.0,281.1,-8.427,275.6,276.6,286.6,284.2,273.3,36,,4,5,probe,5,0,70,norm,36,-5.26,up,norm,278.587861824,288.6,282.6,278.2,285.6,3,275.3,279.1,280.2,10,6,7.993,4.618,1.378,-1.258,-4.388,-8.22,269.9,2,208.6,-7.714,-8.169,-80,-8.458,-7.947,-5.27,-4.581,-5.243,-5.286,4.378,7.977,27,-1.942,1.433,4.37,8.472,-7.6,-7.612,-1.569,1.626,274.2,286.9,283.4,286.9,273.9,274.7,283.4,284.1,279.4,268.6,1,norm,1.755,1.351,-1.889,-1.602,-4.806,-4.858,-1.465,-2.083,-1.919,-1.616,1.209,-1.407,281.9,274.4,-5.208,-8.163,1.178,-1.754,7.627,4.71,-5.266,-7.724,5,4.663,4.974,4.398,4.411,1.826,1.455,1.415,2.087,5,4.542,4.438,-80,289.4396372,norm,0,21,21,21,417.458,417.471,417.491174775,417.491,417.493,417.496,up,1,0.747525272496,9.2524747275,001,019,1920_1200,Intel(R) Core(TM) i5-3570 CPU @ 3.40GHz,orientation_search,LEPPC096,Intel(R) HD Graphics 2500,2018_Dec_02_1611,testMonitor,
67.8,61.1,63.6,67.3,36,20,67.8,74.0,79.0,70.9,8.233,8.143,7.653,7.994,8.329,7.716,8.082,4.378,-4.91,-8.124,1.959,-1.296,8.483,4.891,-4.72,-8.405,68.9,57.2,-8.388,62.6,71.2,57.5,85.0,79.8,36,86.5,2,5,prime,10,0,82,norm,36,-4.831,up,norm,69.7891342684,76.3,89.5,,69.9,3,77.4,78.4,58.8,10,5,8.047,4.557,1.447,-1.755,-4.759,-7.889,89.8,5,151.8,-7.855,-8.464,20,-7.941,-7.978,-5.231,-4.644,-4.452,-4.863,4.961,7.616,15,-1.453,1.448,4.43,7.577,-7.973,-8.405,-1.916,1.747,84.1,84.3,54.8,65.3,53.8,49.8,66.8,73.9,69.2,72.7,0,norm,1.176,1.241,-1.414,-1.649,-5.119,-4.316,-1.189,-1.202,-1.354,-1.651,1.64,-1.855,68.2,71.1,-5.129,-8.423,1.118,-1.674,7.832,4.583,-4.588,-8.114,6,4.36,5.287,4.915,5.259,1.474,1.853,2.012,1.904,6,4.565,5.038,60,289.4396372,norm,0,22,22,22,418.274,418.284,418.294124767,418.294,418.296,418.299,up,1,1.6754673412,8.3245326588,001,019,1920_1200,Intel(R) Core(TM) i5-3570 CPU @ 3.40GHz,orientation_search,LEPPC096,Intel(R) HD Graphics 2500,2018_Dec_02_1611,testMonitor,
67.2,72.0,76.6,72.5,36,20,71.9,61.4,84.3,61.4,8.19,8.462,7.896,7.616,7.702,7.898,8.139,5.083,-4.902,-7.655,1.477,-1.318,8.181,4.432,-4.855,-7.855,61.7,75.3,-7.86,62.7,71.4,62.5,66.0,66.5,36,69.9,2,5,prime,10,0,78,norm,36,-5.006,down,norm,69.7891342684,49.8,80.3,72.7,62.7,1,74.1,,82.1,10,5,7.578,5.204,1.173,-1.903,-4.753,-8.37,89.8,5,147.8,-8.245,-7.746,20,-8.125,-8.424,-4.967,-4.58,-5.013,-5.148,4.35,7.803,13,-1.676,1.932,4.374,7.679,-8.123,-8.452,-1.681,1.316,73.6,63.7,64.3,59.1,74.8,70.5,51.2,70.0,78.6,64.0,1,norm,1.864,1.878,-1.191,-1.984,-4.455,-4.551,-1.934,-1.566,-1.762,-1.496,2.074,-1.636,58.2,74.1,-4.92,-7.674,1.948,-1.8,8.45,4.304,-5.169,-8.213,6,4.431,4.562,4.938,4.416,1.643,1.978,1.18,1.112,6,4.671,4.756,60,289.4396372,norm,0,23,23,23,420.007,420.017,420.025764816,420.026,420.028,420.03,down,1,0.809214311372,9.19078568863,001,019,1920_1200,Intel(R) Core(TM) i5-3570 CPU @ 3.40GHz,orientation_search,LEPPC096,Intel(R) HD Graphics 2500,2018_Dec_02_1611,testMonitor,
78.0,80.1,66.1,63.9,36,20,67.1,69.0,51.0,,8.345,7.721,7.802,7.767,7.611,8.417,7.605,4.376,-4.944,-7.815,1.567,-1.958,7.997,5.182,-4.397,-8.436,89.8,74.1,-8.188,58.3,58.2,78.5,84.2,49.8,36,69.3,4,5,prime,10,0,81,norm,36,-5.072,up,norm,69.7891342684,75.2,66.7,58.3,72.7,5,59.4,70.2,61.5,10,5,8.237,4.87,1.216,-1.778,-5.152,-8.205,73.8,5,150.8,-8.401,-7.983,20,-8.064,-7.692,-4.978,-4.639,-4.676,-4.833,4.731,8.329,29,-2.075,1.316,5.067,8.433,-8.129,-8.086,-1.398,1.914,89.4,72.0,63.1,60.1,51.9,70.7,62.8,63.6,79.0,68.6,2,norm,1.517,1.653,-1.464,-1.344,-4.649,-5.154,-1.107,-1.288,-1.847,-2.087,1.813,-2.004,63.6,80.4,-4.571,-7.967,1.337,-1.584,7.825,4.952,-4.393,-8.441,6,4.532,5.134,5.22,4.845,1.203,1.933,1.223,1.726,6,5.273,4.342,60,289.4396372,norm,0,24,24,24,420.873,420.887,420.906027064,420.906,420.908,420.91,up,1,0.804013716121,9.19598628388,001,019,1920_1200,Intel(R) Core(TM) i5-3570 CPU @ 3.40GHz,orientation_search,LEPPC096,Intel(R) HD Graphics 2500,2018_Dec_02_1611,testMonitor,
63.8,69.1,57.3,57.8,36,20,59.7,68.9,71.6,60.3,8.11,7.616,8.08,7.505,7.714,8.342,8.446,5.05,-4.827,-8.301,1.489,-1.968,8.211,4.544,-4.747,-8.149,73.2,77.4,-7.787,68.9,70.0,78.0,81.2,64.9,36,,4,5,prime,10,0,101,norm,36,-4.41,up,norm,69.7891342684,49.8,77.8,56.1,59.9,3,83.6,81.6,58.9,10,5,7.557,4.658,1.727,-1.481,-4.625,-7.669,59.4,5,170.8,-7.714,-7.522,20,-8.231,-7.68,-4.895,-5.051,-4.448,-5.151,4.99,8.017,27,-1.134,1.288,5.161,7.985,-8.331,-8.454,-1.669,1.461,53.0,82.1,82.0,86.5,54.7,57.3,89.8,52.8,79.7,77.0,3,norm,1.525,1.993,-1.989,-2.047,-4.969,-5.135,-1.998,-1.393,-1.104,-2.085,1.706,-1.273,79.5,78.7,-4.571,-8.185,1.733,-2.01,7.508,4.554,-4.851,-7.67,6,4.548,4.323,4.578,5.058,1.35,1.294,1.444,1.595,6,4.454,4.321,60,289.4396372,norm,0,25,25,25,421.748,421.761,421.780819164,421.781,421.783,421.785,up,1,0.939799389658,9.06020061034,001,019,1920_1200,Intel(R) Core(TM) i5-3570 CPU @ 3.40GHz,orientation_search,LEPPC096,Intel(R) HD Graphics 2500,2018_Dec_02_1611,testMonitor,
64.6,70.0,68.0,74.1,36,20,68.7,57.5,74.3,66.8,7.767,8.001,7.503,7.929,7.932,8.113,7.759,5.102,-4.991,-7.632,1.899,-1.7,8.13,4.699,-5.174,-8.178,70.8,69.7,-8.334,71.9,49.8,74.4,77.0,76.7,36,72.8,0,5,prime,10,0,61,norm,36,-4.967,down,norm,69.7891342684,79.5,64.0,63.0,64.7,1,73.6,61.6,66.1,10,5,8.043,4.778,1.835,-2.048,-5.037,-8.322,89.8,5,130.8,-7.521,-7.678,20,-8.466,-8.054,-4.537,-4.979,-4.885,-4.986,5.204,7.947,1,-1.235,1.939,4.983,7.837,-8.365,-8.299,-2.01,1.839,69.8,74.4,58.8,74.1,,75.3,57.3,66.0,71.3,76.0,4,norm,1.995,1.652,-1.778,-1.951,-5.177,-5.057,-1.261,-1.126,-1.687,-1.366,1.854,-2.098,84.9,73.5,-5.22,-7.603,1.268,-1.612,8.165,4.679,-4.4,-8.21,6,4.326,4.682,4.571,5.062,1.733,1.862,1.519,1.339,6,4.942,4.509,60,289.4396372,norm,0,26,26,26,422.742,422.753,422.758194507,422.758,422.76,422.764,down,1,2.03956062532,7.96043937468,001,019,1920_1200,Intel(R) Core(TM) i5-3570 CPU @ 3.40GHz,orientation_search,LEPPC096,Intel(R) HD Graphics 2500,2018_Dec_02_1611,testMonitor,
165.8,170.4,,173.2,36,-60,171.8,163.3,168.6,176.0,7.816,7.523,8.476,7.81,7.724,7.7,7.831,4.837,-5.255,-7.542,2.025,-1.788,8.403,4.85,-5.208,-8.284,161.5,166.4,-8.495,171.8,169.5,174.8,159.2,168.8,36,170.2,3,5,probe,5,0,81,norm,36,-4.816,down,norm,169.229307161,176.6,167.2,164.5,169.4,2,167.4,168.6,166.8,10,5,7.92,5.282,1.626,-1.184,-4.444,-7.573,166.0,2,88.2,-7.964,-7.585,20,-7.75,-7.91,-4.776,-5.015,-5.186,-4.438,4.792,7.887,20,-1.378,1.282,4.802,7.611,-7.515,-8.052,-1.401,1.887,172.4,172.3,173.1,168.7,173.2,166.4,167.7,162.2,173.5,171.9,0,norm,1.386,1.795,-1.73,-1.175,-4.997,-4.796,-1.485,-1.523,-1.132,-1.338,1.831,-1.953,179.2,167.0,-5.193,-7.714,1.192,-1.482,7.524,4.38,-4.715,-7.55,7,5.122,4.751,4.739,5.182,1.234,1.685,1.239,1.266,7,4.829,4.919,20,69.7891342684,norm,0,27,27,27,424.837,424.849,424.869635273,424.87,424.872,424.874,down,1,2.03368992028,7.96631007972,001,019,1920_1200,Intel(R) Core(TM) i5-3570 CPU @ 3.40GHz,orientation_search,LEPPC096,Intel(R) HD Graphics 2500,2018_Dec_02_1611,testMonitor,
174.4,180.9,177.8,171.7,36,-60,186.2,167.5,166.2,182.0,8.288,8.078,7.731,8.126,8.026,8.206,8.342,4.727,-4.34,-8.206,1.186,-1.381,7.974,5.256,-4.728,-8.361,172.6,,-8.061,174.5,177.1,175.5,170.6,170.5,36,169.7,5,5,probe,5,0,88,norm,36,-4.925,up,norm,176.229307161,175.8,177.9,171.0,176.3,4,176.6,172.9,180.0,10,5,8.488,5.009,1.711,-1.581,-4.877,-8.27,173.5,2,88.2,-7.624,-8.228,20,-8.203,-8.118,-4.494,-5.217,-4.623,-4.742,5.277,7.971,34,-1.884,1.525,5.168,7.848,-7.622,-8.242,-2.041,1.811,167.3,180.0,177.4,174.4,186.1,174.8,173.7,175.8,179.0,174.9,1,norm,2.062,1.154,-1.795,-1.807,-4.411,-4.437,-1.22,-1.826,-2.006,-1.934,1.444,-1.224,168.6,167.6,-4.762,-7.937,1.148,-1.71,7.573,4.436,-5.284,-8.307,7,4.646,4.411,4.723,4.989,1.991,1.297,1.202,1.145,7,4.843,4.81,20,69.7891342684,norm,0,28,28,28,426.941,426.95,426.967566083,426.968,426.969,426.972,up,1,2.2288660354,7.7711339646,001,019,1920_1200,Intel(R) Core(TM) i5-3570 CPU @ 3.40GHz,orientation_search,LEPPC096,Intel(R) HD Graphics 2500,2018_Dec_02_1611,testMonitor,
319.2,326.9,305.5,345.5,36,-10,340.9,337.4,336.3,319.0,7.651,7.619,7.63,8.174,8.263,8.407,7.844,5.211,-4.574,-7.985,1.274,-1.718,8.007,4.824,-5.168,-8.283,,330.6,-8.14,316.2,323.0,325.2,339.4,325.2,36,323.8,5,5,prime,10,0,83,norm,36,-5.209,up,norm,325.544715539,322.2,329.3,329.6,319.2,5,327.6,327.1,336.1,10,5,8.138,4.534,1.908,-1.643,-5.169,-8.082,336.2,5,408.5,-8.414,-7.787,-10,-7.649,-8.015,-4.804,-4.631,-4.75,-4.559,4.829,8.056,35,-1.639,1.835,4.875,8.268,-8.454,-8.432,-1.935,1.272,320.6,322.1,336.1,321.1,335.7,320.4,329.1,319.6,342.4,319.8,0,norm,1.24,1.117,-1.592,-1.82,-5.067,-4.985,-1.693,-1.135,-1.308,-1.443,1.533,-1.303,322.0,321.4,-5.046,-8.458,1.74,-2.017,7.957,4.515,-5.246,-7.924,8,4.493,4.342,4.415,4.925,1.96,1.216,1.883,1.454,8,4.97,4.713,-60,69.7891342684,norm,0,29,29,29,429.235,429.248,429.267351768,429.268,429.269,429.272,up,1,0.817819788765,9.18218021124,001,019,1920_1200,Intel(R) Core(TM) i5-3570 CPU @ 3.40GHz,orientation_search,LEPPC096,Intel(R) HD Graphics 2500,2018_Dec_02_1611,testMonitor,
320.1,322.6,329.7,311.1,36,-10,320.2,309.5,320.0,,8.009,8.192,8.298,7.519,8.312,7.819,8.224,4.678,-5.016,-7.646,1.716,-1.461,8.464,4.431,-5.001,-7.608,336.5,338.0,-8.37,315.2,334.0,332.9,326.2,324.4,36,321.8,4,5,prime,10,0,110,norm,36,-4.838,up,norm,325.544715539,330.7,305.9,344.8,305.7,5,316.3,327.3,320.0,10,5,7.529,5.269,1.451,-1.371,-5.152,-8.203,329.7,5,435.5,-7.768,-8.276,-10,-8.374,-8.121,-5.286,-4.581,-4.889,-4.771,4.971,7.73,29,-1.552,1.582,4.902,7.647,-8.347,-8.092,-1.588,1.66,305.5,331.4,324.2,345.5,332.5,320.8,313.7,335.2,310.2,341.3,1,norm,1.818,1.569,-1.761,-2.018,-4.869,-5.275,-1.518,-1.267,-1.521,-1.845,2.035,-1.465,329.9,312.1,-4.681,-8.459,2.072,-1.365,7.809,4.717,-4.559,-8.09,8,4.985,4.721,5.095,5.265,1.596,1.355,1.332,1.987,8,4.706,4.853,-60,69.7891342684,norm,0,30,30,30,430.123,430.133,430.149838661,430.15,430.152,430.155,up,1,0.616437611874,9.38356238813,001,019,1920_1200,Intel(R) Core(TM) i5-3570 CPU @ 3.40GHz,orientation_search,LEPPC096,Intel(R) HD Graphics 2500,2018_Dec_02_1611,testMonitor,
305.5,336.9,323.9,334.7,36,-10,315.4,325.7,315.0,311.1,7.532,8.365,7.729,7.748,8.418,7.733,7.698,5.024,-4.981,-7.91,1.704,-1.794,7.762,5.252,-4.539,-8.455,323.7,308.0,-8.184,324.0,335.9,332.2,322.9,309.1,36,,4,5,prime,10,0,77,norm,36,-4.964,up,norm,325.544715539,315.7,333.5,309.8,321.1,3,324.3,328.3,339.9,10,5,8.304,5.227,1.482,-1.873,-4.386,-8.322,322.8,5,402.5,-7.677,-7.986,-10,-7.648,-8.171,-4.662,-4.804,-4.702,-4.805,4.756,8.039,27,-1.5,1.513,5.009,7.835,-8.378,-8.27,-1.984,1.937,308.8,331.2,325.9,326.3,336.0,331.3,340.8,339.1,320.2,345.5,2,norm,2.087,1.248,-1.144,-1.413,-4.379,-5.297,-1.593,-1.489,-1.195,-2.02,1.404,-1.327,323.2,329.1,-4.398,-7.731,1.467,-2.025,7.962,4.649,-4.501,-8.043,8,4.942,5.252,4.398,4.572,1.324,1.656,1.942,1.793,8,5.296,4.741,-60,69.7891342684,norm,0,31,31,31,430.79,430.801,430.806282732,430.806,430.808,430.811,up,1,0.826214272131,9.17378572787,001,019,1920_1200,Intel(R) Core(TM) i5-3570 CPU @ 3.40GHz,orientation_search,LEPPC096,Intel(R) HD Graphics 2500,2018_Dec_02_1611,testMonitor,
317.9,329.4,327.8,333.3,36,-10,305.5,331.2,341.6,322.5,7.979,8.495,7.615,8.15,8.23,7.525,8.374,5.111,-5.143,-7.705,1.977,-1.584,7.862,4.552,-4.586,-8.054,313.7,320.4,-7.691,330.7,331.0,326.8,311.3,323.7,36,345.5,2,5,prime,10,0,102,norm,36,-5.195,up,norm,325.544715539,313.1,329.2,,315.0,3,332.1,338.0,334.5,10,5,7.534,4.715,1.364,-1.189,-4.458,-7.556,334.5,5,427.5,-7.844,-8.086,-10,-7.847,-7.939,-5.17,-4.762,-4.94,-5.118,4.895,8.171,15,-1.763,1.601,5.063,7.838,-8.392,-8.151,-1.382,1.103,340.7,322.0,335.8,326.6,320.0,320.6,318.7,323.4,328.7,325.4,3,norm,1.284,1.125,-1.769,-1.723,-4.879,-5.157,-1.61,-1.231,-1.785,-1.83,1.889,-1.44,329.9,331.3,-4.404,-8.166,1.937,-1.613,7.751,4.826,-5.039,-8.305,8,4.498,5.132,4.477,4.615,1.806,1.962,1.539,1.153,8,5.216,4.532,-60,69.7891342684,norm,0,32,32,32,431.671,431.683,431.709808355,431.71,431.712,431.714,up,1,0.738170902143,9.26182909786,001,019,1920_1200,Intel(R) Core(TM) i5-3570 CPU @ 3.40GHz,orientation_search,LEPPC096,Intel(R) HD Graphics 2500,2018_Dec_02_1611,testMonitor,
,319.7,335.8,341.2,36,-10,344.4,320.0,313.8,330.5,8.409,8.098,7.856,7.957,8.435,8.436,7.673,4.791,-5.138,-7.923,1.514,-1.329,7.851,4.901,-4.692,-8.379,326.1,317.1,-8.38,305.5,328.5,311.4,345.5,310.0,36,333.0,3,5,prime,10,0,113,norm,36,-4.408,up,norm,325.544715539,322.7,329.7,323.7,318.6,4,330.4,333.1,313.4,10,5,8.244,4.808,2.014,-1.483,-4.794,-8.011,319.3,5,438.5,-8.275,-7.97,-10,-8.477,-8.075,-4.797,-5.041,-4.411,-4.78,4.6,8.134,22,-1.217,1.184,5.087,7.517,-8.492,-8.414,-1.627,1.158,321.7,323.5,321.5,340.6,321.8,325.6,321.8,312.2,319.6,314.7,4,norm,1.782,1.58,-1.682,-1.668,-4.616,-4.845,-1.312,-1.856,-1.535,-1.635,1.846,-1.366,317.8,331.2,-5.017,-8.466,1.518,-1.981,7.869,5.019,-4.509,-8.225,8,5.243,4.997,4.574,5.179,2.008,1.399,1.695,1.889,8,5.285,4.886,-60,69.7891342684,norm,0,33,33,33,432.486,432.495,432.505326165,432.506,432.507,432.51,up,1,0.770686922899,9.2293130771,001,019,1920_1200,Intel(R) Core(TM) i5-3570 CPU @ 3.40GHz,orientation_search,LEPPC096,Intel(R) HD Graphics 2500,2018_Dec_02_1611,testMonitor,
415.7,426.4,417.6,419.7,36,80,422.0,406.4,414.3,422.2,7.728,8.089,8.177,7.969,8.311,7.627,7.777,5.183,-5.287,-8.49,1.461,-1.453,8.028,4.491,-5.086,-8.175,,419.1,-8.151,425.3,412.1,416.9,410.0,417.6,36,417.0,5,5,probe,5,0,104,norm,36,-5.07,up,norm,416.396410928,410.2,408.2,411.0,421.6,5,411.1,414.5,416.1,10,5,7.894,4.559,1.884,-1.771,-5.112,-7.929,414.5,1,312.4,-7.729,-7.848,-10,-7.859,-7.618,-5.117,-4.626,-4.688,-5.003,4.816,7.724,35,-1.369,1.883,4.695,7.544,-7.921,-8.441,-1.226,2.095,416.6,423.0,416.9,416.9,408.5,409.8,412.9,412.0,422.9,414.4,0,norm,1.47,1.949,-1.894,-1.193,-5.264,-4.832,-1.444,-1.291,-1.255,-1.949,1.113,-1.311,421.6,414.8,-4.615,-8.082,1.935,-2.079,8.235,4.8,-4.305,-8.434,9,4.307,4.699,5.232,4.402,1.854,1.113,2.017,1.825,9,4.447,4.453,-10,325.544715539,norm,0,34,34,34,433.317,433.327,433.333364826,433.334,433.335,433.338,up,1,0.950061426729,9.04993857327,001,019,1920_1200,Intel(R) Core(TM) i5-3570 CPU @ 3.40GHz,orientation_search,LEPPC096,Intel(R) HD Graphics 2500,2018_Dec_02_1611,testMonitor,
267.4,,269.9,281.4,36,40,273.7,265.8,252.9,260.3,7.504,8.265,7.823,7.726,8.196,7.586,8.241,5.258,-4.759,-7.841,1.477,-1.337,8.409,5.087,-4.627,-7.744,269.2,269.7,-8.109,261.4,258.0,263.5,270.6,269.9,36,255.8,3,5,prime,10,0,65,norm,36,-4.332,up,norm,262.439955992,252.7,266.4,251.7,265.4,5,263.4,249.8,282.4,10,6,8.271,5.26,1.918,-1.882,-4.904,-7.866,249.3,6,327.4,-7.75,-7.54,40,-8.448,-8.182,-4.486,-4.711,-4.634,-4.952,5.139,8.022,23,-1.624,1.81,4.495,8.121,-8.382,-7.659,-1.832,1.599,279.9,242.4,268.7,263.0,255.6,267.2,272.4,257.5,259.2,270.4,0,norm,1.378,1.637,-1.496,-1.779,-5.146,-4.556,-2.032,-1.505,-1.774,-1.383,2.014,-1.885,258.0,252.0,-4.445,-7.712,2.089,-1.843,7.981,4.78,-4.836,-7.559,10,5.097,5.059,4.818,4.723,2.1,1.296,1.856,1.248,10,4.492,5.079,80,325.544715539,norm,0,35,35,35,434.331,434.341,434.347449206,434.348,434.349,434.352,up,1,1.19049983549,8.80950016451,001,019,1920_1200,Intel(R) Core(TM) i5-3570 CPU @ 3.40GHz,orientation_search,LEPPC096,Intel(R) HD Graphics 2500,2018_Dec_02_1611,testMonitor,
245.3,247.2,250.8,247.2,36,40,260.8,253.8,269.3,255.8,8.459,8.068,7.694,8.454,7.602,7.825,8.224,4.744,-4.492,-7.99,1.966,-1.915,7.957,4.336,-4.931,-7.506,,266.1,-8.402,265.2,256.4,247.8,262.8,248.1,36,253.6,5,5,prime,10,0,95,norm,36,-5.054,up,norm,262.439955992,265.1,246.4,250.6,275.1,5,267.5,282.4,268.9,10,6,8.197,4.647,1.7,-1.735,-5.22,-7.661,266.1,6,357.4,-7.849,-7.547,40,-8.2,-8.393,-4.936,-4.813,-4.839,-4.544,5.231,8.398,35,-1.299,1.929,5.123,7.567,-7.601,-7.706,-1.716,1.754,265.3,275.3,276.5,260.5,267.1,274.3,250.7,262.8,259.3,269.2,1,norm,1.106,1.514,-1.171,-2.076,-4.62,-4.639,-1.471,-2.021,-1.903,-1.402,1.316,-1.391,267.9,242.4,-4.402,-7.789,1.719,-1.572,8.09,5.197,-4.411,-8.101,10,4.308,5.28,4.609,4.802,1.862,1.483,1.493,1.709,10,4.37,4.644,80,325.544715539,norm,0,36,36,36,435.576,435.585,435.593978973,435.594,435.596,435.599,up,1,0.756524062073,9.24347593793,001,019,1920_1200,Intel(R) Core(TM) i5-3570 CPU @ 3.40GHz,orientation_search,LEPPC096,Intel(R) HD Graphics 2500,2018_Dec_02_1611,testMonitor,
248.5,268.8,263.3,255.9,36,40,265.7,272.9,267.3,273.7,8.132,7.672,7.697,8.05,7.752,7.741,8.02,4.716,-5.002,-7.779,1.163,-1.539,7.586,4.56,-4.708,-8.049,269.0,265.4,-7.727,282.4,278.2,264.4,273.9,264.8,36,265.2,2,5,prime,10,0,68,norm,36,-4.596,down,norm,262.439955992,258.4,282.3,256.0,,2,269.7,260.3,282.4,10,6,8.086,4.371,1.371,-1.614,-4.659,-7.838,259.7,6,330.4,-7.931,-7.702,40,-8.433,-8.46,-4.37,-5.237,-4.978,-4.583,4.37,8.386,14,-1.37,1.746,4.329,7.747,-7.773,-7.649,-1.813,1.897,270.9,262.0,254.3,245.8,255.4,264.1,274.6,260.6,263.7,252.7,2,norm,1.411,1.85,-1.708,-1.906,-4.995,-5.087,-1.792,-1.96,-1.991,-1.41,1.111,-1.254,249.5,270.8,-5.086,-7.822,1.683,-1.517,7.791,4.333,-4.357,-8.247,10,5.074,4.661,4.905,4.928,1.463,1.111,1.884,1.23,10,4.962,4.875,80,325.544715539,norm,0,37,37,37,436.371,436.383,436.387741821,436.388,436.39,436.392,down,1,0.929962359149,9.07003764085,001,019,1920_1200,Intel(R) Core(TM) i5-3570 CPU @ 3.40GHz,orientation_search,LEPPC096,Intel(R) HD Graphics 2500,2018_Dec_02_1611,testMonitor,
,254.9,248.1,258.2,36,40,252.9,274.6,261.2,264.1,7.633,7.895,7.514,8.496,8.329,8.02,7.733,5.045,-4.747,-8.235,1.204,-1.132,7.606,4.921,-5.083,-8.224,257.3,256.6,-7.928,266.6,258.0,264.6,257.7,250.4,36,261.2,3,5,prime,10,0,106,norm,36,-4.419,up,norm,262.439955992,271.9,282.4,255.3,253.8,4,271.9,265.0,269.0,10,6,8.261,5.169,1.169,-1.696,-4.323,-7.684,259.5,6,368.4,-8.042,-8.433,40,-7.959,-7.84,-4.712,-5.024,-4.633,-4.667,4.834,8.137,22,-2.051,1.514,4.803,7.698,-8.298,-8.25,-1.725,1.992,271.0,265.6,273.7,253.9,274.5,278.2,277.5,259.1,276.1,242.4,3,norm,1.739,1.424,-2.017,-2.002,-5.102,-4.543,-1.28,-1.214,-1.45,-1.181,1.804,-1.288,257.2,281.1,-5.103,-7.713,2.034,-1.327,7.773,4.95,-4.555,-7.894,10,5.168,5.031,4.672,4.651,2.022,1.722,2.073,1.764,10,4.716,4.927,80,325.544715539,norm,0,38,38,38,437.358,437.369,437.403653004,437.404,437.408,437.414,up,1,0.714879757554,9.28512024245,001,019,1920_1200,Intel(R) Core(TM) i5-3570 CPU @ 3.40GHz,orientation_search,LEPPC096,Intel(R) HD Graphics 2500,2018_Dec_02_1611,testMonitor,
258.0,263.2,261.3,266.5,36,40,272.6,258.3,257.6,276.0,8.366,8.277,7.782,8.149,7.76,8.437,7.852,4.454,-4.495,-7.966,1.701,-2.044,7.793,4.373,-4.516,-7.932,269.5,269.4,-7.644,246.6,267.0,270.6,276.7,267.0,36,255.8,1,5,prime,10,0,115,norm,36,-4.528,down,norm,262.439955992,262.2,269.6,258.6,250.5,2,244.5,261.2,254.9,10,6,7.879,4.977,1.762,-1.165,-4.846,-8.233,261.0,6,377.4,-8.06,-7.957,40,-8.368,-7.587,-5.286,-4.456,-4.408,-5.163,4.974,7.656,8,-1.823,1.679,4.311,8.112,-8.39,-7.794,-1.277,1.487,272.7,,261.7,282.4,248.3,275.2,278.7,244.6,267.3,260.1,4,norm,1.828,1.651,-1.917,-1.802,-4.752,-5.157,-1.523,-1.103,-1.32,-1.626,1.146,-1.248,273.3,271.4,-4.538,-7.981,1.795,-1.586,8.497,4.782,-4.621,-8.046,10,4.387,5.216,5.12,4.961,1.69,1.38,1.519,1.409,10,4.966,4.688,80,325.544715539,norm,0,39,39,39,438.162,438.172,438.183576877,438.184,438.186,438.188,down,1,1.91899066978,8.08100933022,001,019,1920_1200,Intel(R) Core(TM) i5-3570 CPU @ 3.40GHz,orientation_search,LEPPC096,Intel(R) HD Graphics 2500,2018_Dec_02_1611,testMonitor,
268.7,263.7,268.8,262.7,36,40,279.6,248.6,257.9,254.6,7.554,7.831,7.504,8.235,7.748,8.024,7.857,5.147,-5.17,-8.413,1.762,-1.241,7.999,5.108,-4.371,-7.707,266.9,270.3,-7.718,267.9,255.8,263.1,242.4,273.4,36,261.3,1,5,prime,10,0,100,norm,36,-4.359,up,norm,262.439955992,260.1,257.9,266.8,249.9,3,268.1,258.8,269.3,10,6,8.364,4.764,1.887,-1.466,-5.12,-8.445,258.2,6,362.4,-8.495,-7.742,40,-7.676,-8.239,-4.938,-4.6,-4.755,-4.898,5.256,7.999,9,-1.821,1.861,5.103,7.517,-8.388,-7.647,-1.777,1.9,,268.3,275.1,264.3,257.1,275.3,249.5,256.0,256.6,282.4,5,norm,1.948,1.882,-1.262,-1.587,-5.043,-4.818,-1.661,-1.15,-1.22,-1.355,1.534,-1.634,265.4,254.9,-4.913,-8.216,1.519,-1.275,8.116,4.414,-5.181,-8.13,10,4.535,4.45,5.027,5.169,1.943,1.65,1.157,1.268,10,5.259,5.101,80,325.544715539,norm,0,40,40,40,440.15,440.159,440.165938501,440.166,440.168,440.171,up,1,2.85156977745,7.14843022255,001,019,1920_1200,Intel(R) Core(TM) i5-3570 CPU @ 3.40GHz,orientation_search,LEPPC096,Intel(R) HD Graphics 2500,2018_Dec_02_1611,testMonitor,
383.0,379.9,385.1,389.7,36,10,393.6,382.3,385.7,380.2,8.462,7.572,7.602,7.812,7.88,7.875,8.482,4.362,-4.572,-8.139,1.488,-1.348,7.725,4.814,-4.594,-8.412,393.3,383.7,-8.045,380.3,376.5,389.6,383.2,389.0,36,394.4,2,5,probe,5,0,76,norm,36,-4.411,down,norm,384.362440801,388.5,374.4,381.4,391.2,0,391.2,394.2,,10,6,8.401,4.502,1.614,-1.684,-4.44,-8.249,377.4,1,308.4,-8.423,-7.84,40,-8.358,-8.182,-4.847,-4.634,-4.454,-5.201,5.162,8.222,12,-1.17,1.286,4.524,8.439,-7.958,-8.465,-1.926,1.718,385.2,389.0,377.1,388.9,379.3,393.1,386.6,381.0,387.3,382.8,0,norm,1.506,1.765,-1.651,-1.916,-4.688,-5.196,-1.58,-2.024,-1.74,-1.144,1.499,-2.088,390.4,380.7,-5.279,-8.253,1.618,-2.098,8.2,4.673,-4.925,-8.345,11,5.053,4.396,4.75,5.201,1.369,1.808,1.313,1.367,11,4.914,4.894,40,262.439955992,norm,0,41,41,41,443.055,443.065,443.081771806,443.082,443.084,443.086,down,1,0.844806196403,9.1551938036,001,019,1920_1200,Intel(R) Core(TM) i5-3570 CPU @ 3.40GHz,orientation_search,LEPPC096,Intel(R) HD Graphics 2500,2018_Dec_02_1611,testMonitor,
98.0,98.7,99.7,91.1,36,20,81.7,,115.5,104.1,7.682,8.023,8.291,7.886,8.182,8.039,7.87,4.557,-4.643,-7.945,1.623,-1.833,7.549,4.77,-5.278,-8.25,91.1,97.7,-7.798,117.4,113.7,114.8,98.3,110.2,36,92.1,4,5,prime,10,0,97,norm,36,-4.555,down,norm,101.735870657,114.4,101.3,121.7,100.3,1,106.1,107.9,115.2,10,6,8.128,4.732,1.828,-1.206,-4.651,-8.192,108.0,6,198.7,-7.795,-7.677,20,-8.456,-7.64,-4.954,-5.075,-4.72,-4.621,4.702,7.975,25,-1.904,1.268,5.27,7.683,-7.583,-7.912,-2.0,1.36,101.2,98.5,87.6,110.4,109.2,110.6,113.6,97.3,104.5,93.8,0,norm,1.486,1.585,-1.506,-1.801,-4.841,-5.265,-1.497,-1.887,-1.534,-2.073,1.277,-1.94,111.0,94.8,-5.165,-7.61,1.676,-1.757,8.446,4.989,-5.133,-7.986,12,5.151,5.139,4.9,4.871,1.15,1.105,2.081,2.0,12,4.482,4.687,10,262.439955992,norm,0,42,42,42,443.972,443.981,443.987934704,443.988,443.99,443.992,down,1,1.06752654027,8.93247345973,001,019,1920_1200,Intel(R) Core(TM) i5-3570 CPU @ 3.40GHz,orientation_search,LEPPC096,Intel(R) HD Graphics 2500,2018_Dec_02_1611,testMonitor,
112.8,89.6,111.0,105.6,36,20,93.0,94.1,115.1,99.7,8.071,8.238,8.086,8.179,7.502,7.963,8.086,4.543,-4.405,-7.524,2.05,-1.751,7.931,4.855,-4.745,-8.153,81.7,115.7,-8.359,84.3,114.2,94.3,101.9,96.8,36,99.3,0,5,prime,10,0,70,norm,36,-4.673,up,norm,101.735870657,94.2,93.7,121.7,114.4,3,105.1,116.4,103.9,10,6,7.835,4.464,1.281,-1.716,-4.393,-8.118,87.2,6,171.7,-7.667,-7.964,20,-8.038,-7.766,-5.171,-5.187,-4.713,-5.154,4.315,7.522,3,-1.609,1.484,4.741,7.81,-7.562,-8.01,-1.857,1.63,90.1,103.0,,109.2,94.7,90.6,111.7,112.7,81.9,103.5,1,norm,1.967,2.007,-1.929,-1.87,-4.586,-4.436,-1.857,-1.863,-2.097,-1.832,1.885,-1.635,102.8,92.3,-5.2,-8.044,2.038,-2.075,8.075,5.147,-4.655,-8.179,12,4.88,4.721,4.791,4.892,1.591,1.206,1.824,2.064,12,4.568,4.678,10,262.439955992,norm,0,43,43,43,445.091,445.101,445.110178424,445.11,445.112,445.115,up,1,0.879419177818,9.12058082218,001,019,1920_1200,Intel(R) Core(TM) i5-3570 CPU @ 3.40GHz,orientation_search,LEPPC096,Intel(R) HD Graphics 2500,2018_Dec_02_1611,testMonitor,
94.1,86.1,100.4,97.1,36,20,90.2,105.0,104.2,109.5,7.852,7.794,8.083,8.282,8.26,8.45,7.838,5.26,-4.41,-7.621,1.131,-1.537,8.381,5.244,-5.116,-7.82,93.3,,-8.487,96.0,102.6,121.7,113.8,90.1,36,100.8,5,5,prime,10,0,85,norm,36,-5.074,up,norm,101.735870657,98.4,95.5,110.5,89.2,4,108.7,110.3,102.5,10,6,7.681,4.919,1.937,-1.97,-4.988,-7.942,104.5,6,186.7,-7.802,-7.662,20,-8.071,-8.376,-5.087,-4.911,-4.37,-4.381,4.933,7.953,34,-1.403,1.212,4.968,7.841,-8.417,-8.092,-1.49,1.133,81.7,98.1,98.5,105.6,94.8,97.6,121.0,108.7,95.2,103.7,2,norm,2.089,1.624,-1.739,-1.478,-4.867,-4.726,-1.386,-1.569,-1.124,-1.83,1.732,-1.433,99.6,96.0,-4.387,-8.304,1.543,-1.239,8.468,5.235,-4.459,-8.193,12,5.151,5.288,5.165,4.833,1.634,1.247,1.25,1.29,12,4.882,4.976,10,262.439955992,norm,0,44,44,44,446.031,446.04,446.046969262,446.047,446.049,446.051,up,1,2.87018403871,7.12981596129,001,019,1920_1200,Intel(R) Core(TM) i5-3570 CPU @ 3.40GHz,orientation_search,LEPPC096,Intel(R) HD Graphics 2500,2018_Dec_02_1611,testMonitor,
87.5,114.2,102.6,111.6,36,20,92.0,106.0,96.0,121.7,7.6,8.358,8.322,8.064,8.462,7.656,8.234,4.459,-4.578,-7.844,1.594,-1.178,8.341,4.758,-4.647,-7.881,108.8,,-8.293,107.4,93.1,98.1,86.9,101.2,36,99.7,5,5,prime,10,0,76,norm,36,-5.038,up,norm,101.735870657,97.7,104.5,95.5,89.8,4,94.3,99.0,91.7,10,6,7.925,4.854,1.664,-1.583,-5.176,-8.163,98.6,6,177.7,-8.419,-7.59,20,-7.576,-7.645,-4.625,-4.343,-4.712,-4.313,5.05,7.63,34,-1.732,1.119,4.526,7.973,-8.121,-7.732,-1.943,1.28,114.0,119.9,98.0,108.2,112.3,81.7,99.9,91.2,91.4,103.5,3,norm,1.237,1.978,-2.083,-1.952,-4.44,-5.051,-1.939,-1.301,-1.423,-1.311,1.463,-1.486,107.5,100.2,-4.464,-8.402,1.884,-1.601,7.7,4.379,-4.719,-8.018,12,4.423,4.825,4.314,4.787,1.791,1.106,1.375,1.828,12,4.767,5.04,10,262.439955992,norm,0,45,45,45,448.964,448.985,448.996740308,448.997,448.999,449.002,up,1,1.86823377776,8.13176622224,001,019,1920_1200,Intel(R) Core(TM) i5-3570 CPU @ 3.40GHz,orientation_search,LEPPC096,Intel(R) HD Graphics 2500,2018_Dec_02_1611,testMonitor,
103.3,113.3,121.7,108.3,36,20,100.5,104.4,99.3,85.3,7.755,8.171,8.237,8.45,8.414,8.071,7.527,5.097,-4.676,-8.136,1.431,-1.941,7.985,4.903,-4.78,-8.358,97.7,94.6,-7.772,104.5,102.9,107.1,,98.9,36,100.2,5,5,prime,10,0,75,norm,36,-4.66,down,norm,101.735870657,90.3,92.2,94.1,88.6,2,114.2,83.0,110.4,10,6,7.811,4.738,1.969,-1.131,-4.694,-8.472,94.7,6,176.7,-8.446,-8.482,20,-8.317,-7.695,-4.883,-4.381,-4.732,-5.114,4.754,8.154,32,-1.369,1.351,5.262,8.482,-7.689,-7.976,-1.136,1.508,99.4,121.1,91.6,81.7,90.5,102.9,99.7,98.6,104.5,120.3,4,norm,1.835,1.683,-1.496,-1.277,-4.346,-4.828,-1.87,-1.413,-1.636,-1.179,1.597,-1.385,106.6,104.7,-4.404,-8.093,1.532,-2.071,7.95,4.846,-5.049,-7.507,12,5.023,4.565,4.475,5.193,1.75,1.899,1.564,1.366,12,4.558,4.347,10,262.439955992,norm,0,46,46,46,450.904,450.916,450.936478422,450.937,450.938,450.941,down,1,1.93791734709,8.06208265291,001,019,1920_1200,Intel(R) Core(TM) i5-3570 CPU @ 3.40GHz,orientation_search,LEPPC096,Intel(R) HD Graphics 2500,2018_Dec_02_1611,testMonitor,
103.2,112.2,104.5,111.3,36,20,104.4,93.2,121.7,117.0,8.235,7.723,7.908,8.384,8.091,7.913,7.587,4.909,-4.622,-8.307,1.358,-1.949,7.907,4.35,-4.399,-7.621,94.4,100.0,-7.725,96.4,110.2,106.3,112.2,113.5,36,95.1,2,5,prime,10,0,109,norm,36,-4.858,up,norm,101.735870657,96.6,,101.4,99.7,4,96.1,104.2,89.5,10,6,8.056,4.7,1.774,-1.144,-4.461,-8.262,92.7,6,210.7,-7.74,-8.291,20,-7.823,-8.379,-5.104,-4.62,-4.468,-4.559,4.943,8.166,16,-1.479,1.48,4.886,7.795,-7.863,-8.428,-1.492,1.626,102.7,96.6,106.2,97.1,104.7,97.9,92.3,98.5,103.2,109.1,5,norm,1.783,1.37,-1.474,-2.015,-4.644,-5.061,-1.503,-1.224,-1.492,-1.731,1.796,-1.432,97.6,81.7,-5.287,-7.684,1.139,-1.559,7.825,5.12,-4.471,-7.646,12,4.591,4.61,4.799,4.577,1.88,1.552,1.908,1.5,12,4.409,5.232,10,262.439955992,norm,0,47,47,47,452.926,452.948,452.958992602,452.959,452.961,452.963,up,1,0.827816498586,9.17218350141,001,019,1920_1200,Intel(R) Core(TM) i5-3570 CPU @ 3.40GHz,orientation_search,LEPPC096,Intel(R) HD Graphics 2500,2018_Dec_02_1611,testMonitor,
210.1,218.0,209.5,206.6,36,-20,216.7,216.8,217.2,223.0,8.414,7.567,7.724,7.915,8.127,8.471,8.171,5.069,-4.856,-7.878,1.945,-1.236,8.36,5.063,-5.064,-8.256,208.0,212.9,-8.019,214.4,210.7,216.3,220.7,,36,207.8,4,5,probe,5,0,88,norm,36,-5.289,down,norm,213.104168768,209.0,213.6,216.5,223.1,2,209.2,207.2,211.9,10,6,8.119,4.32,1.596,-2.085,-5.097,-7.61,214.2,2,125.1,-8.02,-7.687,20,-8.227,-8.207,-4.847,-4.919,-4.769,-4.482,5.238,7.855,26,-1.612,1.903,4.379,7.725,-7.646,-7.779,-1.978,1.221,213.0,203.1,210.3,216.4,211.3,216.9,214.2,213.2,214.5,211.2,0,norm,1.953,1.338,-1.972,-1.851,-4.558,-4.507,-2.032,-2.0,-1.17,-1.878,1.117,-1.176,213.0,213.6,-5.01,-8.075,1.271,-1.359,7.94,5.144,-4.513,-8.477,13,4.595,4.408,4.999,4.94,2.007,1.746,1.235,2.085,13,5.078,4.781,20,101.735870657,norm,0,48,48,48,453.831,453.843,453.863812562,453.864,453.866,453.87,down,1,0.840258505414,9.15974149459,001,019,1920_1200,Intel(R) Core(TM) i5-3570 CPU @ 3.40GHz,orientation_search,LEPPC096,Intel(R) HD Graphics 2500,2018_Dec_02_1611,testMonitor,
230.7,226.8,228.5,225.2,36,-20,226.8,,226.1,233.9,8.46,8.347,8.321,8.293,8.404,8.138,8.137,4.855,-4.9,-7.886,1.302,-2.071,7.545,4.38,-5.234,-8.443,224.3,227.1,-7.715,224.6,220.3,230.4,231.5,229.1,36,226.0,4,5,probe,5,0,101,norm,36,-4.418,down,norm,226.104168768,225.8,224.6,219.8,226.7,1,219.0,224.0,221.5,10,6,7.79,4.733,1.732,-1.616,-5.272,-7.841,223.0,2,125.1,-8.293,-8.231,20,-8.311,-7.647,-4.555,-4.732,-4.897,-5.142,4.882,8.067,25,-1.114,1.705,5.093,8.039,-8.086,-8.354,-1.434,1.744,226.5,236.1,224.7,226.3,222.0,232.1,230.3,222.1,230.0,222.3,1,norm,1.666,1.733,-1.976,-1.515,-4.533,-4.459,-1.117,-1.355,-1.127,-1.77,1.131,-1.773,222.9,216.1,-4.816,-8.233,2.088,-1.397,7.684,4.665,-5.126,-7.923,13,5.036,4.762,4.932,4.768,1.807,1.791,1.481,1.344,13,4.823,4.34,20,101.735870657,norm,0,49,49,49,454.752,454.772,454.78413832,454.784,454.786,454.789,down,1,0.71793177558,9.28206822442,001,019,1920_1200,Intel(R) Core(TM) i5-3570 CPU @ 3.40GHz,orientation_search,LEPPC096,Intel(R) HD Graphics 2500,2018_Dec_02_1611,testMonitor,
103.2,110.7,100.4,113.2,36,-60,,120.2,86.7,120.7,7.69,8.293,8.247,8.006,8.45,8.487,8.347,4.979,-4.698,-8.29,1.544,-1.77,8.109,4.512,-4.79,-7.837,103.3,126.1,-7.622,104.7,114.5,115.5,91.5,97.3,36,112.5,4,5,prime,10,0,64,norm,36,-4.912,down,norm,106.700084097,103.4,109.0,100.7,105.0,0,102.3,102.1,106.6,10,5,7.712,4.309,1.198,-1.491,-5.165,-8.016,107.0,5,170.7,-7.784,-8.006,-60,-8.202,-8.388,-5.244,-5.086,-4.972,-4.937,5.126,8.278,24,-2.023,2.058,5.136,8.377,-8.071,-7.618,-1.39,1.21,106.0,105.6,92.5,111.3,104.7,103.4,121.9,114.0,103.8,88.2,0,norm,1.468,2.015,-1.254,-2.075,-4.928,-4.932,-1.805,-1.565,-1.57,-1.352,2.064,-1.316,126.7,87.6,-4.585,-7.945,1.585,-1.492,7.903,4.38,-5.135,-8.24,14,4.327,5.23,5.171,4.882,1.444,1.813,1.704,1.511,14,4.56,4.882,-20,101.735870657,norm,0,50,50,50,455.546,455.556,455.562692091,455.563,455.565,455.567,up,0,1.95501661691,-10,001,019,1920_1200,Intel(R) Core(TM) i5-3570 CPU @ 3.40GHz,orientation_search,LEPPC096,Intel(R) HD Graphics 2500,2018_Dec_02_1611,testMonitor,
122.1,110.4,111.2,,36,-60,99.5,105.0,104.6,95.8,7.841,7.849,7.884,7.522,7.873,7.719,8.061,4.434,-4.762,-7.997,1.38,-1.429,7.819,4.848,-4.818,-8.237,117.5,120.3,-8.144,115.5,110.2,86.7,103.3,105.0,36,119.3,3,5,prime,10,0,84,norm,36,-4.914,up,norm,106.700084097,114.1,107.8,126.7,112.9,3,119.0,120.1,102.4,10,5,7.894,5.108,1.498,-1.464,-4.686,-8.381,117.8,5,190.7,-7.905,-7.853,-60,-7.812,-7.686,-4.48,-5.162,-4.382,-4.358,4.315,8.333,21,-1.577,2.042,4.681,7.808,-8.388,-8.099,-1.465,1.179,111.5,110.5,105.3,101.5,119.8,113.9,113.4,103.1,114.3,106.9,1,norm,1.351,1.388,-1.21,-1.332,-5.235,-4.903,-1.795,-1.973,-1.449,-1.528,2.071,-1.855,109.6,112.9,-5.015,-8.207,2.017,-1.796,8.442,4.953,-4.431,-8.354,14,5.115,4.537,5.025,4.652,1.448,1.882,1.43,1.207,14,4.982,5.179,-20,101.735870657,norm,0,51,51,51,458.593,458.602,458.619067944,458.619,458.621,458.624,up,1,0.740750221106,9.25924977889,001,019,1920_1200,Intel(R) Core(TM) i5-3570 CPU @ 3.40GHz,orientation_search,LEPPC096,Intel(R) HD Graphics 2500,2018_Dec_02_1611,testMonitor,
86.7,105.3,120.0,106.3,36,-60,91.9,115.0,116.5,94.8,7.818,8.333,8.061,8.085,8.4,7.632,7.54,4.508,-4.992,-7.679,1.789,-1.762,7.849,4.759,-4.573,-8.486,115.0,101.1,-8.082,108.9,106.9,118.8,110.4,,36,105.1,4,5,prime,10,0,90,norm,36,-5.129,down,norm,106.700084097,107.0,101.0,101.6,105.6,2,102.0,125.9,119.6,10,5,7.556,5.017,1.339,-1.387,-4.369,-8.335,105.9,5,196.7,-7.588,-7.794,-60,-8.476,-7.887,-5.236,-5.278,-4.717,-4.913,5.22,8.429,26,-2.06,1.263,4.754,7.652,-8.101,-7.881,-1.224,1.746,104.8,104.5,103.9,99.8,110.0,90.2,97.5,117.7,126.7,105.5,2,norm,1.913,2.076,-1.542,-1.102,-5.202,-5.068,-1.381,-1.985,-1.409,-2.03,1.79,-1.946,98.1,122.5,-4.449,-7.935,1.904,-1.134,7.943,4.788,-4.473,-8.421,14,5.055,4.41,4.558,5.231,2.075,1.493,1.396,1.378,14,4.563,4.925,-20,101.735870657,norm,0,52,52,52,459.4,459.411,459.415745165,459.416,459.418,459.421,down,1,0.773816516697,9.2261834833,001,019,1920_1200,Intel(R) Core(TM) i5-3570 CPU @ 3.40GHz,orientation_search,LEPPC096,Intel(R) HD Graphics 2500,2018_Dec_02_1611,testMonitor,
93.8,86.7,108.7,118.8,36,-60,124.6,111.4,96.8,119.8,7.594,7.828,8.229,8.014,7.697,8.191,7.957,5.071,-4.844,-7.898,1.289,-1.131,7.877,5.009,-5.162,-8.492,,100.6,-7.877,112.0,97.7,118.2,109.2,98.6,36,108.5,5,5,prime,10,0,61,norm,36,-5.114,up,norm,106.700084097,122.0,105.9,105.1,97.9,5,105.3,105.1,124.5,10,5,8.107,4.58,1.342,-1.11,-4.71,-7.989,120.9,5,167.7,-7.741,-8.228,-60,-7.887,-8.266,-4.474,-4.787,-4.82,-5.103,5.293,8.491,35,-1.781,1.374,5.178,7.772,-7.582,-7.599,-1.974,1.829,100.3,109.5,113.5,92.6,91.3,126.7,97.8,109.9,89.0,93.2,3,norm,1.987,1.325,-1.179,-1.126,-4.694,-4.434,-1.622,-1.791,-1.901,-1.812,1.115,-1.689,93.9,114.2,-5.116,-7.947,1.742,-2.016,8.123,4.605,-5.059,-7.664,14,4.463,4.621,5.107,4.776,1.101,1.787,2.048,1.149,14,4.351,4.413,-20,101.735870657,norm,0,53,53,53,460.212,460.221,460.241327964,460.241,460.243,460.246,up,1,1.62464585302,8.37535414698,001,019,1920_1200,Intel(R) Core(TM) i5-3570 CPU @ 3.40GHz,orientation_search,LEPPC096,Intel(R) HD Graphics 2500,2018_Dec_02_1611,testMonitor,
122.4,100.5,123.1,94.5,36,-60,111.0,94.6,86.7,117.5,8.097,7.501,7.564,7.933,7.861,8.493,7.7,4.799,-4.99,-8.329,2.05,-1.513,8.334,4.449,-4.344,-7.833,111.1,108.1,-7.736,107.8,114.2,124.7,126.7,108.6,36,98.9,1,5,prime,10,0,111,norm,36,-4.393,up,norm,106.700084097,107.9,106.8,117.7,118.7,5,,100.8,108.9,10,5,8.304,4.974,2.05,-2.064,-4.501,-8.378,100.5,5,217.7,-7.533,-7.648,-60,-7.668,-7.995,-5.007,-4.591,-4.872,-4.388,4.412,7.88,11,-1.316,1.88,5.253,7.783,-8.004,-7.533,-1.156,1.308,102.1,90.8,98.6,113.4,113.4,110.7,109.0,101.7,108.2,121.0,4,norm,1.817,1.709,-1.968,-1.318,-4.731,-4.678,-1.716,-1.423,-1.676,-1.697,1.132,-1.946,93.6,96.5,-4.494,-7.7,1.967,-1.778,8.18,4.433,-5.122,-8.07,14,4.613,5.229,4.859,5.181,1.738,1.52,1.752,1.776,14,5.033,4.462,-20,101.735870657,norm,0,54,54,54,461.911,461.921,461.927344403,461.928,461.929,461.932,up,1,1.15224350944,8.84775649056,001,019,1920_1200,Intel(R) Core(TM) i5-3570 CPU @ 3.40GHz,orientation_search,LEPPC096,Intel(R) HD Graphics 2500,2018_Dec_02_1611,testMonitor,
153.5,150.7,159.5,157.6,36,-40,152.5,162.2,160.1,161.2,8.173,7.679,7.973,7.537,7.521,7.735,8.247,4.726,-5.006,-7.964,1.406,-1.895,8.329,5.187,-4.625,-8.468,,157.0,-8.186,165.0,163.8,159.2,157.8,170.7,36,163.1,5,5,probe,5,0,110,norm,36,-4.68,up,norm,160.687664673,158.7,158.8,167.7,154.9,5,169.9,157.0,158.6,10,5,7.998,4.894,2.095,-1.825,-4.507,-8.068,167.7,1,50.7,-8.196,-7.76,-60,-7.907,-7.965,-4.674,-4.892,-4.833,-5.243,4.758,8.325,35,-1.749,1.418,4.898,8.448,-7.556,-8.319,-2.026,1.71,163.3,163.9,156.0,158.6,152.2,152.9,170.1,161.0,167.4,156.8,0,norm,1.193,2.072,-1.862,-1.41,-4.667,-4.728,-1.756,-1.509,-1.25,-1.76,1.521,-1.754,160.9,163.2,-4.649,-8.481,1.818,-1.637,7.729,5.126,-4.923,-7.508,15,4.829,4.776,5.061,4.428,2.016,1.779,1.963,1.499,15,5.215,5.062,-60,106.700084097,norm,0,55,55,55,463.118,463.127,463.133979697,463.134,463.136,463.138,up,1,0.816204280854,9.18379571915,001,019,1920_1200,Intel(R) Core(TM) i5-3570 CPU @ 3.40GHz,orientation_search,LEPPC096,Intel(R) HD Graphics 2500,2018_Dec_02_1611,testMonitor,
69.4,89.2,75.0,86.3,36,-30,75.6,93.5,88.8,80.2,7.752,7.993,7.734,7.98,7.811,8.188,8.154,4.315,-4.974,-7.789,1.432,-1.457,8.269,4.399,-4.603,-8.047,71.3,85.7,-8.458,78.2,77.5,72.9,70.8,62.2,36,85.6,0,5,prime,10,0,66,norm,36,-4.765,down,norm,82.1714867646,75.9,82.0,76.3,83.6,0,100.7,90.5,87.8,10,5,7.519,5.286,1.248,-1.349,-4.587,-8.255,77.5,5,148.2,-8.07,-7.508,-30,-7.826,-7.7,-5.138,-4.911,-4.687,-4.937,4.888,7.508,0,-1.781,1.294,5.145,8.081,-7.965,-7.509,-1.5,1.387,65.3,96.6,75.2,69.8,85.5,,80.3,97.2,89.4,86.0,0,norm,1.424,1.473,-1.481,-1.176,-4.785,-4.911,-1.579,-1.109,-1.325,-2.081,1.986,-1.776,77.8,76.6,-5.053,-8.463,1.679,-1.436,7.711,4.407,-5.162,-7.918,16,4.718,4.9,4.723,5.221,1.239,1.559,1.269,1.701,16,4.873,4.341,-40,106.700084097,norm,0,56,56,56,463.986,463.996,464.016483493,464.017,464.019,464.022,up,0,0.874872090531,-10,001,019,1920_1200,Intel(R) Core(TM) i5-3570 CPU @ 3.40GHz,orientation_search,LEPPC096,Intel(R) HD Graphics 2500,2018_Dec_02_1611,testMonitor,
79.7,79.0,,87.7,36,-30,77.0,90.4,81.9,81.1,8.161,8.308,7.911,7.556,8.086,7.665,8.326,4.709,-4.68,-7.514,1.237,-1.415,7.573,4.985,-5.3,-8.331,72.2,91.1,-7.882,81.9,99.0,85.0,67.9,69.0,36,85.0,3,5,prime,10,0,61,norm,36,-4.789,down,norm,82.1714867646,79.3,102.2,75.4,76.8,2,62.2,81.0,76.7,10,5,7.99,4.734,1.399,-1.697,-4.457,-7.638,87.5,5,143.2,-8.147,-8.331,-30,-7.605,-7.606,-4.746,-4.995,-4.541,-5.251,5.249,8.096,20,-1.736,1.416,5.166,8.444,-8.038,-8.167,-1.313,1.999,90.4,89.7,79.2,76.3,83.3,69.7,66.1,71.3,77.3,71.3,1,norm,1.214,1.183,-1.896,-1.939,-4.919,-5.075,-1.899,-1.916,-1.247,-2.041,1.204,-1.199,95.8,86.7,-5.047,-8.186,1.99,-2.094,8.174,4.451,-4.732,-8.355,16,4.532,4.324,4.987,4.85,1.737,1.158,1.909,1.606,16,4.443,4.662,-40,106.700084097,norm,0,57,57,57,465.971,465.981,465.997591529,465.998,466.0,466.002,down,1,1.51547319712,8.48452680288,001,019,1920_1200,Intel(R) Core(TM) i5-3570 CPU @ 3.40GHz,orientation_search,LEPPC096,Intel(R) HD Graphics 2500,2018_Dec_02_1611,testMonitor,
90.2,79.1,87.6,82.0,36,-30,90.4,72.0,79.9,75.9,8.452,8.238,7.884,8.223,7.526,8.166,8.214,4.632,-4.925,-7.819,1.775,-1.528,8.034,4.874,-4.426,-8.032,73.2,86.1,-8.339,95.9,97.8,75.5,70.9,68.9,36,77.0,0,5,prime,10,0,80,norm,36,-4.507,down,norm,82.1714867646,62.2,88.5,83.5,97.7,0,88.0,102.2,97.5,10,5,7.651,4.859,1.42,-1.296,-4.455,-7.893,67.1,5,162.2,-7.952,-8.303,-30,-8.096,-7.604,-4.81,-4.396,-4.542,-4.527,4.895,7.871,0,-1.62,2.025,5.264,8.034,-8.067,-8.309,-1.99,1.58,95.6,75.9,69.5,78.9,89.0,,85.4,82.2,84.6,86.1,2,norm,1.989,1.352,-1.559,-1.935,-4.916,-5.132,-1.183,-1.334,-1.482,-1.593,1.348,-1.561,87.8,99.3,-4.619,-8.03,1.199,-1.78,7.858,5.191,-5.253,-8.395,16,4.63,5.102,4.753,4.808,1.809,1.943,1.223,1.213,16,4.93,4.74,-40,106.700084097,norm,0,58,58,58,467.551,467.562,467.566760744,467.567,467.569,467.571,down,1,1.00293671085,8.99706328915,001,019,1920_1200,Intel(R) Core(TM) i5-3570 CPU @ 3.40GHz,orientation_search,LEPPC096,Intel(R) HD Graphics 2500,2018_Dec_02_1611,testMonitor,
91.0,,83.9,84.6,36,-30,88.9,85.6,84.9,80.0,7.729,8.325,7.719,7.88,8.174,8.178,8.095,4.399,-4.812,-7.949,1.752,-1.453,7.924,4.685,-4.422,-7.702,90.4,102.2,-7.695,79.1,81.5,97.8,78.9,91.8,36,86.1,3,5,prime,10,0,88,norm,36,-4.871,up,norm,82.1714867646,80.2,74.4,81.6,80.7,5,84.3,92.3,80.4,10,5,7.971,4.694,1.768,-1.83,-4.805,-7.529,81.1,5,170.2,-8.455,-7.567,-30,-7.765,-8.018,-4.779,-4.577,-4.773,-4.375,4.902,7.808,23,-1.383,1.114,4.812,7.536,-7.813,-7.5,-1.416,1.245,88.7,78.8,62.2,80.8,81.6,90.5,78.3,81.5,84.9,73.9,3,norm,1.862,1.913,-1.512,-2.1,-4.717,-4.656,-1.509,-1.739,-1.195,-1.591,1.273,-1.818,67.6,88.1,-4.578,-8.228,1.809,-1.408,7.738,4.444,-5.013,-8.496,16,5.012,4.556,4.401,4.343,1.822,1.45,1.633,2.09,16,5.13,5.282,-40,106.700084097,norm,0,59,59,59,468.607,468.618,468.633842355,468.634,468.636,468.639,up,1,0.786473441618,9.21352655838,001,019,1920_1200,Intel(R) Core(TM) i5-3570 CPU @ 3.40GHz,orientation_search,LEPPC096,Intel(R) HD Graphics 2500,2018_Dec_02_1611,testMonitor,
85.9,80.7,77.8,86.8,36,-30,88.7,68.9,76.0,68.2,8.092,8.481,8.073,8.0,7.612,7.565,7.726,4.846,-4.64,-7.596,1.454,-1.545,7.52,4.765,-4.971,-7.896,67.8,100.0,-7.767,75.1,91.1,80.4,93.4,86.9,36,62.2,2,5,prime,10,0,72,norm,36,-4.368,up,norm,82.1714867646,85.6,,102.2,73.8,4,89.7,64.3,92.9,10,5,7.503,4.498,1.113,-1.551,-4.763,-7.507,89.3,5,154.2,-8.142,-7.902,-30,-7.53,-8.185,-4.396,-4.432,-4.333,-4.904,4.757,8.34,16,-1.764,1.533,5.177,8.313,-8.355,-7.623,-2.035,1.859,71.2,95.4,65.5,99.6,83.3,96.2,86.4,82.8,98.3,92.2,4,norm,1.882,2.015,-1.85,-1.93,-4.388,-4.485,-1.579,-1.945,-1.748,-1.1,1.832,-1.998,78.5,89.1,-5.265,-7.729,1.533,-1.23,7.819,4.93,-5.009,-7.963,16,4.589,4.808,4.717,5.095,1.516,1.287,1.757,1.823,16,4.547,4.358,-40,106.700084097,norm,0,60,60,60,469.459,469.469,469.476194199,469.476,469.478,469.481,up,1,2.63451035199,7.36548964801,001,019,1920_1200,Intel(R) Core(TM) i5-3570 CPU @ 3.40GHz,orientation_search,LEPPC096,Intel(R) HD Graphics 2500,2018_Dec_02_1611,testMonitor,
163.0,163.7,161.5,166.3,36,30,163.8,147.8,159.8,160.3,7.681,7.741,8.142,8.429,7.871,7.86,7.73,4.604,-5.118,-8.445,1.224,-1.698,8.382,4.9,-4.699,-7.562,158.3,167.8,-8.195,165.3,159.0,,155.6,154.1,36,158.3,5,5,probe,5,0,110,norm,36,-5.143,up,norm,157.784871123,158.1,164.0,155.9,150.9,3,160.9,156.4,159.5,10,5,7.738,4.735,1.183,-1.642,-4.902,-8.491,161.7,2,47.8,-8.137,-8.094,-30,-7.988,-7.572,-4.799,-5.277,-4.775,-4.979,5.063,8.382,33,-1.422,1.283,4.329,8.119,-7.806,-7.879,-1.373,1.102,158.3,156.9,159.5,158.7,154.7,154.2,152.6,149.4,152.0,157.9,0,norm,1.314,1.74,-1.268,-1.58,-5.021,-5.17,-1.612,-1.11,-1.825,-1.628,1.546,-1.775,152.5,159.7,-4.797,-7.934,1.76,-1.352,8.055,5.009,-4.438,-8.421,17,4.817,4.601,5.207,5.079,1.411,1.803,1.283,1.822,17,4.867,4.337,-30,82.1714867646,norm,0,61,61,61,472.148,472.158,472.175020601,472.175,472.177,472.179,up,1,1.04730673219,8.95269326781,001,019,1920_1200,Intel(R) Core(TM) i5-3570 CPU @ 3.40GHz,orientation_search,LEPPC096,Intel(R) HD Graphics 2500,2018_Dec_02_1611,testMonitor,
115.2,116.3,115.3,120.6,36,30,117.4,,120.0,120.8,7.879,7.716,7.643,7.716,7.598,8.099,7.635,5.256,-4.504,-8.363,1.127,-1.171,7.771,4.605,-4.373,-8.172,116.8,121.3,-7.945,124.6,111.5,113.7,120.3,129.8,36,121.5,4,5,probe,5,0,72,norm,36,-5.043,down,norm,119.784871123,122.6,117.4,113.2,109.8,1,118.0,111.2,125.0,10,5,8.177,5.19,1.319,-1.384,-4.971,-8.194,125.4,2,47.8,-8.333,-7.748,-30,-8.438,-8.292,-4.564,-4.554,-4.717,-4.892,4.54,7.717,25,-1.218,1.699,5.083,8.481,-7.989,-7.656,-1.737,1.408,122.8,115.2,116.5,114.1,112.5,120.1,111.2,112.8,122.2,116.5,1,norm,1.46,2.021,-1.979,-1.969,-5.071,-4.721,-1.916,-1.223,-1.523,-1.521,1.316,-1.121,124.7,121.3,-4.845,-8.399,1.112,-1.44,7.707,4.619,-4.96,-7.707,17,4.915,5.261,4.483,4.507,1.342,1.893,1.475,1.186,17,4.595,4.535,-30,82.1714867646,norm,0,62,62,62,473.267,473.277,473.283768553,473.284,473.286,473.289,down,1,0.876926792014,9.12307320799,001,019,1920_1200,Intel(R) Core(TM) i5-3570 CPU @ 3.40GHz,orientation_search,LEPPC096,Intel(R) HD Graphics 2500,2018_Dec_02_1611,testMonitor,
270.8,273.2,262.9,242.8,36,0,,271.0,274.1,257.8,8.137,8.305,8.019,8.185,8.195,8.083,8.023,5.137,-4.381,-7.736,1.878,-1.384,8.363,4.473,-5.135,-8.116,251.4,265.2,-8.198,266.0,282.8,251.9,265.4,269.7,36,257.1,4,5,prime,10,0,78,norm,36,-4.842,down,norm,262.8354164,274.4,282.2,250.9,244.3,0,245.1,262.0,261.2,10,5,7.615,4.918,2.027,-1.896,-5.24,-7.746,251.7,5,340.8,-8.4,-7.738,0,-8.377,-8.106,-5.174,-4.565,-4.693,-5.045,4.713,7.628,24,-1.983,1.732,4.998,8.026,-8.286,-7.909,-1.755,2.025,255.3,262.3,257.4,256.4,265.2,259.1,254.5,259.0,264.2,245.7,0,norm,1.816,1.384,-2.059,-1.654,-4.631,-4.532,-1.483,-1.472,-1.71,-1.165,1.818,-1.791,265.9,261.6,-5.158,-8.138,1.96,-2.089,8.229,4.62,-4.624,-7.736,18,4.975,4.956,4.305,4.687,2.019,1.387,1.605,1.64,18,5.165,4.962,30,82.1714867646,norm,0,63,63,63,474.203,485.818,485.82707817,485.827,485.829,485.832,down,1,1.18259887892,8.81740112108,001,019,1920_1200,Intel(R) Core(TM) i5-3570 CPU @ 3.40GHz,orientation_search,LEPPC096,Intel(R) HD Graphics 2500,2018_Dec_02_1611,testMonitor,
275.9,245.4,280.1,278.6,36,0,272.2,262.8,242.8,250.2,8.151,7.988,8.426,7.525,7.911,8.034,8.036,4.558,-5.159,-8.37,1.246,-1.731,8.42,4.846,-4.661,-8.436,269.2,258.4,-8.245,254.2,272.0,276.3,268.7,,36,250.8,4,5,prime,10,0,94,norm,36,-4.688,down,norm,262.8354164,243.1,282.8,269.9,267.6,2,270.2,275.5,265.0,10,5,7.829,4.351,1.437,-2.004,-5.124,-8.115,247.0,5,356.8,-7.663,-7.891,0,-8.497,-7.85,-4.447,-4.307,-4.424,-4.77,5.181,8.034,26,-2.0,1.762,4.93,7.55,-8.446,-8.039,-1.758,1.942,253.8,253.3,266.2,255.1,261.7,266.4,270.7,265.4,265.7,253.9,1,norm,1.103,1.985,-1.297,-1.35,-4.739,-5.108,-2.075,-1.741,-1.256,-1.73,1.519,-1.408,277.3,279.1,-4.377,-8.299,1.795,-1.561,7.666,4.819,-4.934,-7.609,18,4.926,5.228,4.724,4.692,1.162,2.069,1.549,1.146,18,4.306,4.679,30,82.1714867646,norm,0,64,64,64,487.048,487.06,487.088145094,487.088,487.09,487.093,up,0,1.03035718059,-10,001,019,1920_1200,Intel(R) Core(TM) i5-3570 CPU @ 3.40GHz,orientation_search,LEPPC096,Intel(R) HD Graphics 2500,2018_Dec_02_1611,testMonitor,
262.2,280.9,255.1,260.8,36,0,282.8,264.0,260.9,251.5,7.905,7.523,8.299,7.622,7.827,8.081,7.812,4.989,-4.897,-7.557,2.014,-1.713,8.262,5.275,-5.233,-7.537,242.8,,-8.497,263.0,256.7,263.8,272.9,266.4,36,269.9,5,5,prime,10,0,97,norm,36,-4.885,up,norm,262.8354164,282.1,260.8,260.8,262.6,4,272.5,253.0,267.8,10,5,8.067,4.642,2.033,-1.473,-5.222,-8.497,270.2,5,359.8,-7.904,-8.086,0,-8.268,-7.646,-4.69,-4.591,-4.883,-4.728,4.978,8.259,34,-2.098,2.094,4.306,8.172,-7.536,-7.674,-1.479,1.737,275.0,261.6,274.4,260.9,270.9,272.5,247.9,251.1,280.8,270.9,2,norm,1.107,1.793,-1.949,-1.882,-5.039,-4.875,-1.704,-1.902,-1.884,-1.744,1.946,-1.59,268.5,272.1,-4.72,-8.471,1.317,-1.13,7.737,5.136,-5.212,-7.971,18,4.975,5.217,4.899,5.064,2.003,1.995,1.365,1.146,18,5.035,5.138,30,82.1714867646,norm,0,65,65,65,489.199,489.208,489.225346752,489.226,489.227,489.23,up,1,1.77787520866,8.22212479134,001,019,1920_1200,Intel(R) Core(TM) i5-3570 CPU @ 3.40GHz,orientation_search,LEPPC096,Intel(R) HD Graphics 2500,2018_Dec_02_1611,testMonitor,
265.3,260.9,246.4,254.1,36,0,265.3,252.4,263.2,271.7,8.08,8.481,8.173,7.616,8.172,7.51,8.119,4.751,-4.887,-8.165,1.416,-1.667,7.76,4.829,-4.964,-8.385,268.7,270.2,-7.509,261.8,269.4,262.1,280.2,254.8,36,,4,5,prime,10,0,117,norm,36,-5.091,up,norm,262.8354164,271.2,250.3,261.4,248.7,3,282.4,267.8,260.1,10,5,7.965,5.253,1.321,-1.851,-5.011,-7.787,281.2,5,379.8,-8.369,-8.317,0,-8.43,-7.694,-4.621,-5.167,-5.259,-4.516,5.149,8.121,27,-1.164,1.377,4.345,8.409,-7.906,-7.581,-1.311,1.3,261.1,256.7,263.9,242.8,256.3,253.6,260.6,274.5,258.8,263.0,3,norm,1.414,1.139,-1.512,-1.367,-4.308,-4.991,-1.768,-1.242,-1.953,-1.833,1.729,-1.701,276.1,282.8,-4.574,-8.307,1.588,-1.661,8.179,4.672,-4.818,-7.751,18,4.997,4.578,4.575,4.81,2.007,1.227,1.84,1.312,18,4.336,4.334,30,82.1714867646,norm,0,66,66,66,491.041,491.054,491.07400125,491.074,491.076,491.079,up,1,0.936192870877,9.06380712912,001,019,1920_1200,Intel(R) Core(TM) i5-3570 CPU @ 3.40GHz,orientation_search,LEPPC096,Intel(R) HD Graphics 2500,2018_Dec_02_1611,testMonitor,
255.2,257.8,257.4,255.0,36,0,271.8,251.4,259.0,256.8,8.123,8.458,8.448,7.977,8.001,7.783,8.381,4.948,-4.832,-7.936,1.599,-1.133,8.391,4.322,-5.257,-7.609,269.9,275.3,-7.838,257.3,255.1,282.8,264.1,264.9,36,264.6,2,5,prime,10,0,81,norm,36,-5.046,down,norm,262.8354164,258.4,248.3,257.7,273.1,1,250.7,,277.8,10,5,8.49,5.289,1.624,-1.893,-4.855,-7.999,280.9,5,343.8,-7.644,-7.712,0,-7.749,-7.663,-4.635,-5.196,-5.177,-4.662,5.138,7.678,13,-1.362,1.242,5.201,7.915,-8.06,-7.956,-1.141,1.198,261.9,260.7,268.3,273.1,276.9,258.9,274.5,275.4,255.3,256.3,4,norm,1.517,1.115,-1.432,-1.207,-4.996,-5.068,-1.304,-1.856,-1.117,-1.287,1.957,-1.193,242.8,265.1,-5.21,-8.068,1.259,-1.833,7.983,4.999,-4.923,-8.141,18,4.385,4.347,5.103,4.784,1.671,1.973,1.877,1.194,18,4.478,4.814,30,82.1714867646,norm,0,67,67,67,492.034,492.043,492.050051466,492.05,492.052,492.054,down,1,0.809478431218,9.19052156878,001,019,1920_1200,Intel(R) Core(TM) i5-3570 CPU @ 3.40GHz,orientation_search,LEPPC096,Intel(R) HD Graphics 2500,2018_Dec_02_1611,testMonitor,
323.9,330.4,328.1,327.3,36,-20,318.7,330.6,,325.5,7.522,7.566,8.485,7.75,7.887,8.056,7.841,4.402,-4.48,-7.904,1.373,-1.473,8.226,5.026,-4.766,-8.336,326.5,325.4,-7.942,320.8,335.5,319.7,330.3,328.4,36,328.8,4,5,probe,5,0,63,norm,36,-5.194,up,norm,328.515932538,326.7,328.5,331.3,330.1,4,323.9,329.2,332.0,10,5,7.562,4.515,1.428,-1.137,-4.306,-8.27,329.5,2,265.5,-8.48,-8.232,0,-7.996,-7.681,-4.423,-4.828,-4.509,-4.497,5.215,7.725,28,-1.458,1.389,5.133,8.445,-8.11,-8.009,-1.809,1.119,327.5,322.0,324.6,319.7,330.0,323.8,327.4,323.6,338.5,318.5,0,norm,1.37,1.228,-1.404,-1.826,-4.591,-4.666,-1.477,-1.945,-1.366,-1.649,1.728,-1.288,332.9,331.4,-4.934,-8.009,1.157,-1.168,7.785,4.671,-4.938,-8.494,19,4.88,4.978,5.184,5.187,1.394,2.087,1.48,1.998,19,4.385,5.162,0,262.8354164,norm,0,68,68,68,492.908,492.928,492.940688945,492.941,492.943,492.946,up,1,0.806065097242,9.19393490276,001,019,1920_1200,Intel(R) Core(TM) i5-3570 CPU @ 3.40GHz,orientation_search,LEPPC096,Intel(R) HD Graphics 2500,2018_Dec_02_1611,testMonitor,
368.6,370.1,379.5,368.7,36,-20,,374.3,367.5,370.8,8.281,8.263,8.136,8.415,8.117,7.532,7.569,5.164,-4.315,-7.748,1.868,-1.984,7.709,4.761,-4.919,-7.794,378.0,359.5,-7.9,369.2,364.8,366.8,363.3,366.3,36,366.7,4,5,probe,5,0,104,norm,36,-5.017,down,norm,369.515932538,364.7,361.9,366.9,370.8,0,375.9,368.4,370.7,10,5,7.787,4.603,1.823,-2.062,-5.097,-8.498,372.8,2,265.5,-7.993,-7.611,0,-8.017,-8.114,-4.327,-5.244,-5.257,-4.368,4.83,8.455,24,-1.282,2.032,5.017,7.536,-8.465,-7.881,-1.111,1.548,364.2,379.3,367.4,372.1,375.8,374.6,365.0,366.2,371.2,364.0,1,norm,1.817,1.344,-1.165,-1.265,-4.602,-4.794,-1.562,-1.613,-1.126,-1.99,1.968,-2.025,370.8,368.9,-5.091,-8.392,1.998,-1.5,8.142,5.125,-4.833,-7.966,19,4.441,5.256,4.554,4.739,1.703,1.904,1.848,1.703,19,4.588,4.306,0,262.8354164,norm,0,69,69,69,493.785,493.794,493.811529209,493.812,493.814,493.816,down,1,0.822786751145,9.17721324885,001,019,1920_1200,Intel(R) Core(TM) i5-3570 CPU @ 3.40GHz,orientation_search,LEPPC096,Intel(R) HD Graphics 2500,2018_Dec_02_1611,testMonitor,
198.2,205.6,201.1,200.1,36,10,214.5,206.8,209.6,185.5,7.766,8.369,8.373,8.23,8.248,7.58,7.957,4.481,-4.454,-8.485,1.624,-1.31,8.014,4.343,-5.159,-8.222,201.0,176.4,-7.961,189.8,212.3,188.2,183.5,195.0,36,194.7,3,5,prime,10,0,100,norm,36,-4.536,down,norm,196.432647121,202.1,188.2,209.1,195.4,1,191.7,191.2,216.4,10,5,8.412,5.006,1.172,-1.665,-5.064,-8.383,184.1,5,296.4,-8.091,-8.415,10,-8.041,-8.371,-4.435,-5.234,-4.771,-4.811,5.156,8.38,19,-1.578,1.525,4.874,8.476,-7.648,-7.837,-2.015,1.707,189.5,193.4,181.0,201.6,201.4,194.7,201.3,184.8,188.8,202.2,0,norm,2.044,1.891,-1.919,-1.601,-5.076,-4.768,-1.43,-1.73,-1.833,-1.24,1.167,-1.856,,192.6,-5.273,-7.693,1.929,-1.283,8.212,4.787,-5.19,-8.003,20,4.915,4.329,4.906,4.906,1.439,1.16,1.385,1.881,20,4.853,4.869,-20,262.8354164,norm,0,70,70,70,494.686,494.703,494.71899067,494.719,494.721,494.725,down,1,0.842195484909,9.15780451509,001,019,1920_1200,Intel(R) Core(TM) i5-3570 CPU @ 3.40GHz,orientation_search,LEPPC096,Intel(R) HD Graphics 2500,2018_Dec_02_1611,testMonitor,
201.6,199.3,195.3,198.7,36,10,202.1,199.6,205.5,188.0,7.793,7.844,8.195,8.025,8.207,8.027,8.421,5.046,-5.254,-7.851,2.064,-1.892,8.066,4.339,-4.317,-7.597,200.5,,-8.033,197.6,195.7,189.1,191.3,182.8,36,208.2,5,5,prime,10,0,110,norm,36,-4.426,up,norm,196.432647121,211.7,176.4,204.9,203.6,4,200.6,177.7,182.0,10,5,8.311,4.952,2.02,-1.328,-4.565,-7.673,206.3,5,306.4,-7.641,-8.273,10,-7.768,-7.604,-4.87,-4.791,-4.309,-4.694,4.88,8.454,34,-2.061,1.94,4.363,8.062,-7.735,-7.698,-1.576,1.769,191.5,203.3,191.6,216.4,204.5,199.6,201.9,199.0,187.3,178.0,1,norm,1.306,1.479,-2.043,-1.927,-4.95,-5.011,-1.408,-1.504,-1.315,-1.908,1.583,-1.753,198.6,184.3,-5.076,-8.21,1.356,-1.839,8.332,4.517,-5.247,-8.411,20,4.445,4.801,5.14,5.218,2.067,2.033,2.096,2.014,20,4.335,4.687,-20,262.8354164,norm,0,71,71,71,495.6,495.61,495.621112382,495.621,495.623,495.626,up,1,0.843181331104,9.1568186689,001,019,1920_1200,Intel(R) Core(TM) i5-3570 CPU @ 3.40GHz,orientation_search,LEPPC096,Intel(R) HD Graphics 2500,2018_Dec_02_1611,testMonitor,
201.1,214.4,205.4,181.8,36,10,200.6,202.2,197.7,198.8,7.57,7.807,7.624,8.057,7.597,8.399,7.58,4.737,-4.325,-7.86,1.384,-1.494,8.197,5.031,-5.29,-8.152,176.4,183.8,-7.851,204.4,206.0,196.1,209.8,190.0,36,196.4,3,5,prime,10,0,95,norm,36,-4.979,down,norm,196.432647121,202.5,216.4,211.2,197.3,1,185.7,184.0,196.5,10,5,7.865,5.257,1.564,-1.311,-4.964,-7.681,198.8,5,291.4,-8.16,-8.117,10,-8.455,-8.278,-4.328,-4.756,-5.01,-5.013,5.085,8.351,19,-1.191,1.425,5.241,8.03,-7.994,-7.94,-1.606,1.803,192.8,201.3,207.5,209.9,192.8,189.8,182.1,197.1,194.9,197.9,2,norm,1.915,1.924,-1.586,-1.79,-5.252,-4.876,-1.695,-1.136,-1.609,-1.437,1.375,-1.337,,204.5,-4.631,-7.625,1.374,-1.23,8.152,5.033,-5.079,-7.982,20,4.736,4.746,5.159,5.132,1.937,1.58,1.825,1.62,20,5.057,4.706,-20,262.8354164,norm,0,72,72,72,496.502,496.514,496.518144279,496.518,496.52,496.523,down,1,0.77909498957,9.22090501043,001,019,1920_1200,Intel(R) Core(TM) i5-3570 CPU @ 3.40GHz,orientation_search,LEPPC096,Intel(R) HD Graphics 2500,2018_Dec_02_1611,testMonitor,
194.5,204.6,196.1,185.4,36,10,205.0,191.2,,188.7,8.354,8.2,7.885,8.417,8.08,7.679,7.668,4.791,-4.88,-7.875,1.918,-1.691,7.779,5.129,-4.426,-7.515,185.4,187.3,-8.346,181.8,199.8,181.1,196.3,211.6,36,201.2,4,5,prime,10,0,95,norm,36,-4.637,up,norm,196.432647121,181.1,196.2,197.0,194.6,4,195.7,193.2,187.2,10,5,8.424,4.925,1.849,-1.358,-5.023,-8.19,204.2,5,291.4,-8.14,-7.551,10,-8.127,-7.738,-5.084,-5.076,-4.662,-5.065,4.685,7.735,28,-1.378,2.041,4.829,8.023,-8.308,-8.473,-1.338,1.288,207.6,188.9,176.4,197.9,200.7,190.6,203.7,192.0,204.1,216.4,3,norm,1.303,1.964,-1.188,-2.008,-5.135,-5.041,-1.594,-1.982,-1.987,-1.387,1.542,-1.805,186.4,196.6,-4.732,-8.431,2.021,-1.851,8.036,5.028,-5.009,-8.082,20,4.435,4.82,4.479,4.528,1.381,1.438,1.922,1.457,20,4.963,4.498,-20,262.8354164,norm,0,73,73,73,497.338,497.347,497.35398006,497.354,497.356,497.358,up,1,0.82642345505,9.17357654495,001,019,1920_1200,Intel(R) Core(TM) i5-3570 CPU @ 3.40GHz,orientation_search,LEPPC096,Intel(R) HD Graphics 2500,2018_Dec_02_1611,testMonitor,
184.0,183.9,196.7,205.2,36,10,196.7,198.8,193.9,,8.42,8.093,8.083,8.483,7.688,7.807,7.635,4.675,-4.546,-8.048,1.535,-1.308,8.233,4.929,-4.589,-8.17,194.1,199.3,-8.039,208.0,203.9,201.6,185.1,193.4,36,209.7,4,5,prime,10,0,74,norm,36,-4.799,up,norm,196.432647121,215.6,176.4,195.5,198.1,5,187.3,188.4,178.6,10,5,7.783,4.321,1.738,-1.8,-5.103,-8.048,189.4,5,270.4,-7.739,-7.549,10,-7.521,-8.381,-4.815,-4.917,-4.638,-4.485,4.78,8.3,29,-1.856,2.082,5.084,8.219,-7.991,-7.53,-1.643,1.978,202.1,207.7,196.7,208.1,216.4,180.3,187.1,201.8,205.3,196.5,4,norm,1.394,2.076,-2.025,-1.825,-5.107,-4.877,-1.355,-2.011,-1.201,-1.449,1.897,-1.24,196.6,213.3,-4.899,-7.627,1.318,-1.596,7.91,4.529,-5.271,-7.733,20,5.197,4.542,4.527,4.884,1.114,1.538,1.238,1.157,20,4.381,5.014,-20,262.8354164,norm,0,74,74,74,498.227,498.236,498.245108651,498.245,498.247,498.25,down,0,1.34063672503,-10,001,019,1920_1200,Intel(R) Core(TM) i5-3570 CPU @ 3.40GHz,orientation_search,LEPPC096,Intel(R) HD Graphics 2500,2018_Dec_02_1611,testMonitor,
277.7,285.1,287.8,287.6,36,30,290.2,284.3,278.6,275.4,7.815,7.792,7.948,8.204,7.894,8.127,7.784,4.967,-4.465,-7.9,1.519,-1.921,8.404,4.508,-5.269,-7.968,288.1,280.4,-8.026,282.3,279.2,284.6,277.0,282.8,36,277.1,1,5,probe,5,0,79,norm,36,-4.725,down,norm,281.758315832,291.8,290.6,287.4,279.3,1,286.3,284.0,276.6,10,5,7.587,4.585,1.4,-1.435,-5.255,-8.42,280.8,2,202.8,-8.301,-8.185,10,-7.632,-7.955,-4.798,-4.674,-4.855,-4.873,4.355,7.772,7,-1.521,1.809,4.366,7.65,-8.159,-8.08,-1.217,2.05,271.8,282.7,290.7,282.0,283.1,288.0,,280.2,278.1,284.4,0,norm,1.756,1.875,-1.444,-1.302,-4.927,-4.8,-2.034,-2.096,-1.511,-1.803,1.232,-1.523,288.1,287.8,-4.54,-7.674,1.183,-1.233,7.961,5.214,-5.243,-8.087,21,4.506,4.688,4.566,4.989,1.881,2.054,1.918,1.557,21,4.559,4.468,10,196.432647121,norm,0,75,75,75,500.665,500.674,500.690985816,500.691,500.693,500.695,down,1,0.706931712191,9.29306828781,001,019,1920_1200,Intel(R) Core(TM) i5-3570 CPU @ 3.40GHz,orientation_search,LEPPC096,Intel(R) HD Graphics 2500,2018_Dec_02_1611,testMonitor,
294.8,297.1,287.1,280.8,36,30,291.4,292.3,,298.2,7.843,8.191,8.094,8.075,8.146,8.318,7.548,4.864,-4.68,-8.083,1.493,-1.622,8.445,4.643,-4.44,-8.476,291.4,289.9,-8.474,285.5,282.4,285.8,294.4,300.3,36,297.0,4,5,probe,5,0,88,norm,36,-4.738,up,norm,290.758315832,290.3,296.2,297.7,291.8,4,289.3,292.8,297.8,10,5,7.962,4.592,1.61,-1.629,-4.696,-7.587,282.0,2,202.8,-8.364,-7.672,10,-7.577,-7.759,-4.908,-4.569,-5.084,-4.985,4.949,7.842,28,-1.834,1.286,4.898,7.616,-7.723,-8.427,-1.776,2.022,289.0,286.1,294.2,298.2,298.6,300.7,283.9,289.0,298.8,288.9,1,norm,1.615,2.025,-1.757,-1.458,-4.769,-4.891,-1.64,-1.878,-1.1,-1.958,1.607,-1.412,300.8,281.5,-5.016,-8.336,2.002,-1.605,7.601,5.149,-4.771,-7.94,21,5.134,4.321,4.406,4.892,1.865,2.085,1.32,1.299,21,4.477,4.454,10,196.432647121,norm,0,76,76,76,501.44,501.45,501.456594393,501.457,501.459,501.461,up,1,0.738250590874,9.26174940913,001,019,1920_1200,Intel(R) Core(TM) i5-3570 CPU @ 3.40GHz,orientation_search,LEPPC096,Intel(R) HD Graphics 2500,2018_Dec_02_1611,testMonitor,
194.8,197.8,176.5,212.6,36,-80,193.1,206.2,196.8,188.0,7.875,8.268,7.791,7.997,7.99,8.058,8.493,4.863,-4.868,-7.851,1.555,-1.443,8.105,5.092,-4.825,-8.462,179.3,213.7,-8.3,187.1,199.9,178.0,188.7,193.7,36,211.5,3,5,prime,10,0,74,norm,36,-5.092,down,norm,196.52817203,204.3,192.9,190.2,209.6,0,181.7,193.4,185.3,10,5,8.185,4.602,1.902,-2.011,-4.98,-8.178,207.6,5,270.5,-8.323,-8.016,-80,-8.478,-7.891,-4.614,-4.613,-4.883,-5.025,4.331,7.95,18,-1.606,1.813,4.778,7.93,-8.026,-7.959,-1.627,2.026,201.1,197.9,207.7,207.7,216.5,195.4,191.6,193.5,200.2,195.6,0,norm,2.069,1.394,-1.233,-1.148,-5.213,-4.416,-1.361,-1.278,-1.162,-1.696,1.438,-1.898,196.7,,-4.75,-8.023,2.063,-1.81,7.821,4.508,-4.826,-8.205,22,5.072,5.258,4.44,5.02,1.73,2.034,1.762,1.564,22,5.053,4.869,30,196.432647121,norm,0,77,77,77,502.233,502.243,502.24878037,502.249,502.251,502.253,down,1,1.74631364156,8.25368635844,001,019,1920_1200,Intel(R) Core(TM) i5-3570 CPU @ 3.40GHz,orientation_search,LEPPC096,Intel(R) HD Graphics 2500,2018_Dec_02_1611,testMonitor,
209.5,210.4,197.8,197.9,36,-80,183.8,186.0,203.4,189.3,7.583,7.616,8.089,7.7,7.971,8.012,7.569,4.486,-4.981,-7.856,2.076,-1.725,8.424,4.85,-4.786,-8.173,213.5,180.3,-8.049,188.4,189.5,196.7,193.3,207.1,36,192.7,2,5,prime,10,0,103,norm,36,-4.465,up,norm,196.52817203,194.2,,206.6,186.2,4,188.8,194.5,201.7,10,5,8.372,4.799,1.482,-1.621,-5.035,-7.672,216.5,5,299.5,-7.742,-7.618,-80,-7.72,-8.442,-5.076,-5.195,-4.999,-4.617,4.606,8.362,16,-1.235,1.257,4.766,7.504,-8.027,-8.392,-1.363,1.544,214.5,208.3,184.4,201.2,194.2,188.6,198.7,176.5,203.8,191.1,1,norm,1.381,1.591,-1.904,-1.361,-5.216,-5.187,-1.457,-1.407,-1.964,-2.092,1.309,-1.615,194.2,202.3,-5.223,-8.485,1.437,-1.828,7.55,5.278,-5.009,-7.754,22,5.211,5.108,4.395,4.612,1.546,1.214,1.609,1.148,22,5.298,5.237,30,196.432647121,norm,0,78,78,78,504.016,504.026,504.044903091,504.045,504.047,504.049,up,1,0.935402926147,9.06459707385,001,019,1920_1200,Intel(R) Core(TM) i5-3570 CPU @ 3.40GHz,orientation_search,LEPPC096,Intel(R) HD Graphics 2500,2018_Dec_02_1611,testMonitor,
196.9,189.8,199.9,194.6,36,-80,210.2,202.6,204.7,214.2,7.657,8.118,8.395,7.53,8.419,7.565,8.109,5.261,-5.287,-8.444,1.566,-2.023,8.171,4.361,-4.948,-7.522,202.5,195.7,-7.66,176.5,178.6,216.5,199.9,194.4,36,189.2,1,5,prime,10,0,115,norm,36,-4.877,up,norm,196.52817203,203.9,211.5,184.7,185.4,3,214.1,198.3,196.6,10,5,7.874,4.973,1.833,-1.687,-5.193,-7.817,189.1,5,311.5,-8.441,-8.257,-80,-8.228,-8.162,-4.973,-4.494,-4.682,-4.955,4.454,7.747,9,-1.801,1.283,5.109,8.227,-7.526,-8.453,-1.778,1.21,,179.9,204.2,181.8,189.8,194.6,197.7,195.4,185.7,199.6,2,norm,1.269,1.584,-1.642,-1.887,-4.487,-4.596,-1.718,-1.573,-1.723,-1.619,1.221,-1.725,199.0,199.4,-4.763,-7.523,1.398,-1.963,7.565,4.998,-4.754,-7.565,22,5.01,4.479,4.631,4.718,1.757,1.23,1.705,1.536,22,4.646,4.89,30,196.432647121,norm,0,79,79,79,505.019,505.031,505.051308374,505.051,505.053,505.056,up,1,0.747083664113,9.25291633589,001,019,1920_1200,Intel(R) Core(TM) i5-3570 CPU @ 3.40GHz,orientation_search,LEPPC096,Intel(R) HD Graphics 2500,2018_Dec_02_1611,testMonitor,
187.5,196.8,186.6,183.4,36,-80,213.8,188.4,185.8,188.4,8.463,8.106,8.281,8.354,7.928,8.494,8.198,4.688,-5.138,-7.665,1.357,-1.454,8.286,4.84,-4.847,-7.582,204.9,187.8,-8.147,196.7,186.0,190.1,194.0,176.5,36,189.3,0,5,prime,10,0,85,norm,36,-5.03,up,norm,196.52817203,181.2,216.5,200.6,205.0,4,184.7,190.9,189.5,10,5,8.148,4.512,1.589,-1.956,-4.886,-7.581,190.6,5,281.5,-8.308,-7.592,-80,-8.028,-7.7,-5.117,-5.051,-4.603,-4.476,4.407,8.101,4,-2.02,2.023,4.644,7.638,-7.705,-8.084,-1.26,1.688,196.8,187.9,177.9,192.9,190.2,198.9,207.3,190.7,183.6,,3,norm,1.1,1.783,-1.439,-1.607,-4.824,-4.845,-1.866,-2.029,-1.798,-1.963,1.617,-1.844,215.9,195.3,-4.884,-8.286,1.267,-1.334,7.561,4.58,-4.855,-8.371,22,4.785,4.966,4.573,4.463,1.645,1.319,1.629,1.248,22,4.596,5.136,30,196.432647121,norm,0,80,80,80,505.84,505.859,505.872685178,505.873,505.875,505.878,up,1,1.08832016759,8.91167983241,001,019,1920_1200,Intel(R) Core(TM) i5-3570 CPU @ 3.40GHz,orientation_search,LEPPC096,Intel(R) HD Graphics 2500,2018_Dec_02_1611,testMonitor,
193.5,179.1,191.6,214.7,36,-80,190.7,213.0,184.4,179.8,8.454,7.729,8.039,8.247,8.029,8.036,7.786,4.871,-4.467,-7.87,1.507,-1.144,7.793,4.765,-4.698,-7.836,208.0,188.4,-8.339,190.1,216.5,196.6,199.4,199.4,36,,4,5,prime,10,0,112,norm,36,-4.349,up,norm,196.52817203,187.4,202.7,194.9,189.9,3,208.4,192.5,187.5,10,5,7.586,4.597,1.554,-1.879,-5.211,-8.406,210.0,5,308.5,-8.281,-7.622,-80,-8.442,-7.546,-4.975,-4.949,-5.204,-4.947,5.077,7.547,27,-1.439,1.196,4.785,7.762,-8.009,-7.839,-1.155,1.728,189.3,176.5,201.7,207.5,184.5,187.4,203.4,213.1,199.4,198.9,4,norm,1.935,1.947,-1.761,-1.631,-5.074,-5.075,-1.272,-2.004,-1.151,-1.967,1.346,-1.579,191.2,190.5,-4.41,-8.351,1.268,-2.084,7.657,4.423,-4.98,-8.434,22,4.919,4.503,4.629,4.623,1.245,1.611,1.998,1.57,22,4.316,5.028,30,196.432647121,norm,0,81,81,81,507.0,507.013,507.032389545,507.033,507.034,507.037,down,0,1.07174098748,-10,001,019,1920_1200,Intel(R) Core(TM) i5-3570 CPU @ 3.40GHz,orientation_search,LEPPC096,Intel(R) HD Graphics 2500,2018_Dec_02_1611,testMonitor,
190.3,189.6,186.8,192.3,36,60,187.0,182.6,,186.5,8.15,8.209,7.79,8.417,7.996,8.476,7.918,4.761,-4.638,-7.576,1.368,-1.295,7.974,5.046,-4.53,-8.001,188.8,188.6,-7.735,186.0,185.4,187.5,186.8,180.6,36,180.6,4,5,probe,5,0,73,norm,36,-5.251,up,norm,186.465212419,188.6,183.0,182.9,184.8,4,187.3,184.4,177.0,10,5,7.996,4.944,1.839,-1.667,-4.823,-8.082,194.6,1,113.5,-7.68,-8.471,-80,-7.807,-7.638,-5.23,-4.622,-4.441,-4.356,5.273,8.46,28,-1.107,1.543,4.855,8.441,-7.634,-8.233,-1.691,2.009,196.5,176.5,178.3,191.5,189.7,184.7,188.5,183.2,191.7,184.4,0,norm,2.006,1.332,-1.983,-1.193,-4.349,-5.28,-1.829,-2.013,-1.348,-2.053,1.222,-1.878,184.9,182.5,-5.213,-7.722,1.224,-1.799,7.608,4.827,-5.058,-7.847,23,4.647,5.137,4.56,4.891,1.651,1.922,1.919,1.962,23,4.542,4.409,-80,196.52817203,norm,0,82,82,82,509.178,509.187,509.193971729,509.194,509.196,509.199,up,1,0.738066159758,9.26193384024,001,019,1920_1200,Intel(R) Core(TM) i5-3570 CPU @ 3.40GHz,orientation_search,LEPPC096,Intel(R) HD Graphics 2500,2018_Dec_02_1611,testMonitor,
321.2,321.0,316.7,322.4,36,0,339.0,323.2,326.5,325.6,8.39,7.673,8.491,8.37,7.751,7.684,7.752,4.99,-4.687,-8.381,1.955,-1.537,8.173,4.687,-5.297,-7.568,328.5,331.9,-8.019,320.1,331.2,337.2,323.5,317.7,36,342.0,2,5,prime,10,0,105,norm,36,-4.324,up,norm,326.171977692,,321.6,316.0,331.9,5,328.3,317.8,306.2,10,6,8.328,4.912,1.864,-1.758,-4.614,-8.164,327.3,6,431.2,-8.08,-7.565,0,-7.906,-8.052,-4.728,-4.706,-4.301,-4.744,4.933,8.347,17,-1.191,1.619,4.466,8.444,-8.229,-7.884,-1.808,1.652,322.3,329.8,317.7,316.9,322.5,324.5,324.0,333.0,321.7,346.2,0,norm,1.116,2.012,-1.934,-1.259,-5.175,-5.019,-1.558,-1.275,-1.555,-1.546,1.467,-1.261,339.2,334.3,-4.54,-8.201,1.864,-1.407,8.327,4.756,-4.817,-7.899,24,5.249,5.231,4.845,4.356,2.028,1.582,2.053,1.801,24,4.842,5.058,60,196.52817203,norm,0,83,83,83,509.97,509.979,509.986017948,509.986,509.988,509.991,up,1,0.846709066705,9.15329093329,001,019,1920_1200,Intel(R) Core(TM) i5-3570 CPU @ 3.40GHz,orientation_search,LEPPC096,Intel(R) HD Graphics 2500,2018_Dec_02_1611,testMonitor,
326.7,319.7,327.3,321.4,36,0,324.1,330.7,337.9,306.2,7.879,7.614,8.116,8.022,8.018,8.454,7.799,5.04,-4.684,-7.842,1.249,-1.186,7.872,4.771,-4.439,-7.64,319.1,332.3,-8.31,327.3,331.7,333.3,331.3,337.8,36,340.0,3,5,prime,10,0,100,norm,36,-4.404,down,norm,326.171977692,307.8,325.1,325.9,337.9,1,330.5,337.4,313.1,10,6,7.707,5.099,1.108,-1.939,-5.162,-7.5,345.4,6,426.2,-7.694,-7.593,0,-8.221,-8.224,-4.609,-4.491,-5.044,-4.54,4.84,7.643,19,-1.578,1.592,4.878,7.52,-8.27,-8.124,-1.906,1.744,327.4,308.4,330.9,339.1,317.2,337.0,317.2,346.2,322.1,323.6,1,norm,1.215,2.007,-1.464,-1.934,-4.744,-5.221,-1.931,-1.969,-1.782,-1.683,1.449,-1.522,,334.3,-4.436,-7.999,1.583,-1.694,7.69,5.243,-5.193,-7.777,24,4.643,4.616,4.406,5.218,1.859,1.508,1.671,1.195,24,4.919,4.599,60,196.52817203,norm,0,84,84,84,510.879,510.899,510.911339646,510.912,510.914,510.917,down,1,0.791753121895,9.2082468781,001,019,1920_1200,Intel(R) Core(TM) i5-3570 CPU @ 3.40GHz,orientation_search,LEPPC096,Intel(R) HD Graphics 2500,2018_Dec_02_1611,testMonitor,
332.5,321.2,335.9,336.3,36,0,330.7,321.2,330.8,315.4,7.896,7.597,7.749,7.502,7.996,7.714,8.062,4.309,-4.682,-8.1,1.424,-1.47,7.924,4.966,-5.143,-8.462,,328.5,-8.022,336.9,340.8,338.5,306.2,338.7,36,335.1,5,5,prime,10,0,61,norm,36,-4.765,up,norm,326.171977692,324.5,346.2,317.3,332.4,5,324.0,323.6,325.4,10,6,8.215,4.632,1.106,-2.081,-4.331,-8.344,328.7,6,387.2,-7.891,-7.579,0,-8.458,-8.494,-4.95,-4.807,-4.352,-4.737,4.539,7.581,35,-1.41,1.773,4.885,7.519,-7.942,-8.446,-1.953,1.632,315.8,310.4,327.2,338.1,327.8,326.0,320.4,328.7,339.2,323.2,2,norm,2.034,1.751,-1.312,-1.312,-5.154,-5.23,-1.903,-1.437,-1.527,-2.073,1.165,-1.295,335.7,318.4,-5.124,-8.491,1.813,-2.094,7.722,4.917,-4.373,-8.236,24,4.53,4.607,5.192,5.007,1.439,1.602,1.626,1.832,24,4.914,4.953,60,196.52817203,norm,0,85,85,85,511.742,511.755,511.774590161,511.775,511.777,511.779,up,1,0.728738050464,9.27126194954,001,019,1920_1200,Intel(R) Core(TM) i5-3570 CPU @ 3.40GHz,orientation_search,LEPPC096,Intel(R) HD Graphics 2500,2018_Dec_02_1611,testMonitor,
335.1,329.3,339.1,320.7,36,0,343.6,318.8,337.3,325.5,8.083,8.082,8.053,8.245,8.154,7.957,8.358,4.799,-4.714,-7.831,1.397,-1.539,8.075,4.547,-4.581,-8.433,337.8,306.2,-7.809,,324.7,310.6,339.6,306.8,36,330.5,5,5,prime,10,0,72,norm,36,-5.142,down,norm,326.171977692,327.7,323.9,334.6,325.2,1,325.5,328.8,322.8,10,6,7.787,4.58,1.969,-1.557,-4.425,-7.896,317.1,6,398.2,-7.873,-7.931,0,-8.048,-8.224,-5.263,-5.133,-4.901,-4.753,4.9,8.105,31,-1.286,1.45,4.526,7.646,-7.926,-7.781,-1.312,1.798,337.2,346.2,334.4,330.2,306.4,307.0,323.9,315.2,340.3,345.4,3,norm,1.342,1.961,-1.201,-1.148,-4.406,-4.757,-2.058,-1.323,-1.812,-1.257,1.758,-1.917,328.6,321.2,-4.944,-8.218,1.407,-1.59,7.964,5.263,-5.275,-7.713,24,4.633,4.573,4.495,5.277,1.641,2.05,1.584,1.33,24,4.794,5.28,60,196.52817203,norm,0,86,86,86,512.547,512.557,512.563516145,512.564,512.565,512.568,down,1,0.720118084209,9.27988191579,001,019,1920_1200,Intel(R) Core(TM) i5-3570 CPU @ 3.40GHz,orientation_search,LEPPC096,Intel(R) HD Graphics 2500,2018_Dec_02_1611,testMonitor,
315.2,337.8,337.8,339.1,36,0,335.6,335.6,,324.3,8.052,8.444,8.316,8.003,8.112,8.354,8.024,5.183,-4.943,-7.684,1.722,-1.507,8.458,5.041,-4.811,-7.544,322.4,312.9,-7.922,323.0,321.4,339.7,322.5,309.5,36,322.4,4,5,prime,10,0,104,norm,36,-4.654,up,norm,326.171977692,346.2,333.0,306.2,335.2,4,314.3,313.2,325.8,10,6,7.876,5.149,1.912,-1.73,-4.489,-8.326,319.6,6,430.2,-8.38,-8.398,0,-8.222,-7.763,-4.644,-4.691,-4.668,-4.476,4.718,8.384,28,-1.208,1.608,4.656,7.867,-7.949,-8.497,-1.376,1.74,326.5,335.3,342.0,335.7,312.2,326.1,340.3,317.7,320.7,322.1,4,norm,1.735,1.722,-1.593,-1.739,-4.64,-5.241,-1.663,-1.515,-1.322,-1.341,1.8,-1.531,345.4,325.7,-4.624,-7.983,1.854,-1.235,7.869,4.601,-4.374,-7.954,24,4.451,5.18,4.94,4.436,1.59,2.081,1.752,1.781,24,5.07,5.112,60,196.52817203,norm,0,87,87,87,513.327,513.337,513.343442734,513.344,513.345,513.348,up,1,0.705795544072,9.29420445593,001,019,1920_1200,Intel(R) Core(TM) i5-3570 CPU @ 3.40GHz,orientation_search,LEPPC096,Intel(R) HD Graphics 2500,2018_Dec_02_1611,testMonitor,
322.5,322.3,320.0,322.0,36,0,337.2,341.7,328.2,338.2,8.016,8.497,7.685,8.09,8.132,8.147,8.168,5.261,-4.405,-7.582,1.294,-1.87,8.023,4.49,-4.767,-8.177,326.5,335.6,-8.479,320.2,336.7,327.5,325.0,310.9,36,346.2,3,5,prime,10,0,72,norm,36,-5.046,down,norm,326.171977692,326.3,324.6,313.9,340.3,0,306.2,326.7,322.1,10,6,8.093,5.197,1.527,-1.335,-4.36,-8.355,332.5,6,398.2,-7.783,-8.34,0,-8.03,-7.71,-4.776,-4.732,-4.763,-4.906,5.0,7.889,18,-1.808,1.229,5.252,8.237,-8.488,-7.679,-1.255,1.258,317.3,326.6,324.1,330.8,342.9,331.7,332.5,333.1,324.6,325.3,5,norm,2.058,1.762,-1.307,-1.589,-4.615,-4.548,-1.692,-1.152,-1.388,-1.462,1.938,-1.638,318.6,,-4.606,-8.343,1.862,-1.983,7.525,4.582,-4.742,-8.134,24,4.854,4.536,4.593,4.597,1.336,1.103,1.263,2.033,24,4.404,4.673,60,196.52817203,norm,0,88,88,88,514.087,514.097,514.10649765,514.107,514.108,514.111,down,1,0.63791010266,9.36208989734,001,019,1920_1200,Intel(R) Core(TM) i5-3570 CPU @ 3.40GHz,orientation_search,LEPPC096,Intel(R) HD Graphics 2500,2018_Dec_02_1611,testMonitor,
383.4,395.2,397.0,387.2,36,-10,397.4,389.9,392.9,388.9,8.15,8.158,8.485,8.365,8.214,8.258,8.453,4.689,-4.601,-7.861,1.302,-1.117,8.015,4.585,-4.41,-7.964,395.0,395.6,-7.501,389.7,401.1,390.4,389.5,390.6,36,397.6,2,5,probe,5,0,65,norm,36,-4.496,down,norm,391.101670215,386.2,393.0,389.7,381.1,1,394.6,,389.4,10,6,7.69,4.875,1.806,-1.516,-4.948,-7.515,388.3,2,326.1,-7.786,-7.863,0,-8.011,-8.276,-5.237,-4.934,-5.29,-4.419,4.7,8.431,13,-1.432,1.271,5.135,8.087,-7.845,-8.096,-1.359,1.546,397.0,398.5,397.3,394.3,386.9,383.3,387.0,388.2,389.6,388.1,0,norm,1.328,1.287,-1.275,-1.898,-4.618,-5.297,-1.389,-1.788,-1.833,-1.315,1.586,-1.745,386.0,389.6,-4.944,-7.978,1.473,-1.436,8.271,4.707,-4.728,-7.892,25,4.497,5.154,4.508,5.002,1.312,1.492,1.279,1.242,25,4.703,5.211,0,326.171977692,norm,0,89,89,89,514.782,514.792,514.808485944,514.809,514.81,514.813,up,0,0.786356323331,-10,001,019,1920_1200,Intel(R) Core(TM) i5-3570 CPU @ 3.40GHz,orientation_search,LEPPC096,Intel(R) HD Graphics 2500,2018_Dec_02_1611,testMonitor,
436.8,430.4,439.8,437.8,36,-10,445.6,441.7,441.4,434.5,8.14,8.457,7.819,8.387,8.477,8.037,7.595,4.333,-5.161,-7.618,1.755,-1.364,7.667,5.131,-4.729,-8.452,435.7,437.3,-8.32,433.7,427.5,427.9,438.7,441.6,36,432.2,1,5,probe,5,0,111,norm,36,-4.981,up,norm,437.101670215,438.4,439.6,447.1,435.7,3,443.9,445.1,434.5,10,6,7.939,4.324,1.894,-1.131,-5.262,-7.569,429.7,2,326.1,-8.034,-8.407,0,-7.577,-7.763,-4.537,-4.825,-4.971,-4.902,5.121,7.782,9,-2.024,1.487,4.674,8.101,-7.948,-7.792,-1.872,1.935,,430.7,435.2,434.2,427.1,438.0,442.6,430.6,433.2,435.4,1,norm,2.001,1.272,-1.542,-2.05,-5.269,-4.32,-1.424,-1.72,-1.335,-2.016,1.286,-1.734,440.1,438.3,-5.121,-8.035,1.377,-1.583,8.366,5.285,-4.337,-8.157,25,4.484,4.932,4.508,5.157,1.449,1.518,1.396,1.866,25,5.154,4.308,0,326.171977692,norm,0,90,90,90,516.67,516.679,516.686010704,516.686,516.688,516.69,up,1,0.982252353686,9.01774764631,001,019,1920_1200,Intel(R) Core(TM) i5-3570 CPU @ 3.40GHz,orientation_search,LEPPC096,Intel(R) HD Graphics 2500,2018_Dec_02_1611,testMonitor,
59.7,67.4,58.5,61.3,36,-10,59.4,55.8,58.9,52.5,8.133,8.449,7.706,8.149,8.455,7.685,8.322,4.997,-4.503,-7.925,1.803,-1.906,7.627,4.34,-4.629,-8.365,73.6,56.0,-7.917,45.4,58.3,65.9,72.8,58.6,36,71.6,2,5,prime,10,0,119,norm,36,-5.147,up,norm,65.3917977824,,50.6,59.0,54.2,5,63.8,65.3,68.4,10,6,7.931,5.279,1.656,-1.972,-4.853,-8.179,79.9,6,184.4,-8.372,-8.027,-10,-7.911,-8.014,-4.518,-4.841,-5.266,-5.288,4.822,7.843,17,-1.647,1.713,4.906,8.151,-8.389,-7.812,-1.962,1.53,65.5,76.9,65.4,52.1,61.8,80.0,49.1,82.7,85.4,73.3,0,norm,1.355,1.364,-1.861,-1.642,-4.305,-5.262,-1.645,-1.713,-1.329,-1.849,1.496,-1.569,62.5,75.9,-5.143,-8.456,2.033,-1.194,8.458,5.149,-5.169,-7.704,26,5.243,5.044,5.113,4.653,1.841,1.81,1.694,1.793,26,5.073,4.325,-10,326.171977692,norm,0,91,91,91,517.711,517.733,517.743861704,517.744,517.746,517.748,up,1,0.754250820281,9.24574917972,001,019,1920_1200,Intel(R) Core(TM) i5-3570 CPU @ 3.40GHz,orientation_search,LEPPC096,Intel(R) HD Graphics 2500,2018_Dec_02_1611,testMonitor,
75.7,75.1,60.1,57.5,36,-10,65.0,77.3,70.8,69.6,8.116,8.237,7.723,7.546,8.147,8.367,7.594,5.281,-5.241,-8.151,1.102,-2.042,7.892,5.127,-4.976,-8.331,67.0,64.5,-8.254,62.9,66.0,66.1,51.8,85.4,36,60.1,0,5,prime,10,0,94,norm,36,-4.996,up,norm,65.3917977824,49.5,74.2,72.7,65.4,5,72.1,77.6,57.9,10,6,8.371,4.701,1.4,-1.151,-4.351,-7.59,70.2,6,159.4,-8.087,-7.56,-10,-7.616,-7.672,-5.012,-4.48,-4.77,-4.832,4.646,7.667,5,-1.615,1.226,4.779,8.396,-7.845,-7.522,-1.406,1.971,49.0,64.7,78.9,69.4,70.1,45.4,77.6,64.7,,60.1,1,norm,1.736,1.126,-1.828,-1.86,-4.998,-5.04,-1.237,-1.262,-1.371,-1.854,1.526,-1.545,68.3,60.2,-4.32,-8.172,1.188,-2.067,7.577,4.719,-4.344,-7.649,26,4.694,4.376,4.601,4.804,1.744,2.055,1.929,1.753,26,4.414,4.343,-10,326.171977692,norm,0,92,92,92,518.522,518.531,518.538043521,518.538,518.54,518.543,up,1,0.96549387393,9.03450612607,001,019,1920_1200,Intel(R) Core(TM) i5-3570 CPU @ 3.40GHz,orientation_search,LEPPC096,Intel(R) HD Graphics 2500,2018_Dec_02_1611,testMonitor,
64.5,70.6,48.7,80.6,36,-10,65.9,56.9,54.2,69.9,7.865,7.803,7.876,7.751,7.837,8.155,7.8,4.443,-5.008,-7.64,1.541,-1.204,7.847,5.209,-5.032,-7.599,65.1,45.4,-8.177,47.4,54.6,83.8,60.9,81.7,36,61.5,3,5,prime,10,0,108,norm,36,-5.043,down,norm,65.3917977824,58.4,72.8,85.4,57.5,0,66.7,67.7,60.0,10,6,8.234,4.689,1.418,-1.779,-4.601,-7.534,65.6,6,173.4,-7.998,-8.044,-10,-8.169,-8.218,-5.094,-5.227,-4.541,-4.434,4.812,8.197,18,-1.19,1.105,5.233,7.639,-8.228,-7.711,-1.92,1.447,57.6,74.7,60.2,67.7,70.4,66.5,51.2,60.9,73.2,48.4,2,norm,1.439,1.793,-1.571,-1.674,-5.153,-5.151,-1.675,-1.332,-2.044,-1.667,1.547,-1.618,51.8,,-4.389,-8.115,1.938,-1.609,8.488,5.034,-4.832,-7.778,26,4.653,4.813,4.427,4.384,1.982,1.978,1.869,1.195,26,4.555,5.273,-10,326.171977692,norm,0,93,93,93,519.542,519.557,519.574434104,519.575,519.577,519.58,down,1,1.7845440084,8.2154559916,001,019,1920_1200,Intel(R) Core(TM) i5-3570 CPU @ 3.40GHz,orientation_search,LEPPC096,Intel(R) HD Graphics 2500,2018_Dec_02_1611,testMonitor,
76.7,74.4,71.6,63.3,36,-10,81.3,68.4,85.4,69.8,8.289,7.985,7.957,8.25,8.245,8.171,8.443,4.637,-5.248,-8.465,1.39,-1.989,7.753,4.428,-4.96,-7.986,71.3,51.8,-8.369,64.0,46.5,77.3,45.4,62.9,36,46.4,2,5,prime,10,0,71,norm,36,-4.423,up,norm,65.3917977824,68.0,,68.5,77.1,4,68.4,68.3,72.6,10,6,7.571,4.45,1.245,-1.373,-5.043,-7.503,59.0,6,136.4,-7.986,-7.642,-10,-8.108,-8.358,-4.524,-4.884,-4.504,-5.259,4.777,8.178,16,-1.817,1.47,4.965,8.101,-7.569,-7.957,-1.341,1.423,56.6,64.6,71.2,63.1,59.0,51.3,83.4,61.1,53.1,62.2,3,norm,1.511,1.603,-1.2,-1.146,-5.14,-4.723,-1.675,-1.716,-1.931,-1.492,1.785,-2.081,69.4,72.7,-5.202,-8.323,1.137,-1.9,8.434,4.349,-4.318,-7.618,26,4.545,5.185,4.719,4.446,1.473,2.036,1.461,2.018,26,4.49,4.785,-10,326.171977692,norm,0,94,94,94,521.398,521.411,521.430822635,521.431,521.433,521.435,up,1,0.848182704527,9.15181729547,001,019,1920_1200,Intel(R) Core(TM) i5-3570 CPU @ 3.40GHz,orientation_search,LEPPC096,Intel(R) HD Graphics 2500,2018_Dec_02_1611,testMonitor,
58.8,69.9,77.8,60.5,36,-10,63.4,48.4,59.2,51.0,8.375,7.902,8.174,7.874,8.11,8.18,7.528,4.961,-5.034,-7.962,1.486,-1.371,8.496,4.476,-5.029,-8.495,,66.3,-7.653,73.4,62.9,72.4,51.2,73.1,36,59.2,5,5,prime,10,0,66,norm,36,-4.381,up,norm,65.3917977824,70.4,79.5,45.4,51.5,5,85.4,73.0,69.8,10,6,8.182,4.532,1.576,-2.037,-4.719,-7.697,66.8,6,131.4,-8.265,-8.176,-10,-7.75,-7.518,-4.534,-4.94,-4.577,-4.682,4.785,8.001,35,-2.067,1.61,4.649,7.608,-8.004,-8.141,-1.269,1.386,47.3,59.9,64.6,75.3,50.6,59.5,62.9,70.0,84.6,70.0,4,norm,1.866,1.84,-1.847,-1.794,-5.171,-4.578,-1.512,-1.634,-1.805,-1.527,2.002,-1.496,59.9,47.6,-4.7,-7.846,1.978,-1.854,7.747,4.556,-4.709,-8.486,26,4.305,4.928,5.066,4.322,1.471,1.316,1.732,1.344,26,4.999,4.547,-10,326.171977692,norm,0,95,95,95,522.317,522.327,522.332832361,522.333,522.335,522.338,up,1,0.742475602872,9.25752439713,001,019,1920_1200,Intel(R) Core(TM) i5-3570 CPU @ 3.40GHz,orientation_search,LEPPC096,Intel(R) HD Graphics 2500,2018_Dec_02_1611,testMonitor,
