d_ori_22,d_ori_23,d_ori_20,d_ori_21,set_size,ctpd,d_ori_24,d_ori_25,d_ori_28,d_ori_29,stim_pos_x_30,stim_pos_x_31,stim_pos_x_32,stim_pos_x_33,stim_pos_x_34,stim_pos_x_35,stim_pos_y_11,stim_pos_y_10,stim_pos_y_13,stim_pos_y_12,stim_pos_y_15,stim_pos_y_14,stim_pos_y_17,stim_pos_y_16,stim_pos_y_19,stim_pos_y_18,d_ori_35,d_ori_34,stim_pos_x_3,d_ori_31,d_ori_30,d_ori_33,d_ori_32,d_ori_26,test_set_size,d_ori_27,targetCol,dsd_test,seq_type,dsd,blockRepN,targetDist,dtype_test,prime_set_size,stim_pos_y_25,correctResponse,dtype,distrMean,d_ori_17,d_ori_16,stim_pos_y_3,d_ori_14,targetRow,d_ori_11,d_ori_13,d_ori_12,dsd_prime,streak_length_prime,stim_pos_y_35,stim_pos_y_34,stim_pos_y_33,stim_pos_y_32,stim_pos_y_31,stim_pos_y_30,d_ori_10,nextProbe,targetOri,stim_pos_x_1,stim_pos_x_2,ctpd_prime,stim_pos_x_4,stim_pos_x_5,stim_pos_x_6,stim_pos_x_7,stim_pos_x_8,stim_pos_x_9,stim_pos_y_28,stim_pos_y_29,targetPos,stim_pos_y_20,stim_pos_y_21,stim_pos_y_22,stim_pos_y_23,stim_pos_y_24,stim_pos_x_0,stim_pos_y_26,stim_pos_y_27,d_ori_9,d_ori_8,d_ori_3,d_ori_2,d_ori_1,d_ori_0,d_ori_7,d_ori_6,d_ori_5,d_ori_4,trialN,dtype_prime,stim_pos_x_18,stim_pos_x_19,stim_pos_x_12,stim_pos_x_13,stim_pos_x_10,stim_pos_x_11,stim_pos_x_16,stim_pos_x_17,stim_pos_x_14,stim_pos_x_15,stim_pos_y_9,stim_pos_y_8,d_ori_19,d_ori_18,stim_pos_y_1,stim_pos_y_0,d_ori_15,stim_pos_y_2,stim_pos_y_5,stim_pos_y_4,stim_pos_y_7,stim_pos_y_6,totBlockN,stim_pos_x_27,stim_pos_x_26,stim_pos_x_25,stim_pos_x_24,stim_pos_x_23,stim_pos_x_22,stim_pos_x_21,stim_pos_x_20,blockN,stim_pos_x_29,stim_pos_x_28,prevDistrCTPD,prevDistrMean,prevDistrType,trials.thisRepN,trials.thisTrialN,trials.thisN,trials.thisIndex,timeStart,timeBeforeDraw,timeDraw,timeAfterSaving,timeAfterWritingToTemp,timeAfterPreparingNext,answer,correct,rt,trialScore,session,participant,resolution,cpu_info,expName,pc_name,graphic_card,date,monitorName,
175.8,157.5,152.2,148.3,36,-30,161.0,142.1,158.4,148.3,8.256,8.108,8.054,8.138,7.709,7.528,7.847,5.2,-4.672,-8.108,1.88,-2.006,8.165,4.6,-4.752,-8.031,156.9,147.0,-7.893,154.7,,149.5,150.9,156.8,36,156.6,5,5,prime,10,0,118,norm,36,-4.936,down,norm,155.837829628,161.1,153.1,1.686,155.9,0,150.9,152.1,161.9,10,6,7.537,4.575,1.45,-1.312,-4.482,-7.667,135.8,6,273.8,-8.259,-7.695,-30,-7.891,-8.426,-4.745,-4.544,-5.236,-4.741,4.879,7.986,30,-1.445,2.038,4.419,8.113,-7.93,-8.043,-1.709,1.8,156.2,144.7,175.6,151.5,150.3,163.9,151.8,151.7,161.7,154.3,0,norm,1.577,1.661,-1.304,-1.941,-4.591,-4.689,-1.976,-1.112,-1.315,-1.581,1.991,-1.786,166.3,163.9,-4.61,-7.945,147.1,-1.25,8.477,4.72,-5.106,-7.684,0,4.527,5.229,5.099,4.758,1.561,1.22,1.988,1.35,0,4.924,5.029,,,,0,0,0,0,365.857,365.876,365.896268343,365.897,365.897,365.902,up,0,6.08482739629,-10,001,320,1280_800,Intel(R) Core(TM)2 Duo CPU     T7500  @ 2.20GHz,orientation_search,GRVLAPTOP4,Quadro NVS 140M/PCIe/SSE2,2018_nov_08_1402,testMonitor,
156.4,163.7,148.8,148.9,36,-30,145.4,148.3,153.7,153.7,7.613,8.176,7.964,8.476,7.524,7.705,7.567,4.328,-4.699,-8.087,1.428,-1.134,7.547,4.687,-4.386,-7.589,160.0,154.6,-7.617,165.1,156.4,158.8,175.8,171.0,36,165.2,1,5,prime,10,0,110,norm,36,-4.652,up,norm,155.837829628,159.7,159.7,1.122,173.5,4,150.1,172.0,157.7,10,6,8.03,4.89,1.678,-1.166,-4.406,-7.88,,6,265.8,-8.41,-8.11,-30,-7.772,-8.074,-5.059,-4.755,-4.655,-5.095,5.061,8.118,10,-1.933,1.291,4.705,8.157,-8.226,-8.065,-1.719,1.408,135.8,159.0,156.1,164.1,165.0,144.1,151.8,160.3,163.5,167.5,1,norm,1.148,2.047,-1.29,-2.063,-4.522,-4.854,-1.937,-1.343,-1.827,-1.269,1.959,-2.064,159.4,155.8,-5.11,-8.154,144.4,-1.561,7.653,4.683,-4.812,-8.346,0,4.497,5.179,4.62,4.916,1.473,1.145,1.628,1.31,0,4.694,4.595,,,,0,1,1,1,373.051,373.061,373.08077555,373.081,373.083,373.088,up,1,4.54517988499,5.45482011501,001,320,1280_800,Intel(R) Core(TM)2 Duo CPU     T7500  @ 2.20GHz,orientation_search,GRVLAPTOP4,Quadro NVS 140M/PCIe/SSE2,2018_nov_08_1402,testMonitor,
152.5,149.4,139.8,140.0,36,-30,154.5,175.8,164.4,173.7,7.531,8.242,7.95,8.141,7.906,7.849,8.083,4.824,-5.132,-7.82,1.101,-1.371,8.409,4.387,-4.436,-7.87,165.8,159.9,-8.118,154.6,159.4,160.2,158.7,165.9,36,162.4,1,5,prime,10,0,116,norm,36,-4.729,up,norm,155.837829628,160.0,155.6,1.8,159.1,4,162.9,147.9,150.8,10,6,8.22,5.131,1.29,-1.399,-4.889,-7.808,,6,271.8,-8.496,-7.882,-30,-8.483,-8.47,-4.653,-4.383,-4.401,-4.461,4.808,8.423,10,-1.538,1.921,4.877,7.996,-7.756,-7.542,-1.394,1.83,165.7,147.0,166.1,162.0,135.8,159.1,138.6,153.7,165.7,156.9,2,norm,1.465,2.007,-1.989,-1.249,-4.723,-4.792,-2.089,-1.834,-2.1,-1.357,1.204,-1.358,164.6,162.8,-4.319,-7.818,145.4,-1.438,8.032,4.763,-4.415,-7.852,0,4.313,4.725,4.929,5.281,1.604,1.719,1.687,1.611,0,4.301,4.595,,,,0,2,2,2,377.649,377.657,377.664416004,377.665,377.669,377.674,up,1,3.73438445166,6.26561554834,001,320,1280_800,Intel(R) Core(TM)2 Duo CPU     T7500  @ 2.20GHz,orientation_search,GRVLAPTOP4,Quadro NVS 140M/PCIe/SSE2,2018_nov_08_1402,testMonitor,
163.3,160.5,143.5,159.2,36,-30,160.2,159.3,144.9,161.5,7.798,8.488,8.151,7.65,7.918,7.922,7.502,4.717,-4.84,-8.012,1.279,-1.36,7.62,4.369,-5.267,-7.5,148.3,150.4,-8.231,153.7,157.0,164.2,147.1,154.2,36,175.8,0,5,prime,10,0,102,norm,36,-5.206,down,norm,155.837829628,173.9,144.8,1.142,156.1,0,152.2,141.9,158.9,10,6,8.282,4.431,2.07,-1.14,-5.033,-7.78,166.0,6,257.8,-7.586,-7.635,-30,-7.997,-8.039,-4.719,-4.814,-4.979,-4.802,4.392,7.625,0,-2.041,1.38,5.005,7.503,-7.634,-7.73,-1.317,1.361,159.8,141.8,154.7,155.3,159.1,,155.3,142.0,142.1,154.8,3,norm,1.643,1.893,-1.748,-1.917,-4.56,-4.333,-1.107,-1.376,-1.696,-1.633,1.785,-1.285,146.4,135.8,-4.59,-8.185,161.8,-1.161,7.659,4.349,-4.454,-8.418,0,5.172,4.704,5.159,4.856,1.539,1.613,1.876,1.13,0,4.932,4.388,,,,0,3,3,3,381.424,381.43,381.438901647,381.439,381.443,381.448,down,1,4.28986548299,5.71013451701,001,320,1280_800,Intel(R) Core(TM)2 Duo CPU     T7500  @ 2.20GHz,orientation_search,GRVLAPTOP4,Quadro NVS 140M/PCIe/SSE2,2018_nov_08_1402,testMonitor,
146.7,160.2,158.4,142.3,36,-30,157.1,173.1,147.1,160.5,7.666,8.007,8.432,7.924,7.706,8.429,7.71,4.577,-4.754,-7.91,1.488,-1.276,8.436,5.139,-4.537,-8.27,158.2,158.0,-7.789,154.0,149.5,,165.4,147.6,36,153.4,5,5,prime,10,0,91,norm,36,-4.578,up,norm,155.837829628,154.4,157.1,1.162,146.1,3,144.6,144.3,135.8,10,6,7.562,4.501,1.362,-1.168,-5.168,-8.013,175.8,6,246.8,-8.134,-8.48,-30,-8.335,-7.872,-4.41,-4.616,-4.53,-4.777,4.994,7.957,33,-2.058,1.802,4.436,7.658,-7.556,-7.549,-1.882,2.089,144.8,139.6,172.3,169.1,140.0,154.7,173.9,154.7,136.9,171.7,4,norm,1.15,1.375,-1.839,-1.187,-5.149,-4.666,-1.675,-1.845,-1.51,-1.543,1.663,-1.997,155.4,150.6,-4.91,-8.406,160.7,-1.967,7.545,4.397,-4.579,-7.633,0,5.286,4.547,4.308,4.434,1.758,1.972,1.473,1.402,0,4.425,4.727,,,,0,4,4,4,385.754,385.761,385.768733897,385.769,385.773,385.778,up,1,5.05093676487,4.94906323513,001,320,1280_800,Intel(R) Core(TM)2 Duo CPU     T7500  @ 2.20GHz,orientation_search,GRVLAPTOP4,Quadro NVS 140M/PCIe/SSE2,2018_nov_08_1402,testMonitor,
159.0,171.8,155.8,150.7,36,-30,138.5,135.8,156.2,144.4,8.25,8.334,7.694,8.491,7.82,8.103,7.967,5.034,-5.053,-8.075,1.381,-2.038,8.09,5.215,-4.682,-7.503,158.4,155.4,-7.867,173.3,151.9,151.2,160.6,160.5,36,152.4,0,5,prime,10,0,83,norm,36,-4.389,up,norm,155.837829628,171.3,139.7,1.52,170.0,5,156.3,149.8,171.8,10,6,8.421,4.704,1.908,-1.709,-5.081,-8.033,172.4,6,238.8,-8.199,-7.537,-30,-8.224,-7.677,-4.971,-5.036,-5.028,-4.431,4.517,7.774,5,-1.412,1.294,4.563,8.464,-8.337,-8.259,-1.725,1.347,152.2,158.9,163.2,175.8,149.6,165.3,144.8,153.5,,161.6,5,norm,1.805,1.667,-1.464,-1.172,-4.756,-5.292,-1.326,-1.113,-1.283,-1.953,1.457,-1.947,163.1,167.1,-4.934,-8.052,170.8,-1.89,8.399,5.146,-5.282,-8.284,0,5.134,4.794,4.589,4.334,1.534,1.484,1.235,1.483,0,4.301,4.928,,,,0,5,5,5,390.845,390.852,390.859646764,390.86,390.864,390.869,up,1,1.67310920055,8.32689079945,001,320,1280_800,Intel(R) Core(TM)2 Duo CPU     T7500  @ 2.20GHz,orientation_search,GRVLAPTOP4,Quadro NVS 140M/PCIe/SSE2,2018_nov_08_1402,testMonitor,
228.0,218.9,223.9,214.7,36,80,223.1,223.1,230.0,228.1,8.073,8.318,7.59,8.312,7.861,8.386,8.005,4.584,-5.255,-8.348,1.909,-1.597,7.525,5.282,-4.544,-7.962,226.9,226.4,-8.365,226.8,234.7,221.0,224.7,223.0,36,225.1,0,5,probe,5,0,95,norm,36,-5.093,up,norm,224.677401445,219.8,223.4,1.218,218.6,4,230.7,221.4,215.9,10,6,7.897,4.658,1.792,-2.066,-4.586,-8.271,222.8,2,129.7,-7.746,-8.495,-30,-7.817,-7.605,-4.89,-4.749,-4.823,-5.214,4.411,7.697,4,-2.045,1.231,4.312,7.853,-7.551,-8.345,-1.883,1.788,223.1,218.8,230.7,218.2,227.9,229.4,217.5,226.1,223.0,,0,norm,1.555,1.427,-1.681,-1.836,-4.897,-4.761,-1.356,-1.331,-1.955,-1.149,1.3,-2.083,232.2,217.4,-4.687,-7.771,224.9,-1.591,8.427,5.28,-4.95,-8.003,1,5.103,4.373,4.618,4.441,1.935,1.367,1.542,1.709,1,4.499,5.077,-30,155.837829628,norm,0,6,6,6,392.558,392.564,392.572567305,392.573,392.577,392.582,up,1,1.32334397521,8.67665602479,001,320,1280_800,Intel(R) Core(TM)2 Duo CPU     T7500  @ 2.20GHz,orientation_search,GRVLAPTOP4,Quadro NVS 140M/PCIe/SSE2,2018_nov_08_1402,testMonitor,
210.5,213.2,220.2,218.4,36,80,220.4,211.6,206.8,215.6,8.362,7.903,7.93,7.973,8.497,8.298,8.009,4.533,-5.148,-8.287,1.127,-1.205,7.651,5.145,-4.914,-7.917,,206.2,-7.719,214.3,209.1,217.1,214.3,215.1,36,214.3,5,5,probe,5,0,83,norm,36,-5.068,up,norm,212.677401445,209.6,217.6,1.371,207.7,5,202.7,211.8,213.4,10,6,7.818,4.56,1.897,-1.376,-5.034,-8.457,207.1,2,129.7,-8.382,-7.614,-30,-7.604,-7.825,-5.256,-4.74,-4.565,-4.322,5.093,8.466,35,-1.541,1.683,5.064,7.504,-8.086,-8.028,-1.539,1.335,203.4,219.6,213.8,216.0,211.0,214.2,222.7,204.3,210.1,213.1,1,norm,1.393,1.131,-2.039,-1.507,-4.743,-4.453,-1.863,-1.373,-1.933,-1.308,1.345,-2.006,205.3,220.7,-4.517,-8.005,214.4,-1.209,7.566,4.922,-4.677,-7.853,1,5.078,4.851,4.963,4.444,1.14,1.417,1.254,1.475,1,5.106,4.995,-30,155.837829628,norm,0,7,7,7,393.922,393.929,393.936566036,393.937,393.941,393.946,up,1,1.32389427206,8.67610572794,001,320,1280_800,Intel(R) Core(TM)2 Duo CPU     T7500  @ 2.20GHz,orientation_search,GRVLAPTOP4,Quadro NVS 140M/PCIe/SSE2,2018_nov_08_1402,testMonitor,
92.9,101.2,90.2,87.8,36,10,84.8,96.6,72.3,70.9,7.658,7.914,7.631,7.798,8.197,7.63,8.087,4.73,-4.889,-8.246,2.016,-1.874,8.367,5.254,-4.986,-8.383,87.0,86.8,-8.241,94.0,91.6,90.4,90.1,87.2,36,102.6,1,5,prime,10,0,107,norm,36,-5.036,up,norm,90.9259682044,93.6,97.2,1.523,88.8,4,101.2,92.4,81.4,10,5,8.487,4.471,2.04,-1.654,-4.416,-8.456,,5,197.9,-8.475,-7.98,10,-8.015,-8.186,-5.061,-5.281,-4.789,-4.735,5.022,7.985,10,-1.123,2.016,4.391,7.661,-8.274,-8.292,-1.521,1.182,86.0,77.3,102.6,110.9,73.4,99.8,99.1,75.4,95.1,89.5,0,norm,1.331,1.997,-1.918,-1.906,-4.48,-4.785,-1.852,-1.737,-1.557,-1.169,1.566,-1.648,108.8,85.6,-4.358,-8.386,101.2,-1.319,7.918,4.325,-4.978,-7.69,2,4.92,5.118,5.02,4.526,1.429,1.449,1.858,1.875,2,4.445,4.492,80,155.837829628,norm,0,8,8,8,395.285,395.291,395.300463948,395.301,395.305,395.31,up,1,5.2887191479,4.7112808521,001,320,1280_800,Intel(R) Core(TM)2 Duo CPU     T7500  @ 2.20GHz,orientation_search,GRVLAPTOP4,Quadro NVS 140M/PCIe/SSE2,2018_nov_08_1402,testMonitor,
81.8,94.8,110.9,82.3,36,10,81.6,99.0,91.6,83.2,8.252,7.623,8.081,7.873,8.282,8.23,7.934,4.963,-4.372,-8.225,1.124,-2.089,7.594,4.94,-4.362,-7.565,82.0,90.0,-8.284,91.2,83.9,92.6,79.3,90.9,36,92.4,0,5,prime,10,0,117,norm,36,-4.875,up,norm,90.9259682044,89.9,93.9,2.049,93.3,3,81.1,89.5,100.0,10,5,7.689,4.839,1.495,-1.771,-5.125,-7.611,89.9,5,207.9,-8.137,-8.425,10,-7.704,-7.563,-4.949,-4.429,-4.432,-4.641,4.337,7.923,3,-1.131,1.673,4.81,8.182,-8.343,-7.65,-1.301,1.5,75.7,81.4,,86.4,103.5,95.2,100.3,101.3,99.5,70.9,1,norm,1.802,1.973,-1.547,-1.821,-5.088,-4.545,-1.187,-1.231,-1.66,-1.416,1.625,-1.342,84.3,77.8,-4.895,-8.051,78.2,-1.805,7.975,4.443,-4.953,-8.146,2,4.863,4.701,5.217,4.985,1.372,1.831,1.414,1.965,2,4.395,4.379,80,155.837829628,norm,0,9,9,9,400.614,400.621,400.62937297,400.63,400.633,400.638,up,1,3.46520107539,6.53479892461,001,320,1280_800,Intel(R) Core(TM)2 Duo CPU     T7500  @ 2.20GHz,orientation_search,GRVLAPTOP4,Quadro NVS 140M/PCIe/SSE2,2018_nov_08_1402,testMonitor,
83.4,93.0,93.9,88.8,36,10,98.1,84.8,90.9,81.1,8.16,7.789,7.635,7.821,7.845,8.325,7.669,4.524,-4.613,-8.367,1.244,-1.485,8.042,4.304,-4.319,-7.92,76.0,,-8.473,110.9,91.6,85.3,73.2,103.5,36,88.1,5,5,prime,10,0,65,norm,36,-5.202,up,norm,90.9259682044,74.3,85.9,1.463,87.2,4,97.4,87.8,104.8,10,5,8.156,4.93,1.692,-1.338,-4.858,-7.622,85.3,5,155.9,-8.492,-8.153,10,-8.304,-8.164,-4.559,-4.543,-4.799,-4.655,4.886,7.631,34,-1.74,1.831,4.989,7.917,-8.323,-7.83,-1.486,1.742,100.5,100.1,104.6,70.9,100.0,86.5,81.7,100.0,86.8,107.5,2,norm,1.667,1.145,-1.384,-1.501,-4.444,-4.92,-1.465,-1.627,-1.836,-2.02,1.135,-2.092,97.6,92.6,-4.589,-7.941,92.1,-1.505,7.563,4.627,-4.315,-7.64,2,4.406,4.398,5.278,4.759,1.674,2.091,1.688,1.654,2,4.69,4.568,80,155.837829628,norm,0,10,10,10,404.12,404.126,404.134357847,404.135,404.138,404.143,up,1,2.18045722714,7.81954277286,001,320,1280_800,Intel(R) Core(TM)2 Duo CPU     T7500  @ 2.20GHz,orientation_search,GRVLAPTOP4,Quadro NVS 140M/PCIe/SSE2,2018_nov_08_1402,testMonitor,
86.9,88.4,84.6,85.3,36,10,86.7,104.8,70.9,88.2,7.879,7.737,7.777,8.246,7.867,8.49,8.483,5.08,-5.173,-7.95,1.262,-1.812,7.672,4.79,-4.739,-8.29,72.6,90.6,-7.553,103.2,86.2,79.2,79.7,98.6,36,82.4,3,5,prime,10,0,67,norm,36,-4.782,down,norm,90.9259682044,86.8,110.9,1.988,83.1,1,73.9,106.3,80.0,10,5,8.048,4.774,1.131,-1.195,-4.306,-8.221,92.2,5,157.9,-8.307,-8.198,10,-8.408,-7.751,-5.213,-4.892,-4.943,-4.698,4.872,8.377,19,-1.704,1.382,4.683,8.006,-7.501,-8.279,-1.121,1.783,84.9,95.3,82.7,84.6,84.4,94.0,81.1,98.5,80.0,77.9,3,norm,2.003,1.896,-1.921,-1.897,-5.102,-4.701,-1.282,-1.651,-1.229,-1.667,1.44,-1.248,,81.9,-4.717,-8.092,77.4,-1.637,7.956,5.002,-5.006,-8.321,2,5.056,4.541,4.544,4.684,1.862,1.138,1.728,1.723,2,5.094,5.012,80,155.837829628,norm,0,11,11,11,406.34,406.346,406.354759438,406.355,406.359,406.364,down,1,1.79983523767,8.20016476233,001,320,1280_800,Intel(R) Core(TM)2 Duo CPU     T7500  @ 2.20GHz,orientation_search,GRVLAPTOP4,Quadro NVS 140M/PCIe/SSE2,2018_nov_08_1402,testMonitor,
105.2,97.3,89.9,93.1,36,10,104.1,101.2,96.7,104.8,8.283,8.008,7.883,8.209,8.159,8.35,8.183,4.38,-4.438,-8.236,1.895,-1.228,8.288,4.873,-5.131,-7.704,92.1,84.2,-7.824,,91.6,79.2,97.2,86.9,36,92.3,5,5,prime,10,0,91,norm,36,-4.714,down,norm,90.9259682044,85.4,86.2,1.15,89.6,1,78.4,87.7,96.0,10,5,8.13,5.101,2.089,-1.724,-4.571,-8.443,74.7,5,181.9,-7.983,-8.432,10,-7.75,-8.291,-4.343,-4.723,-5.217,-4.77,4.815,7.564,31,-1.317,1.678,5.064,8.416,-7.702,-7.512,-2.067,1.243,96.7,110.9,70.9,93.5,86.1,99.7,81.4,87.7,106.2,88.6,4,norm,1.608,1.61,-1.125,-1.751,-4.775,-4.955,-1.709,-1.227,-1.614,-1.804,1.896,-1.193,92.9,95.3,-4.369,-7.904,84.0,-2.0,7.573,4.6,-5.207,-7.971,2,5.298,5.275,4.618,4.44,1.605,1.594,1.294,1.655,2,4.915,5.153,80,155.837829628,norm,0,12,12,12,408.18,408.186,408.194504499,408.195,408.198,408.204,down,1,3.17970902879,6.82029097121,001,320,1280_800,Intel(R) Core(TM)2 Duo CPU     T7500  @ 2.20GHz,orientation_search,GRVLAPTOP4,Quadro NVS 140M/PCIe/SSE2,2018_nov_08_1402,testMonitor,
192.9,211.4,,198.6,36,20,199.4,209.4,198.3,192.3,7.995,7.603,8.337,7.654,7.837,7.848,7.845,4.346,-4.544,-7.551,1.534,-2.076,8.24,4.627,-5.289,-7.907,209.2,203.5,-8.055,202.3,199.9,202.8,200.1,207.7,36,210.7,3,5,probe,5,0,101,norm,36,-5.193,down,norm,202.277896916,201.3,199.9,1.48,198.5,2,204.5,202.0,196.6,10,5,8.359,5.025,1.623,-1.161,-4.413,-8.223,196.4,2,101.3,-7.757,-8.108,10,-7.936,-7.518,-5.292,-4.608,-4.696,-4.327,4.422,8.224,20,-1.357,1.215,4.867,8.353,-8.279,-8.299,-1.297,1.449,201.1,212.3,200.4,208.3,204.3,202.0,198.7,207.1,201.9,207.8,0,norm,1.113,1.654,-1.812,-1.729,-4.729,-4.373,-2.099,-2.06,-1.242,-1.464,1.778,-2.094,207.0,208.1,-4.619,-7.552,198.5,-1.97,8.377,4.899,-5.246,-7.908,3,5.28,4.472,4.334,5.23,1.109,1.573,1.674,1.893,3,4.404,4.915,10,90.9259682044,norm,0,13,13,13,411.399,411.406,411.414017867,411.414,411.419,411.424,down,1,1.84643310556,8.15356689444,001,320,1280_800,Intel(R) Core(TM)2 Duo CPU     T7500  @ 2.20GHz,orientation_search,GRVLAPTOP4,Quadro NVS 140M/PCIe/SSE2,2018_nov_08_1402,testMonitor,
189.0,183.5,184.8,189.2,36,20,200.3,199.3,,194.3,8.39,8.496,8.127,8.387,7.527,7.882,7.606,4.718,-4.818,-7.6,1.307,-2.038,8.26,4.72,-4.446,-7.858,200.2,183.3,-8.317,195.8,195.9,189.2,191.3,195.4,36,188.9,4,5,probe,5,0,92,norm,36,-4.514,up,norm,193.277896916,194.6,187.7,1.279,191.3,4,203.3,191.6,198.6,10,5,8.247,4.975,1.519,-1.823,-5.15,-8.28,198.1,2,101.3,-8.052,-7.503,10,-7.809,-8.103,-5.237,-4.757,-4.386,-4.492,4.838,7.908,28,-1.567,1.72,5.231,8.183,-7.777,-7.837,-1.749,1.808,193.2,195.0,188.4,192.2,195.2,190.2,188.1,185.7,199.6,194.3,1,norm,1.865,1.425,-1.228,-1.97,-4.677,-5.056,-1.194,-1.612,-1.208,-1.802,1.115,-2.045,196.5,186.3,-4.766,-8.119,199.5,-1.785,7.527,4.572,-4.963,-7.582,3,4.935,4.887,4.859,4.306,1.248,1.817,1.485,1.29,3,4.796,4.47,10,90.9259682044,norm,0,14,14,14,413.287,413.294,413.301320432,413.302,413.306,413.311,up,1,0.910862645159,9.08913735484,001,320,1280_800,Intel(R) Core(TM)2 Duo CPU     T7500  @ 2.20GHz,orientation_search,GRVLAPTOP4,Quadro NVS 140M/PCIe/SSE2,2018_nov_08_1402,testMonitor,
267.3,245.1,249.0,270.9,36,-80,263.2,252.9,257.8,257.9,7.993,8.309,7.552,8.451,8.419,8.372,8.35,4.347,-5.063,-8.115,1.935,-2.022,8.215,4.981,-4.941,-7.72,261.8,273.6,-7.581,265.6,256.0,266.5,258.2,261.9,36,258.0,2,5,prime,10,0,111,norm,36,-4.485,down,norm,260.37142727,258.3,276.1,1.15,270.1,0,248.6,267.0,,10,5,7.898,5.064,2.058,-1.502,-4.788,-8.243,249.3,5,371.4,-7.58,-7.51,-80,-8.394,-8.485,-5.162,-4.885,-5.012,-4.999,4.763,8.313,12,-1.283,1.517,5.233,7.826,-8.406,-8.071,-2.021,1.189,259.4,259.9,256.6,280.4,253.1,240.4,264.6,241.1,258.3,279.6,0,norm,1.124,1.702,-1.691,-1.258,-5.197,-5.055,-2.091,-1.397,-1.894,-1.306,1.249,-2.009,260.1,269.9,-4.64,-7.833,258.1,-1.93,7.822,4.914,-5.195,-8.41,4,4.942,5.085,4.619,4.692,1.958,1.37,1.123,1.902,4,4.505,4.708,20,90.9259682044,norm,0,15,15,15,414.238,414.245,414.252948919,414.253,414.257,414.262,down,1,1.49841072029,8.50158927971,001,320,1280_800,Intel(R) Core(TM)2 Duo CPU     T7500  @ 2.20GHz,orientation_search,GRVLAPTOP4,Quadro NVS 140M/PCIe/SSE2,2018_nov_08_1402,testMonitor,
272.0,256.7,250.9,263.7,36,-80,256.4,259.0,242.3,274.0,7.636,8.395,8.167,7.972,8.488,7.795,8.107,5.183,-4.842,-8.315,1.881,-1.153,8.304,5.066,-4.991,-7.608,280.4,260.9,-8.459,275.7,267.6,263.0,269.1,262.6,36,259.1,1,5,prime,10,0,71,norm,36,-4.354,down,norm,260.37142727,263.9,269.2,1.353,250.8,2,253.4,269.8,267.6,10,5,7.637,4.545,1.623,-1.901,-4.827,-8.116,256.8,5,331.4,-7.709,-8.224,-80,-8.355,-8.107,-4.834,-4.72,-4.586,-5.042,4.774,8.395,8,-2.024,1.879,5.112,8.167,-7.543,-7.592,-1.841,1.864,240.4,,266.1,251.7,254.8,263.6,258.6,260.9,269.7,264.3,1,norm,1.564,1.43,-1.836,-1.397,-4.992,-4.514,-1.836,-1.706,-1.767,-1.971,1.494,-1.95,257.3,273.1,-4.644,-8.161,255.6,-1.635,8.324,4.864,-4.684,-8.247,4,4.879,4.648,4.907,4.63,1.82,1.685,1.835,1.372,4,4.411,4.3,20,90.9259682044,norm,0,16,16,16,415.777,415.784,415.791382883,415.792,415.796,415.802,down,1,3.41636934767,6.58363065233,001,320,1280_800,Intel(R) Core(TM)2 Duo CPU     T7500  @ 2.20GHz,orientation_search,GRVLAPTOP4,Quadro NVS 140M/PCIe/SSE2,2018_nov_08_1402,testMonitor,
259.9,262.7,255.0,280.4,36,-80,279.1,273.6,256.9,259.6,8.281,7.928,7.852,8.027,8.35,8.254,8.299,4.562,-4.979,-7.997,1.972,-1.997,8.425,4.898,-5.013,-7.943,267.1,258.5,-8.178,254.1,255.7,259.1,264.9,258.8,36,268.7,1,5,prime,10,0,67,norm,36,-4.386,down,norm,260.37142727,267.0,251.1,1.313,257.6,0,267.4,255.4,240.4,10,5,7.612,4.827,1.259,-1.799,-4.35,-8.126,269.3,5,327.4,-8.142,-7.953,-80,-7.964,-8.0,-4.971,-4.531,-4.554,-4.902,4.553,8.072,6,-1.95,1.113,5.236,8.29,-7.855,-7.958,-1.718,1.628,252.9,257.0,259.0,262.1,258.6,243.5,242.3,,258.6,251.6,2,norm,1.715,1.69,-1.606,-1.767,-4.894,-4.302,-1.525,-1.894,-1.989,-1.281,1.945,-1.827,252.3,254.5,-4.483,-7.907,263.1,-1.712,8.404,4.754,-5.084,-8.353,4,5.046,5.134,4.357,4.444,1.22,1.136,1.301,2.087,4,4.665,4.365,20,90.9259682044,norm,0,17,17,17,419.234,419.241,419.248859266,419.249,419.253,419.258,down,1,5.32059669168,4.67940330832,001,320,1280_800,Intel(R) Core(TM)2 Duo CPU     T7500  @ 2.20GHz,orientation_search,GRVLAPTOP4,Quadro NVS 140M/PCIe/SSE2,2018_nov_08_1402,testMonitor,
256.3,256.3,262.2,249.9,36,-80,244.8,245.0,254.6,257.1,8.096,7.635,8.403,7.928,7.613,7.828,7.622,4.693,-4.939,-8.214,1.549,-1.87,7.741,5.016,-4.916,-7.769,246.9,257.5,-8.391,260.9,,264.1,246.2,274.1,36,255.3,5,5,prime,10,0,112,norm,36,-5.031,down,norm,260.37142727,254.4,254.0,1.366,253.3,0,259.5,252.0,256.9,10,5,8.389,4.595,1.123,-1.536,-4.976,-8.461,240.4,5,372.4,-7.564,-7.677,-80,-8.068,-8.139,-5.102,-4.378,-4.478,-4.387,4.71,7.857,30,-1.699,2.008,4.486,8.166,-8.447,-8.069,-1.506,1.634,254.7,280.4,252.5,259.3,254.1,263.8,269.4,254.2,259.3,265.1,3,norm,2.013,1.618,-2.081,-1.454,-4.614,-5.068,-1.869,-2.005,-2.068,-1.478,1.707,-1.623,268.0,262.1,-4.424,-8.377,264.4,-1.569,8.186,4.548,-5.117,-8.135,4,4.719,4.969,4.576,4.407,1.662,1.226,1.645,1.811,4,4.6,4.817,20,90.9259682044,norm,0,18,18,18,424.595,424.601,424.609408256,424.61,424.614,424.619,down,1,2.92480536574,7.07519463426,001,320,1280_800,Intel(R) Core(TM)2 Duo CPU     T7500  @ 2.20GHz,orientation_search,GRVLAPTOP4,Quadro NVS 140M/PCIe/SSE2,2018_nov_08_1402,testMonitor,
269.2,252.2,257.7,264.8,36,-80,265.0,242.4,259.6,246.2,8.081,7.768,8.189,8.124,8.028,7.743,7.727,4.447,-4.835,-8.119,1.745,-1.721,7.564,4.525,-4.888,-8.417,263.5,252.6,-8.199,277.2,249.3,248.1,280.4,263.3,36,263.2,2,5,prime,10,0,112,norm,36,-4.837,down,norm,260.37142727,240.4,266.0,1.649,265.0,0,267.8,242.4,,10,5,7.579,4.624,1.584,-1.539,-5.239,-7.739,254.2,5,372.4,-8.406,-8.324,-80,-8.455,-7.802,-4.861,-4.63,-5.114,-5.184,5.165,8.26,12,-1.244,1.543,4.486,8.073,-7.578,-7.515,-1.543,1.382,253.0,255.0,255.3,261.5,275.0,263.2,260.6,261.0,269.5,265.9,4,norm,2.094,1.869,-2.1,-1.347,-5.147,-5.06,-1.568,-1.946,-2.003,-1.677,1.682,-1.4,267.2,263.2,-4.822,-8.027,263.7,-1.878,8.338,4.62,-5.075,-7.926,4,4.979,4.769,4.684,5.281,1.567,2.085,1.12,2.02,4,4.944,5.269,20,90.9259682044,norm,0,19,19,19,427.56,427.567,427.575258579,427.576,427.579,427.585,down,1,4.03580103432,5.96419896568,001,320,1280_800,Intel(R) Core(TM)2 Duo CPU     T7500  @ 2.20GHz,orientation_search,GRVLAPTOP4,Quadro NVS 140M/PCIe/SSE2,2018_nov_08_1402,testMonitor,
313.0,316.4,309.5,301.8,36,0,307.9,302.3,313.1,303.6,8.043,8.34,8.418,8.44,7.746,8.054,7.628,5.035,-4.95,-7.568,1.439,-2.001,7.693,4.442,-5.008,-8.344,312.3,302.3,-8.001,303.6,296.9,312.7,301.9,305.9,36,307.1,0,5,probe,5,0,119,norm,36,-4.759,up,norm,306.411762397,310.4,312.1,1.524,303.7,3,307.3,306.5,306.4,10,5,8.218,5.212,2.013,-1.126,-4.559,-8.3,308.7,1,187.4,-7.847,-7.671,-80,-7.663,-8.487,-5.264,-5.059,-4.731,-5.028,4.975,7.702,3,-1.141,1.47,4.6,7.845,-8.387,-8.177,-1.884,1.384,302.7,300.3,,309.4,300.0,307.1,303.9,311.3,312.0,302.9,0,norm,2.048,1.971,-1.576,-1.817,-5.265,-5.204,-1.958,-1.641,-2.089,-1.582,1.591,-1.557,296.4,311.3,-5.153,-8.361,306.1,-1.903,8.372,4.444,-4.467,-7.517,5,4.826,4.373,4.882,5.18,1.262,1.789,1.938,1.73,5,4.364,4.306,-80,260.37142727,norm,0,20,20,20,431.636,431.643,431.651210746,431.651,431.655,431.66,up,1,1.24490216945,8.75509783055,001,320,1280_800,Intel(R) Core(TM)2 Duo CPU     T7500  @ 2.20GHz,orientation_search,GRVLAPTOP4,Quadro NVS 140M/PCIe/SSE2,2018_nov_08_1402,testMonitor,
144.2,152.2,152.2,155.8,36,-60,137.9,164.5,147.5,157.3,8.35,7.512,8.208,7.871,8.156,7.894,7.755,4.302,-5.038,-8.238,1.954,-1.556,8.216,4.482,-4.788,-8.411,153.7,132.4,-8.413,134.3,148.4,146.6,124.5,130.9,36,147.0,0,5,prime,10,0,72,norm,36,-4.434,down,norm,144.462777924,148.1,135.9,1.255,148.6,1,149.6,148.7,137.1,10,6,7.692,5.135,1.637,-1.403,-4.642,-7.564,156.7,6,216.5,-7.904,-8.15,-60,-7.547,-8.192,-4.994,-5.049,-5.065,-5.22,4.627,8.197,1,-1.734,1.809,5.22,8.392,-8.346,-8.009,-1.499,1.774,136.5,155.2,142.0,143.9,,149.8,145.0,149.9,128.1,148.7,0,norm,1.464,2.015,-1.168,-1.234,-5.15,-4.917,-1.272,-1.19,-1.442,-1.591,1.997,-1.844,144.7,148.3,-4.37,-8.084,161.1,-1.145,7.777,4.651,-5.001,-8.477,6,5.225,4.855,5.068,4.399,2.031,2.072,1.288,1.182,6,4.835,5.169,0,260.37142727,norm,0,21,21,21,432.921,432.927,432.935864979,432.936,432.94,432.945,down,1,1.29220156081,8.70779843919,001,320,1280_800,Intel(R) Core(TM)2 Duo CPU     T7500  @ 2.20GHz,orientation_search,GRVLAPTOP4,Quadro NVS 140M/PCIe/SSE2,2018_nov_08_1402,testMonitor,
137.0,128.6,144.7,156.8,36,-60,150.7,152.6,136.3,131.2,8.319,7.764,8.058,8.053,8.475,8.32,8.059,4.849,-4.788,-7.954,1.6,-1.69,8.126,5.048,-5.096,-7.623,156.7,158.3,-7.71,141.0,138.7,124.5,159.6,148.0,36,148.5,0,5,prime,10,0,112,norm,36,-5.239,down,norm,144.462777924,141.4,149.1,1.758,138.6,1,128.2,144.8,151.6,10,6,7.57,4.325,2.004,-2.031,-4.939,-8.197,132.1,6,256.5,-7.801,-7.831,-60,-8.487,-8.41,-4.328,-5.275,-5.17,-4.684,4.478,7.79,1,-1.821,1.297,4.325,8.046,-8.353,-7.975,-1.532,1.209,146.6,130.7,126.9,146.4,,138.0,144.1,163.6,136.0,164.5,1,norm,1.279,1.956,-1.557,-1.383,-5.019,-4.51,-1.427,-1.912,-1.609,-1.918,1.329,-1.84,137.5,151.4,-5.099,-8.173,143.5,-2.059,7.749,4.936,-4.48,-7.89,6,4.962,4.407,4.998,4.39,1.951,1.892,1.534,1.937,6,4.902,4.65,0,260.37142727,norm,0,22,22,22,434.253,434.259,434.268079982,434.268,434.272,434.277,down,1,2.40238135245,7.59761864755,001,320,1280_800,Intel(R) Core(TM)2 Duo CPU     T7500  @ 2.20GHz,orientation_search,GRVLAPTOP4,Quadro NVS 140M/PCIe/SSE2,2018_nov_08_1402,testMonitor,
148.8,144.3,147.1,159.1,36,-60,164.5,140.0,130.3,157.4,8.072,7.662,8.469,7.579,7.532,7.674,8.488,4.368,-4.659,-8.36,1.893,-1.873,7.92,5.162,-4.955,-8.303,139.2,158.6,-8.167,146.4,130.5,124.5,150.6,141.6,36,156.1,1,5,prime,10,0,83,norm,36,-4.338,up,norm,144.462777924,141.2,158.3,1.791,133.8,5,,138.1,146.2,10,6,8.17,5.188,1.929,-1.924,-4.878,-7.942,131.1,6,227.5,-8.448,-8.47,-60,-8.397,-7.889,-5.073,-4.917,-4.663,-4.996,4.72,7.828,11,-1.412,2.066,4.327,8.258,-7.588,-8.142,-1.556,1.684,147.4,146.2,128.2,145.2,138.2,147.0,156.6,133.0,145.9,150.0,2,norm,1.815,1.435,-1.551,-1.957,-5.124,-5.148,-1.428,-1.614,-2.093,-1.11,1.513,-1.613,140.4,149.2,-4.63,-7.776,150.9,-1.802,7.974,5.264,-4.933,-8.465,6,4.744,4.578,4.569,4.956,1.554,1.8,1.351,1.611,6,4.449,4.587,0,260.37142727,norm,0,23,23,23,436.696,436.702,436.710499048,436.711,436.714,436.72,up,1,1.10212977484,8.89787022516,001,320,1280_800,Intel(R) Core(TM)2 Duo CPU     T7500  @ 2.20GHz,orientation_search,GRVLAPTOP4,Quadro NVS 140M/PCIe/SSE2,2018_nov_08_1402,testMonitor,
150.7,146.9,147.8,146.9,36,-60,148.8,159.5,133.8,163.5,7.533,8.419,7.927,8.319,7.633,8.334,7.723,4.553,-5.092,-8.213,1.196,-1.385,7.944,5.265,-5.077,-8.032,134.9,143.4,-8.004,141.7,,149.5,124.5,136.5,36,150.7,5,5,prime,10,0,71,norm,36,-5.25,down,norm,144.462777924,135.2,148.6,1.489,150.4,0,135.0,153.3,147.1,10,6,8.065,4.802,1.83,-1.305,-4.976,-8.302,139.7,6,215.5,-8.445,-7.752,-60,-8.208,-8.321,-4.49,-4.954,-4.839,-4.861,5.287,8.359,30,-1.496,1.77,4.86,7.508,-8.028,-8.483,-1.464,1.657,154.6,138.0,152.5,153.2,162.3,141.3,155.0,149.8,164.5,158.1,3,norm,1.935,1.258,-1.106,-1.748,-4.506,-4.474,-1.178,-1.707,-1.439,-1.348,1.518,-1.336,143.4,149.7,-5.042,-7.539,158.5,-1.365,8.246,4.767,-4.733,-7.674,6,4.659,4.641,4.42,5.002,1.235,1.815,1.873,1.743,6,4.859,4.728,0,260.37142727,norm,0,24,24,24,437.838,437.844,437.852414492,437.853,437.857,437.862,down,1,1.41893739965,8.58106260035,001,320,1280_800,Intel(R) Core(TM)2 Duo CPU     T7500  @ 2.20GHz,orientation_search,GRVLAPTOP4,Quadro NVS 140M/PCIe/SSE2,2018_nov_08_1402,testMonitor,
136.9,,135.1,161.5,36,-60,131.1,146.2,145.0,138.6,7.519,7.913,8.144,8.47,7.791,7.776,8.418,5.017,-4.528,-8.265,2.098,-1.651,8.498,4.961,-4.344,-7.956,148.0,133.9,-7.807,142.5,148.9,154.4,134.8,154.5,36,152.5,3,5,prime,10,0,73,norm,36,-4.524,up,norm,144.462777924,136.7,149.9,1.55,154.3,5,133.5,148.6,124.5,10,6,8.356,5.093,1.557,-1.709,-4.915,-8.237,149.2,6,217.5,-8.484,-7.526,-60,-8.4,-8.276,-4.917,-5.114,-5.208,-4.974,5.258,7.718,23,-2.069,1.232,4.997,8.456,-7.83,-7.745,-1.562,1.702,148.8,164.5,142.8,150.7,149.1,132.4,145.5,135.3,146.9,144.0,4,norm,1.772,1.628,-1.222,-1.275,-4.721,-5.067,-1.726,-1.968,-1.316,-1.55,1.871,-1.929,137.1,136.0,-5.042,-7.577,132.1,-1.518,7.626,4.35,-4.498,-8.319,6,5.289,4.547,4.771,4.523,1.412,1.217,1.536,1.342,6,5.166,4.655,0,260.37142727,norm,0,25,25,25,439.297,439.303,439.311527762,439.312,439.316,439.321,up,1,1.02269799485,8.97730200515,001,320,1280_800,Intel(R) Core(TM)2 Duo CPU     T7500  @ 2.20GHz,orientation_search,GRVLAPTOP4,Quadro NVS 140M/PCIe/SSE2,2018_nov_08_1402,testMonitor,
161.0,150.9,156.6,149.2,36,-60,149.4,146.9,148.4,131.9,8.015,8.022,7.881,8.322,7.657,7.542,7.615,4.993,-4.601,-8.09,1.276,-1.972,7.667,5.198,-4.307,-8.039,138.7,150.0,-7.998,161.6,138.3,144.5,124.5,157.1,36,143.8,0,5,prime,10,0,78,norm,36,-4.914,up,norm,144.462777924,148.7,164.5,1.544,142.1,5,139.9,153.0,141.2,10,6,8.215,4.344,2.043,-1.305,-5.157,-7.655,157.4,6,222.5,-8.175,-8.352,-60,-7.769,-8.2,-4.833,-4.897,-5.013,-4.376,4.515,8.374,5,-2.043,2.003,5.213,7.802,-7.626,-8.311,-1.604,1.319,149.0,131.9,158.8,142.6,137.5,148.9,133.6,135.3,,151.3,5,norm,1.702,1.458,-1.678,-2.016,-4.613,-4.497,-1.521,-1.639,-1.901,-1.386,1.6,-1.677,149.6,148.8,-4.748,-7.853,142.5,-1.154,7.517,4.668,-4.739,-7.949,6,5.019,4.424,5.124,5.032,1.955,1.251,1.548,1.302,6,5.114,4.482,0,260.37142727,norm,0,26,26,26,440.359,440.366,440.374182723,440.374,440.378,440.383,up,1,1.11794089093,8.88205910907,001,320,1280_800,Intel(R) Core(TM)2 Duo CPU     T7500  @ 2.20GHz,orientation_search,GRVLAPTOP4,Quadro NVS 140M/PCIe/SSE2,2018_nov_08_1402,testMonitor,
195.3,192.2,189.6,193.6,36,-30,192.5,187.6,193.7,192.1,8.309,7.849,7.887,7.86,7.798,7.798,8.267,4.568,-4.587,-7.5,2.061,-1.302,7.865,5.179,-4.417,-8.498,195.6,197.5,-7.531,199.2,187.0,194.1,192.7,189.0,36,202.6,2,5,probe,5,0,116,norm,36,-4.754,down,norm,192.964775819,188.9,192.7,1.964,188.9,0,188.6,196.4,,10,6,8.498,4.36,1.85,-1.829,-5.259,-7.888,195.0,2,77.0,-8.008,-7.838,-60,-7.977,-8.216,-5.174,-4.517,-4.567,-5.239,5.196,8.155,12,-2.089,1.509,4.527,8.36,-8.208,-7.622,-1.464,1.994,195.4,193.5,190.7,183.0,188.8,191.1,194.8,194.0,185.6,190.3,0,norm,1.581,1.402,-1.408,-1.458,-4.688,-4.607,-1.947,-1.305,-1.88,-1.519,1.484,-1.67,196.6,203.0,-4.657,-8.059,202.3,-1.186,8.328,4.639,-4.687,-7.672,7,5.157,5.122,4.697,4.521,1.476,1.304,1.538,1.984,7,5.185,4.637,-60,144.462777924,norm,0,27,27,27,441.518,441.524,441.531881278,441.532,441.536,441.542,down,1,1.68802369217,8.31197630783,001,320,1280_800,Intel(R) Core(TM)2 Duo CPU     T7500  @ 2.20GHz,orientation_search,GRVLAPTOP4,Quadro NVS 140M/PCIe/SSE2,2018_nov_08_1402,testMonitor,
163.3,162.8,166.1,169.3,36,-30,,164.1,163.2,167.5,7.626,7.693,7.563,8.279,7.575,7.95,8.482,4.685,-5.041,-8.158,1.589,-1.607,7.503,5.121,-4.569,-7.782,169.9,170.8,-8.301,167.8,173.5,157.0,164.2,165.9,36,164.1,4,5,probe,5,0,90,norm,36,-4.753,down,norm,166.964775819,177.0,165.0,1.239,163.6,0,170.9,162.9,165.1,10,6,7.804,5.225,1.247,-1.101,-5.267,-7.829,170.6,2,77.0,-8.106,-8.031,-60,-7.619,-7.693,-4.694,-4.934,-4.851,-4.857,4.948,8.459,24,-2.087,1.598,4.371,8.486,-8.183,-8.364,-1.924,1.439,165.1,169.7,175.2,162.1,161.6,165.9,165.1,157.5,168.2,162.4,1,norm,1.113,2.095,-1.152,-1.866,-5.274,-5.146,-1.548,-1.298,-1.731,-1.182,1.964,-1.538,176.7,166.0,-5.09,-7.608,164.4,-1.495,8.011,4.322,-5.28,-8.389,7,5.053,5.016,4.512,4.699,1.303,1.393,1.382,1.566,7,5.069,5.078,-60,144.462777924,norm,0,28,28,28,443.246,443.252,443.260615268,443.261,443.265,443.27,down,1,1.87937577014,8.12062422986,001,320,1280_800,Intel(R) Core(TM)2 Duo CPU     T7500  @ 2.20GHz,orientation_search,GRVLAPTOP4,Quadro NVS 140M/PCIe/SSE2,2018_nov_08_1402,testMonitor,
105.3,114.1,103.3,125.8,36,30,109.2,123.9,106.1,96.5,7.542,8.028,7.658,7.545,8.183,8.165,7.971,4.776,-4.747,-8.458,1.261,-1.364,8.261,5.286,-4.429,-8.054,,108.3,-8.272,131.8,119.7,107.7,117.0,113.0,36,114.2,5,5,prime,10,0,73,norm,36,-4.978,up,norm,111.873102893,115.5,131.9,1.865,116.4,5,106.1,106.1,115.8,10,5,8.379,4.477,1.764,-1.47,-4.555,-8.295,116.6,5,184.9,-7.713,-8.485,30,-8.014,-7.524,-4.886,-5.122,-4.956,-4.952,4.584,7.845,35,-1.919,1.388,4.734,7.755,-7.943,-8.017,-1.174,1.343,117.4,110.6,125.7,98.0,115.3,104.3,113.1,103.9,120.3,91.9,0,norm,1.761,1.751,-2.082,-1.798,-4.751,-4.581,-2.093,-1.973,-1.485,-1.593,1.333,-1.479,100.6,94.8,-4.664,-8.191,121.4,-1.581,7.596,4.68,-5.252,-7.834,8,5.006,5.11,4.658,4.696,1.405,1.979,1.715,1.105,8,5.134,4.547,-30,144.462777924,norm,0,29,29,29,445.165,445.175,445.195523412,445.196,445.2,445.205,up,1,1.52942431201,8.47057568799,001,320,1280_800,Intel(R) Core(TM)2 Duo CPU     T7500  @ 2.20GHz,orientation_search,GRVLAPTOP4,Quadro NVS 140M/PCIe/SSE2,2018_nov_08_1402,testMonitor,
107.2,131.3,112.5,119.3,36,30,,109.6,107.5,117.8,7.701,7.86,7.981,7.507,7.87,7.973,8.086,5.011,-4.721,-7.569,1.987,-1.558,8.49,4.712,-5.137,-7.986,123.3,121.7,-7.751,131.5,128.1,127.7,120.3,104.3,36,99.8,4,5,prime,10,0,71,norm,36,-4.649,down,norm,111.873102893,127.0,116.7,1.279,131.9,0,121.4,113.9,106.3,10,5,7.883,5.117,1.782,-1.637,-4.463,-7.815,112.3,5,182.9,-7.985,-7.596,30,-7.98,-8.121,-4.445,-5.137,-4.628,-4.478,4.364,8.252,24,-1.118,2.089,4.72,8.343,-7.998,-8.31,-1.83,1.632,116.6,103.2,111.8,115.8,91.9,108.1,122.6,101.7,118.2,113.9,1,norm,2.035,1.429,-1.856,-1.182,-4.602,-4.488,-1.377,-1.982,-1.229,-1.727,1.809,-1.724,116.7,107.4,-4.562,-7.93,113.6,-2.076,8.338,4.784,-4.729,-8.481,8,4.474,4.876,4.841,4.373,1.123,1.405,1.155,1.535,8,4.514,4.611,-30,144.462777924,norm,0,30,30,30,446.751,446.757,446.765706098,446.766,446.77,446.775,down,1,1.11787414585,8.88212585415,001,320,1280_800,Intel(R) Core(TM)2 Duo CPU     T7500  @ 2.20GHz,orientation_search,GRVLAPTOP4,Quadro NVS 140M/PCIe/SSE2,2018_nov_08_1402,testMonitor,
110.1,116.6,117.6,,36,30,123.1,107.8,104.2,113.6,8.106,7.681,8.17,8.064,8.312,7.908,7.845,4.64,-4.877,-8.013,1.564,-1.134,8.276,5.091,-5.226,-7.76,118.0,115.5,-7.972,101.0,113.7,117.1,118.3,113.8,36,111.3,3,5,prime,10,0,71,norm,36,-4.731,up,norm,111.873102893,95.9,104.9,1.22,121.9,3,105.4,109.3,91.9,10,5,8.166,5.129,1.346,-1.157,-4.704,-8.093,116.9,5,182.9,-8.491,-8.376,30,-8.457,-8.343,-4.937,-4.525,-4.341,-4.396,4.409,8.359,21,-1.737,1.824,4.919,8.336,-8.213,-8.246,-1.808,1.232,104.3,103.5,109.3,120.4,130.3,106.5,117.4,113.3,109.8,100.1,2,norm,1.17,1.489,-1.172,-1.114,-5.207,-4.929,-1.483,-1.732,-1.141,-1.906,1.971,-1.157,123.0,131.9,-4.559,-7.84,109.5,-2.094,7.758,4.5,-4.908,-8.036,8,4.835,4.919,4.797,4.86,1.311,1.937,1.773,1.819,8,4.915,5.046,-30,144.462777924,norm,0,31,31,31,447.909,447.915,447.923522273,447.924,447.928,447.933,up,1,1.79980863299,8.20019136701,001,320,1280_800,Intel(R) Core(TM)2 Duo CPU     T7500  @ 2.20GHz,orientation_search,GRVLAPTOP4,Quadro NVS 140M/PCIe/SSE2,2018_nov_08_1402,testMonitor,
111.2,103.9,104.0,,36,30,106.5,113.8,105.7,107.3,7.902,8.021,7.879,7.542,7.562,7.607,7.74,4.427,-5.15,-7.572,2.004,-1.711,7.934,5.087,-5.147,-8.373,121.0,98.0,-7.708,117.5,105.9,123.1,97.8,115.2,36,127.5,3,5,prime,10,0,87,norm,36,-4.429,up,norm,111.873102893,110.1,105.6,1.746,117.7,3,113.4,111.5,131.9,10,5,7.818,4.651,1.996,-1.68,-5.166,-8.327,110.6,5,198.9,-7.722,-7.79,30,-7.784,-7.672,-4.371,-4.58,-5.104,-4.572,4.7,7.573,21,-1.661,2.01,4.858,8.433,-7.759,-7.865,-2.003,1.927,121.9,112.8,91.9,114.3,112.5,99.0,100.5,115.2,124.5,106.0,3,norm,1.698,1.592,-1.799,-1.538,-5.082,-4.623,-1.166,-1.15,-1.353,-1.232,2.078,-1.555,98.7,106.3,-4.813,-8.005,97.0,-1.114,7.636,4.985,-4.94,-8.341,8,4.359,5.011,5.199,4.66,1.935,1.973,1.816,1.561,8,4.655,4.424,-30,144.462777924,norm,0,32,32,32,449.748,449.756,449.778972032,449.779,449.783,449.789,up,1,1.30734662634,8.69265337366,001,320,1280_800,Intel(R) Core(TM)2 Duo CPU     T7500  @ 2.20GHz,orientation_search,GRVLAPTOP4,Quadro NVS 140M/PCIe/SSE2,2018_nov_08_1402,testMonitor,
108.2,102.0,108.3,99.8,36,30,102.4,126.3,104.2,91.9,7.512,7.501,8.152,8.408,8.327,8.136,7.684,4.803,-4.738,-7.862,1.869,-1.647,7.53,4.592,-4.979,-8.314,101.6,106.3,-7.646,118.9,121.6,116.0,122.8,104.4,36,107.2,2,5,prime,10,0,75,norm,36,-4.645,up,norm,111.873102893,118.5,120.4,1.666,107.8,3,105.8,100.3,102.6,10,5,7.675,4.497,1.177,-1.12,-5.048,-7.973,109.3,5,186.9,-8.297,-8.358,30,-7.666,-7.776,-4.965,-5.07,-5.209,-5.214,4.904,7.896,15,-1.22,1.284,5.008,8.204,-7.558,-8.071,-1.247,1.424,108.7,117.2,118.4,103.2,117.5,103.4,120.6,118.2,104.5,131.9,4,norm,1.872,1.26,-1.376,-1.598,-4.941,-5.277,-1.255,-1.411,-1.617,-1.462,1.211,-1.673,118.3,92.7,-5.134,-8.106,,-1.823,8.27,4.405,-4.53,-8.491,8,4.318,5.116,5.043,4.589,1.345,1.25,1.468,1.967,8,4.626,5.227,-30,144.462777924,norm,0,33,33,33,451.112,451.118,451.127172716,451.127,451.131,451.136,up,1,0.975178298047,9.02482170195,001,320,1280_800,Intel(R) Core(TM)2 Duo CPU     T7500  @ 2.20GHz,orientation_search,GRVLAPTOP4,Quadro NVS 140M/PCIe/SSE2,2018_nov_08_1402,testMonitor,
223.4,224.6,225.5,214.2,36,40,224.8,221.4,224.3,218.3,8.137,8.481,8.024,8.134,8.197,8.292,7.851,4.405,-4.748,-7.59,1.618,-1.149,8.37,5.143,-4.486,-7.955,223.3,,-7.657,224.9,216.9,221.3,226.5,213.5,36,225.1,5,5,probe,5,0,77,norm,36,-4.874,up,norm,222.085489904,221.4,232.1,1.47,222.0,4,226.7,220.7,225.1,10,5,8.275,4.872,2.052,-1.892,-4.589,-8.109,220.3,2,145.1,-8.474,-7.644,30,-8.022,-8.059,-5.044,-4.891,-4.793,-4.791,4.695,8.202,34,-2.094,1.61,5.169,7.75,-7.825,-8.326,-2.078,1.966,214.7,217.9,216.1,225.0,221.7,221.7,213.6,219.8,220.5,230.6,0,norm,1.327,1.907,-1.709,-1.108,-5.235,-5.191,-1.776,-1.391,-2.034,-1.676,1.648,-1.642,223.6,223.1,-4.998,-8.267,223.8,-1.602,7.947,5.155,-4.722,-7.93,9,4.38,4.739,4.461,4.514,1.978,1.275,1.278,1.968,9,4.932,5.299,30,111.873102893,norm,0,34,34,34,452.127,452.134,452.142275307,452.143,452.146,452.152,up,1,1.83119609051,8.16880390949,001,320,1280_800,Intel(R) Core(TM)2 Duo CPU     T7500  @ 2.20GHz,orientation_search,GRVLAPTOP4,Quadro NVS 140M/PCIe/SSE2,2018_nov_08_1402,testMonitor,
213.0,219.7,228.3,226.7,36,40,224.0,221.1,220.8,210.1,7.506,8.141,8.318,7.78,7.831,7.805,7.631,4.606,-5.003,-7.779,1.732,-1.956,7.994,5.043,-4.368,-8.224,220.3,222.9,-8.052,214.7,224.9,223.4,217.8,225.9,36,223.7,1,5,probe,5,0,75,norm,36,-4.347,up,norm,220.085489904,228.0,226.7,1.962,219.5,3,211.7,221.2,225.0,10,5,8.268,5.236,1.564,-1.829,-4.319,-7.535,217.3,2,145.1,-7.86,-8.142,30,-8.245,-7.657,-4.321,-5.247,-4.884,-4.949,5.119,8.132,9,-1.48,1.35,5.196,7.755,-8.29,-7.631,-1.868,1.69,,212.8,216.7,230.1,224.8,220.2,223.1,220.0,215.1,219.7,1,norm,1.842,1.846,-1.998,-1.426,-4.309,-5.287,-1.938,-1.536,-2.081,-1.65,1.402,-1.652,218.8,222.6,-4.452,-8.215,218.4,-1.874,8.478,5.209,-4.809,-7.837,9,4.665,4.943,5.199,4.398,1.659,1.437,1.147,1.263,9,4.581,4.48,30,111.873102893,norm,0,35,35,35,453.999,454.006,454.031281039,454.032,454.036,454.041,up,1,0.940846589,9.059153411,001,320,1280_800,Intel(R) Core(TM)2 Duo CPU     T7500  @ 2.20GHz,orientation_search,GRVLAPTOP4,Quadro NVS 140M/PCIe/SSE2,2018_nov_08_1402,testMonitor,
187.2,186.8,180.9,175.2,36,-20,186.0,188.0,191.1,182.4,7.891,8.157,7.773,7.88,8.118,7.938,8.068,4.429,-4.531,-8.186,1.97,-1.985,7.514,4.783,-5.126,-7.545,199.7,200.2,-8.489,181.3,203.9,177.6,170.8,176.2,36,198.3,1,5,prime,10,0,98,norm,36,-5.191,up,norm,186.534368717,171.7,206.5,1.622,166.5,3,182.3,202.1,197.0,10,5,8.046,4.546,1.579,-1.224,-4.406,-7.586,177.9,5,284.5,-7.521,-7.581,-20,-8.48,-8.089,-4.575,-4.615,-4.913,-5.221,4.498,8.365,9,-1.223,1.377,5.021,8.482,-7.548,-7.509,-1.255,1.36,,186.9,190.5,176.6,180.8,189.9,185.0,197.4,196.7,188.3,0,norm,1.635,1.812,-1.74,-1.233,-4.616,-4.305,-1.912,-1.11,-1.272,-1.489,1.939,-1.41,201.9,197.5,-4.362,-8.307,184.6,-1.426,8.156,4.931,-5.211,-7.671,10,4.616,4.804,5.278,4.471,2.012,1.679,1.212,1.186,10,4.446,5.257,40,111.873102893,norm,0,36,36,36,454.998,455.005,455.01284306,455.013,455.017,455.022,up,1,3.84534324708,6.15465675292,001,320,1280_800,Intel(R) Core(TM)2 Duo CPU     T7500  @ 2.20GHz,orientation_search,GRVLAPTOP4,Quadro NVS 140M/PCIe/SSE2,2018_nov_08_1402,testMonitor,
172.8,189.4,175.2,193.2,36,-20,191.7,188.8,197.8,179.2,7.686,8.455,8.266,8.278,8.295,7.867,7.542,5.293,-4.462,-8.046,1.655,-1.844,8.491,4.624,-4.466,-8.481,197.0,191.1,-7.831,,183.3,196.8,174.6,184.5,36,193.1,5,5,prime,10,0,71,norm,36,-5.127,down,norm,186.534368717,200.1,196.8,1.264,187.0,1,186.3,197.9,166.5,10,5,7.783,4.876,1.3,-1.566,-4.328,-7.787,175.3,5,257.5,-7.564,-7.863,-20,-8.001,-7.809,-4.696,-4.817,-4.759,-4.5,4.758,7.896,31,-1.737,1.96,5.02,8.237,-7.975,-8.193,-1.86,1.309,173.9,179.3,179.0,181.8,189.5,196.5,192.3,188.8,182.9,191.0,1,norm,1.544,1.54,-1.877,-1.317,-4.355,-4.895,-1.511,-1.991,-1.713,-1.486,1.328,-2.012,205.6,179.4,-4.902,-7.945,192.3,-2.006,7.77,4.962,-4.791,-7.552,10,5.284,4.55,5.262,4.892,1.865,1.931,1.333,1.584,10,5.221,4.533,40,111.873102893,norm,0,37,37,37,458.884,458.89,458.898503603,458.899,458.903,458.908,down,1,1.45049802098,8.54950197902,001,320,1280_800,Intel(R) Core(TM)2 Duo CPU     T7500  @ 2.20GHz,orientation_search,GRVLAPTOP4,Quadro NVS 140M/PCIe/SSE2,2018_nov_08_1402,testMonitor,
196.3,206.5,201.0,196.9,36,-20,181.8,180.3,,187.9,8.215,8.169,7.521,8.26,8.257,7.985,7.961,5.282,-5.246,-8.282,1.804,-1.345,8.263,5.139,-5.051,-8.061,203.4,187.9,-7.735,177.1,166.5,181.1,178.4,174.2,36,178.8,4,5,prime,10,0,81,norm,36,-4.846,up,norm,186.534368717,176.6,192.8,2.079,179.5,4,181.0,193.1,192.2,10,5,8.09,4.976,1.839,-1.345,-5.216,-7.523,193.0,5,267.5,-8.254,-8.146,-20,-8.448,-7.841,-5.226,-4.658,-4.871,-4.819,4.772,7.757,28,-1.681,1.356,5.136,8.058,-7.544,-7.635,-1.117,1.368,185.5,178.2,176.7,184.9,178.2,189.5,188.2,177.6,188.7,176.2,2,norm,1.96,1.107,-1.54,-1.643,-5.16,-5.098,-1.993,-1.423,-2.041,-1.299,1.662,-1.666,192.0,199.2,-4.316,-8.194,190.0,-2.001,7.517,4.429,-4.768,-7.949,10,4.653,4.459,4.863,5.179,1.659,1.559,1.355,1.718,10,4.905,4.304,40,111.873102893,norm,0,38,38,38,460.374,460.381,460.38933479,460.39,460.393,460.398,up,1,2.18044649192,7.81955350808,001,320,1280_800,Intel(R) Core(TM)2 Duo CPU     T7500  @ 2.20GHz,orientation_search,GRVLAPTOP4,Quadro NVS 140M/PCIe/SSE2,2018_nov_08_1402,testMonitor,
176.9,198.5,206.5,190.3,36,-20,166.5,194.6,195.1,202.5,8.375,7.863,8.471,7.941,8.041,7.802,8.333,5.063,-4.859,-8.358,1.994,-2.062,8.26,5.008,-4.973,-8.109,180.9,176.8,-8.016,189.5,176.6,197.9,171.6,177.8,36,189.5,3,5,prime,10,0,60,norm,36,-4.895,down,norm,186.534368717,177.4,175.7,1.111,202.8,0,191.1,180.2,191.6,10,5,8.432,4.484,1.139,-1.657,-4.915,-8.107,170.3,5,246.5,-7.686,-8.472,-20,-7.603,-8.24,-4.76,-5.291,-4.609,-5.032,4.967,8.239,18,-1.107,2.072,4.568,7.719,-7.908,-8.329,-1.821,1.707,178.7,191.5,178.9,194.4,192.5,181.8,188.8,173.1,179.1,186.9,3,norm,1.408,1.171,-1.257,-1.407,-4.782,-5.23,-1.56,-1.107,-1.198,-1.471,1.883,-1.412,178.7,,-4.444,-8.158,185.9,-1.595,8.089,5.014,-4.984,-8.258,10,4.809,5.115,5.083,4.614,1.987,1.363,1.617,1.818,10,4.706,4.777,40,111.873102893,norm,0,39,39,39,462.595,462.601,462.609659367,462.61,462.614,462.619,down,1,1.53014730593,8.46985269407,001,320,1280_800,Intel(R) Core(TM)2 Duo CPU     T7500  @ 2.20GHz,orientation_search,GRVLAPTOP4,Quadro NVS 140M/PCIe/SSE2,2018_nov_08_1402,testMonitor,
,174.5,178.0,192.3,36,-20,171.2,196.8,194.8,182.5,7.805,7.91,8.493,7.855,7.968,8.491,7.724,5.228,-4.32,-8.352,1.666,-1.26,8.306,5.08,-4.478,-7.629,188.9,199.0,-7.84,199.7,188.6,189.3,190.9,173.5,36,187.3,3,5,prime,10,0,61,norm,36,-4.389,up,norm,186.534368717,179.2,191.6,1.939,189.5,4,183.9,166.5,189.2,10,5,8.338,5.238,1.478,-1.426,-5.206,-8.142,185.3,5,247.5,-8.141,-8.379,-20,-8.223,-8.12,-4.84,-4.477,-5.16,-5.105,4.771,7.559,22,-1.743,1.417,4.607,7.993,-7.646,-7.742,-1.42,2.02,187.3,178.5,195.3,187.0,191.3,190.5,177.2,182.7,188.0,196.5,4,norm,1.141,1.744,-1.929,-1.555,-4.988,-4.371,-1.833,-2.067,-1.644,-1.942,1.534,-1.301,192.8,172.7,-5.135,-8.188,189.7,-1.102,8.284,5.241,-4.894,-7.74,10,4.803,4.595,5.157,5.26,1.414,1.431,1.954,1.393,10,4.444,4.976,40,111.873102893,norm,0,40,40,40,464.165,464.172,464.179824782,464.18,464.184,464.189,up,1,1.38747059482,8.61252940518,001,320,1280_800,Intel(R) Core(TM)2 Duo CPU     T7500  @ 2.20GHz,orientation_search,GRVLAPTOP4,Quadro NVS 140M/PCIe/SSE2,2018_nov_08_1402,testMonitor,
283.2,277.5,283.5,282.6,36,40,,276.1,273.1,275.5,7.681,7.711,8.452,7.634,7.62,8.112,8.468,4.301,-4.958,-8.087,1.605,-1.227,8.371,4.636,-5.011,-8.339,288.8,282.7,-7.741,275.1,276.7,287.8,281.3,279.3,36,280.9,4,5,probe,5,0,109,norm,36,-4.67,down,norm,278.75863167,280.3,283.7,1.804,281.4,0,286.6,282.3,283.8,10,5,7.515,4.49,2.082,-1.548,-4.779,-7.585,285.7,2,169.8,-7.53,-8.283,-20,-7.881,-7.752,-4.369,-5.186,-5.0,-4.502,5.232,8.452,24,-1.462,1.418,5.108,7.562,-7.654,-7.778,-1.365,1.675,283.5,277.4,278.4,279.2,276.9,275.1,277.0,273.8,287.5,287.3,0,norm,1.128,1.592,-1.89,-1.352,-5.004,-4.513,-1.958,-1.942,-1.564,-1.385,1.148,-1.191,279.4,268.8,-4.336,-7.744,273.4,-1.617,8.42,4.559,-4.655,-7.807,11,4.863,4.673,4.759,4.442,1.53,1.466,1.427,1.831,11,4.598,4.814,-20,186.534368717,norm,0,41,41,41,465.592,465.599,465.607164128,465.607,465.611,465.616,down,1,2.13282971136,7.86717028864,001,320,1280_800,Intel(R) Core(TM)2 Duo CPU     T7500  @ 2.20GHz,orientation_search,GRVLAPTOP4,Quadro NVS 140M/PCIe/SSE2,2018_nov_08_1402,testMonitor,
253.0,249.5,252.8,245.8,36,40,261.7,255.4,243.8,259.7,7.95,8.395,7.751,7.934,7.615,7.711,7.704,4.613,-4.683,-8.02,1.773,-1.817,8.005,4.443,-4.439,-7.645,250.7,256.1,-8.463,251.9,246.4,256.2,256.5,257.1,36,257.2,0,5,probe,5,0,84,norm,36,-4.995,up,norm,253.75863167,254.7,259.0,1.171,256.8,3,251.6,254.8,248.2,10,5,7.907,5.183,1.318,-1.118,-4.529,-7.873,249.4,2,169.8,-7.724,-7.907,-20,-7.542,-8.425,-4.553,-4.983,-4.774,-4.477,4.475,8.456,3,-1.957,1.45,4.589,8.22,-7.544,-8.211,-1.364,2.025,254.0,256.0,,263.8,257.2,248.5,247.3,251.2,256.5,258.1,1,norm,1.435,1.43,-1.79,-1.987,-4.405,-5.193,-1.905,-2.093,-1.166,-1.795,1.239,-1.36,259.8,260.2,-4.434,-8.443,256.8,-2.099,7.943,4.735,-5.295,-7.588,11,5.073,4.938,4.989,5.06,1.282,1.53,1.874,1.194,11,4.937,4.315,-20,186.534368717,norm,0,42,42,42,467.783,467.789,467.795830533,467.796,467.8,467.805,up,1,2.11716935514,7.88283064486,001,320,1280_800,Intel(R) Core(TM)2 Duo CPU     T7500  @ 2.20GHz,orientation_search,GRVLAPTOP4,Quadro NVS 140M/PCIe/SSE2,2018_nov_08_1402,testMonitor,
74.5,85.3,79.2,53.3,36,-10,58.9,82.9,79.8,63.8,8.136,7.72,8.234,8.375,8.486,8.045,8.222,4.689,-5.271,-8.247,1.101,-1.477,8.263,4.369,-5.268,-7.727,64.2,74.2,-8.019,72.1,85.2,77.7,77.4,83.8,36,84.0,3,5,prime,10,0,107,norm,36,-5.289,down,norm,73.2695676051,75.0,82.5,1.211,79.1,1,85.7,93.0,63.0,10,6,7.579,5.292,1.93,-1.492,-5.156,-7.949,76.1,6,180.3,-7.594,-8.233,-10,-7.584,-8.401,-4.827,-4.976,-4.454,-4.414,4.77,8.11,19,-1.905,2.03,4.832,7.854,-8.496,-8.462,-1.967,1.759,79.6,85.7,84.1,70.7,86.1,65.3,71.3,93.3,69.8,78.7,0,norm,1.491,1.323,-2.099,-2.052,-5.08,-4.993,-2.018,-1.824,-1.51,-1.505,1.254,-1.511,,66.0,-4.979,-8.394,69.4,-1.906,8.094,4.762,-4.903,-8.205,12,4.441,4.319,4.785,4.546,1.223,1.553,1.111,1.204,12,5.185,4.588,40,186.534368717,norm,0,43,43,43,469.938,469.945,469.952758019,469.953,469.957,469.962,down,1,2.38672192973,7.61327807027,001,320,1280_800,Intel(R) Core(TM)2 Duo CPU     T7500  @ 2.20GHz,orientation_search,GRVLAPTOP4,Quadro NVS 140M/PCIe/SSE2,2018_nov_08_1402,testMonitor,
70.9,74.3,79.4,76.6,36,-10,54.9,93.3,54.0,76.8,8.299,7.795,7.578,8.34,8.087,7.638,7.88,4.874,-4.382,-7.992,1.762,-1.657,7.745,4.566,-4.566,-8.325,75.4,72.4,-7.827,66.3,80.8,56.9,60.1,78.6,36,55.5,1,5,prime,10,0,94,norm,36,-4.312,down,norm,73.2695676051,72.3,60.1,1.506,78.2,0,78.9,63.9,77.7,10,6,8.104,5.115,1.885,-1.893,-5.128,-7.612,53.3,6,167.3,-8.147,-7.752,-10,-7.578,-7.996,-5.025,-4.752,-4.347,-4.335,4.671,7.671,6,-1.124,1.195,4.899,8.097,-7.55,-7.872,-1.934,1.66,87.2,76.2,65.7,83.4,87.3,72.7,76.0,,69.3,75.3,1,norm,2.049,1.692,-1.249,-1.85,-5.055,-4.977,-1.469,-1.583,-1.872,-1.458,1.75,-1.159,73.8,85.8,-4.519,-7.846,71.4,-1.666,8.105,4.602,-5.039,-7.937,12,4.931,5.044,4.776,5.062,1.434,1.25,1.75,1.736,12,4.565,4.928,40,186.534368717,norm,0,44,44,44,472.364,472.372,472.379372503,472.38,472.384,472.389,down,1,2.94076350771,7.05923649229,001,320,1280_800,Intel(R) Core(TM)2 Duo CPU     T7500  @ 2.20GHz,orientation_search,GRVLAPTOP4,Quadro NVS 140M/PCIe/SSE2,2018_nov_08_1402,testMonitor,
,81.8,65.0,81.3,36,-10,74.9,71.3,56.1,71.3,7.794,7.81,8.244,8.472,8.058,7.862,8.434,4.823,-4.537,-7.963,1.129,-1.806,8.062,4.745,-4.901,-8.483,77.0,81.5,-8.389,70.5,73.2,88.0,81.0,66.5,36,67.0,3,5,prime,10,0,67,norm,36,-4.545,up,norm,73.2695676051,64.8,53.3,1.683,68.8,4,73.4,93.3,66.8,10,6,8.19,4.62,1.493,-1.1,-4.574,-8.018,74.8,6,140.3,-8.499,-7.998,-10,-7.719,-7.601,-4.601,-4.462,-4.952,-5.117,4.738,8.205,22,-1.782,1.647,4.429,8.098,-8.265,-7.568,-1.254,1.664,82.7,67.4,77.5,75.9,83.6,78.8,76.6,73.6,69.7,69.8,2,norm,1.76,1.859,-1.592,-1.876,-4.747,-5.292,-1.979,-1.798,-1.155,-1.696,1.554,-1.261,90.1,71.8,-4.996,-8.162,64.5,-1.101,8.308,4.622,-4.88,-8.499,12,4.394,4.554,5.236,5.01,1.678,1.795,1.593,1.105,12,4.653,4.463,40,186.534368717,norm,0,45,45,45,475.346,475.353,475.360970931,475.361,475.365,475.37,up,1,1.27655427355,8.72344572645,001,320,1280_800,Intel(R) Core(TM)2 Duo CPU     T7500  @ 2.20GHz,orientation_search,GRVLAPTOP4,Quadro NVS 140M/PCIe/SSE2,2018_nov_08_1402,testMonitor,
87.3,74.7,67.2,55.7,36,-10,75.4,54.6,62.6,53.3,7.87,7.91,8.246,7.697,8.217,7.61,7.8,5.134,-4.906,-7.763,1.391,-1.328,8.067,5.299,-4.709,-8.472,72.1,86.8,-7.654,92.1,85.2,69.2,73.4,79.9,36,77.5,2,5,prime,10,0,82,norm,36,-4.845,down,norm,73.2695676051,68.8,80.1,1.102,,2,71.1,80.1,66.3,10,6,8.037,4.996,1.28,-1.25,-4.665,-7.505,84.5,6,155.3,-7.885,-8.075,-10,-8.206,-7.61,-4.419,-4.472,-5.043,-4.773,4.825,7.861,14,-1.673,1.416,5.269,7.581,-8.413,-8.128,-1.818,1.756,81.8,74.1,68.2,87.6,81.7,68.8,69.5,55.7,67.7,93.3,3,norm,1.796,2.081,-1.62,-1.13,-4.419,-4.491,-1.642,-1.229,-1.305,-1.77,1.571,-1.941,78.8,65.6,-5.275,-8.016,84.6,-2.073,7.815,4.705,-4.681,-8.014,12,4.807,4.664,4.478,4.723,1.195,1.205,1.304,1.169,12,4.482,4.965,40,186.534368717,norm,0,46,46,46,476.662,476.669,476.677400022,476.678,476.681,476.686,down,1,1.27646652478,8.72353347522,001,320,1280_800,Intel(R) Core(TM)2 Duo CPU     T7500  @ 2.20GHz,orientation_search,GRVLAPTOP4,Quadro NVS 140M/PCIe/SSE2,2018_nov_08_1402,testMonitor,
53.3,77.8,74.0,69.6,36,-10,63.9,72.9,70.1,84.8,8.105,8.195,8.148,8.492,8.263,7.898,8.154,4.513,-4.724,-8.176,1.795,-1.141,8.497,4.691,-4.443,-8.421,58.2,74.3,-7.863,84.3,62.2,84.7,78.1,57.4,36,64.6,3,5,prime,10,0,79,norm,36,-4.474,down,norm,73.2695676051,73.9,69.4,1.235,82.5,0,57.8,74.8,65.7,10,6,8.02,4.559,1.128,-2.006,-5.031,-7.971,85.4,6,152.3,-7.772,-7.729,-10,-8.465,-8.188,-4.566,-4.902,-4.406,-4.352,5.122,8.131,18,-2.09,1.944,5.177,7.9,-8.441,-8.335,-1.191,1.788,84.5,93.3,75.0,79.7,71.6,83.1,66.2,74.5,66.9,77.0,4,norm,1.311,2.039,-1.286,-1.172,-4.653,-5.004,-2.062,-1.208,-1.243,-1.184,2.044,-1.142,71.6,,-5.066,-7.546,77.1,-1.887,8.162,4.542,-4.557,-7.556,12,4.956,4.818,4.938,4.906,2.01,1.91,1.547,2.0,12,5.286,4.456,40,186.534368717,norm,0,47,47,47,477.979,477.986,477.993727363,477.994,477.998,478.003,down,1,3.44919159105,6.55080840895,001,320,1280_800,Intel(R) Core(TM)2 Duo CPU     T7500  @ 2.20GHz,orientation_search,GRVLAPTOP4,Quadro NVS 140M/PCIe/SSE2,2018_nov_08_1402,testMonitor,
71.4,62.2,85.0,64.6,36,-10,53.3,75.2,57.7,68.1,7.967,7.521,7.652,7.683,8.15,8.433,7.847,5.081,-4.761,-7.659,1.382,-1.972,8.407,4.517,-4.837,-8.02,85.9,72.2,-8.309,59.4,74.4,88.4,57.5,61.6,36,70.8,1,5,prime,10,0,77,norm,36,-4.798,down,norm,73.2695676051,74.2,84.7,1.519,82.0,2,55.7,69.2,74.3,10,6,8.017,4.673,1.957,-1.149,-5.027,-7.662,93.3,6,150.3,-8.371,-8.485,-10,-8.24,-8.028,-4.687,-4.525,-4.843,-4.466,4.631,8.017,8,-1.566,1.204,4.614,8.284,-7.855,-8.354,-1.186,1.87,71.9,,73.0,64.3,71.6,68.7,77.6,79.4,65.8,64.5,5,norm,1.315,1.597,-1.49,-1.312,-5.16,-4.924,-1.627,-1.226,-1.191,-2.019,1.246,-1.969,71.8,74.1,-5.046,-8.314,56.2,-2.027,7.636,4.384,-4.449,-8.493,12,5.12,5.02,4.446,4.817,1.828,1.114,1.197,1.501,12,5.216,5.039,40,186.534368717,norm,0,48,48,48,481.468,481.474,481.482882921,481.483,481.487,481.492,down,1,1.13394057354,8.86605942646,001,320,1280_800,Intel(R) Core(TM)2 Duo CPU     T7500  @ 2.20GHz,orientation_search,GRVLAPTOP4,Quadro NVS 140M/PCIe/SSE2,2018_nov_08_1402,testMonitor,
182.2,165.8,179.7,170.0,36,-20,179.1,173.7,172.7,,8.365,8.472,8.487,8.254,8.001,8.04,7.67,4.599,-4.439,-8.082,1.961,-1.628,8.103,4.514,-4.472,-7.529,178.4,173.6,-7.754,179.2,176.0,167.6,179.2,185.8,36,178.3,4,5,probe,5,0,112,norm,36,-5.24,up,norm,175.807107637,175.8,169.4,1.573,171.9,5,169.6,184.3,179.7,10,6,7.69,4.433,2.061,-1.989,-5.217,-8.182,173.9,2,63.8,-8.035,-8.424,-10,-8.146,-8.096,-4.713,-4.813,-4.976,-4.474,4.361,8.321,29,-1.235,1.75,4.786,8.387,-8.131,-8.286,-1.393,2.094,169.0,179.0,179.1,166.9,173.2,182.7,173.7,182.4,175.9,177.3,0,norm,1.346,1.152,-1.937,-1.229,-4.937,-4.78,-1.136,-2.067,-1.245,-1.286,2.06,-1.584,171.7,173.9,-4.451,-8.43,178.3,-1.831,8.183,5.28,-4.945,-8.405,13,5.191,4.705,4.704,4.903,1.479,1.241,1.211,1.232,13,4.377,4.756,-10,73.2695676051,norm,0,49,49,49,482.642,482.649,482.656484541,482.657,482.661,482.667,up,1,1.43395971024,8.56604028976,001,320,1280_800,Intel(R) Core(TM)2 Duo CPU     T7500  @ 2.20GHz,orientation_search,GRVLAPTOP4,Quadro NVS 140M/PCIe/SSE2,2018_nov_08_1402,testMonitor,
,163.7,167.1,164.3,36,-20,169.4,170.7,174.9,170.1,8.393,8.449,7.593,8.435,8.252,8.195,8.48,4.482,-4.99,-8.028,2.085,-1.427,7.615,4.475,-4.325,-8.028,175.3,181.8,-7.583,178.3,165.8,175.8,181.5,167.1,36,173.0,3,5,probe,5,0,108,norm,36,-4.711,up,norm,171.807107637,167.5,166.7,1.764,176.3,4,175.7,167.8,165.9,10,6,7.665,4.94,1.962,-1.371,-5.099,-8.169,171.9,2,63.8,-7.518,-7.574,-10,-7.812,-8.478,-5.252,-4.974,-5.143,-5.159,4.33,7.628,22,-1.81,2.08,5.194,8.424,-7.76,-8.339,-1.802,2.054,167.5,167.0,165.6,174.6,177.7,176.2,175.0,163.8,173.8,175.9,1,norm,1.657,1.714,-1.137,-1.784,-4.43,-4.737,-1.664,-1.988,-1.498,-1.783,1.197,-1.471,173.9,168.4,-4.623,-8.489,163.5,-1.138,7.813,5.179,-4.829,-7.629,13,4.777,5.083,4.534,4.584,1.578,1.48,1.931,1.653,13,4.925,4.608,-10,73.2695676051,norm,0,50,50,50,484.117,484.123,484.131467272,484.132,484.136,484.141,up,1,1.27588355551,8.72411644449,001,320,1280_800,Intel(R) Core(TM)2 Duo CPU     T7500  @ 2.20GHz,orientation_search,GRVLAPTOP4,Quadro NVS 140M/PCIe/SSE2,2018_nov_08_1402,testMonitor,
95.9,,91.1,90.0,36,60,93.9,86.5,85.0,94.6,8.157,8.261,8.016,8.236,7.53,7.6,8.044,4.512,-5.12,-7.705,1.193,-1.878,7.853,4.747,-4.552,-8.16,96.1,96.7,-8.205,94.7,100.2,71.4,96.2,104.5,36,95.5,3,5,prime,10,0,112,norm,36,-5.255,up,norm,90.350375162,89.2,70.4,1.542,80.9,5,89.3,100.7,87.6,10,6,8.163,4.525,1.923,-1.274,-4.662,-8.325,76.6,6,202.4,-8.064,-7.545,60,-7.832,-8.292,-4.491,-4.891,-4.684,-4.604,4.365,7.97,23,-1.544,1.703,4.521,7.888,-7.937,-8.369,-1.973,1.889,98.3,84.7,86.5,88.1,88.5,91.1,104.5,107.7,93.8,82.8,0,norm,1.778,1.576,-1.111,-1.769,-4.302,-5.049,-1.255,-1.26,-1.9,-1.524,1.87,-1.937,110.4,92.5,-4.483,-7.867,81.5,-1.589,8.403,5.007,-4.505,-8.031,14,5.102,4.782,4.767,5.203,1.309,1.193,1.266,1.203,14,4.637,4.366,-20,73.2695676051,norm,0,51,51,51,485.433,485.439,485.447981311,485.448,485.452,485.457,up,1,2.33860992868,7.66139007132,001,320,1280_800,Intel(R) Core(TM)2 Duo CPU     T7500  @ 2.20GHz,orientation_search,GRVLAPTOP4,Quadro NVS 140M/PCIe/SSE2,2018_nov_08_1402,testMonitor,
89.8,83.0,83.7,81.0,36,60,96.9,70.4,87.2,81.5,7.56,7.817,8.481,8.074,8.128,7.612,8.423,4.37,-4.758,-8.333,1.513,-1.233,8.308,5.023,-5.184,-7.732,86.6,84.1,-7.511,,99.9,71.8,83.9,105.4,36,85.4,5,5,prime,10,0,87,norm,36,-4.962,down,norm,90.350375162,85.3,83.6,1.647,98.5,1,100.2,96.5,89.5,10,6,8.369,4.761,1.434,-1.319,-4.65,-7.61,99.3,6,177.4,-8.396,-8.208,60,-8.35,-8.338,-5.175,-4.618,-5.292,-4.501,4.817,7.952,31,-1.291,1.985,5.01,7.953,-8.012,-7.784,-1.497,1.809,100.8,99.4,92.5,91.2,77.7,87.1,90.3,79.6,87.7,81.7,1,norm,1.669,1.251,-1.87,-1.785,-4.392,-5.122,-1.401,-1.662,-1.268,-1.883,1.71,-1.926,103.2,94.3,-4.445,-8.076,84.4,-1.64,8.298,4.887,-4.845,-7.586,14,5.26,4.757,4.661,5.277,1.39,2.068,1.252,1.457,14,4.791,5.137,-20,73.2695676051,norm,0,52,52,52,487.812,487.818,487.826799783,487.827,487.831,487.836,down,1,1.1972041746,8.8027958254,001,320,1280_800,Intel(R) Core(TM)2 Duo CPU     T7500  @ 2.20GHz,orientation_search,GRVLAPTOP4,Quadro NVS 140M/PCIe/SSE2,2018_nov_08_1402,testMonitor,
83.1,90.3,99.9,95.0,36,60,91.7,110.4,79.8,96.9,7.834,7.522,7.839,8.323,7.527,8.494,7.888,4.409,-4.906,-7.631,1.943,-1.525,8.365,5.05,-4.642,-7.581,90.6,76.2,-7.905,97.5,94.5,,91.0,93.4,36,97.3,5,5,prime,10,0,118,norm,36,-4.333,up,norm,90.350375162,94.9,76.0,1.554,88.6,3,109.4,100.1,92.8,10,6,8.15,4.624,1.718,-1.561,-4.524,-7.999,93.2,6,208.4,-8.098,-8.311,60,-8.153,-8.461,-4.514,-4.514,-4.401,-4.573,4.837,7.73,33,-1.264,2.078,4.483,8.033,-8.04,-8.373,-1.885,1.676,88.2,92.2,91.0,86.5,70.4,90.6,95.2,80.7,72.2,88.8,2,norm,1.812,1.321,-1.36,-1.112,-4.793,-4.926,-1.655,-2.07,-1.448,-1.249,1.178,-2.099,98.7,103.1,-4.86,-7.509,89.1,-1.881,8.235,4.939,-5.14,-8.459,14,4.902,5.164,4.466,4.786,1.195,1.326,1.148,2.083,14,4.788,4.951,-20,73.2695676051,norm,0,53,53,53,489.049,489.056,489.063893712,489.064,489.068,489.073,up,1,1.00682946865,8.99317053135,001,320,1280_800,Intel(R) Core(TM)2 Duo CPU     T7500  @ 2.20GHz,orientation_search,GRVLAPTOP4,Quadro NVS 140M/PCIe/SSE2,2018_nov_08_1402,testMonitor,
93.3,,110.4,86.9,36,60,82.0,96.4,99.6,95.7,8.263,7.698,8.273,8.26,8.318,8.382,8.252,5.186,-4.561,-7.998,1.469,-1.828,7.793,5.267,-5.206,-7.842,71.9,86.8,-7.978,88.6,97.2,88.1,103.2,91.3,36,108.9,3,5,prime,10,0,92,norm,36,-4.869,up,norm,90.350375162,95.0,85.3,1.509,87.5,5,87.9,94.1,93.3,10,6,7.772,5.238,1.565,-2.021,-4.997,-7.761,94.1,6,182.4,-7.862,-7.776,60,-8.092,-7.672,-4.552,-4.767,-4.481,-5.055,4.388,7.755,23,-1.832,1.404,4.974,8.037,-7.886,-8.179,-1.78,1.361,80.4,85.9,92.6,92.6,70.4,86.4,97.7,101.5,77.5,86.4,3,norm,1.303,1.29,-1.681,-2.079,-5.048,-4.411,-1.247,-1.126,-1.167,-1.657,1.649,-1.696,86.7,84.9,-5.183,-8.408,91.8,-1.893,7.955,4.862,-4.932,-8.287,14,4.371,4.886,4.638,4.633,1.121,1.385,1.821,2.0,14,5.139,4.538,-20,73.2695676051,norm,0,54,54,54,490.096,490.103,490.110684814,490.111,490.115,490.12,up,1,1.73570955155,8.26429044845,001,320,1280_800,Intel(R) Core(TM)2 Duo CPU     T7500  @ 2.20GHz,orientation_search,GRVLAPTOP4,Quadro NVS 140M/PCIe/SSE2,2018_nov_08_1402,testMonitor,
73.1,99.2,99.6,73.0,36,60,81.1,92.5,103.3,100.1,8.424,7.999,8.239,8.402,7.996,7.851,7.531,5.196,-4.931,-8.358,1.366,-1.459,7.517,5.266,-4.971,-8.294,83.2,89.3,-8.459,95.7,87.0,,80.5,94.4,36,101.7,5,5,prime,10,0,92,norm,36,-5.274,up,norm,90.350375162,92.3,101.2,1.691,92.0,3,94.4,76.2,70.6,10,6,8.0,4.586,2.033,-1.265,-5.222,-7.931,87.7,6,182.4,-7.564,-8.023,60,-7.898,-7.934,-4.315,-4.453,-4.42,-4.391,4.56,7.583,33,-2.086,1.918,4.482,7.759,-7.974,-8.468,-1.214,1.536,85.5,110.4,83.1,89.0,70.4,85.5,90.1,86.7,98.3,79.4,4,norm,1.482,1.374,-1.274,-1.212,-4.963,-4.439,-2.031,-2.013,-1.728,-2.019,2.084,-1.936,100.5,100.2,-4.579,-7.973,96.3,-1.372,8.087,4.404,-4.954,-8.329,14,5.276,4.571,5.232,4.35,1.407,1.854,1.737,1.584,14,4.733,4.557,-20,73.2695676051,norm,0,55,55,55,491.872,491.878,491.886984243,491.887,491.891,491.896,up,1,6.82704389306,3.17295610694,001,320,1280_800,Intel(R) Core(TM)2 Duo CPU     T7500  @ 2.20GHz,orientation_search,GRVLAPTOP4,Quadro NVS 140M/PCIe/SSE2,2018_nov_08_1402,testMonitor,
81.8,95.8,93.0,95.7,36,60,86.2,80.2,86.5,98.1,7.555,7.828,8.444,7.747,7.544,8.089,8.215,5.086,-5.003,-7.895,1.752,-1.883,8.247,4.336,-4.835,-7.674,84.5,74.0,-7.828,78.9,103.0,86.4,101.7,88.7,36,93.3,2,5,prime,10,0,110,norm,36,-5.206,up,norm,90.350375162,102.1,110.4,1.667,90.0,3,88.7,70.4,98.1,10,6,7.52,4.497,2.012,-1.648,-4.33,-7.51,82.6,6,200.4,-8.461,-7.891,60,-8.338,-7.714,-4.48,-4.871,-4.744,-5.135,4.89,8.176,15,-1.235,1.342,4.821,7.798,-8.0,-8.071,-1.369,1.103,94.8,84.5,90.2,101.7,87.7,86.4,88.8,77.8,89.5,72.5,5,norm,1.524,1.817,-1.282,-2.082,-4.56,-4.572,-1.623,-1.187,-1.435,-1.362,1.343,-1.144,87.2,97.7,-4.373,-7.558,,-2.01,7.812,4.779,-5.236,-7.617,14,4.898,5.163,5.11,4.524,1.588,2.082,1.442,1.922,14,5.249,4.351,-20,73.2695676051,norm,0,56,56,56,498.739,498.746,498.754275886,498.755,498.758,498.763,up,1,1.57779022441,8.42220977559,001,320,1280_800,Intel(R) Core(TM)2 Duo CPU     T7500  @ 2.20GHz,orientation_search,GRVLAPTOP4,Quadro NVS 140M/PCIe/SSE2,2018_nov_08_1402,testMonitor,
240.4,245.8,239.3,243.4,36,80,232.9,242.0,250.6,240.3,7.581,8.459,8.179,7.999,7.75,8.011,7.839,4.414,-5.268,-8.096,1.151,-1.746,8.415,4.965,-5.165,-8.485,246.5,234.1,-7.593,247.5,237.6,240.9,,237.8,36,245.3,5,5,probe,5,0,100,norm,36,-4.561,down,norm,242.006063559,248.6,247.9,1.764,241.5,2,248.6,242.1,232.0,10,6,8.408,4.716,1.896,-2.074,-5.184,-7.958,247.5,2,142.0,-7.722,-8.492,60,-8.077,-8.063,-5.22,-4.334,-4.941,-4.737,4.734,7.683,32,-1.152,1.811,4.524,7.709,-8.015,-8.403,-1.309,2.011,233.7,243.4,242.2,245.9,249.3,237.6,245.1,250.9,252.0,242.2,0,norm,1.922,1.139,-1.132,-1.543,-4.841,-4.486,-2.064,-2.05,-1.139,-2.031,1.658,-1.139,239.3,240.3,-5.169,-8.017,244.9,-1.349,7.521,4.972,-4.694,-8.304,15,4.846,4.952,4.333,4.896,1.818,1.401,1.131,1.869,15,5.182,5.088,60,90.350375162,norm,0,57,57,57,500.357,500.363,500.371992737,500.372,500.376,500.381,down,1,1.14973068593,8.85026931407,001,320,1280_800,Intel(R) Core(TM)2 Duo CPU     T7500  @ 2.20GHz,orientation_search,GRVLAPTOP4,Quadro NVS 140M/PCIe/SSE2,2018_nov_08_1402,testMonitor,
231.2,231.9,228.1,226.6,36,80,224.2,221.5,219.8,232.2,7.576,8.13,7.606,7.761,8.477,8.189,7.914,4.686,-5.26,-8.05,1.589,-1.16,7.687,4.434,-4.796,-8.009,225.7,,-8.351,222.6,225.0,232.2,218.5,237.0,36,222.3,5,5,probe,5,0,85,norm,36,-4.892,up,norm,227.006063559,225.4,224.7,2.055,227.0,4,220.8,220.8,223.1,10,6,7.831,4.581,1.461,-1.807,-5.124,-8.015,220.6,2,142.0,-8.223,-8.226,60,-8.013,-7.913,-4.498,-4.504,-4.948,-4.783,4.818,7.943,34,-1.841,1.842,4.326,7.625,-8.499,-8.457,-1.721,1.398,227.3,233.2,228.3,230.4,228.1,219.1,222.4,218.9,229.2,219.7,1,norm,1.637,1.251,-1.455,-1.29,-4.508,-4.596,-1.497,-1.571,-1.719,-1.263,2.1,-1.33,227.5,232.2,-4.383,-8.026,217.0,-1.982,7.673,5.14,-4.675,-8.33,15,5.118,4.829,4.982,4.894,1.44,1.718,1.795,1.58,15,4.625,5.224,60,90.350375162,norm,0,58,58,58,501.547,501.553,501.561500691,501.562,501.566,501.571,up,1,0.799774093574,9.20022590643,001,320,1280_800,Intel(R) Core(TM)2 Duo CPU     T7500  @ 2.20GHz,orientation_search,GRVLAPTOP4,Quadro NVS 140M/PCIe/SSE2,2018_nov_08_1402,testMonitor,
121.8,135.1,148.4,137.0,36,-80,139.7,124.8,122.0,143.4,8.282,7.691,7.658,8.248,7.588,8.051,8.288,4.597,-4.328,-8.092,1.292,-1.462,8.432,4.855,-5.094,-8.016,125.7,128.1,-8.286,131.2,131.5,137.7,,131.0,36,142.9,5,5,prime,10,0,73,norm,36,-5.29,down,norm,134.768975015,121.6,145.1,1.391,145.2,2,128.7,133.7,141.5,10,6,7.742,4.653,1.98,-1.502,-4.84,-7.601,135.5,6,207.8,-7.632,-8.17,-80,-7.931,-8.3,-5.187,-4.452,-5.115,-4.392,4.432,7.965,32,-1.692,1.504,4.686,8.228,-7.91,-7.652,-1.186,1.458,141.8,121.4,135.4,125.5,136.4,114.8,128.2,116.8,140.6,132.5,0,norm,1.991,1.902,-1.261,-1.74,-5.145,-4.304,-1.465,-1.355,-1.455,-1.243,1.964,-1.437,154.8,133.6,-5.011,-8.244,127.8,-1.115,8.155,4.952,-4.798,-7.63,16,5.041,5.086,4.477,4.337,1.374,1.116,1.386,1.788,16,4.611,4.459,80,90.350375162,norm,0,59,59,59,502.387,502.395,502.401993484,502.402,502.406,502.412,down,1,3.25818070647,6.74181929353,001,320,1280_800,Intel(R) Core(TM)2 Duo CPU     T7500  @ 2.20GHz,orientation_search,GRVLAPTOP4,Quadro NVS 140M/PCIe/SSE2,2018_nov_08_1402,testMonitor,
131.9,125.2,145.0,139.8,36,-80,124.4,148.6,115.4,152.7,8.15,7.923,7.716,8.145,8.153,8.209,8.417,4.475,-4.546,-7.541,1.816,-1.794,8.254,4.735,-4.634,-8.099,132.2,143.5,-7.588,138.4,134.0,138.3,128.2,140.9,36,142.3,3,5,prime,10,0,75,norm,36,-5.003,down,norm,134.768975015,114.8,143.5,2.012,128.1,1,136.7,144.9,133.5,10,6,8.011,4.771,2.068,-1.39,-5.24,-8.286,146.5,6,209.8,-7.734,-8.308,-80,-7.719,-8.482,-4.743,-5.001,-5.014,-5.099,4.612,7.992,19,-1.727,1.786,4.932,8.413,-7.861,-8.253,-1.785,1.746,131.3,138.3,138.7,126.8,131.3,145.1,154.8,141.7,131.0,148.2,1,norm,1.985,1.725,-2.037,-1.413,-4.894,-4.993,-1.35,-2.017,-1.455,-2.016,1.56,-1.242,,136.0,-4.811,-7.529,131.6,-2.05,7.912,4.633,-4.375,-7.541,16,4.789,4.716,4.749,4.989,1.289,1.484,1.518,2.081,16,4.749,5.253,80,90.350375162,norm,0,60,60,60,505.686,505.692,505.700898025,505.701,505.705,505.71,down,1,1.45082941264,8.54917058736,001,320,1280_800,Intel(R) Core(TM)2 Duo CPU     T7500  @ 2.20GHz,orientation_search,GRVLAPTOP4,Quadro NVS 140M/PCIe/SSE2,2018_nov_08_1402,testMonitor,
147.2,,120.9,121.4,36,-80,119.5,136.6,130.4,135.6,7.817,8.239,7.999,7.504,7.651,7.7,8.101,4.716,-4.808,-8.007,1.492,-1.27,7.623,4.788,-4.93,-7.5,134.7,137.1,-7.908,145.2,147.7,152.0,130.2,114.8,36,146.7,3,5,prime,10,0,81,norm,36,-4.904,up,norm,134.768975015,129.8,123.9,1.417,150.9,5,129.2,153.6,136.4,10,6,8.326,5.105,1.399,-1.558,-5.122,-7.668,147.9,6,215.8,-8.326,-8.431,-80,-8.322,-8.263,-4.631,-4.514,-4.858,-4.418,4.562,8.23,23,-1.343,1.458,4.837,7.714,-8.112,-8.079,-1.555,1.392,150.8,133.6,140.3,126.8,143.0,154.8,131.3,137.4,146.5,123.9,2,norm,1.292,1.509,-1.149,-1.729,-4.869,-4.467,-1.369,-1.215,-1.882,-1.318,1.358,-1.285,137.3,147.3,-4.333,-7.584,135.8,-1.166,7.583,4.826,-4.608,-7.781,16,4.843,4.97,4.396,4.766,1.736,1.825,1.755,1.609,16,4.985,4.848,80,90.350375162,norm,0,61,61,61,507.177,507.183,507.191743213,507.192,507.196,507.201,up,1,0.943207404503,9.0567925955,001,320,1280_800,Intel(R) Core(TM)2 Duo CPU     T7500  @ 2.20GHz,orientation_search,GRVLAPTOP4,Quadro NVS 140M/PCIe/SSE2,2018_nov_08_1402,testMonitor,
131.8,148.4,142.1,143.0,36,-80,,114.8,130.7,117.1,7.79,7.742,7.575,8.308,8.004,7.887,7.709,4.506,-4.696,-8.372,1.517,-2.009,7.55,5.108,-4.746,-8.003,136.2,128.1,-7.641,120.3,137.7,127.2,135.3,149.2,36,129.1,4,5,prime,10,0,65,norm,36,-5.175,down,norm,134.768975015,137.2,135.7,1.488,133.5,0,147.8,137.1,121.4,10,6,8.192,4.656,1.915,-1.191,-4.37,-8.48,116.3,6,199.8,-7.734,-7.602,-80,-7.927,-8.073,-4.476,-4.683,-5.036,-4.555,5.294,7.791,24,-2.059,1.745,4.784,8.053,-7.991,-8.414,-1.417,1.175,142.4,133.3,121.8,133.8,144.5,150.7,138.9,115.6,140.6,148.4,3,norm,1.396,1.487,-1.229,-1.463,-4.559,-4.315,-2.046,-1.453,-1.722,-1.905,1.8,-1.841,133.9,134.0,-5.174,-7.896,154.8,-1.133,8.389,5.201,-4.985,-8.128,16,4.998,4.327,4.409,5.166,1.697,1.3,1.896,1.905,16,5.22,4.457,80,90.350375162,norm,0,62,62,62,508.16,508.167,508.19269118,508.193,508.197,508.203,down,1,1.57523104066,8.42476895934,001,320,1280_800,Intel(R) Core(TM)2 Duo CPU     T7500  @ 2.20GHz,orientation_search,GRVLAPTOP4,Quadro NVS 140M/PCIe/SSE2,2018_nov_08_1402,testMonitor,
119.9,138.4,154.8,132.1,36,-80,140.1,135.1,143.9,130.1,8.196,7.51,8.295,7.922,8.429,7.927,7.688,5.153,-4.909,-7.847,1.641,-1.302,7.76,4.625,-5.162,-8.023,135.9,133.8,-7.729,125.5,133.1,148.5,152.1,,36,142.5,4,5,prime,10,0,72,norm,36,-4.583,down,norm,134.768975015,125.0,115.3,1.872,133.4,2,143.5,127.2,125.2,10,6,8.284,5.019,1.116,-1.695,-5.141,-8.492,146.0,6,206.8,-8.13,-8.449,-80,-8.28,-8.161,-4.553,-5.027,-4.906,-4.562,4.876,7.576,26,-1.695,2.047,4.69,7.665,-7.505,-7.682,-1.804,1.784,128.3,132.6,137.2,121.3,124.8,136.7,152.1,126.9,127.1,114.8,4,norm,1.75,1.87,-1.819,-1.159,-5.084,-4.897,-1.101,-1.549,-1.938,-1.756,2.025,-1.174,133.4,140.1,-4.99,-7.732,143.2,-2.092,8.399,5.019,-4.927,-8.245,16,4.787,5.189,5.231,4.426,1.408,1.568,1.958,1.176,16,4.528,4.512,80,90.350375162,norm,0,63,63,63,509.794,509.801,509.808704865,509.809,509.813,509.818,down,1,1.14944970315,8.85055029685,001,320,1280_800,Intel(R) Core(TM)2 Duo CPU     T7500  @ 2.20GHz,orientation_search,GRVLAPTOP4,Quadro NVS 140M/PCIe/SSE2,2018_nov_08_1402,testMonitor,
114.8,120.5,127.1,154.8,36,-80,131.6,152.1,133.9,144.1,8.123,7.843,8.382,8.421,7.878,8.498,8.454,4.894,-5.167,-8.163,1.983,-1.582,7.612,4.907,-5.126,-7.867,142.6,,-8.237,137.0,133.4,143.5,133.2,141.3,36,148.5,5,5,prime,10,0,61,norm,36,-5.056,up,norm,134.768975015,132.3,154.0,1.243,131.6,4,126.0,146.8,133.0,10,6,7.934,4.477,1.96,-1.692,-4.668,-7.504,126.5,6,195.8,-8.298,-8.087,-80,-8.248,-8.275,-4.485,-4.488,-5.04,-4.844,4.928,7.573,34,-1.976,1.652,4.637,8.188,-7.85,-7.651,-1.416,1.81,143.6,139.7,133.6,127.3,140.2,127.8,121.7,137.1,138.6,131.6,5,norm,1.307,2.023,-1.256,-1.625,-4.666,-4.309,-1.501,-1.783,-2.043,-1.116,1.278,-1.585,124.1,148.4,-4.943,-8.063,143.3,-1.123,8.49,4.648,-5.016,-8.5,16,4.728,4.649,5.288,4.51,1.194,1.391,1.644,1.618,16,4.696,4.968,80,90.350375162,norm,0,64,64,64,510.983,510.99,510.998206751,510.999,511.002,511.007,up,1,0.943056644636,9.05694335536,001,320,1280_800,Intel(R) Core(TM)2 Duo CPU     T7500  @ 2.20GHz,orientation_search,GRVLAPTOP4,Quadro NVS 140M/PCIe/SSE2,2018_nov_08_1402,testMonitor,
132.3,140.5,138.6,137.4,36,20,136.9,,133.9,132.9,7.751,8.22,8.242,8.133,7.527,8.306,7.703,4.373,-4.458,-7.566,1.28,-1.96,7.84,5.142,-4.444,-8.125,131.9,141.6,-7.705,129.2,137.9,131.7,133.8,128.6,36,142.9,4,5,probe,5,0,77,norm,36,-4.937,down,norm,138.355782793,130.7,138.2,1.632,136.3,1,136.1,128.4,139.9,10,6,7.513,4.379,1.188,-1.879,-4.383,-8.494,135.5,1,61.4,-8.236,-8.497,-80,-7.533,-7.72,-5.165,-5.152,-5.093,-4.348,4.954,8.142,25,-1.594,1.727,5.035,8.3,-8.242,-7.507,-1.812,1.551,139.9,135.6,142.2,148.1,136.2,133.1,133.6,142.7,137.0,148.4,0,norm,2.088,1.128,-2.03,-1.251,-5.255,-4.745,-1.657,-2.062,-1.837,-1.997,2.042,-1.653,139.1,136.8,-4.424,-8.492,134.3,-1.666,7.588,4.308,-4.677,-7.664,17,4.962,5.188,4.901,4.332,1.343,2.083,1.229,1.873,17,5.019,5.147,-80,134.768975015,norm,0,65,65,65,511.966,511.976,511.997335798,511.998,512.002,512.007,down,1,0.800272114559,9.19972788544,001,320,1280_800,Intel(R) Core(TM)2 Duo CPU     T7500  @ 2.20GHz,orientation_search,GRVLAPTOP4,Quadro NVS 140M/PCIe/SSE2,2018_nov_08_1402,testMonitor,
289.6,282.5,271.5,283.3,36,0,269.5,272.4,280.2,270.2,8.218,7.917,8.27,7.952,7.715,7.695,8.405,5.182,-4.325,-8.304,1.761,-1.536,7.557,4.359,-4.495,-7.794,287.4,286.1,-8.414,275.3,275.4,281.2,287.6,265.2,36,276.7,0,5,prime,10,0,71,norm,36,-4.861,down,norm,281.28032817,300.2,261.3,1.344,266.2,0,293.4,270.9,288.0,10,5,7.698,4.393,1.718,-1.298,-5.084,-7.898,266.6,5,352.3,-7.581,-7.961,0,-8.469,-8.049,-4.631,-4.746,-4.98,-4.389,4.959,7.822,0,-2.082,1.38,4.347,8.169,-8.106,-8.044,-2.029,1.194,281.4,285.0,289.4,301.3,271.0,,288.6,274.9,267.0,266.3,0,norm,1.146,1.866,-1.143,-1.981,-4.682,-4.432,-2.079,-1.156,-1.675,-1.348,1.187,-1.258,284.4,292.0,-5.066,-8.372,279.5,-1.174,8.328,5.158,-4.898,-7.844,18,4.726,4.94,4.576,4.821,1.778,1.87,1.947,1.277,18,4.613,4.633,20,134.768975015,norm,0,66,66,66,512.823,522.757,522.766104701,522.766,522.77,522.775,down,1,3.19553834808,6.80446165192,001,320,1280_800,Intel(R) Core(TM)2 Duo CPU     T7500  @ 2.20GHz,orientation_search,GRVLAPTOP4,Quadro NVS 140M/PCIe/SSE2,2018_nov_08_1402,testMonitor,
285.2,277.0,282.0,298.9,36,0,269.9,274.3,278.0,280.9,7.637,8.28,8.386,7.856,7.709,7.951,7.975,4.967,-5.253,-7.796,1.66,-1.641,8.056,5.299,-4.308,-8.496,287.2,301.3,-8.334,277.0,281.7,275.9,274.6,281.5,36,278.1,2,5,prime,10,0,99,norm,36,-5.254,up,norm,281.28032817,,274.6,2.08,261.3,5,281.3,273.9,278.5,10,5,8.241,4.426,1.35,-1.201,-4.389,-8.433,285.3,5,380.3,-8.16,-7.828,0,-7.966,-8.048,-4.793,-4.942,-4.318,-4.881,4.341,8.191,17,-1.769,2.038,4.849,8.45,-8.174,-8.238,-2.094,1.115,280.8,273.3,282.5,285.4,273.6,288.7,272.5,289.8,294.6,295.9,1,norm,1.828,1.486,-1.325,-1.292,-5.019,-5.123,-1.781,-1.475,-1.301,-1.737,1.784,-1.785,268.3,293.6,-4.645,-7.717,277.2,-2.049,8.314,4.779,-4.97,-7.815,18,4.36,5.128,5.211,4.431,1.728,1.407,1.396,1.211,18,4.88,4.517,20,134.768975015,norm,0,67,67,67,525.987,525.993,526.001605616,526.002,526.006,526.011,up,1,1.40317529218,8.59682470782,001,320,1280_800,Intel(R) Core(TM)2 Duo CPU     T7500  @ 2.20GHz,orientation_search,GRVLAPTOP4,Quadro NVS 140M/PCIe/SSE2,2018_nov_08_1402,testMonitor,
276.9,275.6,275.1,297.8,36,0,274.5,279.6,291.6,271.3,8.25,7.964,8.133,7.568,7.603,8.219,8.213,4.622,-4.7,-7.666,1.996,-1.305,7.629,4.456,-4.35,-8.458,292.2,289.6,-8.257,288.3,287.3,269.5,293.8,279.2,36,264.2,2,5,prime,10,0,71,norm,36,-4.306,down,norm,281.28032817,284.3,289.4,2.013,,2,283.4,261.3,274.4,10,5,7.792,5.22,1.755,-1.778,-4.88,-8.487,282.9,5,352.3,-7.735,-7.537,0,-8.137,-7.718,-4.732,-4.625,-4.955,-5.247,4.936,8.127,14,-1.865,1.631,4.992,8.268,-8.389,-8.062,-1.293,1.84,301.3,280.3,273.5,282.7,268.1,284.5,295.3,286.4,278.5,280.2,2,norm,1.769,2.085,-1.608,-1.943,-5.252,-5.209,-1.13,-1.516,-1.481,-1.695,1.517,-1.65,273.2,294.5,-4.835,-7.906,282.5,-2.095,7.52,4.704,-4.822,-8.336,18,4.431,4.445,4.408,4.954,2.062,1.927,1.743,1.416,18,5.233,4.66,20,134.768975015,norm,0,68,68,68,527.43,527.436,527.444819555,527.445,527.449,527.454,down,1,1.62508541503,8.37491458497,001,320,1280_800,Intel(R) Core(TM)2 Duo CPU     T7500  @ 2.20GHz,orientation_search,GRVLAPTOP4,Quadro NVS 140M/PCIe/SSE2,2018_nov_08_1402,testMonitor,
287.3,278.1,285.1,280.4,36,0,286.7,263.3,279.8,284.7,7.809,8.359,7.882,7.832,8.127,7.733,7.85,5.275,-4.581,-7.723,1.351,-1.393,8.259,5.223,-4.657,-7.844,273.5,273.6,-8.349,278.7,280.0,284.1,301.3,278.7,36,283.6,1,5,prime,10,0,119,norm,36,-4.81,down,norm,281.28032817,278.9,294.2,1.192,283.7,0,271.3,293.3,273.3,10,5,7.768,4.769,1.18,-1.363,-4.678,-8.036,265.1,5,400.3,-8.46,-8.341,0,-7.921,-8.371,-4.386,-4.364,-4.426,-5.172,5.216,8.091,6,-1.643,1.834,5.25,7.558,-8.372,-8.256,-1.131,1.994,261.3,287.3,282.3,278.5,295.3,297.3,272.4,,283.5,267.4,3,norm,1.146,1.799,-1.356,-1.246,-4.46,-4.839,-1.412,-1.384,-1.286,-1.448,1.667,-1.438,281.9,284.6,-4.428,-8.46,284.2,-2.011,8.024,4.962,-5.225,-8.212,18,4.989,5.297,4.86,4.734,1.715,1.173,2.043,1.859,18,4.737,4.862,20,134.768975015,norm,0,69,69,69,529.095,529.101,529.110106979,529.11,529.114,529.119,down,1,1.46673481199,8.53326518801,001,320,1280_800,Intel(R) Core(TM)2 Duo CPU     T7500  @ 2.20GHz,orientation_search,GRVLAPTOP4,Quadro NVS 140M/PCIe/SSE2,2018_nov_08_1402,testMonitor,
286.1,276.7,261.3,301.3,36,0,287.3,285.1,291.0,275.2,7.901,8.445,7.66,8.049,7.743,7.98,8.282,4.759,-5.066,-7.914,1.292,-1.224,7.86,5.15,-5.218,-8.161,273.5,271.0,-7.582,287.1,262.9,275.6,285.1,283.6,36,,4,5,prime,10,0,95,norm,36,-4.686,up,norm,281.28032817,279.6,273.5,1.621,274.9,3,298.5,288.0,288.9,10,5,7.65,4.582,1.956,-1.25,-4.995,-8.021,286.3,5,376.3,-8.002,-8.121,0,-8.322,-7.892,-4.458,-4.975,-5.193,-5.176,4.96,8.089,27,-1.964,1.575,4.71,7.834,-7.724,-7.961,-1.911,1.464,277.5,277.8,293.3,290.9,282.3,283.0,274.3,273.5,284.1,275.3,4,norm,1.572,1.89,-1.442,-1.198,-5.26,-4.675,-1.27,-1.241,-1.888,-1.892,1.222,-1.632,266.8,278.9,-5.085,-8.223,289.6,-2.055,7.53,4.58,-4.918,-7.811,18,4.386,4.799,4.308,4.383,2.067,1.482,1.977,1.961,18,5.038,5.101,20,134.768975015,norm,0,70,70,70,530.602,530.608,530.616726877,530.617,530.621,530.626,up,1,0.927639931294,9.07236006871,001,320,1280_800,Intel(R) Core(TM)2 Duo CPU     T7500  @ 2.20GHz,orientation_search,GRVLAPTOP4,Quadro NVS 140M/PCIe/SSE2,2018_nov_08_1402,testMonitor,
388.1,372.6,383.4,385.3,36,30,388.6,385.6,376.4,385.7,7.925,7.595,7.677,7.716,8.367,7.702,7.872,5.078,-5.259,-8.411,1.439,-2.049,8.22,4.659,-5.215,-7.657,381.5,375.3,-7.957,383.5,386.0,388.3,382.0,389.2,36,380.9,1,5,probe,5,0,103,norm,36,-5.125,up,norm,382.591324035,382.3,377.0,1.172,384.8,5,,378.1,392.6,10,5,8.398,5.08,1.676,-1.5,-4.969,-8.263,384.0,1,279.6,-8.303,-7.684,0,-7.934,-7.534,-4.624,-5.261,-4.525,-4.398,4.873,8.063,11,-1.307,1.803,4.899,8.082,-7.587,-8.454,-1.381,1.2,386.9,378.8,380.1,391.0,380.3,382.3,382.9,375.1,391.7,381.5,0,norm,1.208,1.352,-2.066,-2.002,-4.588,-4.756,-1.254,-1.945,-1.975,-1.664,1.71,-1.36,383.3,378.2,-4.982,-7.731,378.3,-1.472,8.442,5.216,-4.493,-7.997,19,4.892,5.038,4.727,5.185,1.294,1.73,1.193,1.173,19,4.728,4.764,0,281.28032817,norm,0,71,71,71,531.569,531.576,531.58422249,531.584,531.589,531.594,up,1,1.59272245248,8.40727754752,001,320,1280_800,Intel(R) Core(TM)2 Duo CPU     T7500  @ 2.20GHz,orientation_search,GRVLAPTOP4,Quadro NVS 140M/PCIe/SSE2,2018_nov_08_1402,testMonitor,
174.1,185.2,194.0,188.1,36,10,166.8,184.8,163.0,198.2,8.321,8.135,8.485,8.256,7.613,8.1,7.97,4.991,-4.505,-8.15,1.489,-1.893,7.933,4.989,-4.339,-7.851,187.8,175.4,-7.746,174.0,178.2,175.6,161.9,,36,198.9,4,5,prime,10,0,69,norm,36,-4.832,down,norm,178.910838549,185.1,176.2,1.82,180.6,2,170.7,182.4,172.6,10,6,8.381,4.494,1.117,-1.874,-4.596,-7.657,179.0,6,247.9,-8.426,-8.104,10,-7.926,-7.753,-4.501,-5.248,-4.678,-4.493,4.321,8.42,26,-1.458,1.89,5.029,7.917,-7.645,-8.35,-1.408,1.406,174.2,167.1,175.5,180.9,158.9,179.9,183.9,180.8,179.6,174.3,0,norm,1.792,1.971,-1.723,-1.958,-4.515,-4.479,-1.389,-1.776,-1.93,-1.586,1.669,-1.201,181.4,180.5,-5.191,-8.207,192.5,-1.798,7.536,5.051,-4.564,-8.336,20,4.653,4.635,4.471,4.99,1.559,1.742,1.89,1.903,20,5.06,4.543,30,281.28032817,norm,0,72,72,72,533.203,533.209,533.217737388,533.218,533.222,533.227,down,1,2.30741337142,7.69258662858,001,320,1280_800,Intel(R) Core(TM)2 Duo CPU     T7500  @ 2.20GHz,orientation_search,GRVLAPTOP4,Quadro NVS 140M/PCIe/SSE2,2018_nov_08_1402,testMonitor,
189.8,182.2,186.5,190.5,36,10,181.1,165.4,180.8,193.6,7.542,7.757,7.505,7.978,7.543,8.05,8.482,4.763,-4.814,-7.888,1.707,-1.996,7.627,4.389,-4.61,-7.91,184.3,181.8,-8.099,177.6,186.7,170.2,,172.4,36,184.1,5,5,prime,10,0,61,norm,36,-5.202,down,norm,178.910838549,161.3,177.3,1.42,175.8,2,175.2,178.6,171.9,10,6,8.365,4.608,2.004,-1.141,-4.467,-7.928,198.7,6,239.9,-8.059,-7.701,10,-8.071,-8.311,-4.556,-4.787,-5.284,-4.334,4.837,7.878,32,-1.458,1.298,4.405,8.356,-8.185,-8.077,-1.657,1.914,167.7,169.7,175.6,198.9,190.3,190.7,197.3,174.9,179.4,175.8,1,norm,1.477,1.722,-1.938,-1.328,-4.458,-4.765,-1.174,-1.271,-1.682,-1.868,2.043,-1.883,168.8,172.6,-5.176,-8.077,158.9,-1.524,7.968,4.726,-5.023,-7.593,20,4.737,4.517,5.274,4.327,1.309,1.92,1.661,1.377,20,4.85,5.196,30,281.28032817,norm,0,73,73,73,535.55,535.556,535.565084855,535.565,535.57,535.575,down,1,3.78161663119,6.21838336881,001,320,1280_800,Intel(R) Core(TM)2 Duo CPU     T7500  @ 2.20GHz,orientation_search,GRVLAPTOP4,Quadro NVS 140M/PCIe/SSE2,2018_nov_08_1402,testMonitor,
179.1,174.2,186.7,168.1,36,10,158.9,,184.8,178.1,8.243,7.899,7.64,7.862,7.547,8.187,7.535,5.195,-4.601,-8.337,1.432,-1.98,8.178,4.619,-4.822,-8.18,187.4,191.0,-8.124,194.0,187.0,187.7,174.5,198.9,36,172.9,4,5,prime,10,0,76,norm,36,-4.961,down,norm,178.910838549,177.4,170.4,1.51,176.7,1,187.2,170.6,170.1,10,6,7.775,4.468,1.396,-1.455,-4.632,-7.869,175.9,6,254.9,-7.533,-8.477,10,-8.378,-8.273,-4.664,-4.5,-4.75,-4.508,4.862,8.035,25,-1.605,2.02,5.203,8.067,-8.296,-8.029,-1.853,1.826,181.3,179.9,193.6,198.7,164.4,181.3,174.5,182.5,160.9,179.8,2,norm,1.491,2.041,-1.138,-1.914,-4.654,-5.257,-1.717,-1.301,-1.583,-1.739,2.03,-1.416,185.6,192.9,-4.87,-7.935,176.6,-1.811,8.49,5.121,-4.625,-7.942,20,5.244,4.428,5.09,4.683,1.586,1.758,1.312,1.767,20,4.856,4.474,30,281.28032817,norm,0,74,74,74,539.372,539.379,539.387240488,539.388,539.392,539.397,down,1,1.97369823756,8.02630176244,001,320,1280_800,Intel(R) Core(TM)2 Duo CPU     T7500  @ 2.20GHz,orientation_search,GRVLAPTOP4,Quadro NVS 140M/PCIe/SSE2,2018_nov_08_1402,testMonitor,
181.1,198.9,169.7,165.6,36,10,158.9,172.4,174.0,188.0,8.037,8.24,7.764,8.263,8.464,8.392,8.144,5.051,-4.705,-7.735,2.077,-1.682,8.08,4.915,-4.554,-8.436,192.5,186.1,-7.899,177.9,194.6,191.6,168.3,195.6,36,187.2,0,5,prime,10,0,61,norm,36,-5.057,up,norm,178.910838549,188.3,187.1,1.689,171.6,5,185.8,182.6,182.8,10,6,8.418,4.62,1.303,-2.066,-4.574,-7.924,164.3,6,239.9,-8.033,-8.03,10,-8.036,-7.928,-5.037,-5.214,-4.933,-4.609,4.457,8.131,5,-1.46,1.12,4.886,7.65,-8.256,-8.243,-1.243,1.815,186.5,182.4,175.3,190.6,180.3,186.8,189.3,178.8,,181.5,3,norm,1.357,1.284,-1.852,-2.038,-4.968,-4.636,-1.154,-1.612,-1.406,-2.085,1.46,-1.906,182.8,169.2,-4.533,-7.861,184.4,-1.172,8.213,4.756,-4.989,-8.325,20,4.308,4.942,4.755,5.234,1.735,1.792,1.348,1.145,20,4.794,4.943,30,281.28032817,norm,0,75,75,75,541.386,541.393,541.401481461,541.402,541.406,541.411,up,1,1.18130764348,8.81869235652,001,320,1280_800,Intel(R) Core(TM)2 Duo CPU     T7500  @ 2.20GHz,orientation_search,GRVLAPTOP4,Quadro NVS 140M/PCIe/SSE2,2018_nov_08_1402,testMonitor,
169.3,187.9,180.1,161.3,36,10,181.7,180.0,173.9,166.1,7.722,8.035,8.353,8.471,8.159,8.131,7.975,4.503,-5.063,-7.941,1.592,-2.034,8.354,5.299,-4.825,-8.228,188.1,175.5,-8.478,183.8,198.9,179.7,172.4,,36,186.0,4,5,prime,10,0,75,norm,36,-4.725,down,norm,178.910838549,193.0,175.3,1.615,195.4,2,181.8,162.7,184.2,10,6,7.776,5.065,1.971,-1.972,-5.273,-8.303,184.7,6,253.9,-7.964,-7.68,10,-7.858,-7.653,-4.963,-4.608,-4.933,-4.4,5.075,8.401,26,-1.125,1.577,4.922,7.956,-8.364,-7.807,-1.311,1.531,181.0,163.7,183.0,176.3,191.7,174.2,166.9,188.5,168.2,185.5,4,norm,1.812,1.814,-1.306,-1.107,-4.52,-4.62,-1.628,-1.543,-1.845,-1.549,1.578,-1.645,165.0,158.9,-4.617,-7.516,196.8,-1.837,7.959,4.628,-5.083,-7.565,20,5.051,5.152,5.014,4.511,1.119,2.032,1.94,1.692,20,5.129,4.422,30,281.28032817,norm,0,76,76,76,542.608,542.615,542.622595777,542.623,542.627,542.632,down,1,1.51363046563,8.48636953437,001,320,1280_800,Intel(R) Core(TM)2 Duo CPU     T7500  @ 2.20GHz,orientation_search,GRVLAPTOP4,Quadro NVS 140M/PCIe/SSE2,2018_nov_08_1402,testMonitor,
183.6,170.6,183.9,180.9,36,10,164.5,174.8,175.0,181.3,8.383,7.657,8.062,8.044,8.204,8.001,7.548,4.519,-4.627,-8.341,1.808,-1.136,7.624,4.968,-5.152,-8.09,198.9,167.4,-7.712,158.9,178.9,170.5,177.8,176.5,36,,4,5,prime,10,0,65,norm,36,-4.782,up,norm,178.910838549,170.9,183.5,1.736,173.6,3,191.5,179.5,179.8,10,6,8.249,5.081,1.229,-1.81,-4.777,-7.522,173.9,6,243.9,-8.122,-7.617,10,-8.4,-8.15,-4.765,-4.45,-4.42,-5.193,4.678,8.206,27,-1.715,1.391,5.217,8.03,-7.511,-8.065,-1.492,1.989,181.5,182.4,179.2,172.7,170.8,186.2,180.6,182.8,180.3,187.1,5,norm,1.142,1.177,-1.7,-1.307,-4.887,-4.913,-1.199,-1.897,-1.702,-1.108,1.948,-1.356,193.7,181.3,-5.086,-7.927,181.7,-2.049,7.595,4.768,-4.387,-8.099,20,5.197,4.695,4.589,5.272,1.414,1.284,1.424,1.103,20,5.063,4.99,30,281.28032817,norm,0,77,77,77,544.162,544.169,544.176988817,544.177,544.181,544.186,up,1,1.89494371009,8.10505628991,001,320,1280_800,Intel(R) Core(TM)2 Duo CPU     T7500  @ 2.20GHz,orientation_search,GRVLAPTOP4,Quadro NVS 140M/PCIe/SSE2,2018_nov_08_1402,testMonitor,
313.0,301.1,303.9,314.3,36,-10,305.5,299.2,301.9,305.3,7.705,8.367,7.839,8.038,8.09,8.269,7.666,4.809,-4.814,-7.856,1.411,-1.317,8.199,5.155,-5.284,-7.521,310.8,311.3,-7.568,309.3,307.3,309.0,306.1,304.2,36,294.8,2,5,probe,5,0,115,norm,36,-4.784,up,norm,304.293227344,299.5,311.9,1.873,305.9,3,305.1,297.8,294.3,10,6,7.797,4.596,1.63,-1.238,-4.659,-7.785,303.8,2,189.3,-7.995,-8.072,10,-8.156,-7.776,-4.484,-4.762,-4.436,-4.397,5.059,8.211,15,-1.235,1.644,4.385,8.095,-7.844,-7.824,-1.719,1.63,305.1,308.0,311.1,305.4,311.5,301.6,305.3,299.4,304.2,303.8,0,norm,1.181,1.77,-1.371,-1.222,-5.269,-4.879,-1.466,-2.07,-2.05,-1.384,2.052,-1.711,303.9,299.9,-4.993,-8.398,,-1.91,7.971,5.105,-4.365,-7.727,21,4.469,4.573,4.692,5.131,1.388,1.209,1.411,1.735,21,5.128,4.645,10,178.910838549,norm,0,78,78,78,546.097,546.104,546.111843751,546.112,546.116,546.121,up,1,1.72061909563,8.27938090437,001,320,1280_800,Intel(R) Core(TM)2 Duo CPU     T7500  @ 2.20GHz,orientation_search,GRVLAPTOP4,Quadro NVS 140M/PCIe/SSE2,2018_nov_08_1402,testMonitor,
283.6,279.8,285.0,276.9,36,-10,280.1,279.5,277.9,269.1,7.69,8.303,7.963,8.252,8.356,8.006,8.339,4.604,-4.311,-7.957,1.747,-1.875,8.419,4.74,-5.085,-8.398,276.8,271.9,-7.978,278.9,285.1,278.4,276.2,278.3,36,271.5,1,5,probe,5,0,88,norm,36,-5.178,down,norm,277.293227344,285.0,279.5,1.837,277.4,2,284.4,279.9,275.0,10,6,7.743,4.461,1.757,-1.566,-5.269,-8.26,273.1,2,189.3,-8.07,-7.58,10,-8.217,-8.302,-4.904,-4.965,-4.931,-4.815,5.043,7.872,8,-1.233,1.372,4.89,7.524,-7.608,-7.943,-2.033,1.182,276.5,,275.3,276.3,287.3,276.8,275.5,276.1,282.6,276.9,1,norm,1.44,1.874,-1.599,-1.961,-4.377,-4.742,-1.601,-1.943,-1.117,-1.434,1.3,-1.988,272.8,277.7,-4.56,-7.705,267.3,-1.554,8.283,4.525,-4.777,-7.916,21,5.035,5.076,4.533,5.21,1.918,1.81,1.15,1.455,21,4.813,5.037,10,178.910838549,norm,0,79,79,79,547.857,547.864,547.872251316,547.873,547.876,547.881,down,1,2.05356316045,7.94643683955,001,320,1280_800,Intel(R) Core(TM)2 Duo CPU     T7500  @ 2.20GHz,orientation_search,GRVLAPTOP4,Quadro NVS 140M/PCIe/SSE2,2018_nov_08_1402,testMonitor,
145.4,143.6,137.8,156.0,36,-40,129.0,154.0,151.5,158.0,7.571,7.513,8.013,8.422,8.044,7.66,7.693,4.787,-4.351,-8.129,1.609,-2.04,7.824,4.987,-4.737,-8.316,140.6,159.8,-8.15,156.7,149.0,148.2,150.7,144.3,36,148.9,1,5,prime,10,0,110,norm,36,-4.389,down,norm,148.955892275,168.7,147.5,1.142,151.8,0,152.3,153.1,151.1,10,5,7.969,5.273,1.733,-1.778,-4.497,-7.825,144.4,5,259.0,-7.75,-8.055,-40,-7.663,-8.27,-4.837,-4.415,-4.452,-4.928,5.003,7.808,6,-1.931,1.805,4.677,7.967,-8.189,-8.217,-1.871,1.602,140.6,152.8,169.0,150.6,164.9,154.1,157.7,,139.5,162.7,0,norm,1.496,1.332,-1.251,-1.199,-4.461,-5.057,-1.547,-1.929,-2.081,-1.66,1.438,-1.575,146.4,155.3,-5.266,-8.023,158.3,-1.202,7.582,5.151,-4.888,-8.384,22,4.952,4.448,4.784,4.958,1.977,1.208,1.416,1.699,22,4.852,4.333,-10,178.910838549,norm,0,80,80,80,549.951,549.958,549.965839121,549.966,549.97,549.975,down,1,2.18053797468,7.81946202532,001,320,1280_800,Intel(R) Core(TM)2 Duo CPU     T7500  @ 2.20GHz,orientation_search,GRVLAPTOP4,Quadro NVS 140M/PCIe/SSE2,2018_nov_08_1402,testMonitor,
152.6,139.7,137.3,144.7,36,-40,167.2,145.2,143.9,139.0,8.421,8.397,8.405,8.488,7.846,8.319,8.423,5.125,-4.468,-8.269,1.612,-1.194,7.831,4.385,-4.723,-7.639,155.0,144.3,-7.954,148.5,162.6,168.6,143.5,157.0,36,133.6,0,5,prime,10,0,117,norm,36,-5.005,down,norm,148.955892275,129.0,148.3,1.634,158.4,0,148.9,155.8,153.0,10,5,8.493,4.9,1.985,-1.248,-4.799,-7.823,148.7,5,266.0,-8.063,-7.938,-40,-8.389,-8.456,-4.52,-5.088,-5.058,-4.953,4.316,8.324,0,-1.126,1.285,5.009,8.359,-7.551,-7.883,-1.712,1.969,158.7,138.7,148.1,151.0,162.2,,140.6,169.0,145.9,142.6,1,norm,1.304,1.453,-1.667,-1.411,-5.173,-5.222,-1.939,-1.337,-1.241,-2.084,2.046,-1.578,153.5,147.6,-4.7,-8.089,140.9,-1.723,8.339,4.783,-4.604,-8.09,22,4.622,4.718,4.594,5.298,1.938,1.254,1.329,1.108,22,4.622,4.389,-10,178.910838549,norm,0,81,81,81,552.171,552.178,552.203810071,552.204,552.208,552.214,down,1,1.57513208991,8.42486791009,001,320,1280_800,Intel(R) Core(TM)2 Duo CPU     T7500  @ 2.20GHz,orientation_search,GRVLAPTOP4,Quadro NVS 140M/PCIe/SSE2,2018_nov_08_1402,testMonitor,
149.2,134.9,142.7,153.4,36,-40,138.0,142.3,142.8,131.8,8.428,7.543,7.593,7.853,7.958,7.882,7.606,5.024,-5.111,-8.431,1.778,-1.854,7.722,4.893,-4.411,-8.035,151.0,167.4,-7.664,129.0,169.0,144.5,141.1,144.0,36,150.8,0,5,prime,10,0,61,norm,36,-4.854,up,norm,148.955892275,154.8,137.8,1.368,141.3,4,141.9,149.4,135.8,10,5,7.542,5.093,1.633,-2.01,-5.159,-8.255,139.5,5,210.0,-7.765,-7.88,-40,-7.533,-8.357,-5.232,-5.086,-4.708,-4.833,4.484,8.317,4,-1.623,1.513,4.866,8.041,-8.351,-7.654,-1.418,2.035,145.3,162.1,130.3,147.3,160.7,157.1,146.9,160.1,163.9,,2,norm,2.022,1.59,-1.166,-1.134,-5.294,-4.827,-1.669,-1.705,-1.659,-1.466,1.27,-1.11,146.9,139.6,-4.483,-7.547,159.4,-1.699,7.639,4.59,-5.189,-8.376,22,4.99,4.877,5.232,4.95,1.505,1.475,1.162,1.423,22,4.467,4.846,-10,178.910838549,norm,0,82,82,82,553.805,553.812,553.819746742,553.82,553.824,553.829,up,1,1.08636580038,8.91363419962,001,320,1280_800,Intel(R) Core(TM)2 Duo CPU     T7500  @ 2.20GHz,orientation_search,GRVLAPTOP4,Quadro NVS 140M/PCIe/SSE2,2018_nov_08_1402,testMonitor,
150.0,142.9,147.1,138.5,36,-40,135.8,163.9,168.1,150.3,8.359,7.921,8.257,7.798,7.855,7.806,7.679,5.043,-5.156,-7.661,1.146,-1.62,7.57,4.4,-4.972,-7.936,154.1,141.7,-8.025,166.4,135.0,130.1,155.9,162.5,36,169.0,0,5,prime,10,0,94,norm,36,-4.362,up,norm,148.955892275,146.9,144.0,1.668,152.2,4,148.3,145.0,165.0,10,5,8.431,4.935,1.24,-1.194,-4.659,-8.215,147.0,5,243.0,-7.717,-8.127,-40,-8.407,-8.217,-4.815,-4.919,-5.233,-5.187,4.783,8.09,4,-1.519,1.715,4.877,8.115,-8.358,-8.261,-1.665,1.454,143.3,154.9,137.6,129.0,142.5,146.0,150.5,145.4,151.6,,3,norm,1.984,1.681,-1.141,-1.745,-4.879,-4.519,-1.673,-1.347,-1.45,-1.819,2.092,-1.238,147.5,146.1,-4.665,-8.438,148.0,-1.192,8.404,4.867,-5.048,-7.933,22,4.567,4.895,4.411,4.773,2.084,1.599,1.864,2.05,22,4.986,4.631,-10,178.910838549,norm,0,83,83,83,554.931,554.938,554.945808129,554.946,554.95,554.955,up,1,1.19707628543,8.80292371457,001,320,1280_800,Intel(R) Core(TM)2 Duo CPU     T7500  @ 2.20GHz,orientation_search,GRVLAPTOP4,Quadro NVS 140M/PCIe/SSE2,2018_nov_08_1402,testMonitor,
152.8,147.3,131.1,140.9,36,-40,143.0,144.6,149.3,159.5,8.47,8.401,8.077,8.307,7.75,8.186,8.209,4.815,-4.923,-7.865,1.764,-1.867,7.693,5.019,-5.282,-8.463,161.1,129.0,-7.681,169.0,139.8,151.2,147.5,146.3,36,160.4,0,5,prime,10,0,87,norm,36,-5.149,up,norm,148.955892275,138.5,135.1,2.003,149.9,5,161.9,143.6,148.9,10,5,7.562,4.773,1.366,-1.845,-4.441,-7.737,138.2,5,236.0,-7.75,-7.685,-40,-7.954,-8.106,-4.736,-5.166,-4.556,-4.397,4.754,7.73,5,-1.963,1.704,5.12,8.43,-7.652,-7.902,-1.634,2.09,165.7,155.9,151.2,146.0,151.9,157.9,149.0,146.2,,149.1,4,norm,2.062,1.451,-1.6,-1.693,-4.916,-4.895,-1.448,-1.234,-1.229,-1.987,1.855,-1.37,141.2,140.8,-4.575,-8.222,159.5,-1.308,7.862,4.973,-4.402,-7.647,22,5.233,4.824,4.554,5.031,1.825,1.611,2.058,1.22,22,4.795,4.556,-10,178.910838549,norm,0,84,84,84,556.168,556.174,556.182871252,556.183,556.187,556.192,up,1,1.02254350099,8.97745649901,001,320,1280_800,Intel(R) Core(TM)2 Duo CPU     T7500  @ 2.20GHz,orientation_search,GRVLAPTOP4,Quadro NVS 140M/PCIe/SSE2,2018_nov_08_1402,testMonitor,
164.9,171.8,176.4,166.9,36,-40,173.5,168.2,170.3,173.7,7.98,8.146,8.383,8.399,8.341,7.957,8.268,5.184,-4.942,-8.349,1.596,-1.36,7.544,5.227,-5.098,-8.14,175.2,177.5,-7.864,177.4,178.9,167.1,,171.6,36,180.8,5,5,probe,5,0,66,norm,36,-5.248,down,norm,173.498827158,177.7,173.5,2.08,167.1,2,168.4,176.4,173.5,10,5,8.087,5.196,1.854,-1.768,-5.017,-8.27,163.5,2,107.5,-7.683,-7.942,-40,-8.274,-8.032,-4.328,-4.656,-5.08,-4.545,4.585,7.89,32,-2.083,1.478,4.809,8.247,-7.782,-8.493,-1.475,1.218,173.1,171.4,172.2,183.2,182.3,176.5,171.8,175.9,177.3,173.2,0,norm,1.354,1.866,-1.138,-1.323,-4.968,-4.931,-1.941,-1.764,-1.513,-1.842,1.212,-2.023,167.5,178.0,-4.678,-8.242,167.9,-1.935,7.772,4.832,-4.333,-7.675,23,4.976,4.857,4.875,5.113,1.871,1.806,1.282,1.225,23,4.337,5.3,-40,148.955892275,norm,0,85,85,85,557.231,557.237,557.245507543,557.246,557.25,557.255,down,1,1.24469913371,8.75530086629,001,320,1280_800,Intel(R) Core(TM)2 Duo CPU     T7500  @ 2.20GHz,orientation_search,GRVLAPTOP4,Quadro NVS 140M/PCIe/SSE2,2018_nov_08_1402,testMonitor,
181.0,174.3,172.0,174.2,36,-40,172.8,162.5,166.9,164.9,8.28,8.284,8.331,8.086,7.955,7.754,7.689,4.783,-4.836,-7.95,1.526,-1.641,7.518,5.074,-5.107,-8.068,165.7,173.6,-7.535,162.5,172.7,173.8,168.8,171.3,36,167.1,2,5,probe,5,0,65,norm,36,-4.725,up,norm,172.498827158,,175.9,1.113,173.7,5,171.0,172.1,176.9,10,5,8.303,5.142,1.14,-2.092,-4.958,-7.937,182.5,2,107.5,-7.718,-8.12,-40,-7.628,-7.521,-4.481,-4.42,-4.552,-4.911,4.96,8.115,17,-1.191,1.956,4.97,8.151,-8.383,-7.736,-1.625,1.673,172.6,180.0,174.5,168.1,173.6,163.2,174.0,169.8,163.3,177.1,1,norm,2.059,1.873,-1.944,-2.03,-4.835,-4.654,-1.842,-1.598,-1.435,-1.795,1.568,-1.509,169.6,172.9,-4.335,-7.594,173.1,-1.207,8.494,4.586,-4.651,-7.972,23,5.074,4.661,4.337,4.814,1.599,1.815,1.432,1.354,23,4.452,4.791,-40,148.955892275,norm,0,86,86,86,558.515,558.522,558.530074493,558.53,558.534,558.539,up,1,1.07038105373,8.92961894627,001,320,1280_800,Intel(R) Core(TM)2 Duo CPU     T7500  @ 2.20GHz,orientation_search,GRVLAPTOP4,Quadro NVS 140M/PCIe/SSE2,2018_nov_08_1402,testMonitor,
83.9,76.5,69.9,67.1,36,60,58.4,60.9,71.8,67.9,8.205,8.404,7.663,7.637,8.418,8.34,7.622,4.438,-4.629,-8.392,1.382,-1.494,7.845,4.557,-5.196,-8.341,82.0,68.6,-7.804,68.4,67.7,79.3,63.5,53.7,36,84.0,1,5,prime,10,0,103,norm,36,-5.241,up,norm,70.956303539,82.2,73.0,1.465,70.1,5,,64.4,84.3,10,5,8.394,4.954,1.924,-1.534,-4.879,-7.601,91.0,5,174.0,-7.835,-7.803,60,-8.472,-7.932,-4.835,-4.419,-4.399,-4.728,5.075,8.189,11,-1.752,1.858,4.853,8.479,-8.411,-7.67,-1.778,1.942,62.2,63.4,81.0,84.3,74.9,62.7,64.7,51.0,72.2,70.2,0,norm,1.15,2.083,-1.654,-1.582,-5.111,-4.309,-1.46,-1.742,-1.799,-1.362,1.117,-1.418,66.3,82.3,-4.486,-7.864,59.0,-1.881,8.446,4.942,-4.912,-8.446,24,5.057,4.415,4.725,4.564,1.304,1.227,1.736,1.113,24,5.066,5.146,-40,148.955892275,norm,0,87,87,87,559.625,559.632,559.640325697,559.641,559.644,559.649,up,1,1.72052947986,8.27947052014,001,320,1280_800,Intel(R) Core(TM)2 Duo CPU     T7500  @ 2.20GHz,orientation_search,GRVLAPTOP4,Quadro NVS 140M/PCIe/SSE2,2018_nov_08_1402,testMonitor,
63.2,51.0,58.6,90.0,36,60,80.8,81.2,,63.5,8.481,8.329,7.583,8.425,7.738,7.928,7.701,4.302,-4.493,-7.663,1.278,-2.078,8.005,5.283,-5.202,-7.775,65.8,81.9,-7.874,77.1,73.1,62.1,74.2,91.0,36,74.1,4,5,prime,10,0,101,norm,36,-5.122,up,norm,70.956303539,80.9,70.5,1.403,82.4,4,69.5,73.6,56.0,10,5,7.722,4.333,2.088,-1.248,-4.749,-7.595,66.4,5,172.0,-7.848,-8.326,60,-7.542,-8.019,-5.29,-4.694,-4.782,-4.899,5.237,8.479,28,-1.414,1.987,4.357,7.551,-7.955,-7.872,-1.219,1.495,61.9,62.8,66.5,71.2,77.6,67.5,64.6,72.9,74.5,54.5,1,norm,1.999,1.153,-1.169,-1.489,-5.123,-4.497,-2.033,-1.453,-1.888,-1.656,1.876,-1.251,86.0,67.2,-4.74,-8.228,80.9,-1.946,7.694,4.445,-4.727,-7.601,24,4.925,4.696,5.022,4.458,1.63,1.764,1.839,1.685,24,4.872,4.526,-40,148.955892275,norm,0,88,88,88,561.386,561.393,561.400719727,561.401,561.405,561.411,down,0,0.974140715433,-10,001,320,1280_800,Intel(R) Core(TM)2 Duo CPU     T7500  @ 2.20GHz,orientation_search,GRVLAPTOP4,Quadro NVS 140M/PCIe/SSE2,2018_nov_08_1402,testMonitor,
70.4,70.3,57.3,72.8,36,60,69.3,83.8,59.4,77.4,7.676,8.485,7.756,8.248,7.583,7.773,8.076,4.51,-4.93,-7.748,1.646,-1.384,8.018,4.417,-4.803,-8.104,83.6,69.7,-8.014,,71.2,69.6,80.1,64.0,36,81.6,5,5,prime,10,0,95,norm,36,-4.513,down,norm,70.956303539,66.1,67.5,2.1,69.8,1,74.9,53.3,63.5,10,5,7.984,5.191,1.725,-1.795,-5.258,-7.761,91.0,5,166.0,-7.571,-7.693,60,-7.663,-8.109,-4.951,-5.171,-4.751,-4.992,4.626,7.919,31,-1.464,1.447,4.666,8.48,-7.602,-7.516,-1.727,1.228,60.2,77.1,63.2,51.0,67.9,59.2,73.1,81.8,85.8,76.2,2,norm,2.033,1.344,-1.89,-1.231,-4.81,-4.653,-1.896,-1.837,-1.657,-1.762,1.393,-1.669,57.0,84.2,-5.102,-7.865,59.3,-1.988,8.018,4.535,-4.601,-8.217,24,5.286,4.321,4.525,4.576,1.867,1.134,1.327,1.929,24,4.677,5.195,-40,148.955892275,norm,0,89,89,89,563.432,563.438,563.446653878,563.447,563.451,563.456,down,1,2.6720683507,7.3279316493,001,320,1280_800,Intel(R) Core(TM)2 Duo CPU     T7500  @ 2.20GHz,orientation_search,GRVLAPTOP4,Quadro NVS 140M/PCIe/SSE2,2018_nov_08_1402,testMonitor,
61.6,89.6,91.0,67.2,36,60,83.4,64.9,67.1,76.8,7.682,7.711,8.196,8.036,8.064,7.55,8.202,5.217,-4.355,-8.484,1.28,-1.877,8.372,4.76,-4.63,-8.196,78.5,,-8.131,70.4,73.9,73.1,74.5,82.3,36,62.4,5,5,prime,10,0,91,norm,36,-4.707,up,norm,70.956303539,74.7,58.3,1.769,62.3,4,71.5,76.3,56.5,10,5,7.916,5.191,1.716,-2.073,-4.71,-7.794,77.1,5,162.0,-7.535,-8.311,60,-8.109,-7.935,-4.858,-5.19,-4.657,-5.035,4.758,7.712,34,-1.938,1.189,4.838,7.816,-8.098,-8.033,-1.368,1.225,60.2,69.8,71.3,51.0,61.1,74.8,79.9,63.3,78.3,58.8,3,norm,1.13,1.97,-2.007,-1.721,-5.186,-4.385,-1.845,-1.362,-1.77,-1.236,1.506,-1.389,76.3,73.3,-5.193,-7.963,65.5,-1.883,7.627,4.854,-5.162,-7.554,24,4.433,4.566,5.125,4.941,1.61,1.134,1.719,1.585,24,4.818,4.747,-40,148.955892275,norm,0,90,90,90,566.144,566.151,566.158743139,566.159,566.163,566.169,up,1,1.02187605018,8.97812394982,001,320,1280_800,Intel(R) Core(TM)2 Duo CPU     T7500  @ 2.20GHz,orientation_search,GRVLAPTOP4,Quadro NVS 140M/PCIe/SSE2,2018_nov_08_1402,testMonitor,
78.8,64.2,79.5,68.1,36,60,62.8,59.3,75.8,64.1,7.912,8.288,8.38,8.008,8.04,7.905,8.428,5.237,-4.333,-7.56,1.542,-1.407,8.318,4.959,-4.491,-7.899,58.3,62.2,-7.817,72.1,65.8,91.0,63.1,83.0,36,78.8,2,5,prime,10,0,89,norm,36,-4.915,up,norm,70.956303539,,68.1,1.961,84.9,5,51.0,58.8,84.6,10,5,8.458,4.754,1.426,-1.394,-4.8,-8.481,76.3,5,160.0,-7.616,-8.295,60,-8.186,-8.017,-4.582,-4.726,-5.189,-4.469,4.58,8.458,17,-1.244,1.302,4.698,7.675,-7.956,-8.194,-2.071,1.614,77.8,84.8,52.3,77.0,70.7,58.7,80.7,75.0,69.9,60.5,4,norm,1.753,1.138,-2.059,-1.55,-5.135,-4.79,-1.15,-1.518,-1.592,-1.776,1.259,-1.117,71.4,60.4,-5.187,-8.277,53.1,-1.64,8.234,5.008,-5.186,-7.997,24,5.022,5.04,5.265,4.715,1.51,1.106,1.815,1.951,24,4.571,4.466,-40,148.955892275,norm,0,91,91,91,567.206,567.213,567.221371495,567.222,567.225,567.23,up,1,1.53014357194,8.46985642806,001,320,1280_800,Intel(R) Core(TM)2 Duo CPU     T7500  @ 2.20GHz,orientation_search,GRVLAPTOP4,Quadro NVS 140M/PCIe/SSE2,2018_nov_08_1402,testMonitor,
253.6,253.3,254.8,257.1,36,-60,254.8,255.2,257.9,251.3,8.013,7.926,7.537,7.813,7.593,8.383,8.069,4.474,-5.035,-8.087,1.955,-1.551,8.054,4.951,-4.404,-7.711,261.9,265.3,-8.286,254.9,260.4,255.8,254.8,260.2,36,253.6,1,5,probe,5,0,118,norm,36,-4.414,up,norm,256.254983296,253.7,260.9,1.854,253.0,3,248.1,259.1,258.0,10,5,7.749,4.42,1.808,-1.825,-5.227,-8.42,257.2,1,138.3,-8.1,-8.0,60,-8.144,-7.527,-5.11,-4.389,-4.976,-4.761,4.428,7.598,9,-1.539,2.045,4.972,7.517,-7.794,-8.142,-1.604,1.888,,263.6,249.9,251.6,248.1,252.5,266.3,258.9,256.6,246.3,0,norm,1.426,1.98,-1.309,-2.023,-4.82,-4.338,-1.407,-1.728,-1.828,-1.533,2.071,-1.476,257.8,255.8,-4.607,-8.074,256.3,-1.33,8.091,4.396,-4.721,-7.612,25,5.231,5.159,4.958,5.288,1.658,1.337,1.208,1.735,25,4.453,4.67,60,70.956303539,norm,0,92,92,92,568.777,568.783,568.791459897,568.792,568.796,568.801,up,1,2.21218074381,7.78781925619,001,320,1280_800,Intel(R) Core(TM)2 Duo CPU     T7500  @ 2.20GHz,orientation_search,GRVLAPTOP4,Quadro NVS 140M/PCIe/SSE2,2018_nov_08_1402,testMonitor,
245.6,255.2,231.3,239.7,36,-60,228.2,240.4,247.9,264.7,7.72,8.068,7.812,7.762,8.195,7.51,7.81,5.08,-4.334,-7.773,1.52,-1.728,7.621,4.895,-4.384,-8.497,238.4,246.3,-7.884,257.0,251.1,243.9,241.5,226.3,36,241.0,1,5,prime,10,0,74,norm,36,-4.361,up,norm,244.741024964,229.3,251.4,1.492,252.7,4,241.4,236.8,255.2,10,5,8.09,4.859,1.634,-1.476,-4.896,-7.668,,5,318.7,-8.124,-7.699,-60,-8.43,-8.352,-4.936,-4.474,-5.075,-4.316,5.041,8.038,10,-1.588,1.793,5.023,7.835,-8.111,-7.552,-1.334,2.048,230.5,238.1,258.2,224.7,244.9,264.6,254.3,247.0,232.8,248.5,0,norm,1.965,1.496,-1.796,-1.738,-4.406,-4.505,-1.334,-2.079,-1.161,-1.813,1.228,-1.375,244.8,249.4,-4.342,-7.688,228.9,-1.685,7.877,5.139,-5.012,-7.64,26,4.993,5.254,5.053,4.572,1.195,1.673,1.694,1.839,26,5.053,5.283,-60,70.956303539,norm,0,93,93,93,571.029,571.036,571.043568201,571.044,571.048,571.053,up,1,2.82993913595,7.17006086405,001,320,1280_800,Intel(R) Core(TM)2 Duo CPU     T7500  @ 2.20GHz,orientation_search,GRVLAPTOP4,Quadro NVS 140M/PCIe/SSE2,2018_nov_08_1402,testMonitor,
247.2,254.9,232.0,254.0,36,-60,238.6,237.9,235.5,253.3,8.337,8.121,7.676,7.504,8.021,7.897,8.209,4.954,-5.044,-7.606,1.388,-1.608,7.679,4.644,-5.237,-7.675,248.0,242.1,-7.791,242.1,245.2,235.5,249.6,239.4,36,241.1,2,5,prime,10,0,85,norm,36,-4.841,down,norm,244.741024964,234.7,261.5,1.115,229.2,1,247.8,,249.5,10,5,7.881,4.745,1.118,-1.899,-4.421,-7.755,246.5,5,329.7,-7.93,-7.832,-60,-7.885,-8.044,-4.743,-4.303,-4.949,-4.464,5.129,8.286,13,-1.214,1.605,4.687,7.796,-8.227,-8.107,-1.705,1.258,224.7,243.0,238.1,252.2,247.3,238.8,258.1,229.5,264.7,227.3,1,norm,1.189,1.405,-2.003,-1.688,-4.78,-5.28,-1.812,-1.33,-1.287,-1.824,1.491,-1.403,247.9,260.4,-5.246,-8.159,243.9,-1.11,7.759,4.586,-4.514,-7.866,26,4.795,5.051,5.237,4.978,1.736,1.336,1.201,1.955,26,4.433,4.862,-60,70.956303539,norm,0,94,94,94,573.899,573.906,573.914208301,573.915,573.919,573.924,down,1,2.17954940069,7.82045059931,001,320,1280_800,Intel(R) Core(TM)2 Duo CPU     T7500  @ 2.20GHz,orientation_search,GRVLAPTOP4,Quadro NVS 140M/PCIe/SSE2,2018_nov_08_1402,testMonitor,
