d_ori_22,d_ori_23,d_ori_20,d_ori_21,set_size,ctpd,d_ori_24,d_ori_25,d_ori_28,d_ori_29,stim_pos_x_30,stim_pos_x_31,stim_pos_x_32,stim_pos_x_33,stim_pos_x_34,stim_pos_x_35,stim_pos_y_11,stim_pos_y_10,stim_pos_y_13,stim_pos_y_12,stim_pos_y_15,stim_pos_y_14,stim_pos_y_17,stim_pos_y_16,stim_pos_y_19,stim_pos_y_18,d_ori_35,d_ori_34,stim_pos_x_3,d_ori_31,d_ori_30,d_ori_33,d_ori_32,d_ori_26,test_set_size,d_ori_27,targetCol,dsd_test,seq_type,dsd,blockRepN,targetDist,dtype_test,prime_set_size,stim_pos_y_25,correctResponse,dtype,distrMean,d_ori_17,d_ori_16,d_ori_15,d_ori_14,targetRow,d_ori_11,d_ori_13,d_ori_12,dsd_prime,streak_length_prime,stim_pos_y_35,stim_pos_y_34,stim_pos_y_33,stim_pos_y_32,stim_pos_y_31,stim_pos_y_30,d_ori_10,nextProbe,targetOri,stim_pos_x_1,stim_pos_x_2,ctpd_prime,stim_pos_x_4,stim_pos_x_5,stim_pos_x_6,stim_pos_x_7,stim_pos_x_8,stim_pos_x_9,stim_pos_y_28,stim_pos_y_29,targetPos,stim_pos_y_20,stim_pos_y_21,stim_pos_y_22,stim_pos_y_23,stim_pos_y_24,stim_pos_x_0,stim_pos_y_26,stim_pos_y_27,d_ori_9,d_ori_8,d_ori_3,d_ori_2,d_ori_1,d_ori_0,d_ori_7,d_ori_6,d_ori_5,d_ori_4,trialN,dtype_prime,stim_pos_x_18,stim_pos_x_19,stim_pos_x_12,stim_pos_x_13,stim_pos_x_10,stim_pos_x_11,stim_pos_x_16,stim_pos_x_17,stim_pos_x_14,stim_pos_x_15,stim_pos_y_9,stim_pos_y_8,d_ori_19,d_ori_18,stim_pos_y_1,stim_pos_y_0,stim_pos_y_3,stim_pos_y_2,stim_pos_y_5,stim_pos_y_4,stim_pos_y_7,stim_pos_y_6,totBlockN,stim_pos_x_27,stim_pos_x_26,stim_pos_x_25,stim_pos_x_24,stim_pos_x_23,stim_pos_x_22,stim_pos_x_21,stim_pos_x_20,blockN,stim_pos_x_29,stim_pos_x_28,prevDistrCTPD,prevDistrMean,prevDistrType,trials.thisRepN,trials.thisTrialN,trials.thisN,trials.thisIndex,timeStart,timeBeforeDraw,timeDraw,timeAfterSaving,timeAfterWritingToTemp,timeAfterPreparingNext,answer,correct,rt,trialScore,session,participant,resolution,cpu_info,expName,pc_name,graphic_card,date,monitorName,
57.4,70.9,68.2,64.4,36,-30,76.3,75.8,66.7,68.8,7.936,7.799,8.111,8.047,8.176,8.006,8.239,5.119,-5.231,-8.254,1.615,-1.618,8.273,4.684,-4.502,-7.767,82.3,72.1,-8.096,70.4,54.4,69.5,48.3,57.4,36,64.4,0,5,prime,10,0,104,norm,36,-4.644,down,norm,62.3253890123,57.9,52.5,55.2,74.3,0,78.8,61.2,63.3,10,5,8.267,4.888,1.731,-1.286,-4.468,-8.275,55.0,5,166.3,-8.068,-7.523,-30,-8.494,-8.448,-4.995,-4.305,-4.602,-4.785,4.822,7.543,0,-1.684,1.725,4.365,7.506,-8.196,-8.422,-1.663,1.34,78.3,59.5,49.9,63.1,42.3,,56.6,53.3,68.3,61.3,0,norm,1.732,1.242,-2.004,-1.594,-4.97,-4.759,-1.81,-1.985,-1.828,-1.308,1.811,-1.803,68.3,48.7,-4.963,-7.515,1.348,-2.053,7.871,4.667,-4.948,-7.685,0,4.86,4.32,5.223,5.079,1.178,1.649,1.589,1.877,0,4.412,4.651,,,,0,0,0,0,310.125,310.142,310.163621491,310.164,310.164,310.167,down,1,1.22907733127,8.77092266873,001,018,1920_1200,Intel(R) Core(TM) i5-3570 CPU @ 3.40GHz,orientation_search,LEPPC096,Intel(R) HD Graphics 2500,2018_Dec_02_1527,testMonitor,
66.0,48.3,42.3,65.9,36,-30,53.0,56.0,58.0,59.4,7.596,7.922,7.602,8.274,8.359,8.438,8.462,4.903,-4.868,-7.787,1.416,-1.703,8.07,5.184,-5.09,-7.992,55.5,72.0,-8.072,62.8,61.3,57.8,64.1,52.9,36,66.2,0,5,prime,10,0,103,norm,36,-4.586,up,norm,62.3253890123,55.4,56.6,55.6,76.7,5,67.6,82.3,45.7,10,5,7.711,4.674,1.323,-1.267,-5.246,-7.636,66.2,5,165.3,-8.358,-8.165,-30,-7.686,-8.325,-5.168,-4.357,-4.416,-5.166,5.194,8.156,5,-1.282,1.141,4.742,8.315,-8.395,-7.637,-1.479,1.749,62.9,57.4,68.6,69.7,54.6,52.6,58.7,49.2,,60.1,1,norm,1.444,1.688,-1.693,-1.586,-4.605,-4.368,-1.811,-1.147,-2.082,-1.984,1.832,-1.482,78.9,69.5,-4.946,-8.387,1.665,-1.611,7.931,4.638,-4.739,-8.156,0,5.023,5.267,4.982,5.251,1.388,1.568,2.023,2.092,0,4.519,4.477,,,,0,1,1,1,311.429,311.438,311.451691122,311.452,311.453,311.456,up,1,1.13507119162,8.86492880838,001,018,1920_1200,Intel(R) Core(TM) i5-3570 CPU @ 3.40GHz,orientation_search,LEPPC096,Intel(R) HD Graphics 2500,2018_Dec_02_1527,testMonitor,
71.9,53.5,55.4,53.8,36,-30,50.3,59.1,60.5,68.2,8.144,7.755,7.559,7.635,8.171,7.809,7.699,4.789,-5.093,-8.244,1.999,-1.732,7.623,4.527,-5.13,-7.943,62.6,82.3,-8.338,64.9,69.6,55.8,59.2,63.5,36,80.2,1,5,prime,10,0,76,norm,36,-4.818,down,norm,62.3253890123,58.7,70.5,58.7,62.5,1,65.6,55.9,47.1,10,5,7.556,4.621,1.274,-1.836,-4.406,-8.079,72.3,5,138.3,-8.163,-8.201,-30,-8.216,-7.91,-4.376,-4.929,-4.504,-5.112,4.748,8.445,7,-1.916,1.317,5.121,7.803,-7.681,-8.308,-1.253,1.354,68.4,78.3,66.8,67.2,42.3,47.4,,59.8,50.2,63.4,2,norm,1.345,1.374,-1.291,-1.431,-5.197,-5.276,-1.309,-1.941,-1.33,-1.429,2.07,-1.744,68.4,68.7,-4.642,-7.983,1.961,-1.492,8.226,4.365,-4.752,-7.844,0,4.766,4.356,4.561,5.258,1.972,2.09,1.895,1.158,0,4.649,4.388,,,,0,2,2,2,312.622,312.633,312.652871662,312.653,312.655,312.658,down,1,1.03514122111,8.96485877889,001,018,1920_1200,Intel(R) Core(TM) i5-3570 CPU @ 3.40GHz,orientation_search,LEPPC096,Intel(R) HD Graphics 2500,2018_Dec_02_1527,testMonitor,
62.7,53.5,55.7,53.5,36,-30,60.0,82.3,80.2,78.0,8.276,8.282,8.398,8.379,8.01,8.052,7.988,5.059,-4.857,-7.797,1.913,-1.644,8.154,5.031,-4.346,-7.831,57.7,67.7,-7.686,53.8,78.4,63.6,66.9,61.7,36,67.3,0,5,prime,10,0,84,norm,36,-5.009,down,norm,62.3253890123,56.6,56.6,44.2,57.8,1,52.7,48.8,69.6,10,5,8.271,4.433,1.809,-1.551,-4.715,-8.137,57.9,5,146.3,-7.636,-7.683,-30,-7.673,-8.168,-5.0,-5.072,-4.522,-4.333,5.266,7.633,1,-1.778,1.525,4.864,8.194,-8.298,-7.522,-1.18,1.644,61.4,42.3,66.9,67.2,,70.2,72.7,58.0,60.9,55.1,3,norm,1.613,1.334,-1.549,-1.12,-5.164,-4.358,-1.211,-1.482,-1.424,-1.359,1.226,-1.321,53.0,44.8,-5.183,-7.837,1.342,-2.019,8.182,5.124,-5.175,-7.793,0,5.145,4.823,4.544,4.563,1.206,1.517,1.277,1.897,0,4.721,4.807,,,,0,3,3,3,313.73,313.741,313.76058366,313.761,313.763,313.766,down,1,0.933175565744,9.06682443426,001,018,1920_1200,Intel(R) Core(TM) i5-3570 CPU @ 3.40GHz,orientation_search,LEPPC096,Intel(R) HD Graphics 2500,2018_Dec_02_1527,testMonitor,
73.8,57.8,60.8,56.6,36,-30,76.0,65.6,70.7,70.5,8.131,8.218,8.032,7.758,8.021,7.716,8.174,4.655,-5.222,-8.23,1.652,-1.722,7.553,5.085,-4.785,-8.016,49.3,61.9,-8.021,48.6,47.4,68.5,42.6,,36,55.8,4,5,prime,10,0,77,norm,36,-5.259,down,norm,62.3253890123,67.8,55.0,64.2,78.8,2,51.9,66.3,65.3,10,5,7.915,4.959,1.414,-1.696,-5.242,-7.586,44.4,5,139.3,-8.198,-7.792,-30,-8.429,-8.257,-4.355,-5.149,-5.286,-4.867,4.528,7.581,26,-1.675,1.256,4.743,8.14,-7.747,-8.108,-1.726,1.692,56.4,42.3,82.3,55.3,68.4,69.9,68.5,44.5,64.4,44.1,4,norm,1.273,1.533,-1.823,-1.776,-5.035,-4.488,-1.104,-1.621,-1.211,-1.153,1.353,-1.754,65.4,63.5,-5.132,-8.31,1.704,-1.14,7.51,4.815,-5.063,-8.442,0,4.376,4.981,5.255,5.185,1.511,1.336,1.842,1.145,0,5.131,5.217,,,,0,4,4,4,314.732,314.741,314.758825074,314.759,314.761,314.764,down,1,1.29587459892,8.70412540108,001,018,1920_1200,Intel(R) Core(TM) i5-3570 CPU @ 3.40GHz,orientation_search,LEPPC096,Intel(R) HD Graphics 2500,2018_Dec_02_1527,testMonitor,
127.5,134.2,128.5,132.6,36,-10,129.6,128.9,128.2,124.2,7.882,7.595,8.372,7.865,7.686,7.537,7.805,4.475,-5.298,-7.774,1.115,-1.664,8.359,5.022,-5.255,-7.667,130.2,129.1,-8.408,139.9,134.4,134.0,140.9,128.2,36,141.7,1,5,probe,5,0,96,norm,36,-5.007,down,norm,131.732304319,126.2,121.7,130.1,130.7,0,132.8,135.3,130.2,10,5,7.711,4.354,1.328,-1.226,-5.033,-8.047,137.6,1,35.7,-8.463,-7.595,-30,-7.885,-7.585,-4.889,-5.149,-5.014,-5.003,5.048,7.933,6,-1.643,1.471,4.841,7.99,-7.759,-7.586,-1.298,1.372,123.3,128.6,127.4,134.4,133.5,133.7,125.0,,130.2,136.5,0,norm,1.113,2.06,-1.41,-1.607,-4.946,-5.126,-1.982,-1.14,-1.117,-1.785,1.839,-1.791,122.0,132.4,-4.929,-7.908,1.456,-1.224,7.899,4.994,-4.96,-7.683,1,4.816,4.82,5.116,4.886,2.015,1.61,2.004,1.378,1,5.026,4.916,-30,62.3253890123,norm,0,5,5,5,316.093,316.104,316.108423461,316.109,316.11,316.113,down,1,2.46364473315,7.53635526685,001,018,1920_1200,Intel(R) Core(TM) i5-3570 CPU @ 3.40GHz,orientation_search,LEPPC096,Intel(R) HD Graphics 2500,2018_Dec_02_1527,testMonitor,
175.8,186.9,161.8,169.9,36,30,172.6,176.0,189.2,173.6,8.21,8.477,8.302,8.314,7.795,7.843,7.951,4.973,-4.954,-7.758,1.639,-1.425,8.429,5.277,-4.734,-8.229,156.2,165.0,-7.563,155.4,172.8,160.3,157.2,162.0,36,,4,5,prime,10,0,76,norm,36,-4.93,up,norm,169.184109869,164.1,162.3,162.4,149.2,3,150.3,168.8,163.1,10,6,7.501,4.754,1.305,-1.288,-4.813,-8.038,170.5,6,245.2,-7.603,-8.236,30,-7.91,-8.089,-4.69,-4.301,-5.035,-4.776,5.092,8.474,27,-1.627,1.456,4.549,8.269,-7.958,-7.855,-1.448,1.932,174.6,179.0,157.2,169.4,160.8,174.3,158.4,178.2,151.2,166.4,0,norm,2.01,1.26,-1.834,-1.623,-5.204,-5.25,-1.47,-1.763,-1.187,-1.338,1.726,-1.197,164.4,162.2,-4.759,-8.485,2.073,-1.401,7.615,4.439,-4.568,-7.945,2,4.494,4.673,5.09,4.339,1.842,2.032,1.887,1.13,2,4.806,4.365,-10,62.3253890123,norm,0,6,6,6,318.593,318.602,318.611867886,318.612,318.614,318.617,up,1,2.63228570825,7.36771429175,001,018,1920_1200,Intel(R) Core(TM) i5-3570 CPU @ 3.40GHz,orientation_search,LEPPC096,Intel(R) HD Graphics 2500,2018_Dec_02_1527,testMonitor,
183.6,189.2,,170.8,36,30,178.2,171.6,163.6,167.5,7.659,8.274,7.512,7.946,8.056,7.933,8.268,4.763,-4.454,-7.688,1.227,-1.878,7.863,4.787,-5.189,-8.287,177.3,168.8,-7.817,166.9,176.7,176.7,174.5,159.6,36,165.4,3,5,prime,10,0,61,norm,36,-4.469,down,norm,169.184109869,169.4,182.2,164.6,173.9,2,151.4,149.2,164.1,10,6,8.213,4.934,2.009,-1.358,-5.119,-8.434,158.3,6,230.2,-8.486,-7.685,30,-8.224,-7.84,-5.265,-4.969,-4.605,-4.625,4.417,7.619,20,-1.216,1.181,4.451,7.568,-7.684,-7.628,-1.289,1.824,173.5,175.8,165.5,169.0,187.1,163.5,170.2,174.1,186.2,175.9,1,norm,1.891,1.414,-1.746,-1.815,-5.259,-5.158,-1.193,-1.178,-1.2,-2.062,1.356,-1.439,163.1,163.1,-4.737,-7.626,1.396,-2.033,7.592,4.563,-4.545,-8.421,2,4.818,4.946,5.104,4.438,1.196,1.376,1.428,1.301,2,4.696,5.044,-10,62.3253890123,norm,0,7,7,7,321.266,321.275,321.28219138,321.282,321.284,321.287,down,1,1.41625831223,8.58374168777,001,018,1920_1200,Intel(R) Core(TM) i5-3570 CPU @ 3.40GHz,orientation_search,LEPPC096,Intel(R) HD Graphics 2500,2018_Dec_02_1527,testMonitor,
173.9,178.8,155.2,169.6,36,30,186.0,171.3,177.4,163.7,8.349,7.703,8.024,8.018,7.513,8.131,8.059,4.486,-5.26,-7.752,1.638,-2.062,7.942,4.85,-4.697,-8.475,152.9,163.8,-8.31,167.3,158.3,165.2,166.0,183.4,36,164.2,3,5,prime,10,0,82,norm,36,-4.941,down,norm,169.184109869,173.5,173.0,189.2,176.6,1,162.6,159.7,149.2,10,6,7.99,4.57,1.875,-1.453,-4.854,-8.207,171.4,6,251.2,-7.522,-7.737,30,-8.229,-8.392,-4.617,-4.88,-4.716,-5.131,4.766,8.35,19,-1.839,1.69,4.681,8.495,-8.244,-7.909,-1.89,1.567,173.0,182.8,178.5,155.2,152.6,170.0,175.9,168.4,166.8,169.1,2,norm,1.426,1.564,-1.11,-1.708,-5.257,-4.682,-1.604,-1.866,-1.179,-2.076,2.1,-1.874,,169.3,-4.354,-7.512,1.975,-1.33,8.174,5.031,-5.118,-7.792,2,4.356,5.255,5.038,4.558,1.427,2.091,1.571,1.326,2,4.957,4.864,-10,62.3253890123,norm,0,8,8,8,322.736,322.746,322.761373604,322.762,322.764,322.767,down,1,3.89001053461,6.10998946539,001,018,1920_1200,Intel(R) Core(TM) i5-3570 CPU @ 3.40GHz,orientation_search,LEPPC096,Intel(R) HD Graphics 2500,2018_Dec_02_1527,testMonitor,
182.4,173.5,182.9,157.0,36,30,186.2,162.1,174.6,173.0,7.701,8.387,8.158,7.751,8.263,7.914,8.441,5.268,-4.565,-7.945,1.422,-1.926,8.31,5.296,-4.749,-8.487,173.4,174.6,-7.866,166.5,181.7,156.4,179.8,166.7,36,182.0,3,5,prime,10,0,73,norm,36,-4.643,down,norm,169.184109869,184.2,167.0,152.0,166.7,1,160.3,181.8,164.9,10,6,7.876,4.719,1.936,-2.073,-4.701,-7.579,162.4,6,242.2,-8.008,-7.87,30,-8.116,-8.397,-5.002,-5.125,-4.48,-5.263,5.057,8.119,19,-1.885,2.042,4.648,8.3,-7.933,-7.541,-1.843,1.761,149.2,150.0,177.2,184.8,187.1,178.8,189.2,168.4,187.7,161.4,3,norm,1.116,1.553,-1.743,-1.592,-4.85,-4.377,-1.872,-1.622,-1.292,-1.147,1.403,-1.367,,181.5,-4.958,-7.764,1.745,-2.089,8.098,4.978,-4.675,-7.709,2,4.861,4.705,4.828,4.9,1.15,1.29,1.919,1.185,2,5.063,5.057,-10,62.3253890123,norm,0,9,9,9,326.693,326.707,326.726424361,326.727,326.729,326.733,down,1,3.05350736064,6.94649263936,001,018,1920_1200,Intel(R) Core(TM) i5-3570 CPU @ 3.40GHz,orientation_search,LEPPC096,Intel(R) HD Graphics 2500,2018_Dec_02_1527,testMonitor,
171.0,174.1,177.4,168.4,36,30,168.2,170.0,185.0,172.6,8.485,7.645,7.849,8.032,7.777,7.871,7.562,4.884,-5.248,-8.414,1.901,-1.719,8.345,5.047,-5.142,-7.748,166.3,158.6,-7.919,168.2,189.2,161.1,155.9,150.6,36,154.6,2,5,prime,10,0,109,norm,36,-4.73,down,norm,169.184109869,149.2,158.9,162.4,178.9,0,174.6,162.2,,10,6,7.797,5.119,1.424,-1.473,-5.069,-8.262,173.8,6,278.2,-8.051,-7.577,30,-8.096,-7.92,-4.657,-4.947,-4.825,-4.468,4.894,7.723,12,-1.185,1.617,4.801,7.915,-8.327,-7.661,-1.772,1.438,175.5,180.3,170.9,188.0,165.5,162.1,182.0,163.8,161.7,152.8,4,norm,1.409,1.675,-1.541,-1.497,-4.516,-4.925,-1.374,-1.957,-1.727,-1.601,1.337,-1.365,175.9,180.8,-5.217,-8.078,1.953,-1.883,8.149,4.581,-4.813,-8.02,2,4.438,4.623,5.004,4.628,1.635,2.068,1.278,1.215,2,4.379,4.84,-10,62.3253890123,norm,0,10,10,10,329.829,329.838,329.84496165,329.845,329.847,329.85,down,1,10.1602223436,-0.160222343635,001,018,1920_1200,Intel(R) Core(TM) i5-3570 CPU @ 3.40GHz,orientation_search,LEPPC096,Intel(R) HD Graphics 2500,2018_Dec_02_1527,testMonitor,
160.5,152.7,168.5,157.9,36,30,180.2,,163.1,183.4,8.356,8.238,8.268,7.874,7.887,7.977,7.597,4.499,-4.451,-7.815,1.449,-1.765,7.869,4.705,-4.772,-8.319,180.2,149.2,-7.608,168.3,160.4,187.1,182.5,189.2,36,175.9,4,5,prime,10,0,103,norm,36,-4.336,down,norm,169.184109869,173.1,179.1,168.2,158.4,1,185.1,152.8,169.5,10,6,8.416,4.689,1.165,-1.79,-4.625,-7.584,151.8,6,272.2,-7.864,-7.699,30,-8.152,-8.127,-4.989,-5.251,-4.351,-5.289,5.002,8.242,25,-2.069,1.329,5.293,8.172,-7.834,-8.098,-1.349,1.268,171.6,158.0,164.8,161.7,178.1,178.0,181.5,162.6,160.5,161.3,5,norm,2.02,1.931,-1.38,-1.489,-4.8,-4.325,-1.541,-2.021,-1.481,-1.271,1.616,-1.102,152.1,165.1,-4.739,-8.007,1.755,-1.198,8.226,4.473,-4.423,-8.167,2,4.669,4.745,4.503,4.33,1.453,1.489,1.812,1.418,2,4.651,4.425,-10,62.3253890123,norm,0,11,11,11,340.031,340.042,340.048997401,340.049,340.051,340.055,down,1,3.67650812433,6.32349187567,001,018,1920_1200,Intel(R) Core(TM) i5-3570 CPU @ 3.40GHz,orientation_search,LEPPC096,Intel(R) HD Graphics 2500,2018_Dec_02_1527,testMonitor,
297.8,284.8,295.2,298.4,36,-30,300.9,,288.4,296.2,7.879,7.75,8.166,8.103,8.154,7.933,7.797,4.811,-4.736,-8.137,1.747,-1.846,7.686,4.802,-4.845,-7.913,284.2,290.7,-8.104,301.1,298.2,302.2,295.6,294.4,36,293.2,4,5,probe,5,0,100,norm,36,-4.411,down,norm,294.199035356,296.5,304.2,287.3,296.3,1,296.3,294.8,291.2,10,6,8.214,4.831,1.183,-1.592,-4.502,-8.448,300.7,2,194.2,-8.418,-8.381,30,-7.684,-7.748,-4.371,-4.709,-5.054,-4.77,4.559,7.836,25,-1.523,1.658,4.55,8.309,-8.087,-7.982,-1.626,1.286,296.5,297.2,296.1,298.3,296.6,289.3,296.8,300.5,290.2,289.2,0,norm,2.012,1.927,-1.182,-1.403,-4.824,-4.819,-1.555,-1.742,-1.14,-1.643,1.604,-1.598,301.5,299.5,-4.883,-8.192,1.946,-1.853,8.047,4.526,-4.691,-8.388,3,4.925,4.502,4.577,4.508,1.23,1.297,1.544,1.112,3,4.414,4.355,30,169.184109869,norm,0,12,12,12,343.764,343.774,343.78963805,343.79,343.792,343.794,down,1,1.93802510799,8.06197489201,001,018,1920_1200,Intel(R) Core(TM) i5-3570 CPU @ 3.40GHz,orientation_search,LEPPC096,Intel(R) HD Graphics 2500,2018_Dec_02_1527,testMonitor,
270.7,266.4,273.6,277.3,36,-30,278.9,269.8,271.6,281.5,7.558,8.093,8.046,8.397,8.274,7.895,7.879,4.596,-4.447,-7.724,1.205,-2.061,8.485,5.166,-4.482,-8.201,274.5,267.1,-7.846,277.7,273.2,278.8,272.5,273.8,36,283.2,2,5,probe,5,0,79,norm,36,-4.798,down,norm,273.199035356,266.7,278.6,269.2,276.1,0,274.6,274.1,,10,6,8.198,4.866,1.557,-1.457,-5.155,-7.517,279.6,2,194.2,-8.411,-7.839,30,-7.994,-7.659,-4.594,-5.217,-4.938,-5.029,4.889,8.289,12,-1.944,1.854,4.886,7.748,-8.155,-7.849,-1.783,1.974,276.3,278.2,274.0,270.6,264.5,267.3,280.5,272.9,270.7,276.0,1,norm,1.9,1.215,-1.651,-1.586,-5.117,-4.804,-1.55,-1.905,-1.519,-1.501,1.86,-1.751,263.2,274.0,-4.567,-8.061,1.858,-1.326,7.858,5.017,-4.821,-8.056,3,4.563,4.573,5.139,4.698,1.585,1.644,1.794,1.242,3,4.612,5.261,30,169.184109869,norm,0,13,13,13,345.772,345.792,345.804647906,345.805,345.807,345.81,down,1,1.93185526836,8.06814473164,001,018,1920_1200,Intel(R) Core(TM) i5-3570 CPU @ 3.40GHz,orientation_search,LEPPC096,Intel(R) HD Graphics 2500,2018_Dec_02_1527,testMonitor,
210.9,223.5,208.2,213.8,36,30,201.9,210.5,230.4,214.8,8.143,8.251,8.302,7.68,8.08,7.763,8.427,4.459,-4.63,-7.682,1.145,-1.381,8.26,4.89,-4.364,-8.344,190.4,206.2,-7.747,196.4,208.1,223.6,210.0,211.3,36,208.6,3,5,prime,10,0,105,norm,36,-4.918,down,norm,210.421177201,212.2,214.5,201.7,211.5,1,193.0,212.5,221.6,10,5,8.367,4.381,1.423,-1.246,-4.717,-8.282,198.5,5,315.4,-7.672,-7.616,30,-8.36,-7.572,-4.38,-4.882,-4.594,-4.471,4.805,7.943,19,-1.628,1.34,5.108,7.535,-8.47,-7.73,-1.86,1.144,228.2,206.9,221.2,217.0,199.4,218.4,199.5,205.8,196.8,198.9,0,norm,1.576,1.626,-1.537,-1.42,-4.624,-5.225,-1.955,-1.266,-1.8,-1.42,1.107,-1.173,,222.9,-5.243,-7.813,1.623,-1.273,8.416,4.817,-4.76,-7.53,4,4.796,4.93,5.213,4.847,1.854,1.816,1.51,1.544,4,4.645,5.233,-30,169.184109869,norm,0,14,14,14,347.784,347.806,347.816935666,347.817,347.819,347.822,down,1,1.28046177205,8.71953822795,001,018,1920_1200,Intel(R) Core(TM) i5-3570 CPU @ 3.40GHz,orientation_search,LEPPC096,Intel(R) HD Graphics 2500,2018_Dec_02_1527,testMonitor,
198.8,217.6,210.0,199.1,36,30,200.4,215.4,206.1,228.8,7.621,8.105,7.576,8.057,8.208,7.503,8.036,4.929,-5.206,-7.596,1.87,-1.533,7.748,5.286,-4.899,-8.123,219.2,223.8,-7.737,221.1,200.0,214.1,208.5,220.0,36,224.3,1,5,prime,10,0,76,norm,36,-5.242,up,norm,210.421177201,216.4,202.7,212.8,203.7,5,,213.0,209.7,10,5,8.316,4.582,1.463,-1.689,-4.876,-7.826,222.3,5,286.4,-8.152,-8.498,30,-7.973,-7.609,-5.019,-5.171,-5.09,-4.521,5.264,7.564,11,-1.441,1.931,4.365,8.118,-8.05,-8.399,-1.706,1.344,213.6,210.5,190.4,205.5,220.3,230.4,225.5,200.0,216.9,205.6,1,norm,1.316,1.381,-1.476,-1.648,-5.088,-5.072,-1.218,-1.918,-1.817,-1.173,1.621,-2.089,214.4,205.9,-4.37,-8.258,2.021,-1.876,8.252,4.906,-4.349,-7.851,4,4.591,5.05,4.697,4.32,1.623,2.027,1.423,1.841,4,4.328,4.624,-30,169.184109869,norm,0,15,15,15,349.136,349.146,349.155823163,349.156,349.158,349.161,up,1,0.861200945399,9.1387990546,001,018,1920_1200,Intel(R) Core(TM) i5-3570 CPU @ 3.40GHz,orientation_search,LEPPC096,Intel(R) HD Graphics 2500,2018_Dec_02_1527,testMonitor,
221.8,207.6,224.4,203.7,36,30,211.1,223.8,207.2,206.9,8.19,7.752,8.391,7.804,7.724,8.252,8.168,4.605,-4.424,-8.139,1.149,-2.04,7.677,4.506,-4.647,-8.161,203.6,195.7,-7.841,203.5,207.4,209.4,205.9,218.1,36,208.6,1,5,prime,10,0,66,norm,36,-4.703,down,norm,210.421177201,202.4,200.3,230.4,214.8,2,208.9,218.5,190.4,10,5,7.792,4.504,1.223,-1.358,-4.595,-8.249,218.3,5,276.4,-7.705,-8.406,30,-7.542,-7.746,-5.114,-5.153,-4.981,-4.911,4.846,7.55,8,-1.189,1.21,4.669,8.145,-7.555,-8.334,-2.017,1.845,206.5,,216.9,214.0,226.5,225.7,199.4,206.1,215.0,214.5,2,norm,2.044,1.791,-1.54,-1.478,-5.26,-4.761,-1.372,-1.228,-2.061,-1.184,1.158,-1.621,193.3,209.1,-4.762,-7.532,1.939,-2.05,7.716,4.492,-4.495,-8.31,4,4.545,4.972,4.83,4.705,1.336,1.438,1.339,1.926,4,4.811,4.921,-30,169.184109869,norm,0,16,16,16,350.055,350.065,350.076226799,350.076,350.078,350.081,down,1,1.50086178533,8.49913821467,001,018,1920_1200,Intel(R) Core(TM) i5-3570 CPU @ 3.40GHz,orientation_search,LEPPC096,Intel(R) HD Graphics 2500,2018_Dec_02_1527,testMonitor,
229.8,211.4,199.0,204.3,36,30,213.3,208.7,,212.1,7.864,7.547,8.138,7.862,8.441,8.17,7.789,5.011,-5.139,-8.035,1.955,-1.458,7.663,4.997,-4.589,-8.299,205.0,223.7,-8.092,215.1,201.2,217.9,207.8,205.3,36,190.4,4,5,prime,10,0,115,norm,36,-4.525,up,norm,210.421177201,215.4,211.4,205.1,225.2,4,220.5,209.6,204.6,10,5,7.715,5.043,1.478,-1.547,-4.609,-8.268,230.4,5,325.4,-7.51,-7.555,30,-7.543,-7.832,-4.453,-4.386,-5.25,-4.391,5.004,8.131,28,-1.365,1.176,4.971,8.102,-7.656,-7.589,-1.762,1.43,210.8,208.7,220.4,212.1,210.9,203.8,203.4,206.5,205.4,220.8,3,norm,1.365,1.497,-1.273,-1.667,-5.223,-4.438,-1.124,-1.332,-1.269,-1.815,1.765,-1.165,199.8,203.1,-4.64,-7.744,2.054,-1.789,7.848,4.866,-4.581,-8.135,4,4.806,4.502,4.717,5.042,1.454,1.72,2.022,1.704,4,4.423,4.428,-30,169.184109869,norm,0,17,17,17,351.615,351.626,351.636176269,351.636,351.638,351.641,up,1,0.948273561755,9.05172643825,001,018,1920_1200,Intel(R) Core(TM) i5-3570 CPU @ 3.40GHz,orientation_search,LEPPC096,Intel(R) HD Graphics 2500,2018_Dec_02_1527,testMonitor,
219.3,190.5,218.4,219.3,36,30,225.8,218.5,210.7,202.3,7.864,7.905,8.392,7.819,8.495,7.568,8.16,4.588,-4.587,-8.452,1.379,-1.942,8.488,4.788,-5.16,-8.329,190.4,215.2,-7.651,,226.7,208.8,196.2,216.9,36,209.6,5,5,prime,10,0,61,norm,36,-4.839,down,norm,210.421177201,211.6,217.4,218.9,217.3,1,230.4,211.1,204.3,10,5,8.452,5.157,1.718,-1.506,-4.833,-7.982,206.3,5,271.4,-7.971,-7.844,30,-8.282,-7.639,-4.749,-4.975,-5.048,-4.994,4.46,7.596,31,-1.883,1.222,5.253,8.434,-7.572,-7.637,-1.995,1.242,214.2,221.7,211.5,210.2,209.3,223.9,213.8,198.8,194.4,211.6,4,norm,1.814,2.068,-1.187,-1.737,-4.806,-5.253,-1.52,-1.31,-1.989,-1.575,1.167,-1.646,206.2,195.4,-4.476,-7.66,1.869,-1.577,8.434,4.37,-4.97,-8.059,4,5.042,4.535,4.787,5.292,1.393,1.569,2.081,2.058,4,5.114,4.851,-30,169.184109869,norm,0,18,18,18,352.622,352.633,352.638590174,352.639,352.641,352.644,down,1,0.790587372356,9.20941262764,001,018,1920_1200,Intel(R) Core(TM) i5-3570 CPU @ 3.40GHz,orientation_search,LEPPC096,Intel(R) HD Graphics 2500,2018_Dec_02_1527,testMonitor,
337.1,328.5,334.6,338.5,36,-40,331.6,339.5,333.6,336.6,7.806,7.683,8.088,7.725,7.849,7.71,7.887,4.735,-4.46,-8.01,1.263,-1.782,7.91,5.111,-5.096,-7.997,340.8,337.8,-7.639,325.9,325.3,342.9,341.4,333.5,36,340.9,2,5,probe,5,0,98,norm,36,-4.528,down,norm,335.29718199,331.4,337.8,330.8,336.4,0,336.4,337.3,,10,5,7.653,5.192,1.697,-1.137,-4.697,-8.062,329.1,1,237.3,-8.216,-7.728,30,-7.505,-7.942,-4.544,-5.087,-5.088,-5.272,5.228,7.607,12,-1.955,1.83,4.3,8.067,-8.46,-8.472,-1.369,1.264,336.4,330.3,332.0,338.5,339.0,345.3,330.8,343.7,328.7,326.9,0,norm,1.954,2.021,-1.254,-1.873,-4.748,-5.271,-1.927,-1.353,-1.961,-1.141,1.551,-1.846,337.5,328.7,-4.829,-8.101,1.851,-1.696,7.919,5.075,-5.226,-8.068,5,4.605,4.935,4.86,5.276,1.88,2.075,1.502,1.976,5,5.234,5.16,30,210.421177201,norm,0,19,19,19,353.467,353.476,353.492505939,353.493,353.495,353.497,down,1,0.845636589202,9.1543634108,001,018,1920_1200,Intel(R) Core(TM) i5-3570 CPU @ 3.40GHz,orientation_search,LEPPC096,Intel(R) HD Graphics 2500,2018_Dec_02_1527,testMonitor,
98.6,113.9,114.2,105.6,36,0,108.0,109.4,118.0,110.9,8.036,8.387,7.899,8.034,8.4,7.511,7.596,4.502,-4.884,-7.989,1.878,-1.223,8.335,5.17,-5.083,-8.36,125.5,96.0,-8.056,121.8,111.0,101.5,103.9,119.9,36,110.1,1,5,prime,10,0,102,norm,36,-5.013,up,norm,112.750026599,107.0,125.7,115.5,112.5,3,106.6,105.2,115.4,10,6,8.251,4.581,1.368,-1.729,-4.944,-8.015,106.9,6,214.8,-8.2,-7.606,0,-7.562,-7.972,-4.621,-4.331,-5.188,-4.509,5.03,7.542,9,-2.019,1.861,5.154,8.08,-8.29,-8.276,-2.004,1.937,,104.9,121.6,106.6,120.6,112.9,101.2,120.2,132.8,116.6,0,norm,1.193,1.24,-2.004,-1.462,-4.356,-4.458,-1.209,-1.976,-1.415,-1.263,1.408,-1.292,124.7,92.8,-4.492,-8.182,1.924,-1.346,8.181,5.072,-4.395,-8.238,6,4.499,4.303,4.602,5.213,1.795,2.094,1.109,1.717,6,4.775,4.754,-40,210.421177201,norm,0,20,20,20,354.377,354.387,354.392425345,354.393,354.394,354.397,up,1,0.860851099795,9.13914890021,001,018,1920_1200,Intel(R) Core(TM) i5-3570 CPU @ 3.40GHz,orientation_search,LEPPC096,Intel(R) HD Graphics 2500,2018_Dec_02_1527,testMonitor,
108.6,107.5,101.5,124.3,36,0,120.5,111.8,112.5,111.1,7.726,8.402,8.119,8.428,8.199,7.676,8.092,4.913,-4.938,-8.486,1.428,-1.558,7.904,5.176,-4.802,-7.911,113.5,96.6,-7.741,118.2,126.1,92.8,97.4,120.5,36,113.7,3,5,prime,10,0,64,norm,36,-4.804,down,norm,112.750026599,115.2,102.6,102.3,107.8,0,122.4,132.8,115.9,10,6,7.78,4.32,1.573,-1.805,-4.971,-7.528,114.3,6,176.8,-8.17,-8.325,0,-7.916,-8.069,-4.603,-4.593,-5.058,-5.048,5.262,7.721,18,-1.47,1.286,4.943,7.858,-7.778,-7.873,-1.427,1.362,112.8,103.6,113.4,120.3,114.5,96.8,104.2,106.4,94.2,99.1,1,norm,1.792,1.341,-1.161,-2.06,-4.651,-4.57,-1.452,-1.129,-1.583,-1.419,1.209,-1.66,123.3,,-4.953,-8.492,1.358,-1.311,7.593,4.585,-4.969,-8.294,6,4.486,4.599,5.005,4.47,1.326,1.3,1.23,1.62,6,5.044,4.661,-40,210.421177201,norm,0,21,21,21,355.291,355.3,355.317711424,355.318,355.32,355.322,down,1,0.672857233412,9.32714276659,001,018,1920_1200,Intel(R) Core(TM) i5-3570 CPU @ 3.40GHz,orientation_search,LEPPC096,Intel(R) HD Graphics 2500,2018_Dec_02_1527,testMonitor,
123.3,92.8,124.9,129.6,36,0,121.5,127.8,103.0,111.2,7.814,8.017,8.114,8.272,8.008,7.804,7.612,4.551,-4.59,-8.371,1.927,-1.249,7.838,4.516,-4.313,-7.549,112.5,99.2,-8.492,122.4,117.3,107.9,126.5,126.2,36,132.8,0,5,prime,10,0,102,norm,36,-5.202,down,norm,112.750026599,128.8,107.8,114.7,95.4,2,117.6,115.0,125.7,10,6,7.746,4.882,1.493,-1.715,-4.373,-7.876,130.4,6,214.8,-7.975,-8.319,0,-7.761,-7.648,-5.148,-4.765,-4.872,-5.209,4.64,7.642,2,-1.337,1.896,4.592,8.331,-8.272,-8.049,-1.215,1.252,101.5,109.5,114.8,,94.9,109.6,122.1,104.8,128.2,117.0,2,norm,1.922,1.556,-2.078,-1.591,-4.697,-4.57,-1.871,-1.342,-1.448,-1.368,1.634,-2.002,102.8,102.6,-4.93,-8.336,1.617,-1.238,7.861,4.658,-4.692,-8.454,6,4.972,4.808,5.178,4.349,1.601,2.058,1.545,2.056,6,4.846,5.193,-40,210.421177201,norm,0,22,22,22,356.037,356.057,356.069128163,356.069,356.071,356.074,up,0,1.15833607515,-10,001,018,1920_1200,Intel(R) Core(TM) i5-3570 CPU @ 3.40GHz,orientation_search,LEPPC096,Intel(R) HD Graphics 2500,2018_Dec_02_1527,testMonitor,
,117.9,111.7,116.8,36,0,123.0,109.3,117.9,107.1,8.223,7.719,7.615,8.052,8.082,7.883,7.541,5.287,-4.408,-7.869,1.995,-1.674,7.88,5.267,-4.977,-7.81,103.2,106.0,-7.791,132.8,110.5,114.0,124.4,102.5,36,100.1,3,5,prime,10,0,86,norm,36,-4.426,up,norm,112.750026599,122.6,108.0,111.0,128.1,4,95.9,113.6,109.3,10,6,8.368,5.121,1.509,-1.955,-5.101,-7.803,131.1,6,198.8,-7.677,-7.582,0,-8.098,-8.001,-4.561,-4.381,-4.424,-4.79,4.697,7.938,22,-1.452,1.206,5.25,8.0,-7.879,-7.571,-1.928,1.529,101.5,109.4,119.9,129.2,92.8,114.4,116.5,116.3,104.2,104.8,3,norm,1.16,1.378,-1.877,-1.369,-4.501,-4.383,-2.051,-1.796,-1.425,-1.18,1.903,-1.629,105.4,107.4,-5.1,-7.849,1.173,-2.056,8.329,4.754,-4.931,-8.316,6,4.786,4.391,4.913,4.32,1.703,2.066,1.777,1.792,6,4.515,4.689,-40,210.421177201,norm,0,23,23,23,358.287,358.296,358.312866712,358.313,358.315,358.318,up,1,1.74518049196,8.25481950804,001,018,1920_1200,Intel(R) Core(TM) i5-3570 CPU @ 3.40GHz,orientation_search,LEPPC096,Intel(R) HD Graphics 2500,2018_Dec_02_1527,testMonitor,
100.2,118.2,132.8,119.2,36,0,116.4,125.6,109.3,110.8,7.77,8.187,7.521,8.126,8.45,8.376,7.949,5.094,-4.341,-7.655,2.038,-1.524,7.949,4.984,-4.839,-7.853,122.4,116.5,-7.606,118.9,109.4,114.3,118.1,104.4,36,117.7,2,5,prime,10,0,105,norm,36,-5.081,down,norm,112.750026599,92.8,115.8,100.4,111.3,1,109.8,,115.9,10,6,8.223,4.612,1.867,-1.605,-4.834,-8.479,105.8,6,217.8,-8.075,-8.314,0,-7.524,-7.953,-5.147,-4.898,-4.49,-4.485,5.054,8.426,13,-1.567,1.265,5.018,7.976,-7.626,-7.813,-1.167,1.412,122.8,109.9,99.4,112.0,114.1,123.2,123.2,115.7,106.1,113.5,4,norm,1.424,1.406,-1.385,-2.039,-4.365,-4.994,-1.556,-1.166,-1.598,-1.566,1.681,-1.979,106.1,117.5,-4.672,-8.399,1.213,-1.568,8.492,5.178,-5.127,-8.226,6,4.61,5.216,5.294,5.07,1.412,1.841,1.921,1.381,6,4.952,4.606,-40,210.421177201,norm,0,24,24,24,360.096,360.105,360.12224855,360.122,360.124,360.127,down,1,0.808696334621,9.19130366538,001,018,1920_1200,Intel(R) Core(TM) i5-3570 CPU @ 3.40GHz,orientation_search,LEPPC096,Intel(R) HD Graphics 2500,2018_Dec_02_1527,testMonitor,
102.0,92.8,118.8,108.8,36,0,108.3,121.9,109.8,101.9,7.958,7.902,7.868,7.905,7.57,8.257,7.732,4.505,-4.31,-8.429,1.131,-1.866,8.023,4.827,-4.982,-7.585,106.1,111.5,-8.115,116.4,120.3,120.4,96.2,115.0,36,113.9,1,5,prime,10,0,77,norm,36,-4.794,up,norm,112.750026599,129.6,97.7,117.1,116.5,5,,132.8,116.1,10,6,8.049,4.598,1.251,-1.671,-4.35,-7.503,112.0,6,189.8,-8.266,-7.681,0,-8.006,-8.159,-5.017,-4.461,-4.706,-5.26,4.58,7.738,11,-2.092,1.578,4.336,7.925,-7.677,-7.832,-1.914,1.484,95.1,115.0,117.1,116.7,98.2,107.1,115.3,107.2,111.9,128.0,5,norm,1.846,1.377,-1.198,-2.014,-4.314,-4.597,-1.323,-1.293,-1.655,-1.6,2.035,-2.029,121.2,113.1,-4.427,-8.387,1.175,-1.966,8.178,4.357,-4.385,-7.513,6,5.268,4.982,4.866,4.658,1.667,1.608,1.34,1.385,6,5.02,4.444,-40,210.421177201,norm,0,25,25,25,360.982,361.003,361.014174633,361.014,361.016,361.019,down,0,2.4343325616,-10,001,018,1920_1200,Intel(R) Core(TM) i5-3570 CPU @ 3.40GHz,orientation_search,LEPPC096,Intel(R) HD Graphics 2500,2018_Dec_02_1527,testMonitor,
228.3,225.4,220.1,231.3,36,-60,228.5,232.4,223.6,226.4,8.346,7.726,8.269,7.856,7.922,7.922,7.539,4.644,-5.268,-7.59,1.854,-1.703,7.645,5.218,-4.374,-7.736,230.7,235.8,-7.751,227.6,224.5,232.2,234.6,230.2,36,231.3,2,5,probe,5,0,119,norm,36,-4.305,down,norm,230.065810979,232.0,221.1,229.7,240.1,0,234.2,234.0,,10,6,8.026,4.718,2.074,-1.523,-4.717,-8.15,231.5,2,111.1,-8.35,-7.669,0,-8.346,-7.686,-4.377,-5.093,-4.971,-4.868,4.529,8.033,12,-1.688,2.015,5.208,8.147,-8.406,-7.903,-2.026,1.175,229.8,226.8,227.7,231.8,233.5,228.6,227.9,230.9,221.1,227.6,0,norm,1.117,1.116,-1.765,-1.409,-4.662,-5.258,-1.723,-1.249,-1.238,-1.714,1.689,-1.354,232.8,221.5,-4.884,-7.514,1.995,-2.096,7.776,4.739,-4.757,-7.903,7,4.387,5.219,4.356,4.555,1.797,2.063,1.47,2.0,7,4.755,5.111,0,112.750026599,norm,0,26,26,26,364.526,364.536,364.552689947,364.553,364.555,364.557,down,1,1.03570990887,8.96429009113,001,018,1920_1200,Intel(R) Core(TM) i5-3570 CPU @ 3.40GHz,orientation_search,LEPPC096,Intel(R) HD Graphics 2500,2018_Dec_02_1527,testMonitor,
175.1,185.9,178.0,176.7,36,-60,192.1,180.4,177.1,176.1,7.825,8.115,8.094,8.252,7.561,7.988,8.211,4.694,-4.672,-8.391,1.328,-1.16,8.257,4.891,-4.399,-8.045,,175.5,-7.618,182.2,183.5,176.7,186.9,182.0,36,188.1,5,5,probe,5,0,71,norm,36,-4.977,up,norm,182.065810979,177.8,180.1,180.5,185.6,5,183.7,186.8,179.3,10,6,7.807,4.655,1.382,-1.196,-4.821,-8.16,176.2,2,111.1,-7.744,-8.074,0,-7.763,-8.452,-5.255,-5.121,-4.852,-4.708,4.893,7.898,35,-1.932,1.747,5.176,7.733,-7.502,-8.234,-1.193,2.035,188.2,181.2,177.0,187.7,185.5,181.5,188.1,172.1,178.1,178.2,1,norm,1.244,1.206,-1.602,-1.861,-4.53,-5.014,-1.523,-1.285,-1.745,-1.455,1.152,-1.615,183.9,180.0,-4.351,-7.566,1.723,-1.118,7.594,5.146,-5.278,-7.677,7,5.291,4.636,4.471,4.9,1.916,1.288,1.796,1.384,7,4.356,4.655,0,112.750026599,norm,0,27,27,27,365.626,365.636,365.644658893,365.645,365.647,365.649,up,1,1.72338743514,8.27661256486,001,018,1920_1200,Intel(R) Core(TM) i5-3570 CPU @ 3.40GHz,orientation_search,LEPPC096,Intel(R) HD Graphics 2500,2018_Dec_02_1527,testMonitor,
214.2,229.8,254.2,231.7,36,-80,229.5,218.5,239.4,240.9,7.655,8.303,8.16,7.897,8.231,7.832,7.891,4.752,-5.12,-8.033,1.647,-1.327,7.671,4.492,-4.693,-8.182,223.1,226.4,-7.936,230.6,236.3,239.8,219.7,224.6,36,224.7,2,5,prime,10,0,102,norm,36,-4.318,up,norm,234.185311804,236.0,236.9,,241.5,3,248.3,238.4,244.3,10,6,7.842,4.528,1.426,-1.585,-4.768,-7.761,229.6,6,336.2,-7.964,-7.555,-80,-8.221,-7.647,-4.554,-5.018,-4.645,-4.797,4.962,7.921,15,-1.228,1.789,4.353,7.549,-7.713,-8.338,-1.461,1.474,240.9,242.2,248.2,233.5,232.4,230.3,218.3,231.4,226.6,227.6,0,norm,1.656,1.291,-1.197,-1.576,-5.187,-4.963,-2.072,-1.932,-2.006,-1.211,1.427,-1.43,215.6,227.8,-5.251,-7.919,1.224,-1.45,8.069,4.375,-5.195,-8.218,8,4.42,4.892,5.205,5.081,2.029,1.598,2.075,1.881,8,4.713,4.938,-60,112.750026599,norm,0,28,28,28,367.408,367.419,367.424200622,367.424,367.427,367.43,down,0,1.63915071131,-10,001,018,1920_1200,Intel(R) Core(TM) i5-3570 CPU @ 3.40GHz,orientation_search,LEPPC096,Intel(R) HD Graphics 2500,2018_Dec_02_1527,testMonitor,
226.1,237.7,223.9,220.2,36,-80,230.5,236.4,236.8,248.1,8.382,8.062,7.546,8.286,8.38,8.359,7.736,4.705,-4.924,-7.627,1.427,-1.899,7.965,4.89,-4.934,-7.644,232.9,254.2,-8.18,241.6,237.9,229.7,232.5,250.3,36,241.6,1,5,prime,10,0,81,norm,36,-5.01,up,norm,234.185311804,236.9,239.3,229.0,214.2,4,227.5,253.8,226.6,10,6,7.516,4.644,1.712,-1.274,-4.626,-7.618,,6,315.2,-7.565,-7.538,-80,-7.667,-7.524,-4.615,-4.91,-4.877,-5.156,4.424,7.796,10,-1.873,1.707,4.586,7.528,-7.602,-7.551,-1.281,1.544,234.7,246.6,233.5,232.5,234.9,234.3,239.8,236.6,216.1,231.8,1,norm,1.861,1.366,-1.91,-1.923,-4.618,-4.538,-1.495,-1.333,-1.856,-1.682,1.147,-1.225,248.4,216.0,-4.593,-8.462,1.386,-1.758,7.763,4.855,-4.354,-7.67,8,4.895,5.091,5.073,4.308,1.326,1.158,1.922,1.795,8,5.097,5.021,-60,112.750026599,norm,0,29,29,29,370.138,370.148,370.154138833,370.154,370.156,370.159,down,0,1.15380257117,-10,001,018,1920_1200,Intel(R) Core(TM) i5-3570 CPU @ 3.40GHz,orientation_search,LEPPC096,Intel(R) HD Graphics 2500,2018_Dec_02_1527,testMonitor,
230.7,238.5,236.6,227.5,36,-80,232.0,247.3,239.3,234.2,8.033,7.766,7.817,7.746,7.938,8.073,8.085,5.189,-4.362,-8.44,1.268,-1.321,8.172,4.388,-4.466,-8.427,243.7,242.9,-7.568,224.8,,231.5,225.2,214.2,36,234.1,5,5,prime,10,0,98,norm,36,-4.797,down,norm,234.185311804,223.9,227.3,254.2,219.8,0,242.3,237.2,225.7,10,6,8.497,4.502,1.91,-1.243,-5.112,-7.929,241.8,6,332.2,-8.489,-8.222,-80,-8.41,-8.111,-4.418,-4.594,-4.477,-4.306,4.865,8.472,30,-2.008,1.565,5.113,7.707,-7.548,-8.125,-1.875,1.313,236.3,238.5,241.3,232.7,225.7,215.0,231.9,237.0,220.1,231.3,2,norm,1.472,1.866,-1.3,-2.094,-4.816,-4.572,-1.396,-1.256,-1.894,-1.567,1.578,-1.593,239.4,232.0,-4.875,-7.727,1.624,-1.642,7.709,5.14,-5.236,-8.281,8,4.674,4.788,4.382,5.176,1.881,1.894,1.278,1.311,8,4.694,4.742,-60,112.750026599,norm,0,30,30,30,372.389,372.398,372.404721859,372.405,372.407,372.409,down,1,1.20924962797,8.79075037203,001,018,1920_1200,Intel(R) Core(TM) i5-3570 CPU @ 3.40GHz,orientation_search,LEPPC096,Intel(R) HD Graphics 2500,2018_Dec_02_1527,testMonitor,
254.2,244.1,242.8,233.6,36,-80,229.3,220.4,250.8,218.9,7.731,7.598,8.409,8.127,8.351,8.217,7.77,5.178,-4.521,-7.706,2.077,-1.291,8.25,4.964,-4.841,-7.7,244.2,239.2,-7.793,238.0,226.9,,237.2,228.8,36,221.6,5,5,prime,10,0,100,norm,36,-4.66,up,norm,234.185311804,217.1,223.8,236.9,242.1,3,221.9,242.3,227.8,10,6,8.056,5.033,1.729,-1.384,-4.503,-8.487,237.9,6,334.2,-8.335,-8.294,-80,-8.112,-8.093,-4.715,-4.427,-4.849,-4.796,4.88,8.126,33,-1.983,1.829,4.57,8.034,-7.78,-8.272,-1.779,1.582,238.2,224.2,245.1,228.7,241.0,237.6,244.4,214.2,237.9,215.6,3,norm,1.588,1.549,-1.993,-1.728,-4.552,-4.578,-1.506,-1.807,-1.265,-1.885,1.166,-1.999,232.9,232.6,-4.422,-7.934,1.154,-1.164,8.073,4.446,-5.239,-8.405,8,5.003,4.698,4.436,4.482,1.764,1.338,1.346,2.029,8,5.165,4.685,-60,112.750026599,norm,0,31,31,31,373.652,373.661,373.6680581,373.668,373.67,373.673,up,1,1.49979745781,8.50020254219,001,018,1920_1200,Intel(R) Core(TM) i5-3570 CPU @ 3.40GHz,orientation_search,LEPPC096,Intel(R) HD Graphics 2500,2018_Dec_02_1527,testMonitor,
231.0,241.2,236.8,234.4,36,-80,240.7,218.1,220.2,243.7,7.94,8.467,8.268,8.329,8.382,8.257,8.1,4.618,-5.089,-7.544,1.558,-1.52,8.031,5.099,-5.126,-8.383,234.5,234.3,-8.229,221.4,228.9,238.4,225.5,239.7,36,250.8,2,5,prime,10,0,74,norm,36,-5.298,down,norm,234.185311804,226.5,239.3,230.1,244.6,0,240.4,226.4,,10,6,8.038,4.847,1.612,-1.725,-5.29,-8.376,231.8,6,308.2,-7.587,-7.926,-80,-7.7,-7.524,-4.982,-5.266,-5.265,-4.848,4.397,8.442,12,-1.171,1.317,4.613,7.898,-8.339,-7.786,-1.623,1.336,227.5,232.2,229.3,254.2,217.1,214.2,248.5,229.1,231.6,232.1,4,norm,2.096,1.62,-1.239,-1.181,-4.406,-5.182,-1.147,-1.564,-1.425,-1.394,1.555,-2.033,233.9,234.9,-4.648,-8.244,1.818,-1.244,8.122,4.706,-4.676,-8.318,8,4.66,5.229,4.722,4.388,1.604,1.331,1.578,1.123,8,4.314,4.785,-60,112.750026599,norm,0,32,32,32,375.189,375.201,375.222672048,375.223,375.225,375.228,down,1,0.775847070081,9.22415292992,001,018,1920_1200,Intel(R) Core(TM) i5-3570 CPU @ 3.40GHz,orientation_search,LEPPC096,Intel(R) HD Graphics 2500,2018_Dec_02_1527,testMonitor,
216.7,225.3,215.9,,36,-80,244.7,236.9,220.6,241.8,7.703,7.892,7.593,8.056,7.816,7.91,7.682,4.392,-5.276,-7.884,1.496,-1.976,8.034,5.046,-5.112,-7.552,229.9,229.0,-7.88,233.5,228.4,233.0,233.0,228.9,36,224.6,3,5,prime,10,0,117,norm,36,-4.672,up,norm,234.185311804,254.2,246.3,222.5,231.3,3,240.5,239.6,233.8,10,6,8.39,4.405,1.694,-1.609,-4.314,-7.801,222.7,6,351.2,-8.306,-8.318,-80,-7.516,-7.501,-4.506,-4.338,-4.97,-4.764,5.251,7.834,21,-1.561,2.046,4.438,7.938,-7.745,-7.697,-1.139,2.092,244.7,229.5,214.2,236.0,230.3,238.0,230.7,244.5,219.0,233.0,5,norm,1.634,1.272,-2.051,-1.587,-4.628,-5.188,-1.521,-1.625,-1.665,-1.369,1.923,-1.365,227.9,236.1,-4.412,-8.249,1.755,-1.99,7.713,4.303,-5.278,-7.69,8,4.836,4.891,5.222,4.851,1.105,1.765,1.617,1.788,8,5.153,5.173,-60,112.750026599,norm,0,33,33,33,376.02,376.031,376.036475102,376.037,376.039,376.042,up,1,1.15136874451,8.84863125549,001,018,1920_1200,Intel(R) Core(TM) i5-3570 CPU @ 3.40GHz,orientation_search,LEPPC096,Intel(R) HD Graphics 2500,2018_Dec_02_1527,testMonitor,
244.9,247.5,246.5,250.9,36,-10,245.9,254.1,250.5,249.2,7.985,7.573,8.134,8.323,7.52,7.88,8.187,4.655,-4.805,-8.374,1.784,-1.108,7.828,4.632,-4.401,-7.565,249.8,254.7,-8.155,243.2,245.1,243.7,259.3,243.3,36,247.5,3,5,probe,5,0,104,norm,36,-4.573,down,norm,249.273475163,240.2,241.3,249.8,244.8,1,248.1,254.4,256.8,10,6,8.033,5.27,1.731,-1.727,-4.949,-7.652,254.6,1,145.3,-7.823,-7.631,-80,-8.34,-8.287,-4.7,-4.552,-5.019,-5.237,4.345,8.207,19,-1.713,2.028,4.409,8.21,-7.771,-7.943,-1.508,1.544,244.0,243.2,248.3,251.2,254.2,254.8,242.6,239.5,255.7,249.2,0,norm,1.119,1.434,-1.254,-1.722,-4.755,-4.312,-1.84,-1.949,-1.227,-1.297,1.818,-1.78,,239.3,-5.148,-7.777,1.542,-2.076,7.781,5.03,-4.513,-8.093,9,4.987,4.685,5.038,4.825,1.739,1.302,1.516,1.784,9,4.516,5.244,-80,234.185311804,norm,0,34,34,34,377.236,377.245,377.251954034,377.252,377.254,377.257,down,1,0.894052322898,9.1059476771,001,018,1920_1200,Intel(R) Core(TM) i5-3570 CPU @ 3.40GHz,orientation_search,LEPPC096,Intel(R) HD Graphics 2500,2018_Dec_02_1527,testMonitor,
177.1,186.1,193.2,197.1,36,-80,176.1,167.9,164.9,178.8,7.936,7.725,7.519,7.999,7.776,8.32,7.925,4.876,-4.967,-8.207,2.016,-1.981,7.558,4.717,-4.889,-8.423,183.3,170.8,-7.967,157.1,175.9,182.1,179.0,175.5,36,179.8,0,5,prime,10,0,78,norm,36,-5.247,up,norm,177.149809942,187.5,173.4,184.4,166.8,5,183.3,194.6,166.7,10,5,7.753,4.799,1.141,-2.076,-4.556,-8.195,187.9,5,255.1,-7.963,-8.234,-80,-8.363,-8.374,-4.317,-4.804,-4.573,-4.588,4.368,7.585,5,-1.451,1.175,5.102,8.345,-7.794,-7.719,-1.396,1.589,178.2,186.5,164.3,176.1,183.5,171.0,184.0,187.6,,167.1,0,norm,1.532,1.949,-1.458,-1.666,-4.671,-4.433,-1.913,-1.497,-1.693,-1.269,1.176,-1.998,185.8,172.5,-4.41,-7.616,1.983,-1.356,8.489,4.512,-4.355,-7.507,10,4.381,4.488,4.911,4.328,1.967,1.209,1.606,1.333,10,4.797,4.949,-10,234.185311804,norm,0,35,35,35,378.187,378.197,378.205459584,378.206,378.207,378.21,up,1,3.6465382189,6.3534617811,001,018,1920_1200,Intel(R) Core(TM) i5-3570 CPU @ 3.40GHz,orientation_search,LEPPC096,Intel(R) HD Graphics 2500,2018_Dec_02_1527,testMonitor,
185.5,182.5,176.2,172.0,36,-80,181.8,167.6,174.6,166.4,8.292,8.176,8.274,7.664,7.644,8.454,7.963,4.374,-5.211,-8.122,1.826,-1.458,8.327,5.216,-5.025,-8.151,197.1,193.6,-7.559,178.2,194.4,171.3,176.1,191.7,36,185.7,0,5,prime,10,0,67,norm,36,-4.312,up,norm,177.149809942,182.4,186.9,192.0,174.2,5,173.0,161.2,177.8,10,5,8.114,5.192,1.771,-1.78,-4.765,-8.099,162.4,5,244.1,-7.935,-8.134,-80,-8.213,-7.89,-4.511,-5.074,-4.457,-4.734,4.96,7.709,5,-1.797,1.993,4.634,7.811,-8.327,-7.904,-1.583,1.365,157.1,176.4,180.3,178.6,174.5,178.8,185.8,175.5,,181.9,1,norm,1.455,1.595,-1.406,-1.743,-4.69,-4.717,-1.787,-1.465,-1.984,-1.621,2.008,-2.07,191.4,186.6,-4.875,-8.041,1.598,-1.702,7.81,4.449,-4.368,-7.952,10,5.156,4.63,4.897,4.425,1.528,1.867,2.015,1.417,10,5.166,4.695,-10,234.185311804,norm,0,36,36,36,381.891,381.903,381.922885457,381.923,381.925,381.928,up,1,1.65020027831,8.34979972169,001,018,1920_1200,Intel(R) Core(TM) i5-3570 CPU @ 3.40GHz,orientation_search,LEPPC096,Intel(R) HD Graphics 2500,2018_Dec_02_1527,testMonitor,
167.1,189.7,172.4,177.8,36,-80,185.1,197.1,175.4,160.8,7.777,8.466,7.958,7.999,7.869,7.564,8.077,4.356,-4.374,-8.321,1.67,-2.014,8.455,4.601,-4.979,-7.981,172.2,187.4,-7.916,176.5,163.7,181.4,163.8,190.5,36,190.3,2,5,prime,10,0,111,norm,36,-4.472,down,norm,177.149809942,157.1,164.0,158.1,173.0,0,169.5,171.7,,10,5,8.311,4.778,1.653,-1.177,-4.683,-8.484,171.8,5,288.1,-7.817,-8.182,-80,-7.778,-8.485,-4.653,-4.319,-4.733,-5.118,5.228,8.108,12,-1.211,1.968,4.715,7.525,-7.573,-7.727,-1.155,1.776,158.7,173.0,194.7,172.1,175.1,188.6,174.8,181.1,165.8,175.8,2,norm,1.113,2.095,-1.969,-1.603,-4.863,-4.523,-1.884,-1.626,-1.329,-1.462,1.476,-1.433,188.2,169.7,-5.029,-8.246,1.681,-1.832,8.488,5.298,-4.691,-8.423,10,4.553,5.076,4.576,4.556,1.849,1.137,1.406,1.14,10,4.966,4.929,-10,234.185311804,norm,0,37,37,37,383.616,383.625,383.63213931,383.632,383.634,383.637,down,1,2.62148003707,7.37851996293,001,018,1920_1200,Intel(R) Core(TM) i5-3570 CPU @ 3.40GHz,orientation_search,LEPPC096,Intel(R) HD Graphics 2500,2018_Dec_02_1527,testMonitor,
185.6,176.3,172.0,197.1,36,-80,177.6,176.7,,178.9,8.336,7.661,7.722,7.777,8.496,8.324,8.142,4.863,-4.619,-7.567,2.077,-1.976,7.641,4.817,-5.231,-8.065,169.7,157.1,-7.797,167.6,190.2,168.6,168.5,196.6,36,178.6,4,5,prime,10,0,89,norm,36,-4.6,up,norm,177.149809942,177.7,187.4,185.9,174.3,4,168.8,192.4,176.4,10,5,8.025,4.379,1.332,-1.19,-4.737,-8.028,168.8,5,266.1,-7.807,-7.698,-80,-8.439,-7.939,-5.278,-4.772,-5.01,-4.739,4.349,7.69,28,-1.23,1.297,4.754,7.641,-7.611,-7.937,-1.24,1.978,175.3,162.9,171.9,180.9,180.9,181.1,177.0,179.9,170.6,175.4,3,norm,1.794,1.625,-1.834,-1.899,-4.442,-4.839,-1.163,-1.601,-1.865,-1.375,1.572,-1.503,176.3,186.5,-5.252,-7.858,1.265,-1.973,7.79,4.484,-4.547,-7.758,10,5.15,4.639,4.666,4.764,1.291,2.084,1.489,1.336,10,5.099,4.839,-10,234.185311804,norm,0,38,38,38,386.3,386.32,386.332222018,386.332,386.334,386.337,up,1,2.07681571075,7.92318428925,001,018,1920_1200,Intel(R) Core(TM) i5-3570 CPU @ 3.40GHz,orientation_search,LEPPC096,Intel(R) HD Graphics 2500,2018_Dec_02_1527,testMonitor,
194.6,181.8,176.8,170.9,36,-80,162.6,197.1,184.6,181.4,7.864,8.115,8.254,7.519,7.993,7.832,8.174,4.36,-4.394,-7.716,1.341,-1.417,8.159,4.579,-5.015,-7.891,176.6,182.3,-7.653,186.4,172.0,193.4,169.4,157.1,36,167.8,0,5,prime,10,0,91,norm,36,-4.636,down,norm,177.149809942,179.4,178.7,174.7,186.7,1,158.0,182.7,161.1,10,5,8.11,4.658,1.25,-1.102,-4.602,-8.276,180.2,5,268.1,-8.303,-8.143,-80,-7.523,-8.104,-5.288,-4.684,-4.352,-4.557,4.477,8.35,1,-1.804,1.91,4.683,7.879,-7.867,-8.495,-1.953,1.952,164.6,187.7,172.2,175.3,,173.0,174.2,186.4,165.3,179.6,4,norm,1.839,1.289,-1.504,-1.758,-5.034,-4.561,-1.791,-1.622,-1.603,-1.165,1.31,-1.844,194.4,161.9,-5.003,-7.679,1.469,-1.402,8.362,5.033,-4.974,-8.288,10,5.16,4.93,4.969,4.932,1.463,1.708,1.421,1.817,10,4.948,4.906,-10,234.185311804,norm,0,39,39,39,388.452,388.461,388.467943397,388.468,388.47,388.473,down,1,0.910478766273,9.08952123373,001,018,1920_1200,Intel(R) Core(TM) i5-3570 CPU @ 3.40GHz,orientation_search,LEPPC096,Intel(R) HD Graphics 2500,2018_Dec_02_1527,testMonitor,
211.6,205.1,210.3,214.7,36,60,201.8,,213.7,211.0,8.162,7.77,7.717,8.411,8.075,8.064,7.983,4.936,-5.01,-8.055,1.413,-1.506,7.576,4.531,-4.385,-8.185,214.8,215.0,-8.338,216.6,219.1,207.6,207.0,213.2,36,219.0,4,5,probe,5,0,118,norm,36,-4.928,down,norm,211.777743997,209.7,213.4,204.7,203.0,1,221.8,217.4,215.5,10,5,7.659,4.818,1.73,-1.776,-4.75,-7.583,216.5,2,93.8,-8.155,-7.877,-80,-7.601,-7.699,-5.217,-4.545,-4.987,-4.57,4.439,7.622,25,-1.209,1.605,4.556,7.552,-8.276,-8.217,-1.519,1.791,213.1,209.6,212.9,221.6,211.2,211.9,220.1,208.3,213.3,206.9,0,norm,1.396,2.057,-1.348,-1.75,-4.471,-4.523,-1.773,-1.167,-1.588,-1.235,1.432,-1.196,202.9,209.7,-5.168,-7.683,1.38,-1.162,8.413,5.287,-4.796,-7.564,11,4.598,5.11,5.281,5.252,1.744,1.716,1.329,1.854,11,4.867,5.203,-80,177.149809942,norm,0,40,40,40,389.403,389.414,389.41968372,389.42,389.422,389.425,down,1,0.807674568126,9.19232543187,001,018,1920_1200,Intel(R) Core(TM) i5-3570 CPU @ 3.40GHz,orientation_search,LEPPC096,Intel(R) HD Graphics 2500,2018_Dec_02_1527,testMonitor,
166.7,159.8,165.9,176.8,36,60,156.9,163.3,167.5,165.3,7.539,7.693,8.468,8.293,7.883,8.237,8.087,4.583,-4.363,-8.18,1.955,-1.945,7.973,5.145,-4.81,-7.592,173.0,169.1,-7.854,165.4,163.3,165.6,175.0,172.9,36,160.6,0,5,probe,5,0,73,norm,36,-5.269,down,norm,166.777743997,160.5,166.4,173.4,173.3,2,160.1,165.6,163.7,10,5,7.724,4.889,2.086,-1.275,-5.253,-8.196,165.8,2,93.8,-8.354,-8.109,-80,-7.581,-8.063,-4.849,-4.67,-4.492,-4.539,4.626,8.445,2,-1.588,1.303,4.891,7.929,-8.437,-7.906,-1.285,1.272,165.3,167.7,168.6,,156.8,167.5,173.4,170.6,162.5,163.9,1,norm,1.712,1.883,-1.301,-2.001,-5.163,-5.049,-1.302,-1.276,-1.2,-1.753,1.177,-1.318,170.6,158.7,-5.019,-7.838,1.366,-1.924,8.112,5.213,-4.488,-7.712,11,5.06,5.18,4.48,5.185,1.791,1.164,1.584,1.434,11,5.138,5.095,-80,177.149809942,norm,0,41,41,41,390.265,390.275,390.291836433,390.292,390.294,390.297,down,1,0.927118618487,9.07288138151,001,018,1920_1200,Intel(R) Core(TM) i5-3570 CPU @ 3.40GHz,orientation_search,LEPPC096,Intel(R) HD Graphics 2500,2018_Dec_02_1527,testMonitor,
249.1,255.5,258.1,232.7,36,80,266.9,235.1,246.3,259.4,8.238,7.628,7.573,7.671,7.5,7.766,7.532,4.683,-4.592,-8.336,1.464,-1.325,7.876,4.674,-5.006,-7.541,231.8,258.1,-7.788,250.1,246.6,231.8,246.0,249.4,36,266.9,0,5,prime,10,0,75,norm,36,-4.774,up,norm,251.781042278,249.8,245.7,237.1,248.5,5,267.0,251.8,260.5,10,6,8.459,4.335,1.564,-1.673,-4.812,-8.267,248.2,6,326.8,-8.391,-8.319,80,-8.064,-8.136,-4.49,-4.634,-4.89,-5.227,5.026,8.299,5,-1.869,1.895,4.823,8.151,-7.552,-7.503,-1.146,1.568,260.4,256.3,267.2,256.5,250.8,244.8,271.8,253.2,,256.1,0,norm,1.491,1.404,-1.909,-1.333,-4.752,-5.023,-1.693,-1.633,-1.476,-1.988,1.708,-1.906,249.9,252.0,-4.448,-8.305,1.45,-1.989,8.305,4.788,-5.095,-7.541,12,5.138,4.455,4.629,4.336,1.684,1.796,1.381,1.127,12,4.688,4.403,60,177.149809942,norm,0,42,42,42,391.255,391.264,391.274599519,391.275,391.277,391.279,up,1,1.29547706081,8.70452293919,001,018,1920_1200,Intel(R) Core(TM) i5-3570 CPU @ 3.40GHz,orientation_search,LEPPC096,Intel(R) HD Graphics 2500,2018_Dec_02_1527,testMonitor,
245.7,239.8,240.6,261.1,36,80,244.7,247.2,265.4,252.0,8.203,7.678,8.327,7.816,8.194,8.102,8.303,4.751,-4.319,-7.714,1.394,-1.151,7.753,4.419,-4.704,-8.235,241.5,240.2,-7.914,244.2,241.0,233.9,,244.6,36,248.4,5,5,prime,10,0,83,norm,36,-4.346,down,norm,251.781042278,255.1,238.0,271.8,252.4,2,246.7,242.7,245.3,10,6,8.421,4.635,1.152,-1.576,-4.563,-7.608,244.6,6,334.8,-8.468,-7.762,80,-8.249,-8.209,-5.104,-4.515,-4.822,-4.367,4.815,8.284,32,-1.991,1.127,4.311,8.448,-8.128,-7.623,-1.478,1.577,254.0,247.4,242.2,250.5,255.8,245.9,251.8,231.8,236.6,247.3,1,norm,1.731,1.393,-1.333,-1.587,-4.409,-4.368,-2.041,-1.246,-1.576,-1.47,1.107,-1.3,241.7,267.1,-5.163,-8.351,2.031,-2.068,7.793,4.463,-5.174,-8.261,12,4.768,4.747,4.57,4.748,1.543,1.592,1.83,1.925,12,4.951,4.838,60,177.149809942,norm,0,43,43,43,392.617,392.626,392.63311761,392.633,392.635,392.638,down,1,1.03170041867,8.96829958133,001,018,1920_1200,Intel(R) Core(TM) i5-3570 CPU @ 3.40GHz,orientation_search,LEPPC096,Intel(R) HD Graphics 2500,2018_Dec_02_1527,testMonitor,
249.4,247.3,263.2,238.2,36,80,254.5,233.9,246.2,243.9,8.009,7.591,7.873,7.675,7.746,7.991,7.597,4.654,-4.622,-7.542,1.132,-1.41,8.328,4.474,-5.299,-7.996,259.9,257.2,-8.051,231.8,246.5,258.1,255.1,254.7,36,251.6,1,5,prime,10,0,65,norm,36,-4.953,down,norm,251.781042278,262.8,271.8,257.3,251.9,2,253.9,253.9,250.1,10,6,8.305,4.335,1.26,-1.985,-4.626,-8.279,271.7,6,316.8,-8.11,-8.247,80,-7.877,-8.046,-4.651,-5.275,-5.094,-4.561,5.105,8.309,8,-1.333,1.38,4.709,7.524,-8.018,-7.824,-1.592,1.549,269.2,,249.6,242.8,242.6,256.1,252.3,263.6,248.5,258.3,2,norm,1.6,1.852,-1.688,-1.502,-4.413,-4.625,-1.153,-1.436,-2.05,-1.156,1.181,-1.92,252.4,259.0,-4.442,-8.347,1.678,-1.731,7.851,4.395,-4.424,-8.461,12,4.672,4.307,4.977,4.859,1.897,1.293,1.778,1.698,12,5.138,4.858,60,177.149809942,norm,0,44,44,44,393.703,393.713,393.718898303,393.719,393.721,393.723,down,1,0.723242848389,9.27675715161,001,018,1920_1200,Intel(R) Core(TM) i5-3570 CPU @ 3.40GHz,orientation_search,LEPPC096,Intel(R) HD Graphics 2500,2018_Dec_02_1527,testMonitor,
255.5,248.3,246.2,241.5,36,80,234.2,265.9,238.5,,8.279,7.81,8.332,7.556,7.539,7.573,8.36,5.074,-4.579,-7.834,1.86,-1.731,7.551,4.718,-4.724,-8.0,244.7,248.4,-7.575,264.3,269.6,261.2,255.3,238.4,36,249.0,4,5,prime,10,0,108,norm,36,-4.825,up,norm,251.781042278,234.2,252.9,240.6,270.0,5,240.1,245.9,243.6,10,6,7.871,4.722,1.542,-1.978,-4.731,-7.881,246.6,6,359.8,-7.532,-7.603,80,-8.474,-7.954,-4.557,-5.28,-4.793,-4.949,4.576,7.922,29,-1.678,1.997,5.01,8.367,-7.636,-8.297,-1.182,1.762,248.0,256.9,244.9,256.4,240.0,255.4,260.4,259.1,231.8,271.8,3,norm,1.749,1.965,-1.176,-2.089,-5.129,-4.99,-1.836,-1.988,-1.12,-2.059,1.31,-1.987,264.6,260.7,-5.274,-8.026,1.81,-1.981,7.992,5.233,-4.561,-8.002,12,4.463,4.529,4.957,5.056,2.029,1.408,1.723,1.277,12,4.951,5.224,60,177.149809942,norm,0,45,45,45,394.489,394.51,394.522002843,394.522,394.524,394.527,up,1,0.893872721401,9.1061272786,001,018,1920_1200,Intel(R) Core(TM) i5-3570 CPU @ 3.40GHz,orientation_search,LEPPC096,Intel(R) HD Graphics 2500,2018_Dec_02_1527,testMonitor,
248.7,249.2,264.6,247.6,36,80,246.8,247.6,246.3,268.3,7.857,7.962,7.789,8.481,8.209,7.748,8.441,5.187,-4.481,-7.996,1.854,-1.804,7.597,5.217,-4.996,-7.958,258.2,250.0,-8.113,247.0,248.2,246.3,252.8,257.9,36,240.5,0,5,prime,10,0,62,norm,36,-5.035,up,norm,251.781042278,262.2,254.9,259.8,253.4,5,242.3,252.5,264.6,10,6,7.796,4.504,1.463,-1.418,-4.958,-7.673,258.4,6,313.8,-8.277,-7.88,80,-8.263,-8.474,-4.659,-4.486,-4.688,-5.245,4.435,8.362,5,-1.477,2.014,5.032,7.625,-7.647,-8.088,-1.65,1.824,252.4,271.8,243.8,253.7,264.3,252.3,245.0,258.3,,252.0,4,norm,1.172,1.942,-1.112,-1.397,-5.241,-4.971,-2.061,-1.811,-1.649,-1.536,2.085,-2.056,257.2,231.8,-4.974,-7.883,1.202,-1.3,8.37,4.638,-4.458,-7.575,12,5.171,5.084,5.181,4.666,1.424,2.057,1.968,1.607,12,4.321,5.295,60,177.149809942,norm,0,46,46,46,395.44,395.45,395.456509875,395.457,395.458,395.461,up,1,1.96110193819,8.03889806181,001,018,1920_1200,Intel(R) Core(TM) i5-3570 CPU @ 3.40GHz,orientation_search,LEPPC096,Intel(R) HD Graphics 2500,2018_Dec_02_1527,testMonitor,
240.7,257.3,264.5,242.1,36,80,250.2,265.5,249.6,246.4,7.572,8.334,7.814,8.323,7.531,7.577,7.547,4.31,-4.825,-8.185,2.086,-1.484,7.861,4.568,-5.149,-7.872,268.1,246.9,-7.741,249.8,244.9,263.3,255.3,252.7,36,251.6,0,5,prime,10,0,111,norm,36,-5.179,down,norm,251.781042278,248.6,239.2,257.7,257.0,2,238.9,260.5,257.6,10,6,7.557,4.651,1.294,-1.719,-5.246,-8.411,271.8,6,362.8,-8.158,-8.499,80,-7.868,-8.259,-4.72,-4.587,-5.131,-5.079,5.119,8.096,2,-1.323,1.226,5.066,7.719,-8.401,-7.5,-1.867,1.254,251.4,247.7,246.7,,256.4,264.3,246.0,250.3,252.6,264.0,5,norm,1.488,1.32,-1.21,-1.534,-4.952,-4.692,-1.696,-1.825,-1.418,-1.54,1.841,-1.265,248.1,231.8,-4.754,-7.581,2.0,-1.963,7.822,4.938,-4.406,-7.892,12,4.811,4.689,4.472,4.714,1.626,2.096,1.36,1.779,12,5.21,4.919,60,177.149809942,norm,0,47,47,47,397.456,397.471,397.488636508,397.489,397.491,397.494,down,1,1.98888342203,8.01111657797,001,018,1920_1200,Intel(R) Core(TM) i5-3570 CPU @ 3.40GHz,orientation_search,LEPPC096,Intel(R) HD Graphics 2500,2018_Dec_02_1527,testMonitor,
441.6,442.0,434.9,439.2,36,-60,445.8,436.9,448.6,432.0,8.148,7.71,7.587,8.151,8.387,7.684,8.058,4.813,-5.03,-8.165,1.789,-1.714,8.43,5.216,-4.499,-8.298,430.1,443.3,-8.276,446.1,436.7,440.1,434.3,437.5,36,440.0,2,5,probe,5,0,108,norm,36,-4.911,up,norm,440.075436702,,433.1,447.6,438.0,5,446.7,445.0,443.4,10,6,8.074,4.397,1.782,-1.777,-5.076,-7.892,430.2,2,332.1,-8.279,-7.699,80,-7.854,-8.075,-4.484,-4.456,-5.175,-4.975,4.865,8.235,17,-1.2,1.733,5.151,8.301,-7.843,-7.605,-1.526,1.266,437.6,450.1,446.5,434.9,441.1,446.3,435.9,440.0,439.5,445.2,0,norm,1.481,1.942,-1.532,-1.827,-5.199,-4.321,-1.935,-1.498,-1.663,-1.687,1.261,-1.66,436.6,445.2,-4.752,-8.441,1.998,-1.618,8.385,4.872,-4.741,-7.604,13,5.236,5.066,5.24,5.196,1.438,1.83,1.46,1.129,13,5.209,4.974,80,251.781042278,norm,0,48,48,48,399.516,399.525,399.542395612,399.543,399.544,399.547,up,1,0.771917268608,9.22808273139,001,018,1920_1200,Intel(R) Core(TM) i5-3570 CPU @ 3.40GHz,orientation_search,LEPPC096,Intel(R) HD Graphics 2500,2018_Dec_02_1527,testMonitor,
423.3,408.0,407.2,417.4,36,-60,412.7,404.1,406.6,415.7,7.519,8.383,7.921,7.872,7.54,7.601,8.273,4.964,-5.058,-8.219,1.858,-1.804,7.514,4.923,-5.291,-8.184,417.5,416.8,-7.616,411.1,412.1,413.3,412.6,410.3,36,418.0,1,5,probe,5,0,82,norm,36,-4.774,down,norm,414.075436702,413.0,414.3,422.4,405.4,0,424.1,410.8,411.2,10,6,7.95,4.566,1.901,-1.798,-5.218,-8.048,414.2,2,332.1,-7.791,-7.925,80,-7.676,-7.845,-4.714,-4.782,-4.433,-4.631,5.082,7.94,6,-2.005,1.324,4.49,8.426,-7.73,-7.811,-1.183,2.008,406.9,413.2,410.3,414.8,408.0,412.2,409.7,,407.4,422.8,1,norm,1.849,1.524,-1.545,-1.838,-5.066,-5.092,-1.602,-1.729,-1.659,-1.726,2.05,-1.844,418.0,412.3,-4.363,-8.452,1.735,-1.211,7.901,5.143,-4.61,-8.463,13,4.874,4.815,4.602,4.89,1.573,1.533,1.83,1.934,13,4.769,4.387,80,251.781042278,norm,0,49,49,49,400.352,400.362,400.369088621,400.369,400.371,400.374,down,1,0.719811101486,9.28018889851,001,018,1920_1200,Intel(R) Core(TM) i5-3570 CPU @ 3.40GHz,orientation_search,LEPPC096,Intel(R) HD Graphics 2500,2018_Dec_02_1527,testMonitor,
112.2,119.5,127.0,129.7,36,20,136.4,134.6,128.3,136.8,7.707,8.065,7.503,7.639,7.867,8.477,8.489,5.012,-4.838,-7.91,1.737,-1.693,7.718,4.554,-4.739,-8.305,128.9,123.1,-8.184,119.3,136.5,122.0,147.3,118.4,36,130.6,0,5,prime,10,0,62,norm,36,-5.239,up,norm,127.264270351,136.8,128.8,140.3,119.6,4,120.2,117.5,134.9,10,6,7.581,4.703,1.223,-1.675,-4.582,-7.647,121.5,6,189.3,-8.223,-7.944,20,-8.391,-7.685,-4.455,-4.323,-4.601,-4.643,4.637,7.769,4,-1.634,1.74,4.914,8.418,-8.339,-8.115,-1.703,1.345,136.9,126.0,129.6,136.2,107.3,139.6,134.8,135.4,136.9,,0,norm,1.657,1.515,-1.96,-1.315,-4.314,-5.04,-1.811,-1.522,-1.9,-1.924,1.363,-1.203,130.0,120.4,-5.26,-7.888,1.865,-1.417,8.254,4.556,-5.146,-7.6,14,4.99,5.035,5.13,5.02,1.142,1.866,1.205,1.176,14,5.261,4.933,-60,251.781042278,norm,0,50,50,50,401.134,401.143,401.150335508,401.151,401.152,401.155,up,1,1.45303224677,8.54696775323,001,018,1920_1200,Intel(R) Core(TM) i5-3570 CPU @ 3.40GHz,orientation_search,LEPPC096,Intel(R) HD Graphics 2500,2018_Dec_02_1527,testMonitor,
128.7,128.7,,114.9,36,20,124.2,134.7,128.4,135.5,8.325,7.683,7.626,8.059,8.225,7.971,7.683,4.513,-4.402,-7.784,2.005,-1.744,7.695,4.667,-4.368,-8.084,123.2,122.3,-7.64,113.2,107.3,147.3,111.5,131.1,36,134.5,3,5,prime,10,0,96,norm,36,-4.812,down,norm,127.264270351,125.4,139.6,140.7,131.2,2,144.7,124.3,136.5,10,6,7.642,5.257,1.478,-1.556,-4.354,-8.138,130.6,6,223.3,-7.699,-7.968,20,-8.133,-8.452,-4.805,-5.158,-4.596,-4.602,4.796,7.804,20,-1.454,1.606,4.661,8.295,-7.916,-8.444,-1.553,1.5,129.4,116.1,146.8,119.9,124.9,122.9,139.3,119.9,126.2,146.0,1,norm,1.924,1.158,-1.624,-1.721,-5.298,-4.645,-1.412,-1.399,-1.726,-1.626,1.643,-1.413,125.8,123.0,-4.681,-7.547,1.137,-2.031,7.883,5.059,-4.754,-8.438,14,5.243,4.366,4.504,4.53,1.548,1.495,2.0,1.548,14,4.746,4.646,-60,251.781042278,norm,0,51,51,51,402.641,402.652,402.657365322,402.658,402.66,402.663,down,1,0.914463202824,9.08553679718,001,018,1920_1200,Intel(R) Core(TM) i5-3570 CPU @ 3.40GHz,orientation_search,LEPPC096,Intel(R) HD Graphics 2500,2018_Dec_02_1527,testMonitor,
108.9,118.2,113.9,121.8,36,20,112.8,135.9,120.2,120.3,7.828,8.167,8.354,8.091,7.536,8.358,7.603,4.44,-5.0,-7.805,1.321,-1.205,7.798,5.073,-5.285,-7.576,130.0,124.2,-8.229,147.3,133.0,131.9,125.6,114.2,36,,4,5,prime,10,0,94,norm,36,-4.902,up,norm,127.264270351,107.3,126.5,138.6,131.6,3,119.4,146.1,125.7,10,6,8.166,5.24,1.22,-1.863,-5.152,-7.867,130.4,6,221.3,-8.457,-7.843,20,-7.959,-7.523,-5.17,-5.187,-5.094,-4.621,4.414,8.129,27,-2.034,1.171,4.928,7.502,-8.409,-8.26,-1.778,1.763,134.2,129.9,126.0,133.0,118.3,121.0,138.7,115.3,120.8,125.0,2,norm,1.26,2.04,-1.343,-1.83,-5.0,-5.191,-1.292,-1.549,-1.937,-1.784,1.638,-1.977,140.3,111.9,-4.814,-8.153,1.715,-1.565,7.501,5.093,-5.192,-8.192,14,5.284,5.131,5.249,5.006,1.992,1.462,1.196,1.845,14,4.474,4.437,-60,251.781042278,norm,0,52,52,52,403.615,403.627,403.647744417,403.648,403.65,403.654,up,1,1.04425229935,8.95574770065,001,018,1920_1200,Intel(R) Core(TM) i5-3570 CPU @ 3.40GHz,orientation_search,LEPPC096,Intel(R) HD Graphics 2500,2018_Dec_02_1527,testMonitor,
134.2,136.5,139.9,135.5,36,20,125.6,120.8,131.4,145.9,8.223,7.911,8.412,8.285,7.558,8.285,7.863,4.961,-4.364,-8.185,1.396,-1.676,8.241,4.609,-5.233,-8.264,124.6,120.5,-8.262,122.1,147.3,107.3,134.7,128.2,36,126.9,0,5,prime,10,0,74,norm,36,-5.031,down,norm,127.264270351,113.3,139.0,132.6,129.2,1,131.4,127.4,123.1,10,6,7.688,4.375,1.56,-1.221,-5.218,-7.886,120.3,6,201.3,-7.617,-7.874,20,-8.02,-7.541,-4.436,-5.127,-4.929,-4.52,4.931,7.655,1,-1.658,2.094,5.031,8.17,-8.123,-7.633,-2.001,1.84,138.4,128.7,112.5,139.9,,128.4,123.9,112.7,137.8,119.9,3,norm,2.036,2.048,-1.659,-1.307,-4.636,-5.223,-1.579,-2.056,-1.596,-1.426,1.242,-1.272,128.6,128.2,-4.457,-7.733,1.953,-1.341,7.556,4.373,-5.042,-7.589,14,5.02,5.126,4.875,5.061,1.455,1.977,1.554,2.013,14,4.433,4.997,-60,251.781042278,norm,0,53,53,53,404.738,404.747,404.755930623,404.756,404.758,404.761,down,1,0.719173893489,9.28082610651,001,018,1920_1200,Intel(R) Core(TM) i5-3570 CPU @ 3.40GHz,orientation_search,LEPPC096,Intel(R) HD Graphics 2500,2018_Dec_02_1527,testMonitor,
125.0,122.1,147.3,132.7,36,20,107.3,120.9,124.2,147.1,8.467,8.072,8.191,7.715,8.105,8.112,8.415,4.351,-4.605,-7.831,1.707,-1.152,8.122,5.292,-5.19,-7.625,112.5,134.2,-7.875,125.6,,125.1,133.9,123.5,36,113.6,5,5,prime,10,0,107,norm,36,-4.958,down,norm,127.264270351,146.4,132.4,113.0,118.2,0,135.5,122.8,130.4,10,6,7.847,5.159,1.463,-1.873,-4.956,-7.715,125.3,6,234.3,-8.151,-7.558,20,-7.814,-8.426,-4.919,-4.927,-4.538,-5.238,5.061,7.985,30,-2.093,1.488,4.33,7.633,-7.544,-7.739,-1.967,1.925,133.0,118.6,133.9,139.7,107.5,135.2,140.6,116.0,133.5,114.5,4,norm,1.675,1.232,-1.432,-1.661,-4.633,-4.603,-1.186,-1.729,-1.405,-1.704,1.822,-1.347,132.7,136.3,-5.259,-8.003,1.904,-1.679,7.569,4.469,-4.363,-8.205,14,5.174,4.942,4.55,4.306,1.672,1.482,1.831,1.302,14,4.446,5.11,-60,251.781042278,norm,0,54,54,54,405.518,405.527,405.533842959,405.534,405.536,405.539,down,1,0.672992160924,9.32700783908,001,018,1920_1200,Intel(R) Core(TM) i5-3570 CPU @ 3.40GHz,orientation_search,LEPPC096,Intel(R) HD Graphics 2500,2018_Dec_02_1527,testMonitor,
130.2,133.8,145.8,118.1,36,20,135.1,127.9,125.0,120.2,8.414,8.405,8.19,8.412,7.884,8.109,7.908,4.638,-4.898,-8.44,1.679,-2.028,8.426,5.296,-4.502,-8.296,135.8,119.5,-8.222,,119.0,147.3,124.8,137.4,36,131.4,5,5,prime,10,0,107,norm,36,-4.515,down,norm,127.264270351,132.8,120.0,137.1,119.5,1,142.7,120.5,125.8,10,6,8.167,4.724,1.281,-1.817,-5.128,-8.249,125.4,6,234.3,-8.159,-8.354,20,-8.445,-7.672,-4.749,-4.421,-4.71,-5.231,4.49,8.379,31,-1.215,1.695,4.37,8.456,-8.084,-7.975,-1.438,2.006,125.1,131.7,126.8,134.7,112.5,118.0,124.8,127.5,135.4,123.1,5,norm,1.679,1.911,-1.272,-1.357,-5.157,-4.568,-1.49,-2.06,-2.021,-1.145,1.709,-1.747,107.3,116.2,-4.742,-8.123,1.389,-1.271,8.271,5.006,-4.536,-7.547,14,4.764,4.987,4.427,4.873,2.07,1.194,1.765,1.728,14,5.211,4.67,-60,251.781042278,norm,0,55,55,55,406.245,406.255,406.260868607,406.261,406.263,406.266,down,1,1.80216699015,8.19783300985,001,018,1920_1200,Intel(R) Core(TM) i5-3570 CPU @ 3.40GHz,orientation_search,LEPPC096,Intel(R) HD Graphics 2500,2018_Dec_02_1527,testMonitor,
225.9,238.1,243.2,237.5,36,80,241.1,233.3,232.3,232.2,8.393,7.604,8.004,8.152,7.961,8.121,8.271,4.949,-4.383,-8.465,1.641,-1.278,8.213,4.697,-4.545,-8.44,236.2,235.9,-7.536,228.7,229.6,232.9,239.5,237.2,36,236.3,0,5,probe,5,0,87,norm,36,-4.862,down,norm,235.893211757,233.9,232.1,236.7,240.5,1,233.5,234.9,240.8,10,6,7.532,5.138,1.214,-1.815,-4.502,-8.005,236.2,1,148.9,-8.068,-7.812,20,-7.837,-7.586,-4.48,-4.661,-5.24,-5.01,4.443,7.739,1,-1.157,1.699,4.543,8.375,-8.218,-7.75,-1.899,2.017,231.1,239.3,228.3,245.9,,236.8,238.8,238.7,235.8,236.2,0,norm,1.945,1.352,-1.786,-1.361,-4.515,-4.553,-1.321,-2.054,-1.197,-2.015,1.245,-1.323,239.8,242.7,-4.832,-8.303,2.078,-1.59,8.11,4.877,-4.637,-7.764,15,5.183,4.929,4.866,4.822,1.367,2.082,1.141,1.697,15,4.42,5.018,20,127.264270351,norm,0,56,56,56,408.101,408.112,408.122102454,408.122,408.124,408.127,down,1,0.655461847511,9.34453815249,001,018,1920_1200,Intel(R) Core(TM) i5-3570 CPU @ 3.40GHz,orientation_search,LEPPC096,Intel(R) HD Graphics 2500,2018_Dec_02_1527,testMonitor,
192.0,188.2,187.8,198.4,36,60,189.4,204.2,191.5,208.4,8.249,8.014,8.072,8.152,7.857,7.633,7.665,4.518,-5.191,-7.81,1.391,-1.77,7.613,4.452,-4.946,-8.29,177.6,190.9,-7.767,201.5,202.2,190.9,194.3,202.9,36,208.2,2,5,prime,10,0,103,norm,36,-5.101,up,norm,197.592412606,179.5,,204.1,193.7,4,184.1,209.4,217.6,10,6,7.994,4.504,1.923,-1.261,-5.093,-8.31,196.0,6,300.6,-8.244,-7.733,60,-7.883,-8.245,-4.381,-4.693,-5.227,-5.129,5.264,7.828,16,-2.059,1.637,4.641,7.738,-8.075,-7.846,-1.432,1.406,204.1,196.3,195.5,179.7,196.8,191.6,199.0,196.8,191.9,213.0,0,norm,1.344,1.983,-1.727,-1.934,-5.286,-4.861,-1.649,-1.484,-1.285,-1.519,1.205,-2.092,198.6,207.0,-4.771,-7.951,1.194,-1.843,7.612,4.955,-5.247,-7.94,16,4.781,5.085,4.391,4.626,1.378,1.335,1.443,1.934,16,4.62,4.559,80,127.264270351,norm,0,57,57,57,408.825,408.835,408.841013737,408.841,408.843,408.846,up,1,1.23789470825,8.76210529175,001,018,1920_1200,Intel(R) Core(TM) i5-3570 CPU @ 3.40GHz,orientation_search,LEPPC096,Intel(R) HD Graphics 2500,2018_Dec_02_1527,testMonitor,
177.6,204.1,205.6,202.1,36,60,191.5,214.2,211.6,214.1,7.649,7.908,7.963,8.388,8.344,7.96,7.86,5.243,-4.832,-7.968,1.514,-2.082,8.023,4.648,-4.325,-7.91,200.8,199.9,-8.296,191.4,193.0,190.0,197.0,206.6,36,188.6,3,5,prime,10,0,110,norm,36,-4.589,down,norm,197.592412606,209.5,197.9,186.1,180.0,0,217.6,192.0,197.3,10,6,8.062,4.678,1.837,-1.829,-5.171,-8.33,184.4,6,307.6,-8.259,-7.569,60,-8.363,-8.385,-4.31,-5.288,-4.386,-4.778,4.885,7.872,18,-1.435,1.6,4.601,7.505,-8.416,-7.804,-1.816,1.693,212.5,195.1,181.1,194.7,201.0,197.0,190.6,215.1,211.4,198.2,1,norm,1.732,1.818,-1.791,-1.425,-4.805,-4.504,-1.442,-1.187,-1.815,-1.451,2.057,-1.769,196.9,,-4.522,-8.407,1.456,-1.436,7.971,4.691,-4.674,-7.919,16,5.121,4.529,4.996,4.439,1.192,1.682,1.425,2.089,16,4.894,4.787,80,127.264270351,norm,0,58,58,58,410.12,410.131,410.135744622,410.136,410.138,410.141,down,1,0.686089788673,9.31391021133,001,018,1920_1200,Intel(R) Core(TM) i5-3570 CPU @ 3.40GHz,orientation_search,LEPPC096,Intel(R) HD Graphics 2500,2018_Dec_02_1527,testMonitor,
193.8,206.2,190.3,182.4,36,60,199.1,194.0,204.3,195.5,8.376,8.038,7.845,7.805,8.115,8.463,8.262,4.301,-5.015,-7.709,1.765,-1.37,7.547,5.107,-5.224,-8.434,,208.9,-8.024,197.3,199.5,210.0,196.8,183.4,36,192.1,5,5,prime,10,0,80,norm,36,-4.617,up,norm,197.592412606,188.2,210.6,192.7,190.8,5,204.8,205.5,203.5,10,6,8.298,4.665,1.406,-1.953,-4.966,-7.83,211.0,6,277.6,-8.02,-7.777,60,-8.372,-7.564,-4.887,-4.326,-4.752,-5.138,5.087,7.559,35,-1.983,1.19,4.736,7.897,-7.78,-8.1,-1.824,1.41,198.1,195.2,210.9,206.3,177.6,217.6,208.1,214.6,205.3,213.7,2,norm,1.871,1.907,-2.022,-1.658,-5.289,-5.142,-1.177,-1.403,-1.561,-1.227,1.764,-1.319,193.6,206.0,-4.947,-8.436,1.33,-1.672,7.863,5.01,-5.257,-8.196,16,4.437,4.419,5.001,4.475,1.187,1.309,1.406,1.957,16,4.96,5.272,80,127.264270351,norm,0,59,59,59,410.869,410.889,410.901519821,410.902,410.904,410.907,up,1,0.769113674163,9.23088632584,001,018,1920_1200,Intel(R) Core(TM) i5-3570 CPU @ 3.40GHz,orientation_search,LEPPC096,Intel(R) HD Graphics 2500,2018_Dec_02_1527,testMonitor,
181.8,209.6,198.5,213.6,36,60,199.3,211.9,193.8,185.6,8.084,8.106,8.332,8.218,7.8,7.643,8.43,4.338,-5.229,-7.787,1.258,-1.105,7.583,5.143,-5.292,-7.596,,191.0,-7.579,194.1,177.6,205.1,195.6,194.9,36,197.7,5,5,prime,10,0,73,norm,36,-4.424,up,norm,197.592412606,208.0,184.6,206.3,198.2,5,196.7,193.8,200.5,10,6,8.233,5.022,1.585,-1.113,-5.135,-8.48,217.0,6,270.6,-7.533,-7.965,60,-8.181,-8.102,-4.819,-4.593,-4.342,-4.774,4.925,7.719,35,-1.402,1.106,4.633,7.676,-7.915,-7.504,-1.423,1.86,189.7,193.4,195.8,196.7,200.6,203.6,217.6,195.6,200.8,196.7,3,norm,1.327,2.052,-2.086,-1.667,-5.1,-4.766,-2.053,-1.265,-1.247,-1.561,1.856,-1.152,213.3,197.0,-4.916,-7.705,1.655,-1.981,8.227,4.575,-4.972,-8.184,16,5.3,4.368,5.263,4.882,1.69,1.295,1.992,2.03,16,4.617,4.829,80,127.264270351,norm,0,60,60,60,411.695,411.705,411.711292255,411.711,411.713,411.716,up,1,1.37902103601,8.62097896399,001,018,1920_1200,Intel(R) Core(TM) i5-3570 CPU @ 3.40GHz,orientation_search,LEPPC096,Intel(R) HD Graphics 2500,2018_Dec_02_1527,testMonitor,
182.4,199.3,210.7,195.1,36,60,197.9,191.6,203.4,196.7,7.755,8.32,8.107,7.746,8.246,7.832,8.41,5.249,-4.809,-8.139,1.706,-1.251,8.344,4.587,-4.366,-7.502,203.1,192.9,-7.546,195.6,195.4,203.1,210.6,193.9,36,198.0,2,5,prime,10,0,87,norm,36,-5.206,down,norm,197.592412606,189.7,194.0,196.0,181.3,1,201.9,,193.4,10,6,7.671,4.915,1.594,-1.351,-4.655,-7.987,192.4,6,284.6,-8.379,-7.897,60,-7.694,-8.307,-4.477,-5.118,-4.328,-5.128,4.437,7.514,13,-1.534,1.259,4.939,8.395,-7.631,-7.594,-1.247,1.618,216.6,203.1,189.3,190.3,215.5,185.7,217.6,177.6,211.2,192.3,4,norm,1.125,1.65,-1.898,-1.265,-4.422,-4.597,-1.247,-2.099,-1.595,-1.848,1.564,-1.742,206.3,207.9,-4.342,-7.954,1.931,-1.194,8.076,5.025,-4.57,-8.206,16,5.295,4.327,4.658,5.247,1.655,2.036,1.984,2.067,16,4.438,4.748,80,127.264270351,norm,0,61,61,61,413.13,413.142,413.146342619,413.147,413.148,413.151,down,1,0.761280332277,9.23871966772,001,018,1920_1200,Intel(R) Core(TM) i5-3570 CPU @ 3.40GHz,orientation_search,LEPPC096,Intel(R) HD Graphics 2500,2018_Dec_02_1527,testMonitor,
215.9,195.2,191.9,200.6,36,60,201.8,,201.5,186.7,8.218,8.147,8.146,7.658,8.022,8.096,7.841,4.788,-4.514,-7.917,1.513,-1.982,8.382,5.155,-4.744,-7.783,188.3,177.6,-8.271,192.6,200.6,196.1,196.6,197.6,36,197.7,4,5,prime,10,0,75,norm,36,-4.806,down,norm,197.592412606,196.2,217.6,207.7,201.1,1,188.7,187.9,210.7,10,6,8.279,5.187,1.931,-1.239,-4.825,-7.845,187.2,6,272.6,-7.65,-7.64,60,-7.783,-8.17,-4.575,-4.685,-5.186,-5.218,4.444,7.57,25,-1.584,1.558,4.303,7.962,-8.117,-7.57,-1.254,1.67,191.8,210.0,197.1,195.6,203.7,210.8,210.9,197.7,193.6,196.9,5,norm,1.323,1.37,-1.162,-1.369,-4.891,-4.557,-2.038,-1.636,-1.337,-1.241,1.612,-2.005,211.5,190.0,-4.678,-7.595,1.265,-1.569,8.077,5.157,-4.87,-7.959,16,4.545,4.959,4.837,5.076,1.709,1.131,1.758,1.418,16,4.838,5.046,80,127.264270351,norm,0,62,62,62,413.945,413.955,413.971996354,413.972,413.974,413.977,down,1,0.776115717696,9.2238842823,001,018,1920_1200,Intel(R) Core(TM) i5-3570 CPU @ 3.40GHz,orientation_search,LEPPC096,Intel(R) HD Graphics 2500,2018_Dec_02_1527,testMonitor,
319.6,321.9,323.3,325.5,36,40,318.6,314.0,322.9,319.9,8.032,7.513,8.312,8.449,8.122,7.509,8.017,5.112,-4.875,-7.673,1.176,-1.757,7.969,4.487,-4.979,-7.565,330.1,329.4,-7.816,327.7,327.4,314.9,320.3,329.2,36,333.2,3,5,probe,5,0,73,norm,36,-5.06,down,norm,323.204484287,320.8,323.8,326.9,329.8,1,324.6,327.2,325.1,10,6,7.735,4.7,1.52,-1.976,-4.664,-7.521,320.7,2,250.2,-8.211,-7.565,60,-7.929,-7.629,-5.232,-4.973,-4.792,-4.852,4.492,7.972,19,-1.674,1.163,4.517,7.554,-7.694,-8.449,-1.649,1.227,320.9,316.4,328.0,322.3,327.8,313.2,327.2,324.4,319.5,323.4,0,norm,1.438,1.451,-1.562,-1.585,-4.751,-5.074,-1.593,-1.488,-1.578,-2.027,1.822,-1.523,,322.6,-4.754,-8.454,1.477,-1.664,8.06,4.848,-4.394,-8.005,17,5.062,5.096,4.704,4.813,1.401,1.427,1.873,1.6,17,4.738,4.347,60,197.592412606,norm,0,63,63,63,414.787,414.799,414.829926439,414.83,414.834,414.841,down,1,0.625155076081,9.37484492392,001,018,1920_1200,Intel(R) Core(TM) i5-3570 CPU @ 3.40GHz,orientation_search,LEPPC096,Intel(R) HD Graphics 2500,2018_Dec_02_1527,testMonitor,
326.8,332.7,338.0,337.5,36,40,331.2,329.2,337.0,337.0,7.996,7.952,7.75,8.076,8.102,8.463,7.944,4.552,-4.395,-8.073,1.186,-1.863,8.211,4.409,-5.154,-7.691,332.1,330.4,-8.163,322.2,336.6,324.1,329.5,331.7,36,332.5,0,5,probe,5,0,82,norm,36,-4.673,down,norm,332.204484287,333.4,323.3,337.0,336.5,1,331.2,337.9,337.1,10,6,8.361,4.424,1.282,-1.302,-4.818,-7.508,323.8,2,250.2,-7.645,-7.851,60,-8.473,-8.023,-4.403,-4.973,-5.023,-5.259,4.809,7.667,1,-1.723,1.942,5.233,8.431,-8.424,-8.317,-1.747,1.147,325.3,342.2,331.6,328.5,,331.8,330.3,325.8,338.0,336.6,1,norm,1.968,1.584,-1.754,-1.95,-4.566,-5.198,-1.579,-1.662,-1.119,-1.443,1.961,-1.316,337.3,334.2,-4.823,-7.555,1.351,-1.299,7.698,4.665,-4.59,-8.363,17,4.802,5.211,4.548,4.94,1.128,2.028,1.744,1.318,17,4.928,4.692,60,197.592412606,norm,0,64,64,64,415.482,415.492,415.498681816,415.499,415.501,415.503,down,1,0.637618816199,9.3623811838,001,018,1920_1200,Intel(R) Core(TM) i5-3570 CPU @ 3.40GHz,orientation_search,LEPPC096,Intel(R) HD Graphics 2500,2018_Dec_02_1527,testMonitor,
136.8,158.8,139.1,156.7,36,10,154.5,151.9,144.1,140.6,7.692,8.475,8.377,8.204,7.633,7.776,7.829,4.338,-4.501,-7.689,1.164,-1.932,8.302,4.606,-4.64,-7.625,161.2,,-8.162,140.5,137.8,160.3,133.4,147.8,36,136.7,5,5,prime,10,0,98,norm,36,-4.645,up,norm,153.366525071,148.0,154.6,152.8,149.7,4,164.7,152.8,150.8,10,6,7.949,4.863,1.807,-1.59,-5.271,-8.187,139.1,6,251.4,-8.239,-7.688,10,-7.707,-8.489,-4.359,-5.184,-4.76,-4.475,5.149,8.135,34,-1.92,1.69,4.345,7.605,-7.581,-7.907,-2.058,2.094,137.5,173.4,149.3,151.2,143.8,151.2,150.5,154.9,134.7,134.5,0,norm,1.843,1.598,-1.845,-1.684,-5.044,-4.373,-1.176,-1.142,-2.059,-1.338,1.994,-1.932,135.7,161.6,-4.473,-7.954,2.077,-1.183,8.348,4.564,-5.073,-7.776,18,4.677,4.464,5.21,5.236,2.002,2.09,1.988,1.194,18,4.754,4.857,40,197.592412606,norm,0,65,65,65,416.158,444.884,444.892411761,444.893,444.894,444.897,up,1,1.81214257038,8.18785742962,001,018,1920_1200,Intel(R) Core(TM) i5-3570 CPU @ 3.40GHz,orientation_search,LEPPC096,Intel(R) HD Graphics 2500,2018_Dec_02_1527,testMonitor,
142.7,145.3,144.1,160.1,36,10,158.6,151.9,155.8,162.9,8.272,7.611,8.101,7.75,7.67,7.732,8.186,4.853,-4.57,-7.579,1.468,-1.287,8.346,4.757,-4.902,-8.266,145.5,151.6,-8.149,144.9,149.1,163.9,149.8,141.7,36,146.2,3,5,prime,10,0,61,norm,36,-4.8,down,norm,153.366525071,135.1,160.6,173.4,170.5,0,147.9,152.1,155.2,10,6,8.346,4.678,1.186,-1.57,-4.508,-7.802,151.0,6,214.4,-7.592,-8.094,10,-7.685,-8.328,-5.145,-4.918,-5.269,-5.285,5.072,7.927,18,-1.533,1.367,5.145,8.359,-7.804,-7.951,-1.128,1.495,138.9,149.7,150.6,139.6,137.8,162.6,146.1,156.9,157.6,133.4,1,norm,1.968,1.299,-1.145,-1.316,-5.29,-4.885,-1.903,-1.818,-2.061,-1.986,1.252,-1.317,157.4,,-4.947,-8.156,1.282,-1.622,8.341,4.77,-5.239,-8.146,18,5.136,4.547,4.833,4.431,1.736,1.479,1.953,2.039,18,4.7,5.028,40,197.592412606,norm,0,66,66,66,446.742,446.752,446.762256519,446.762,446.764,446.767,down,1,0.635497405588,9.36450259441,001,018,1920_1200,Intel(R) Core(TM) i5-3570 CPU @ 3.40GHz,orientation_search,LEPPC096,Intel(R) HD Graphics 2500,2018_Dec_02_1527,testMonitor,
147.8,160.7,148.9,159.1,36,10,166.7,143.2,140.2,133.5,7.503,8.303,7.981,7.585,7.758,8.015,7.58,5.194,-4.895,-8.416,1.468,-2.063,8.017,5.23,-4.78,-7.941,140.9,138.0,-8.097,149.9,133.4,152.0,169.5,157.6,36,144.6,2,5,prime,10,0,105,norm,36,-4.463,down,norm,153.366525071,134.8,154.1,150.9,149.7,1,161.7,,157.1,10,6,7.938,4.904,1.274,-1.434,-4.679,-8.003,147.4,6,258.4,-7.746,-8.348,10,-7.673,-7.519,-4.977,-5.129,-5.288,-5.201,4.564,8.156,13,-1.12,1.205,4.424,8.321,-7.876,-7.575,-2.076,1.296,143.1,159.2,149.8,163.8,172.2,159.1,142.6,152.8,173.4,151.6,2,norm,1.143,1.312,-1.803,-2.026,-4.307,-4.707,-1.788,-1.421,-1.559,-1.45,1.707,-1.123,156.0,145.4,-4.921,-7.608,1.139,-1.556,8.499,4.935,-4.597,-8.455,18,4.475,4.736,5.185,4.796,1.546,2.032,2.08,1.578,18,4.586,4.615,40,197.592412606,norm,0,67,67,67,447.436,447.447,447.479781097,447.48,447.484,447.491,down,1,1.13293710326,8.86706289674,001,018,1920_1200,Intel(R) Core(TM) i5-3570 CPU @ 3.40GHz,orientation_search,LEPPC096,Intel(R) HD Graphics 2500,2018_Dec_02_1527,testMonitor,
160.0,133.4,162.6,155.7,36,10,165.7,151.3,165.3,156.7,7.698,8.288,8.331,8.385,8.435,8.262,7.605,4.467,-4.341,-8.14,1.789,-1.669,8.448,5.255,-5.019,-7.673,146.8,173.4,-7.975,169.1,150.3,153.3,134.2,144.9,36,161.3,2,5,prime,10,0,66,norm,36,-4.697,up,norm,153.366525071,161.7,149.1,,143.4,3,149.1,146.3,162.8,10,6,7.591,5.224,1.218,-1.346,-4.658,-7.759,170.9,6,219.4,-7.731,-7.736,10,-7.699,-7.735,-4.464,-5.264,-4.43,-4.301,4.672,8.382,15,-1.327,2.064,4.526,7.895,-7.823,-7.526,-1.281,1.455,143.1,158.7,164.0,160.5,157.8,145.0,164.8,157.1,163.0,153.5,3,norm,1.136,1.27,-1.188,-1.561,-4.616,-4.569,-1.533,-1.859,-1.962,-1.772,1.11,-1.511,169.9,152.5,-5.187,-7.827,1.981,-1.84,7.981,4.688,-5.043,-8.122,18,4.521,4.474,4.537,5.052,1.834,1.132,1.281,1.803,18,4.595,4.896,40,197.592412606,norm,0,68,68,68,448.657,448.668,448.673382455,448.674,448.675,448.678,up,1,1.04061468989,8.95938531011,001,018,1920_1200,Intel(R) Core(TM) i5-3570 CPU @ 3.40GHz,orientation_search,LEPPC096,Intel(R) HD Graphics 2500,2018_Dec_02_1527,testMonitor,
162.3,154.5,148.7,146.7,36,10,152.7,150.8,152.4,157.2,8.219,8.149,8.306,7.96,7.702,8.083,8.295,5.15,-5.153,-8.202,1.462,-1.102,8.022,4.463,-4.88,-8.22,139.9,159.5,-8.153,152.5,148.6,146.1,148.2,145.0,36,150.6,2,5,prime,10,0,84,norm,36,-5.293,up,norm,153.366525071,146.1,,157.0,139.8,4,140.3,147.8,140.2,10,6,7.744,4.357,1.549,-1.506,-4.699,-7.686,147.1,6,237.4,-7.559,-7.774,10,-7.682,-7.641,-5.167,-4.418,-4.89,-4.991,4.907,8.141,16,-1.934,1.795,4.576,8.111,-7.718,-7.705,-1.733,2.091,143.6,146.1,140.6,159.7,138.2,167.2,133.4,146.5,135.3,173.4,4,norm,1.575,1.966,-1.212,-1.687,-4.572,-4.983,-1.513,-1.195,-1.811,-1.272,1.451,-1.685,160.6,136.2,-4.602,-8.141,2.062,-1.977,7.858,4.406,-4.835,-8.155,18,4.362,4.971,4.572,5.116,1.884,1.466,1.822,1.447,18,4.413,4.854,40,197.592412606,norm,0,69,69,69,449.752,449.762,449.772927867,449.773,449.775,449.778,up,1,0.770537808379,9.22946219162,001,018,1920_1200,Intel(R) Core(TM) i5-3570 CPU @ 3.40GHz,orientation_search,LEPPC096,Intel(R) HD Graphics 2500,2018_Dec_02_1527,testMonitor,
141.4,155.8,146.2,169.3,36,10,135.5,157.3,155.8,147.8,7.631,7.847,7.724,7.55,7.715,7.911,8.211,5.042,-4.668,-7.531,1.508,-1.868,8.279,5.052,-4.819,-7.857,139.7,172.7,-8.074,141.2,142.3,153.4,150.8,155.1,36,158.0,2,5,prime,10,0,75,norm,36,-4.37,up,norm,153.366525071,138.5,,154.4,156.2,4,166.5,173.4,160.9,10,6,7.93,4.832,2.044,-1.442,-4.428,-8.124,133.4,6,228.4,-8.185,-8.314,10,-8.016,-7.932,-4.806,-5.236,-4.886,-5.141,5.16,7.708,16,-1.839,1.138,4.888,7.503,-7.534,-8.482,-2.062,1.235,152.9,153.5,149.8,148.1,147.4,151.7,157.3,149.3,153.2,166.5,5,norm,1.997,1.783,-1.475,-1.567,-5.021,-5.096,-1.337,-1.544,-1.567,-1.625,1.676,-2.007,138.0,139.9,-4.767,-8.278,1.548,-1.763,7.661,4.98,-4.846,-7.907,18,4.901,4.48,4.502,4.659,1.346,1.54,1.645,2.076,18,4.878,4.792,40,197.592412606,norm,0,70,70,70,450.585,450.594,450.600909478,450.601,450.603,450.606,up,1,0.99936188645,9.00063811355,001,018,1920_1200,Intel(R) Core(TM) i5-3570 CPU @ 3.40GHz,orientation_search,LEPPC096,Intel(R) HD Graphics 2500,2018_Dec_02_1527,testMonitor,
242.2,253.8,249.0,248.9,36,-40,249.9,248.0,251.9,244.4,7.689,7.876,7.64,8.2,7.905,7.857,8.319,4.657,-5.124,-7.939,1.706,-1.548,7.821,4.357,-4.734,-8.468,258.2,250.7,-8.282,256.4,251.1,245.9,240.5,240.1,36,242.7,0,5,probe,5,0,83,norm,36,-4.683,down,norm,248.195664176,244.2,251.4,245.1,249.9,2,253.5,249.5,241.2,10,6,8.17,4.807,1.101,-1.681,-5.088,-8.207,243.2,1,165.2,-8.184,-8.089,10,-7.663,-7.979,-4.733,-4.865,-5.237,-4.845,4.347,8.035,2,-1.647,1.585,5.186,7.853,-7.637,-7.912,-1.442,1.875,247.3,243.4,258.2,,238.2,249.6,252.0,252.2,248.6,241.9,0,norm,2.023,1.798,-1.932,-1.803,-4.857,-4.446,-2.005,-2.038,-1.542,-1.393,1.368,-1.66,243.5,245.2,-4.808,-7.948,1.146,-1.617,8.49,4.383,-5.157,-7.633,19,5.012,4.595,4.897,4.833,1.139,1.999,2.017,1.343,19,4.967,4.902,10,153.366525071,norm,0,71,71,71,451.646,451.666,451.678707111,451.679,451.681,451.684,down,1,0.825490130972,9.17450986903,001,018,1920_1200,Intel(R) Core(TM) i5-3570 CPU @ 3.40GHz,orientation_search,LEPPC096,Intel(R) HD Graphics 2500,2018_Dec_02_1527,testMonitor,
144.0,179.7,161.4,176.5,36,20,162.5,147.4,179.0,164.7,8.057,8.058,7.786,8.305,7.919,7.757,8.001,5.017,-5.051,-8.316,1.59,-1.597,8.084,4.876,-5.209,-7.646,158.3,179.0,-7.724,148.7,170.8,165.4,156.1,168.6,36,184.0,2,5,prime,10,0,92,norm,36,-4.379,down,norm,163.980450788,166.6,161.1,168.9,154.7,0,173.2,164.7,,10,5,8.284,4.359,1.36,-2.043,-4.654,-8.268,167.0,5,256.0,-7.707,-8.413,20,-8.388,-7.772,-4.808,-4.878,-4.358,-4.709,5.086,7.867,12,-1.645,2.059,4.829,8.39,-7.714,-8.339,-1.848,1.134,168.0,163.8,174.7,163.6,169.3,160.5,183.9,154.1,182.7,175.4,0,norm,1.166,1.451,-1.191,-1.897,-4.706,-4.528,-1.225,-1.163,-1.714,-1.248,1.686,-1.211,165.9,164.4,-5.006,-7.66,1.995,-1.834,7.626,4.936,-4.693,-7.803,20,4.938,5.044,4.368,5.226,1.101,1.622,2.077,1.893,20,4.352,4.72,-40,153.366525071,norm,0,72,72,72,452.55,452.56,452.566559409,452.567,452.568,452.571,down,1,1.0519552415,8.9480447585,001,018,1920_1200,Intel(R) Core(TM) i5-3570 CPU @ 3.40GHz,orientation_search,LEPPC096,Intel(R) HD Graphics 2500,2018_Dec_02_1527,testMonitor,
149.2,162.1,170.3,172.2,36,20,144.0,159.3,167.4,171.7,8.079,7.928,8.277,8.272,7.586,7.918,7.814,4.95,-4.808,-7.848,2.051,-1.271,7.531,4.463,-5.263,-8.142,161.0,150.8,-8.158,154.5,157.5,161.5,174.1,164.3,36,164.2,2,5,prime,10,0,102,norm,36,-4.458,down,norm,163.980450788,151.6,168.5,179.6,153.6,1,175.1,,165.9,10,5,8.236,5.063,1.62,-1.685,-5.279,-7.661,164.2,5,266.0,-7.501,-7.779,20,-8.226,-7.903,-4.488,-4.862,-5.146,-5.197,5.288,8.358,13,-1.396,1.292,4.768,7.781,-8.358,-7.93,-1.735,1.496,175.7,170.0,149.2,158.5,162.8,184.0,154.5,151.9,163.9,163.1,1,norm,2.056,1.707,-1.926,-1.688,-5.105,-5.194,-1.945,-1.345,-1.343,-1.222,2.09,-1.178,155.0,161.4,-5.248,-8.114,1.412,-1.837,8.44,4.779,-5.053,-8.393,20,4.954,5.047,5.02,5.18,1.328,1.251,1.207,1.798,20,4.662,5.033,-40,153.366525071,norm,0,73,73,73,453.642,453.651,453.658506017,453.659,453.66,453.663,down,1,1.51679621116,8.48320378884,001,018,1920_1200,Intel(R) Core(TM) i5-3570 CPU @ 3.40GHz,orientation_search,LEPPC096,Intel(R) HD Graphics 2500,2018_Dec_02_1527,testMonitor,
176.3,172.6,162.1,165.4,36,20,168.1,165.3,168.6,169.2,8.101,7.856,7.664,7.657,7.995,8.325,7.791,4.392,-4.628,-7.592,1.264,-1.942,8.042,4.987,-4.549,-7.884,165.3,159.9,-8.073,157.3,,148.4,163.1,170.0,36,158.6,5,5,prime,10,0,90,norm,36,-5.032,down,norm,163.980450788,161.6,175.5,162.7,160.2,0,164.6,158.2,183.5,10,5,8.199,5.227,1.26,-1.977,-4.786,-8.226,157.8,5,254.0,-8.225,-8.292,20,-7.896,-8.305,-4.925,-4.893,-4.48,-5.01,4.502,8.177,30,-2.017,1.354,4.819,8.016,-8.393,-8.015,-1.583,1.829,170.2,172.9,159.3,170.1,144.0,154.1,157.5,158.7,165.6,160.1,2,norm,1.655,1.564,-1.957,-1.404,-4.939,-4.991,-1.628,-1.931,-1.617,-1.75,1.399,-2.09,184.0,171.5,-4.898,-8.335,1.195,-1.562,8.227,4.875,-4.336,-7.828,20,4.762,4.318,4.411,4.359,1.629,1.104,1.338,1.993,20,4.622,4.856,-40,153.366525071,norm,0,74,74,74,455.213,455.223,455.232682039,455.233,455.235,455.237,down,1,1.79619305199,8.20380694801,001,018,1920_1200,Intel(R) Core(TM) i5-3570 CPU @ 3.40GHz,orientation_search,LEPPC096,Intel(R) HD Graphics 2500,2018_Dec_02_1527,testMonitor,
146.5,149.3,157.3,166.7,36,20,164.4,164.7,161.8,161.9,7.852,8.399,8.107,7.674,7.67,7.745,8.093,4.79,-4.889,-7.552,1.364,-2.1,7.96,4.469,-5.05,-7.881,155.5,167.3,-7.859,148.4,158.9,163.4,170.2,165.3,36,156.8,1,5,prime,10,0,114,norm,36,-4.588,down,norm,163.980450788,158.1,144.0,169.3,176.0,0,164.7,174.4,174.6,10,5,7.785,4.845,1.642,-1.827,-4.793,-7.613,180.9,5,278.0,-8.491,-7.754,20,-7.854,-8.415,-4.604,-4.581,-5.034,-4.663,4.396,8.1,6,-1.893,1.369,4.459,8.09,-8.445,-7.96,-1.987,1.118,154.9,164.4,164.1,151.7,158.1,160.9,168.2,,184.0,167.1,3,norm,1.848,1.138,-1.487,-1.305,-5.177,-4.553,-1.111,-1.229,-1.426,-1.691,1.238,-1.749,169.9,179.3,-5.256,-7.934,1.599,-1.617,8.274,4.495,-4.649,-8.067,20,5.241,4.851,5.038,4.844,1.458,1.114,1.19,1.545,20,4.823,4.946,-40,153.366525071,norm,0,75,75,75,457.075,457.095,457.107283067,457.107,457.11,457.113,up,0,0.841231975706,-10,001,018,1920_1200,Intel(R) Core(TM) i5-3570 CPU @ 3.40GHz,orientation_search,LEPPC096,Intel(R) HD Graphics 2500,2018_Dec_02_1527,testMonitor,
158.0,163.3,184.0,162.2,36,20,157.0,171.5,159.0,174.4,8.095,8.235,8.035,7.856,8.376,7.974,8.238,4.82,-4.766,-7.557,1.482,-1.868,7.844,5.077,-5.158,-8.204,154.2,,-8.291,166.7,145.6,170.6,166.7,164.5,36,162.9,5,5,prime,10,0,63,norm,36,-4.704,up,norm,163.980450788,155.7,163.4,171.1,163.7,4,155.2,157.9,168.6,10,5,8.129,4.703,1.864,-1.474,-4.388,-8.039,163.3,5,227.0,-8.148,-8.168,20,-7.541,-8.136,-4.737,-4.362,-4.359,-4.366,5.111,7.772,34,-1.346,1.163,4.985,8.246,-8.218,-8.378,-1.506,1.872,163.0,179.1,163.6,162.2,177.6,167.5,172.6,156.9,144.0,163.1,4,norm,1.598,1.41,-1.324,-2.064,-5.156,-5.046,-1.67,-1.893,-1.363,-1.117,1.291,-1.105,154.5,170.4,-5.037,-8.125,1.203,-1.892,8.324,4.394,-5.054,-8.307,20,4.694,4.849,4.423,5.062,1.602,1.327,2.099,1.798,20,4.587,5.287,-40,153.366525071,norm,0,76,76,76,459.028,459.038,459.05469424,459.055,459.057,459.059,up,1,0.978839321559,9.02116067844,001,018,1920_1200,Intel(R) Core(TM) i5-3570 CPU @ 3.40GHz,orientation_search,LEPPC096,Intel(R) HD Graphics 2500,2018_Dec_02_1527,testMonitor,
275.3,273.7,291.6,284.8,36,-20,271.7,285.9,281.9,280.9,8.002,7.632,8.412,8.249,7.886,8.45,7.777,5.219,-4.575,-7.921,1.918,-1.643,7.61,4.307,-4.887,-7.765,281.4,279.4,-8.229,272.8,275.7,283.6,278.9,285.8,36,284.5,0,5,probe,5,0,101,norm,36,-4.609,up,norm,281.574357005,290.9,281.5,282.0,278.2,5,279.1,288.1,277.0,10,5,8.3,4.84,1.881,-1.552,-4.395,-7.764,271.6,2,180.6,-8.043,-7.64,20,-7.678,-8.2,-5.042,-4.669,-4.824,-4.5,4.593,7.841,5,-1.621,1.272,5.027,7.779,-8.146,-8.348,-1.1,1.899,281.2,285.4,284.7,280.5,277.3,277.5,282.1,275.6,,277.3,0,norm,1.477,1.957,-1.823,-1.131,-5.274,-4.733,-1.854,-1.121,-1.526,-1.759,2.06,-1.912,284.2,284.3,-4.779,-7.681,1.767,-1.16,7.571,4.474,-4.791,-8.249,21,4.677,4.559,5.088,4.674,1.439,1.599,1.325,2.065,21,4.332,4.582,20,163.980450788,norm,0,77,77,77,460.072,460.085,460.105189427,460.105,460.108,460.111,up,1,0.836211887505,9.1637881125,001,018,1920_1200,Intel(R) Core(TM) i5-3570 CPU @ 3.40GHz,orientation_search,LEPPC096,Intel(R) HD Graphics 2500,2018_Dec_02_1527,testMonitor,
263.0,264.3,271.6,260.1,36,-20,255.0,260.8,255.2,266.2,8.313,7.717,7.69,8.344,8.334,8.123,7.772,4.434,-4.345,-8.07,1.134,-1.338,7.57,4.619,-4.907,-7.614,256.5,257.5,-8.282,267.2,264.8,262.8,253.0,260.6,36,265.8,1,5,probe,5,0,81,norm,36,-4.8,down,norm,261.574357005,265.1,260.6,257.0,251.9,2,255.2,258.1,260.7,10,5,7.765,5.047,1.749,-1.212,-4.519,-7.75,262.8,2,180.6,-8.419,-8.071,20,-7.995,-8.09,-5.239,-4.367,-5.245,-4.363,5.156,7.868,8,-1.867,1.624,4.645,8.09,-7.562,-7.998,-1.981,1.518,267.0,,259.7,254.7,270.0,260.7,254.5,263.2,258.5,251.6,1,norm,1.19,1.473,-1.873,-1.269,-5.096,-5.086,-1.404,-1.55,-1.718,-1.165,1.677,-1.264,269.3,253.9,-4.868,-7.874,2.086,-1.468,8.378,4.94,-4.999,-7.603,21,4.953,5.063,5.223,4.676,1.911,1.55,1.213,1.228,21,5.265,4.937,20,163.980450788,norm,0,78,78,78,460.99,460.999,461.005807316,461.006,461.008,461.01,down,1,1.13573134031,8.86426865969,001,018,1920_1200,Intel(R) Core(TM) i5-3570 CPU @ 3.40GHz,orientation_search,LEPPC096,Intel(R) HD Graphics 2500,2018_Dec_02_1527,testMonitor,
74.3,102.0,89.9,83.9,36,10,74.9,85.1,82.2,93.4,8.342,8.188,7.721,8.36,7.665,8.148,7.695,5.267,-4.572,-7.9,1.629,-1.167,8.085,4.495,-4.881,-7.798,69.1,93.2,-8.372,81.0,83.9,85.1,71.9,89.1,36,69.4,2,5,prime,10,0,94,norm,36,-4.325,up,norm,81.9850702367,,75.1,82.0,85.3,5,81.5,90.7,80.1,10,5,8.384,5.289,1.728,-1.315,-5.095,-8.084,92.2,5,176.0,-8.463,-7.764,10,-8.315,-8.108,-5.102,-4.793,-4.837,-5.074,5.066,8.169,17,-1.639,1.503,4.551,8.188,-7.749,-7.768,-1.779,1.817,102.0,62.0,79.9,95.1,92.2,85.4,83.2,94.2,91.8,65.8,0,norm,1.606,1.203,-1.394,-1.462,-4.832,-5.051,-1.6,-1.418,-2.02,-1.473,1.451,-1.158,75.6,94.1,-5.011,-7.83,1.989,-1.317,7.595,4.856,-4.735,-7.597,22,4.393,5.261,4.912,4.549,1.844,1.153,1.465,1.51,22,5.252,4.726,-20,163.980450788,norm,0,79,79,79,462.179,462.189,462.205692311,462.206,462.208,462.21,up,1,0.76050548011,9.23949451989,001,018,1920_1200,Intel(R) Core(TM) i5-3570 CPU @ 3.40GHz,orientation_search,LEPPC096,Intel(R) HD Graphics 2500,2018_Dec_02_1527,testMonitor,
84.0,86.2,79.7,89.2,36,10,92.3,81.5,,83.2,8.185,7.512,8.092,7.855,8.038,7.624,8.389,5.045,-4.513,-7.569,1.271,-1.761,7.892,5.005,-4.515,-8.382,82.7,70.2,-8.126,88.1,94.3,76.5,81.3,76.4,36,62.0,4,5,prime,10,0,69,norm,36,-4.322,up,norm,81.9850702367,80.7,66.7,69.5,81.4,4,84.6,92.9,78.0,10,5,8.217,4.367,1.676,-1.648,-5.196,-7.95,99.1,5,151.0,-8.088,-8.475,10,-7.611,-8.232,-4.963,-4.797,-4.336,-4.828,4.798,8.274,28,-1.427,1.416,5.27,8.162,-7.832,-8.473,-1.396,1.81,86.6,87.6,77.3,73.2,67.5,94.4,88.5,75.5,79.3,75.4,1,norm,1.819,2.036,-1.554,-1.995,-4.71,-5.178,-1.885,-1.898,-1.585,-1.126,1.583,-1.181,85.9,70.5,-4.435,-8.3,1.589,-1.816,7.811,4.4,-5.238,-8.363,22,4.794,5.222,4.874,5.208,1.994,1.294,1.168,1.958,22,5.065,4.518,-20,163.980450788,norm,0,80,80,80,462.988,462.999,463.003934631,463.004,463.006,463.01,up,1,1.65614101283,8.34385898717,001,018,1920_1200,Intel(R) Core(TM) i5-3570 CPU @ 3.40GHz,orientation_search,LEPPC096,Intel(R) HD Graphics 2500,2018_Dec_02_1527,testMonitor,
80.4,86.6,94.9,79.4,36,10,92.7,81.5,90.2,92.0,8.154,7.907,7.619,8.084,7.749,7.567,7.531,4.413,-5.243,-7.502,1.124,-1.758,7.806,4.356,-4.809,-8.399,81.0,64.9,-8.193,102.0,79.2,77.3,68.4,84.1,36,68.3,2,5,prime,10,0,89,norm,36,-5.3,down,norm,81.9850702367,88.4,78.0,68.5,,2,87.3,81.4,80.4,10,5,8.271,5.166,1.988,-1.414,-5.123,-8.097,86.7,5,171.0,-8.277,-8.161,10,-8.371,-7.665,-5.001,-4.979,-4.61,-4.422,4.627,7.917,14,-1.355,1.549,4.381,8.295,-7.914,-8.35,-1.546,1.73,66.8,79.7,62.5,72.0,71.7,77.8,74.0,91.0,62.0,90.0,2,norm,1.828,1.448,-1.378,-1.608,-4.693,-5.007,-1.658,-1.598,-1.679,-1.69,1.914,-1.363,88.6,90.1,-4.966,-8.394,1.37,-1.461,8.259,5.233,-5.218,-8.001,22,4.452,4.978,4.634,4.404,1.495,2.061,1.612,1.936,22,5.281,5.086,-20,163.980450788,norm,0,81,81,81,464.702,464.712,464.718491106,464.719,464.72,464.723,down,1,0.704215352758,9.29578464724,001,018,1920_1200,Intel(R) Core(TM) i5-3570 CPU @ 3.40GHz,orientation_search,LEPPC096,Intel(R) HD Graphics 2500,2018_Dec_02_1527,testMonitor,
91.2,90.1,74.8,77.4,36,10,97.5,72.5,69.2,82.9,8.438,7.985,8.09,8.058,7.538,8.0,8.291,5.202,-4.399,-8.067,1.955,-2.068,8.301,4.816,-4.417,-8.068,66.4,92.9,-8.09,90.2,81.3,81.4,90.9,96.7,36,102.0,0,5,prime,10,0,86,norm,36,-4.563,down,norm,81.9850702367,92.6,82.1,62.0,79.6,2,81.4,79.4,96.1,10,5,7.554,5.205,1.168,-1.429,-4.544,-8.387,89.1,5,168.0,-8.304,-8.046,10,-8.147,-7.584,-5.107,-5.123,-4.569,-5.293,4.423,7.769,2,-2.096,1.234,5.157,7.618,-7.829,-7.958,-1.379,1.506,82.1,77.7,73.7,,80.5,90.4,94.5,86.2,98.3,88.3,3,norm,1.749,1.327,-1.646,-2.069,-4.761,-4.788,-1.385,-1.8,-2.065,-1.692,1.903,-1.992,90.5,83.5,-4.741,-8.014,1.264,-1.129,8.193,4.359,-4.576,-8.37,22,5.24,4.639,4.805,5.157,1.824,1.519,2.041,1.734,22,5.293,5.26,-20,163.980450788,norm,0,82,82,82,465.461,465.471,465.481660122,465.482,465.484,465.486,down,1,1.64268810615,8.35731189385,001,018,1920_1200,Intel(R) Core(TM) i5-3570 CPU @ 3.40GHz,orientation_search,LEPPC096,Intel(R) HD Graphics 2500,2018_Dec_02_1527,testMonitor,
102.0,82.9,80.5,88.7,36,10,93.8,95.8,91.4,79.1,8.419,7.545,7.619,8.309,7.707,8.172,7.953,4.579,-5.295,-7.851,1.506,-1.927,7.625,4.931,-4.925,-8.191,67.5,79.8,-8.246,76.8,76.5,62.7,86.1,,36,84.3,4,5,prime,10,0,64,norm,36,-5.18,down,norm,81.9850702367,73.4,76.5,73.7,87.7,2,62.0,83.6,79.5,10,5,7.727,4.833,2.082,-1.558,-4.791,-7.683,77.8,5,146.0,-8.303,-7.82,10,-8.18,-8.404,-4.951,-4.754,-4.793,-4.849,5.187,7.969,26,-1.217,1.173,5.089,8.435,-7.877,-7.623,-1.667,1.473,80.4,73.1,74.7,73.7,81.9,80.9,84.2,93.9,76.7,72.2,4,norm,1.978,1.705,-1.974,-1.23,-5.122,-5.197,-2.048,-1.668,-1.941,-1.909,1.344,-2.089,82.3,88.3,-4.562,-8.209,1.611,-1.648,7.945,4.396,-4.585,-8.419,22,4.548,5.23,5.241,4.466,1.802,1.25,1.534,1.316,22,4.662,5.091,-20,163.980450788,norm,0,83,83,83,467.167,467.177,467.183268989,467.183,467.185,467.188,down,1,1.34689379967,8.65310620033,001,018,1920_1200,Intel(R) Core(TM) i5-3570 CPU @ 3.40GHz,orientation_search,LEPPC096,Intel(R) HD Graphics 2500,2018_Dec_02_1527,testMonitor,
199.3,197.0,196.7,197.8,36,40,195.0,193.9,197.1,198.7,7.689,7.951,7.782,7.779,7.515,8.253,8.443,4.822,-5.111,-7.814,1.12,-1.379,8.497,5.225,-4.498,-7.931,200.1,189.0,-7.938,195.7,199.4,198.3,189.7,191.1,36,197.8,1,5,probe,5,0,109,norm,36,-4.369,down,norm,196.784939358,196.0,206.0,197.7,194.1,1,193.7,197.9,186.8,10,5,8.247,4.451,1.224,-1.381,-4.78,-8.348,196.5,2,87.8,-7.811,-7.97,10,-7.797,-7.91,-4.401,-4.78,-4.978,-4.768,4.465,8.424,7,-1.338,1.361,5.12,8.313,-8.119,-8.244,-1.482,1.579,206.8,198.1,200.0,195.2,199.2,200.0,,198.2,194.7,196.4,0,norm,2.048,2.074,-1.469,-1.921,-4.609,-5.064,-1.509,-1.144,-1.132,-1.206,1.329,-1.706,194.4,196.4,-5.177,-8.472,1.879,-1.727,7.601,4.837,-4.537,-7.605,23,4.674,4.64,4.408,4.717,1.851,1.274,1.304,1.352,23,4.979,4.928,10,81.9850702367,norm,0,84,84,84,468.552,468.561,468.570279122,468.57,468.572,468.575,down,1,0.861602709416,9.13839729058,001,018,1920_1200,Intel(R) Core(TM) i5-3570 CPU @ 3.40GHz,orientation_search,LEPPC096,Intel(R) HD Graphics 2500,2018_Dec_02_1527,testMonitor,
194.1,203.4,201.8,196.7,36,40,200.9,197.0,203.3,194.7,7.904,7.734,8.357,7.752,7.523,7.758,7.888,4.685,-5.15,-8.176,1.135,-1.115,7.853,4.506,-4.639,-8.031,190.4,194.4,-8.155,192.5,204.5,198.2,193.9,199.2,36,203.2,1,5,probe,5,0,111,norm,36,-5.12,up,norm,198.784939358,199.0,191.7,201.0,201.4,3,198.1,199.9,196.6,10,5,7.775,4.716,1.631,-1.272,-4.438,-8.246,198.0,2,87.8,-7.832,-8.131,10,-7.884,-7.599,-4.563,-4.855,-4.423,-4.604,5.293,8.119,9,-1.241,1.586,4.409,8.144,-7.51,-7.851,-1.505,1.466,,208.8,196.1,196.8,191.9,198.1,193.4,188.8,199.4,195.1,1,norm,1.359,1.471,-1.926,-1.504,-5.3,-4.781,-1.979,-1.884,-1.207,-1.801,1.949,-1.859,198.3,196.9,-4.539,-7.913,1.638,-1.305,7.907,4.741,-5.031,-7.886,23,4.303,4.723,4.761,4.558,1.126,1.458,1.732,1.22,23,4.715,4.561,10,81.9850702367,norm,0,85,85,85,469.476,469.486,469.491967436,469.492,469.494,469.497,up,1,0.810649614083,9.18935038592,001,018,1920_1200,Intel(R) Core(TM) i5-3570 CPU @ 3.40GHz,orientation_search,LEPPC096,Intel(R) HD Graphics 2500,2018_Dec_02_1527,testMonitor,
171.9,196.7,171.2,201.9,36,-20,186.0,181.4,205.1,192.3,8.133,7.968,7.808,7.643,7.881,7.693,8.479,4.415,-4.722,-8.121,1.553,-1.381,8.22,4.953,-5.196,-7.533,195.5,197.0,-7.76,201.5,192.4,191.3,211.2,195.8,36,191.9,0,5,prime,10,0,72,norm,36,-4.608,down,norm,191.238770576,177.5,201.9,180.4,182.4,0,206.0,192.2,187.7,10,6,8.319,4.93,2.082,-1.614,-4.319,-8.221,189.9,6,263.2,-7.653,-8.257,-20,-8.351,-8.37,-4.592,-4.473,-4.789,-4.648,4.53,7.642,0,-1.912,1.607,5.223,7.521,-7.951,-7.84,-1.674,1.677,199.6,205.9,201.0,189.6,206.7,,177.8,182.7,210.8,182.9,0,norm,2.015,2.034,-1.355,-1.935,-4.871,-4.952,-2.053,-1.881,-2.058,-1.396,1.561,-1.334,181.8,173.7,-4.745,-8.05,1.227,-1.649,7.905,4.537,-5.003,-7.704,24,4.682,4.618,4.461,4.83,1.236,1.461,1.959,1.458,24,4.564,4.503,40,81.9850702367,norm,0,86,86,86,470.349,470.359,470.365634235,470.366,470.368,470.37,down,1,3.69311598031,6.30688401969,001,018,1920_1200,Intel(R) Core(TM) i5-3570 CPU @ 3.40GHz,orientation_search,LEPPC096,Intel(R) HD Graphics 2500,2018_Dec_02_1527,testMonitor,
186.7,184.4,199.3,195.9,36,-20,198.1,197.0,196.8,,7.866,8.481,7.668,7.983,8.494,7.537,8.424,5.076,-4.727,-8.286,1.48,-1.544,8.298,5.276,-5.103,-7.561,202.8,187.4,-7.584,180.4,193.2,177.3,187.2,201.8,36,209.3,4,5,prime,10,0,71,norm,36,-5.09,up,norm,191.238770576,204.3,211.2,207.4,196.9,5,182.3,186.5,189.1,10,6,8.363,4.351,2.093,-1.381,-4.841,-8.027,195.7,6,262.2,-8.419,-8.088,-20,-7.922,-7.752,-4.465,-5.281,-5.105,-4.409,4.57,8.272,29,-1.885,1.466,5.224,8.034,-8.161,-8.386,-1.796,1.668,189.8,198.0,178.6,207.3,192.1,197.7,196.6,194.3,171.2,193.2,1,norm,1.959,1.391,-1.734,-1.159,-4.355,-4.976,-1.927,-1.791,-1.859,-1.195,1.35,-1.712,190.0,183.5,-4.992,-7.922,1.79,-1.777,8.441,5.013,-4.508,-8.457,24,4.697,4.783,5.296,5.143,1.408,1.621,2.09,1.495,24,5.164,5.204,40,81.9850702367,norm,0,87,87,87,474.093,474.104,474.123804292,474.124,474.126,474.129,up,1,2.85890385736,7.14109614264,001,018,1920_1200,Intel(R) Core(TM) i5-3570 CPU @ 3.40GHz,orientation_search,LEPPC096,Intel(R) HD Graphics 2500,2018_Dec_02_1527,testMonitor,
,189.8,186.7,201.3,36,-20,193.0,188.0,211.2,190.8,7.877,8.139,7.797,7.553,7.569,7.723,7.513,5.227,-4.759,-7.573,1.548,-1.491,8.253,4.632,-4.44,-7.579,181.5,199.9,-7.624,181.4,189.2,179.8,193.8,181.4,36,173.4,3,5,prime,10,0,77,norm,36,-4.412,up,norm,191.238770576,202.2,175.9,185.6,201.4,4,179.4,200.8,200.0,10,6,8.176,4.843,1.374,-1.53,-5.03,-8.099,188.3,6,268.2,-8.278,-7.993,-20,-8.43,-7.758,-4.796,-4.944,-4.654,-4.757,4.85,7.542,22,-1.794,1.175,4.783,8.096,-7.876,-7.532,-1.289,2.012,191.8,196.9,186.9,196.1,184.1,184.6,171.2,203.1,200.6,201.2,2,norm,1.295,1.204,-1.588,-2.057,-5.115,-4.618,-1.321,-2.073,-1.353,-1.689,1.836,-1.605,177.4,183.8,-4.471,-7.986,1.376,-1.136,7.639,4.948,-4.523,-8.357,24,4.376,4.945,4.726,4.43,1.547,1.363,1.996,1.574,24,4.328,5.084,40,81.9850702367,norm,0,88,88,88,477.021,477.031,477.040868245,477.041,477.043,477.046,up,1,3.90468412776,6.09531587224,001,018,1920_1200,Intel(R) Core(TM) i5-3570 CPU @ 3.40GHz,orientation_search,LEPPC096,Intel(R) HD Graphics 2500,2018_Dec_02_1527,testMonitor,
201.4,193.6,187.5,206.7,36,-20,187.4,193.7,196.8,186.7,8.437,7.566,7.582,7.665,8.347,7.506,8.128,4.5,-4.563,-7.532,1.338,-1.979,7.696,4.517,-4.94,-8.311,190.8,177.5,-7.832,196.2,171.2,197.3,191.9,198.6,36,198.4,2,5,prime,10,0,83,norm,36,-4.633,down,norm,191.238770576,187.8,192.6,201.9,198.2,1,196.0,,192.8,10,6,7.619,4.439,1.802,-1.886,-4.605,-8.309,201.4,6,274.2,-8.04,-7.927,-20,-8.485,-7.948,-5.039,-5.017,-4.993,-4.64,5.089,8.185,13,-1.615,1.753,5.192,8.377,-8.388,-8.027,-1.362,1.262,211.2,192.4,201.6,189.8,182.4,205.3,209.2,177.3,189.4,181.2,3,norm,2.042,1.285,-2.023,-1.669,-5.14,-5.072,-1.855,-1.762,-1.451,-1.487,2.051,-1.162,185.9,182.3,-5.101,-7.76,1.701,-1.313,7.747,5.093,-4.372,-8.227,24,4.575,4.721,4.368,4.799,1.926,2.043,1.543,1.891,24,4.532,5.208,40,81.9850702367,norm,0,89,89,89,480.983,480.993,481.003212301,481.003,481.005,481.008,down,1,0.896681749167,9.10331825083,001,018,1920_1200,Intel(R) Core(TM) i5-3570 CPU @ 3.40GHz,orientation_search,LEPPC096,Intel(R) HD Graphics 2500,2018_Dec_02_1527,testMonitor,
186.9,,175.7,195.9,36,-20,179.7,191.5,192.2,185.5,8.175,8.361,8.188,7.582,7.711,7.79,7.71,5.08,-4.56,-8.349,2.004,-1.632,7.639,5.178,-4.65,-8.091,206.6,195.9,-8.381,184.0,190.6,197.1,190.8,183.8,36,178.0,3,5,prime,10,0,92,norm,36,-5.188,up,norm,191.238770576,185.4,171.2,211.2,180.1,5,192.3,203.0,194.5,10,6,8.494,5.093,1.87,-1.715,-4.466,-8.186,191.4,6,283.2,-7.652,-7.867,-20,-7.967,-7.87,-4.992,-5.27,-4.89,-5.259,4.642,7.707,23,-2.09,1.483,4.38,7.604,-7.984,-7.922,-1.131,1.943,192.2,203.0,207.3,195.6,180.3,180.0,189.5,200.8,193.3,206.7,4,norm,1.638,1.964,-1.904,-1.757,-4.761,-4.481,-1.595,-1.486,-1.779,-1.262,1.715,-1.18,199.9,188.9,-4.766,-7.979,1.286,-1.294,8.227,4.832,-4.843,-7.854,24,5.079,4.305,4.319,4.879,1.336,1.466,1.173,1.75,24,5.233,5.118,40,81.9850702367,norm,0,90,90,90,481.94,481.951,481.955905569,481.956,481.958,481.961,up,1,0.768418812577,9.23158118742,001,018,1920_1200,Intel(R) Core(TM) i5-3570 CPU @ 3.40GHz,orientation_search,LEPPC096,Intel(R) HD Graphics 2500,2018_Dec_02_1527,testMonitor,
184.4,175.7,204.7,201.0,36,-20,185.3,199.7,178.0,176.5,8.213,8.215,7.887,8.169,8.443,7.565,7.915,4.549,-5.036,-8.361,1.336,-1.318,7.651,5.191,-4.366,-8.452,175.7,192.1,-8.25,191.1,189.3,211.2,,191.4,36,187.8,5,5,prime,10,0,98,norm,36,-4.939,down,norm,191.238770576,184.7,180.0,191.6,189.1,2,199.8,178.9,175.3,10,6,7.632,4.405,1.663,-1.207,-4.698,-7.733,203.5,6,289.2,-8.095,-8.343,-20,-8.061,-7.891,-4.825,-4.504,-4.422,-4.485,5.265,8.334,32,-1.122,1.854,4.928,8.106,-8.393,-8.362,-1.722,1.768,201.3,171.2,189.4,194.2,196.9,176.7,184.4,179.8,193.1,198.1,5,norm,1.885,1.947,-1.731,-2.063,-4.875,-4.908,-1.98,-2.08,-1.666,-1.43,1.976,-1.474,193.2,195.8,-4.898,-8.289,1.519,-1.306,8.333,4.88,-4.834,-8.411,24,4.417,4.831,5.092,5.172,1.583,1.38,1.517,1.863,24,4.889,4.445,40,81.9850702367,norm,0,91,91,91,482.766,482.776,482.782697282,482.783,482.785,482.788,down,1,1.03297815502,8.96702184498,001,018,1920_1200,Intel(R) Core(TM) i5-3570 CPU @ 3.40GHz,orientation_search,LEPPC096,Intel(R) HD Graphics 2500,2018_Dec_02_1527,testMonitor,
250.5,251.3,250.8,241.7,36,0,240.0,238.8,246.8,240.0,7.804,7.629,8.254,8.127,8.188,7.688,8.257,4.522,-4.765,-8.189,1.577,-1.736,7.673,4.623,-4.491,-8.201,241.5,239.5,-8.297,240.8,245.6,,233.7,247.4,36,252.0,5,5,probe,5,0,73,norm,36,-4.963,up,norm,243.694477354,241.1,245.8,252.3,247.3,3,244.7,246.6,235.9,10,6,7.692,5.179,1.978,-1.787,-4.686,-8.414,246.0,2,170.7,-8.379,-8.238,-20,-8.432,-8.323,-4.922,-5.214,-4.326,-4.47,5.081,7.822,33,-1.775,1.675,4.885,7.535,-8.32,-7.888,-2.092,1.362,246.9,248.3,248.8,245.3,245.9,243.7,236.9,237.9,240.6,242.7,0,norm,1.394,1.327,-1.574,-1.429,-5.145,-4.598,-1.701,-1.107,-1.732,-1.257,2.015,-1.823,253.2,246.8,-4.331,-8.482,1.554,-1.276,7.731,5.137,-4.7,-8.029,25,5.054,4.425,5.235,5.205,1.24,1.804,1.913,1.855,25,4.616,4.757,-20,191.238770576,norm,0,92,92,92,483.854,483.863,483.873504402,483.874,483.876,483.878,up,1,4.88304441138,5.11695558862,001,018,1920_1200,Intel(R) Core(TM) i5-3570 CPU @ 3.40GHz,orientation_search,LEPPC096,Intel(R) HD Graphics 2500,2018_Dec_02_1527,testMonitor,
238.5,239.2,245.7,225.7,36,0,239.4,235.4,238.5,,8.201,8.028,8.197,8.111,7.891,8.022,7.864,4.88,-4.974,-7.751,1.794,-1.709,8.431,4.869,-5.235,-8.091,233.2,232.8,-7.946,231.8,234.8,240.6,231.5,232.8,36,231.1,4,5,probe,5,0,65,norm,36,-4.874,up,norm,235.694477354,235.2,231.4,238.9,226.3,5,239.1,234.4,231.0,10,6,7.768,5.062,1.459,-1.35,-4.832,-7.678,242.0,2,170.7,-7.961,-8.376,-20,-7.546,-7.917,-5.282,-4.523,-4.409,-5.002,4.549,7.789,29,-1.727,1.685,4.382,7.886,-7.714,-8.456,-1.571,1.583,242.3,232.6,243.6,234.6,231.4,234.5,234.6,232.6,240.6,233.0,1,norm,1.999,1.51,-2.082,-1.262,-4.793,-4.722,-1.373,-1.938,-1.32,-1.849,1.388,-1.803,237.9,232.6,-4.383,-7.584,1.35,-1.824,8.359,4.747,-4.918,-8.318,25,5.285,4.493,4.527,4.682,1.872,1.115,1.167,1.172,25,4.991,4.818,-20,191.238770576,norm,0,93,93,93,488.804,488.814,488.819898035,488.82,488.822,488.825,up,1,0.669750580309,9.33024941969,001,018,1920_1200,Intel(R) Core(TM) i5-3570 CPU @ 3.40GHz,orientation_search,LEPPC096,Intel(R) HD Graphics 2500,2018_Dec_02_1527,testMonitor,
140.2,139.1,132.2,122.9,36,0,126.8,123.4,134.4,,8.301,8.207,7.666,7.999,7.597,8.113,7.855,4.58,-4.717,-7.589,1.73,-1.105,7.835,4.662,-5.289,-7.988,132.6,151.7,-8.163,113.9,136.4,132.7,138.0,128.5,36,134.2,4,5,prime,10,0,87,norm,36,-4.537,up,norm,131.931850616,137.6,138.1,134.9,144.8,5,136.1,127.5,113.5,10,5,7.576,4.671,1.114,-1.49,-4.626,-8.325,137.4,5,218.9,-8.329,-7.572,0,-7.94,-7.695,-4.644,-4.697,-4.772,-4.799,4.967,8.401,29,-1.243,2.03,4.993,7.749,-8.142,-8.218,-1.611,1.675,135.4,133.1,134.9,144.6,132.2,138.0,137.4,141.6,131.6,126.0,0,norm,1.856,1.493,-1.506,-1.629,-4.9,-4.973,-1.422,-1.527,-1.274,-1.912,1.773,-1.489,111.9,141.4,-4.405,-8.202,1.784,-1.677,8.411,4.348,-5.212,-7.978,26,4.963,4.974,4.778,5.202,1.88,1.441,1.531,1.578,26,4.847,4.45,0,191.238770576,norm,0,94,94,94,489.528,489.54,489.567435683,489.568,489.569,489.572,up,1,1.20444747637,8.79555252363,001,018,1920_1200,Intel(R) Core(TM) i5-3570 CPU @ 3.40GHz,orientation_search,LEPPC096,Intel(R) HD Graphics 2500,2018_Dec_02_1527,testMonitor,
137.2,129.8,111.9,133.8,36,0,138.7,135.1,123.3,118.2,8.216,8.251,7.626,7.668,8.14,7.99,7.917,5.029,-4.753,-8.265,1.151,-1.107,8.432,5.184,-4.588,-7.646,140.8,114.0,-7.838,125.3,145.6,,133.9,140.3,36,124.9,5,5,prime,10,0,89,norm,36,-5.147,up,norm,131.931850616,129.6,138.8,122.3,137.4,3,133.5,134.3,117.4,10,5,7.939,4.541,1.903,-1.678,-5.226,-8.123,133.3,5,220.9,-7.51,-7.94,0,-7.513,-7.73,-5.25,-4.585,-4.866,-4.806,4.604,7.539,33,-1.455,1.714,5.076,8.055,-8.164,-8.223,-1.311,1.165,123.4,118.6,129.4,120.8,150.9,139.2,119.8,147.3,141.4,151.9,1,norm,1.778,1.572,-1.522,-1.674,-4.627,-5.03,-1.324,-1.418,-1.977,-1.464,1.947,-1.137,133.4,120.7,-5.017,-7.88,1.913,-1.718,7.638,4.539,-5.04,-8.011,26,4.817,4.478,4.989,4.429,1.23,1.823,1.68,1.1,26,4.51,4.536,0,191.238770576,norm,0,95,95,95,490.817,490.837,490.849194208,490.849,490.851,490.854,up,1,0.752209702103,9.2477902979,001,018,1920_1200,Intel(R) Core(TM) i5-3570 CPU @ 3.40GHz,orientation_search,LEPPC096,Intel(R) HD Graphics 2500,2018_Dec_02_1527,testMonitor,
