d_ori_22,d_ori_23,d_ori_20,d_ori_21,set_size,ctpd,d_ori_24,d_ori_25,d_ori_28,d_ori_29,stim_pos_x_30,stim_pos_x_31,stim_pos_x_32,stim_pos_x_33,stim_pos_x_34,stim_pos_x_35,stim_pos_y_11,stim_pos_y_10,stim_pos_y_13,stim_pos_y_12,stim_pos_y_15,stim_pos_y_14,stim_pos_y_17,stim_pos_y_16,stim_pos_y_19,stim_pos_y_18,d_ori_35,d_ori_34,stim_pos_x_3,d_ori_31,d_ori_30,d_ori_33,d_ori_32,d_ori_26,test_set_size,d_ori_27,targetCol,dsd_test,seq_type,dsd,blockRepN,targetDist,dtype_test,prime_set_size,stim_pos_y_25,correctResponse,dtype,distrMean,d_ori_17,d_ori_16,d_ori_15,d_ori_14,targetRow,d_ori_11,d_ori_13,d_ori_12,dsd_prime,streak_length_prime,stim_pos_y_35,stim_pos_y_34,stim_pos_y_33,stim_pos_y_32,stim_pos_y_31,stim_pos_y_30,d_ori_10,nextProbe,targetOri,stim_pos_x_1,stim_pos_x_2,ctpd_prime,stim_pos_x_4,stim_pos_x_5,stim_pos_x_6,stim_pos_x_7,stim_pos_x_8,stim_pos_x_9,stim_pos_y_28,stim_pos_y_29,targetPos,stim_pos_y_20,stim_pos_y_21,stim_pos_y_22,stim_pos_y_23,stim_pos_y_24,stim_pos_x_0,stim_pos_y_26,stim_pos_y_27,d_ori_9,d_ori_8,d_ori_3,d_ori_2,d_ori_1,d_ori_0,d_ori_7,d_ori_6,d_ori_5,d_ori_4,trialN,dtype_prime,stim_pos_x_18,stim_pos_x_19,stim_pos_x_12,stim_pos_x_13,stim_pos_x_10,stim_pos_x_11,stim_pos_x_16,stim_pos_x_17,stim_pos_x_14,stim_pos_x_15,stim_pos_y_9,stim_pos_y_8,d_ori_19,d_ori_18,stim_pos_y_1,stim_pos_y_0,stim_pos_y_3,stim_pos_y_2,stim_pos_y_5,stim_pos_y_4,stim_pos_y_7,stim_pos_y_6,totBlockN,stim_pos_x_27,stim_pos_x_26,stim_pos_x_25,stim_pos_x_24,stim_pos_x_23,stim_pos_x_22,stim_pos_x_21,stim_pos_x_20,blockN,stim_pos_x_29,stim_pos_x_28,prevDistrCTPD,prevDistrMean,prevDistrType,trials.thisRepN,trials.thisTrialN,trials.thisN,trials.thisIndex,timeStart,timeBeforeDraw,timeDraw,timeAfterSaving,timeAfterWritingToTemp,timeAfterPreparingNext,answer,correct,rt,trialScore,session,participant,resolution,cpu_info,expName,pc_name,graphic_card,date,monitorName,
355.1,335.9,324.5,332.5,36,-40,330.8,322.2,334.0,348.7,8.039,7.621,8.379,8.064,8.048,7.598,7.64,5.166,-4.755,-8.44,1.39,-1.951,8.162,4.799,-4.442,-8.312,332.5,330.9,-8.354,336.7,340.6,342.3,345.1,343.2,36,320.0,1,5,prime,10,0,88,norm,36,-4.548,up,norm,336.653222157,329.2,316.7,330.4,348.3,3,323.7,340.4,336.1,10,6,8.399,4.31,1.528,-1.343,-5.258,-7.592,347.7,6,424.7,-8.016,-8.425,-40,-7.767,-8.06,-4.618,-4.44,-4.535,-5.182,4.948,7.63,9,-2.065,1.527,4.952,8.058,-8.129,-8.15,-1.681,2.002,,324.0,333.7,343.7,340.5,347.7,350.3,329.6,329.9,342.8,0,norm,1.998,1.427,-1.617,-2.097,-5.175,-4.964,-1.819,-1.413,-1.741,-1.617,1.406,-1.558,333.8,335.7,-4.648,-8.203,1.189,-1.479,8.16,4.678,-4.838,-8.017,0,4.97,5.286,4.904,5.031,1.876,1.517,1.128,1.545,0,4.733,5.167,,,,0,0,0,0,244.707,244.737,244.758374362,244.759,244.759,244.761,up,1,1.35934950809,8.64065049191,001,013,1920_1080,Intel(R) Core(TM) i5-3570 CPU @ 3.40GHz,orientation_search,LEPPC096,Intel(R) HD Graphics 2500,2018_Nov_17_1557,testMonitor,
326.8,326.9,342.4,330.4,36,-40,334.6,333.0,333.3,339.2,8.344,7.74,7.563,8.119,8.082,7.535,8.316,5.207,-4.75,-8.066,1.375,-1.256,7.994,5.1,-4.556,-7.939,339.4,330.0,-8.399,326.6,321.6,341.0,336.1,345.2,36,356.7,0,5,prime,10,0,61,norm,36,-4.685,up,norm,336.653222157,316.7,332.2,345.1,347.8,5,319.9,355.1,338.4,10,6,7.608,4.784,1.427,-1.53,-5.288,-8.492,317.8,6,397.7,-7.856,-7.657,-40,-7.633,-7.906,-4.971,-4.882,-5.241,-4.504,4.767,7.522,5,-2.02,1.379,4.752,8.111,-7.985,-7.526,-1.875,1.973,337.2,351.9,332.3,326.9,337.0,338.7,335.9,332.4,,349.1,1,norm,1.745,2.085,-1.617,-1.631,-4.866,-4.65,-1.21,-1.351,-1.997,-1.812,1.866,-1.905,341.2,338.3,-4.371,-8.399,1.221,-1.1,7.865,4.787,-4.976,-8.254,0,4.608,5.037,4.445,5.277,1.801,1.519,1.266,1.483,0,4.455,4.977,,,,0,1,1,1,246.137,246.147,246.153514749,246.154,246.155,246.157,up,1,1.87475803207,8.12524196793,001,013,1920_1080,Intel(R) Core(TM) i5-3570 CPU @ 3.40GHz,orientation_search,LEPPC096,Intel(R) HD Graphics 2500,2018_Nov_17_1557,testMonitor,
330.8,323.9,333.8,345.7,36,-40,,356.7,338.5,349.4,8.457,8.042,8.002,7.919,8.17,7.997,7.672,4.573,-5.209,-7.829,1.945,-1.346,8.498,5.284,-4.672,-8.482,332.1,321.9,-7.97,328.2,343.0,337.3,350.7,336.5,36,336.7,4,5,prime,10,0,61,norm,36,-4.734,down,norm,336.653222157,342.9,332.1,342.5,349.5,0,333.8,334.3,347.1,10,6,7.803,4.656,1.119,-1.89,-4.478,-8.449,322.1,6,397.7,-7.534,-7.678,-40,-7.525,-7.703,-5.183,-4.476,-4.585,-4.82,4.607,7.946,24,-1.164,2.083,4.722,7.866,-8.376,-7.535,-1.985,1.868,341.9,342.6,344.1,316.7,337.0,334.9,317.7,340.8,321.2,336.9,2,norm,1.978,2.055,-1.413,-1.751,-5.164,-4.85,-1.437,-1.915,-1.485,-1.538,1.293,-1.843,354.3,339.6,-4.632,-8.093,1.631,-2.062,8.2,4.91,-4.81,-7.934,0,4.799,5.244,5.184,4.688,1.64,1.572,1.92,1.866,0,5.095,5.066,,,,0,2,2,2,248.07,248.08,248.085655969,248.086,248.087,248.09,up,0,1.59342475065,-10,001,013,1920_1080,Intel(R) Core(TM) i5-3570 CPU @ 3.40GHz,orientation_search,LEPPC096,Intel(R) HD Graphics 2500,2018_Nov_17_1557,testMonitor,
340.5,331.4,352.1,333.3,36,-40,350.3,325.4,345.7,319.0,7.913,8.444,7.657,7.57,7.942,8.369,8.046,5.11,-5.023,-8.396,1.437,-1.508,8.488,4.956,-4.832,-8.086,348.2,342.6,-7.93,,344.1,330.8,352.4,355.0,36,337.2,5,5,prime,10,0,116,norm,36,-5.161,down,norm,336.653222157,334.5,338.0,340.4,334.9,1,335.4,322.7,345.6,10,6,8.027,4.565,1.587,-1.738,-4.929,-7.868,350.8,6,452.7,-7.631,-8.024,-40,-8.116,-7.541,-5.295,-4.356,-4.457,-4.428,5.079,7.879,31,-1.144,1.2,4.773,8.273,-8.473,-8.446,-1.351,1.76,333.9,352.0,335.8,323.3,337.9,330.7,332.4,316.7,336.0,338.5,3,norm,1.986,1.613,-1.658,-1.757,-4.738,-4.673,-1.871,-1.571,-2.097,-1.608,1.726,-1.499,331.8,356.7,-4.725,-8.406,2.009,-1.787,7.59,4.703,-4.46,-8.145,0,4.779,4.361,4.359,4.88,1.914,1.777,1.339,1.896,0,4.491,4.66,,,,0,3,3,3,250.749,250.76,250.767795906,250.768,250.77,250.772,up,0,1.82737231202,-10,001,013,1920_1080,Intel(R) Core(TM) i5-3570 CPU @ 3.40GHz,orientation_search,LEPPC096,Intel(R) HD Graphics 2500,2018_Nov_17_1557,testMonitor,
337.8,316.7,350.7,338.5,36,-40,342.3,352.9,346.8,329.4,8.146,7.893,8.112,8.149,8.049,8.008,8.344,5.053,-5.159,-8.026,2.066,-1.789,8.098,4.511,-4.94,-7.829,326.9,349.1,-8.182,332.1,337.6,327.4,338.7,332.6,36,346.9,2,5,prime,10,0,96,norm,36,-4.989,down,norm,336.653222157,353.1,343.8,333.9,333.0,0,351.9,339.9,,10,6,7.51,4.61,1.137,-1.884,-4.414,-8.385,328.5,6,432.7,-8.222,-7.645,-40,-7.703,-7.743,-4.566,-4.533,-4.418,-5.261,4.74,7.538,12,-1.611,1.17,5.148,8.417,-7.606,-8.463,-1.443,1.141,341.3,331.8,334.5,317.0,327.2,348.4,356.7,330.4,338.5,319.9,4,norm,1.853,1.1,-1.529,-1.982,-5.17,-4.727,-1.503,-1.322,-2.017,-2.059,2.033,-1.529,355.0,331.5,-5.19,-7.94,2.089,-1.3,7.813,4.874,-4.768,-7.649,0,4.604,5.102,4.309,5.21,1.479,1.779,1.724,1.143,0,4.356,4.856,,,,0,4,4,4,253.666,253.674,253.684861086,253.685,253.687,253.689,down,1,0.971504153866,9.02849584613,001,013,1920_1080,Intel(R) Core(TM) i5-3570 CPU @ 3.40GHz,orientation_search,LEPPC096,Intel(R) HD Graphics 2500,2018_Nov_17_1557,testMonitor,
328.7,330.6,334.9,334.6,36,-40,330.3,349.5,339.2,334.8,8.223,8.136,8.004,8.449,7.638,7.844,8.479,5.001,-5.001,-8.265,1.792,-1.738,8.007,4.363,-5.025,-8.237,339.9,316.7,-7.657,333.1,337.7,338.4,333.5,356.7,36,343.5,3,5,prime,10,0,89,norm,36,-4.348,down,norm,336.653222157,355.7,323.4,333.9,334.9,1,327.8,351.1,333.6,10,6,7.638,5.128,1.219,-1.745,-5.184,-8.049,334.7,6,425.7,-7.709,-7.505,-40,-8.038,-7.795,-4.892,-4.342,-5.261,-4.684,4.827,8.237,19,-2.063,1.608,5.123,7.594,-8.14,-8.266,-1.116,1.126,332.5,335.6,346.3,345.6,326.3,328.4,338.9,330.9,351.8,348.6,5,norm,1.379,1.342,-1.247,-1.472,-4.341,-4.323,-1.297,-1.369,-1.416,-1.91,1.116,-1.332,,329.8,-5.028,-8.407,1.787,-1.329,8.421,5.042,-5.012,-8.283,0,4.588,4.97,5.157,4.955,2.034,1.909,2.013,1.9,0,4.569,5.113,,,,0,5,5,5,254.699,254.708,254.71552721,254.716,254.717,254.72,up,0,1.76180968017,-10,001,013,1920_1080,Intel(R) Core(TM) i5-3570 CPU @ 3.40GHz,orientation_search,LEPPC096,Intel(R) HD Graphics 2500,2018_Nov_17_1557,testMonitor,
422.7,414.3,411.8,418.4,36,20,409.8,415.1,411.1,421.6,8.076,8.494,7.764,8.199,7.931,7.784,7.503,4.75,-5.018,-7.542,1.531,-1.21,7.995,5.144,-4.793,-8.244,411.6,412.1,-8.037,405.9,,413.7,414.9,418.0,36,418.6,5,5,probe,5,0,119,norm,36,-4.332,down,norm,412.658295799,415.4,407.0,411.9,418.9,0,410.1,412.0,411.0,10,6,8.309,4.659,2.022,-1.12,-4.577,-7.656,412.6,1,293.7,-7.528,-7.758,-40,-7.622,-8.325,-4.864,-5.135,-4.765,-4.465,4.752,8.41,30,-1.432,2.03,5.053,7.86,-7.7,-8.447,-1.851,1.181,421.2,408.1,406.6,411.4,410.5,402.7,406.1,411.1,416.5,409.8,0,norm,1.755,1.386,-1.814,-2.075,-5.197,-5.069,-1.984,-2.083,-1.39,-1.337,1.654,-1.781,412.6,411.4,-4.393,-8.429,1.587,-1.204,8.179,5.168,-5.097,-8.008,1,5.066,4.315,4.57,5.041,1.852,1.871,1.71,1.474,1,5.008,4.668,-40,336.653222157,norm,0,6,6,6,257.548,257.558,257.569110388,257.569,257.571,257.574,down,1,1.60884519757,8.39115480243,001,013,1920_1080,Intel(R) Core(TM) i5-3570 CPU @ 3.40GHz,orientation_search,LEPPC096,Intel(R) HD Graphics 2500,2018_Nov_17_1557,testMonitor,
192.3,194.7,198.2,188.9,36,0,176.0,,197.2,212.4,8.05,7.786,7.884,7.523,7.512,8.205,7.646,4.576,-4.757,-7.654,1.809,-1.192,7.899,5.268,-4.651,-7.668,201.7,208.4,-8.107,187.2,208.8,192.1,180.9,189.5,36,181.5,4,5,prime,10,0,83,norm,36,-4.398,down,norm,195.984724652,192.4,216.0,205.2,200.1,1,213.6,208.5,190.2,10,6,8.116,5.022,1.411,-1.142,-4.744,-8.325,201.5,6,279.0,-8.163,-7.536,0,-7.535,-7.949,-4.384,-5.059,-4.804,-4.96,5.228,7.911,25,-1.669,1.986,4.326,7.627,-7.687,-8.159,-1.458,1.842,195.5,181.2,187.1,207.4,184.8,199.6,211.2,204.8,193.4,210.6,0,norm,1.716,1.698,-1.478,-1.942,-5.119,-5.268,-1.177,-1.523,-1.753,-1.84,1.6,-1.628,188.1,196.3,-5.027,-7.937,1.232,-1.36,7.765,5.23,-5.151,-8.394,2,4.638,4.768,4.695,4.433,1.677,1.797,1.595,2.045,2,4.847,4.581,20,336.653222157,norm,0,7,7,7,259.215,259.224,259.238398896,259.239,259.24,259.243,down,1,1.72334353274,8.27665646726,001,013,1920_1080,Intel(R) Core(TM) i5-3570 CPU @ 3.40GHz,orientation_search,LEPPC096,Intel(R) HD Graphics 2500,2018_Nov_17_1557,testMonitor,
198.2,198.7,191.3,193.5,36,0,185.8,186.2,207.2,176.0,8.435,8.243,7.822,7.515,8.139,8.135,8.034,5.269,-4.998,-7.877,1.808,-1.413,7.808,5.006,-5.183,-7.544,196.6,176.6,-8.218,191.1,196.1,209.7,209.0,202.4,36,203.0,3,5,prime,10,0,90,norm,36,-4.694,down,norm,195.984724652,203.5,183.5,197.2,192.5,0,187.6,188.2,204.7,10,6,7.511,4.959,1.567,-1.362,-5.051,-7.733,216.0,6,286.0,-8.467,-7.819,0,-8.458,-8.271,-4.383,-5.171,-5.259,-4.996,5.014,7.645,18,-1.106,1.597,5.247,8.116,-8.036,-8.305,-1.693,1.986,183.2,199.9,195.0,190.2,186.6,196.9,184.4,190.8,210.9,197.8,1,norm,2.032,1.652,-1.644,-1.595,-4.474,-4.401,-1.904,-2.06,-1.353,-1.786,1.31,-1.152,195.6,,-4.688,-8.458,1.693,-1.129,7.849,4.915,-4.364,-7.926,2,4.535,4.829,5.26,4.916,1.131,2.055,1.848,1.381,2,4.59,4.731,20,336.653222157,norm,0,8,8,8,260.986,260.995,261.001825871,261.002,261.004,261.006,down,1,1.67514916514,8.32485083486,001,013,1920_1080,Intel(R) Core(TM) i5-3570 CPU @ 3.40GHz,orientation_search,LEPPC096,Intel(R) HD Graphics 2500,2018_Nov_17_1557,testMonitor,
199.8,204.9,207.5,186.6,36,0,193.9,213.8,192.6,178.9,7.87,7.849,7.527,7.846,8.308,7.796,8.405,4.811,-5.04,-8.251,1.261,-2.091,8.42,4.757,-4.403,-8.262,200.3,192.5,-7.678,191.2,208.8,176.0,196.6,195.3,36,197.0,1,5,prime,10,0,103,norm,36,-4.317,up,norm,195.984724652,176.9,208.8,203.9,204.8,5,,197.5,215.8,10,6,8.121,5.038,1.704,-1.495,-4.532,-7.542,216.0,6,299.0,-8.092,-8.164,0,-7.909,-7.603,-4.514,-5.012,-4.711,-4.312,4.429,8.141,11,-1.567,1.819,5.213,8.07,-8.054,-8.112,-1.367,1.978,189.8,201.9,193.2,185.4,201.7,194.6,195.2,194.2,188.9,209.9,2,norm,1.282,1.944,-1.991,-1.754,-5.206,-5.27,-1.662,-1.482,-2.03,-1.729,1.779,-2.011,197.1,201.8,-4.429,-8.167,1.764,-1.438,7.586,4.801,-4.399,-7.743,2,5.071,4.342,4.833,4.677,1.869,1.969,1.115,1.49,2,4.374,5.291,20,336.653222157,norm,0,9,9,9,262.702,262.712,262.717897311,262.718,262.72,262.722,up,1,1.34160212428,8.65839787572,001,013,1920_1080,Intel(R) Core(TM) i5-3570 CPU @ 3.40GHz,orientation_search,LEPPC096,Intel(R) HD Graphics 2500,2018_Nov_17_1557,testMonitor,
200.6,213.3,202.8,206.6,36,0,,178.4,196.4,193.5,7.915,8.18,7.763,8.437,7.784,8.268,8.329,5.223,-4.936,-7.614,1.208,-2.016,7.862,4.999,-4.805,-8.323,207.6,176.0,-8.177,198.4,192.3,192.0,185.1,188.7,36,203.2,4,5,prime,10,0,114,norm,36,-5.063,down,norm,195.984724652,196.3,188.2,216.0,209.0,0,184.7,187.6,185.2,10,6,7.93,5.072,1.157,-1.177,-4.417,-8.056,209.9,6,310.0,-7.792,-7.863,0,-7.809,-8.338,-4.667,-4.819,-5.079,-5.083,5.078,8.407,24,-1.424,1.274,4.74,8.37,-7.999,-7.558,-1.952,1.32,191.6,207.8,198.6,195.5,198.5,213.7,197.7,196.1,204.6,198.3,3,norm,1.109,1.617,-1.3,-1.88,-4.568,-4.509,-2.025,-2.04,-1.274,-1.119,1.996,-1.45,197.6,184.7,-4.869,-8.426,1.616,-1.306,7.577,4.944,-5.099,-8.477,2,4.589,4.744,4.996,4.913,1.931,2.053,1.889,1.511,2,4.811,4.342,20,336.653222157,norm,0,10,10,10,264.097,264.11,264.136413318,264.137,264.138,264.141,down,1,1.57648722177,8.42351277823,001,013,1920_1080,Intel(R) Core(TM) i5-3570 CPU @ 3.40GHz,orientation_search,LEPPC096,Intel(R) HD Graphics 2500,2018_Nov_17_1557,testMonitor,
190.3,202.2,202.0,189.6,36,0,216.0,199.8,192.1,180.9,8.401,7.741,8.214,8.335,7.68,8.066,7.896,4.954,-4.749,-7.828,2.064,-1.399,8.194,4.894,-4.315,-8.078,210.5,191.9,-8.288,193.6,188.8,199.8,189.0,195.5,36,194.4,1,5,prime,10,0,72,norm,36,-4.475,down,norm,195.984724652,176.0,185.3,202.7,201.3,0,183.9,199.2,181.1,10,6,8.479,4.952,1.974,-1.226,-5.085,-8.443,195.1,6,268.0,-8.193,-7.94,0,-8.008,-7.511,-4.484,-4.672,-5.016,-4.585,4.517,8.489,6,-1.21,1.43,4.343,7.737,-7.864,-7.615,-1.39,1.168,204.2,203.3,193.2,208.9,201.8,192.1,198.1,,206.7,187.6,4,norm,1.896,1.868,-1.69,-1.998,-4.8,-5.262,-1.563,-1.132,-1.254,-1.796,1.924,-1.22,186.2,208.9,-4.886,-7.609,1.669,-1.133,8.345,5.198,-4.757,-8.045,2,4.795,5.122,4.358,4.97,1.847,1.287,1.956,1.372,2,4.743,5.278,20,336.653222157,norm,0,11,11,11,265.751,265.764,265.782733096,265.783,265.785,265.787,up,0,1.63059989936,-10,001,013,1920_1080,Intel(R) Core(TM) i5-3570 CPU @ 3.40GHz,orientation_search,LEPPC096,Intel(R) HD Graphics 2500,2018_Nov_17_1557,testMonitor,
191.1,,193.3,207.4,36,0,195.9,196.9,216.0,186.2,8.124,8.197,8.142,7.888,7.545,7.654,8.143,4.875,-4.583,-8.135,1.42,-1.786,7.875,5.274,-4.741,-8.421,188.2,199.1,-7.876,212.2,188.0,195.4,197.4,192.2,36,202.9,3,5,prime,10,0,78,norm,36,-4.897,up,norm,195.984724652,176.9,214.3,202.6,176.0,5,179.5,199.2,177.4,10,6,7.598,4.749,1.537,-1.159,-4.484,-8.188,194.6,6,274.0,-8.032,-8.122,0,-7.795,-8.387,-4.56,-4.772,-4.372,-4.483,4.655,7.703,23,-1.782,1.221,4.86,7.677,-8.458,-8.261,-1.239,1.424,210.2,191.4,191.9,196.8,192.8,203.6,209.1,199.9,195.1,202.4,5,norm,1.244,1.542,-1.594,-1.18,-4.875,-4.398,-1.763,-1.635,-1.487,-1.754,1.723,-1.44,200.3,191.8,-4.827,-8.12,1.436,-1.184,7.897,4.738,-4.938,-7.609,2,5.019,4.975,5.073,5.016,1.655,1.758,1.422,1.146,2,4.9,4.816,20,336.653222157,norm,0,12,12,12,268.484,268.493,268.504262529,268.504,268.506,268.509,up,1,2.18194811314,7.81805188686,001,013,1920_1080,Intel(R) Core(TM) i5-3570 CPU @ 3.40GHz,orientation_search,LEPPC096,Intel(R) HD Graphics 2500,2018_Nov_17_1557,testMonitor,
264.1,266.6,253.6,251.8,36,60,262.1,251.3,260.1,263.4,7.708,8.46,8.155,7.901,7.88,8.073,7.886,4.825,-4.813,-7.846,1.336,-1.252,7.894,4.445,-4.71,-8.319,253.7,260.5,-7.824,252.5,255.1,257.2,253.5,264.3,36,250.4,0,5,probe,5,0,61,norm,36,-4.304,up,norm,256.586898105,258.1,250.9,265.7,260.7,5,255.3,256.1,261.2,10,6,8.358,4.627,1.793,-1.185,-4.869,-8.243,253.0,1,195.6,-8.031,-8.367,0,-8.203,-8.073,-4.393,-4.554,-5.111,-5.087,4.742,8.098,5,-1.879,1.341,4.859,8.264,-8.371,-7.634,-1.562,2.1,246.6,255.9,261.3,259.7,262.3,263.5,249.0,258.7,,256.6,0,norm,1.374,1.344,-1.946,-1.522,-4.6,-4.539,-1.191,-1.156,-1.861,-2.081,1.481,-1.878,261.1,259.2,-5.034,-8.094,1.188,-1.508,7.838,5.195,-4.795,-7.97,3,5.248,5.167,4.639,5.065,1.822,1.498,1.649,1.79,3,4.957,5.294,0,195.984724652,norm,0,13,13,13,270.708,270.717,270.734910905,270.735,270.737,270.739,up,1,2.38474357662,7.61525642338,001,013,1920_1080,Intel(R) Core(TM) i5-3570 CPU @ 3.40GHz,orientation_search,LEPPC096,Intel(R) HD Graphics 2500,2018_Nov_17_1557,testMonitor,
218.4,232.5,212.0,221.5,36,-80,229.3,232.1,231.5,210.0,7.798,7.954,7.647,8.19,8.482,8.342,8.12,5.267,-4.927,-8.419,1.51,-1.102,7.673,4.953,-4.958,-7.573,242.0,228.1,-7.852,229.0,204.9,214.3,227.0,223.9,36,222.3,0,5,prime,10,0,89,norm,36,-5.009,up,norm,224.9087407,234.2,216.8,220.9,233.9,4,216.3,232.5,224.3,10,5,7.938,4.514,1.968,-1.44,-4.679,-7.569,215.6,5,313.9,-8.217,-7.841,-80,-8.024,-8.048,-4.537,-4.6,-4.505,-4.344,4.876,7.865,4,-1.892,1.78,4.51,8.032,-7.544,-7.748,-1.767,1.181,232.8,233.7,215.1,244.9,218.0,239.6,222.5,225.1,241.4,,0,norm,1.423,1.182,-1.902,-1.38,-4.475,-4.794,-2.073,-1.421,-1.882,-1.351,1.674,-1.518,216.7,230.8,-4.608,-7.667,1.848,-1.277,7.784,4.373,-4.564,-8.427,4,5.237,4.874,5.222,4.412,1.523,1.935,1.149,1.158,4,4.783,4.707,60,195.984724652,norm,0,14,14,14,273.153,273.164,273.169492104,273.17,273.172,273.174,up,1,2.50061501283,7.49938498717,001,013,1920_1080,Intel(R) Core(TM) i5-3570 CPU @ 3.40GHz,orientation_search,LEPPC096,Intel(R) HD Graphics 2500,2018_Nov_17_1557,testMonitor,
216.0,223.7,230.1,228.2,36,-80,204.9,214.9,237.5,225.4,7.621,8.48,7.671,7.758,7.762,7.751,7.966,5.025,-4.836,-8.32,1.757,-1.544,8.485,4.728,-4.474,-8.485,221.2,224.2,-7.827,208.6,211.4,238.1,,220.1,36,222.4,5,5,prime,10,0,78,norm,36,-4.816,down,norm,224.9087407,223.6,221.8,238.3,227.0,2,244.9,224.3,216.8,10,5,8.22,5.229,1.368,-1.464,-5.056,-8.202,239.3,5,302.9,-8.288,-7.502,-80,-7.95,-8.162,-4.39,-4.454,-4.506,-5.286,5.22,8.175,32,-1.143,1.92,4.613,7.779,-7.559,-8.476,-1.969,1.164,237.2,234.9,224.5,242.1,227.9,221.9,231.6,225.9,233.1,225.8,1,norm,1.606,1.254,-1.768,-1.918,-4.971,-5.206,-1.449,-1.406,-2.01,-1.949,1.9,-1.413,228.8,224.2,-5.187,-7.763,1.111,-1.685,7.831,4.355,-5.198,-7.619,4,5.116,4.843,5.267,4.508,1.487,2.066,1.104,2.082,4,5.091,4.874,60,195.984724652,norm,0,15,15,15,275.691,275.702,275.711111493,275.711,275.713,275.716,down,1,2.26200271119,7.73799728881,001,013,1920_1080,Intel(R) Core(TM) i5-3570 CPU @ 3.40GHz,orientation_search,LEPPC096,Intel(R) HD Graphics 2500,2018_Nov_17_1557,testMonitor,
244.9,217.1,237.4,243.3,36,-80,220.0,227.8,209.3,224.6,7.796,8.25,7.628,8.349,7.784,8.242,7.953,4.56,-4.523,-7.685,1.267,-1.872,8.113,5.143,-5.224,-7.632,220.3,219.0,-8.206,222.7,233.4,228.0,238.2,224.0,36,232.1,0,5,prime,10,0,110,norm,36,-4.464,down,norm,224.9087407,204.9,229.5,216.1,206.4,0,243.9,219.7,225.6,10,5,7.839,5.087,1.364,-1.915,-4.314,-8.123,225.9,5,334.9,-8.352,-7.6,-80,-8.43,-7.783,-4.774,-4.685,-4.312,-4.553,4.806,7.607,0,-1.484,1.399,4.83,7.572,-7.571,-7.835,-1.232,1.655,239.2,215.4,215.1,229.9,208.9,,218.9,227.6,228.3,224.6,2,norm,1.346,1.672,-1.573,-1.141,-4.933,-5.002,-1.873,-2.074,-1.758,-1.55,1.496,-1.562,226.1,221.6,-4.394,-8.17,1.972,-1.129,7.522,4.922,-4.737,-8.226,4,5.241,4.493,4.6,4.509,1.761,1.328,2.008,1.514,4,5.155,4.361,60,195.984724652,norm,0,16,16,16,278.011,278.023,278.050873258,278.051,278.053,278.055,down,1,1.23835814665,8.76164185335,001,013,1920_1080,Intel(R) Core(TM) i5-3570 CPU @ 3.40GHz,orientation_search,LEPPC096,Intel(R) HD Graphics 2500,2018_Nov_17_1557,testMonitor,
223.4,228.6,221.6,225.8,36,-80,232.6,219.1,229.6,233.2,8.027,7.556,8.001,7.732,8.175,8.092,7.7,4.942,-4.844,-7.65,1.793,-1.518,8.267,4.878,-4.587,-8.349,221.6,221.4,-8.134,214.3,235.6,227.8,213.5,210.9,36,222.7,0,5,prime,10,0,107,norm,36,-4.451,down,norm,224.9087407,206.5,244.1,222.8,219.6,0,213.1,224.1,234.5,10,5,7.7,5.143,2.052,-1.212,-4.948,-7.92,223.2,5,331.9,-8.318,-8.393,-80,-8.099,-8.327,-4.496,-4.903,-5.039,-5.291,5.081,8.076,0,-1.722,1.896,5.145,7.842,-7.805,-8.469,-1.824,1.882,216.6,220.8,204.9,217.0,233.8,,244.9,222.8,228.1,223.3,3,norm,1.712,1.917,-1.632,-1.887,-4.643,-4.93,-1.242,-1.282,-1.457,-1.387,1.523,-2.045,237.3,240.1,-4.681,-7.503,1.213,-1.924,7.867,5.049,-4.675,-7.626,4,4.897,4.875,5.118,5.074,1.782,1.852,1.32,1.793,4,4.436,5.1,60,195.984724652,norm,0,17,17,17,279.327,279.336,279.34561397,279.346,279.347,279.35,down,1,1.28723378245,8.71276621755,001,013,1920_1080,Intel(R) Core(TM) i5-3570 CPU @ 3.40GHz,orientation_search,LEPPC096,Intel(R) HD Graphics 2500,2018_Nov_17_1557,testMonitor,
218.1,236.3,224.5,237.5,36,-80,218.3,231.7,215.4,226.4,7.747,7.976,8.361,7.978,7.97,8.107,8.074,5.015,-5.025,-8.433,1.416,-1.928,8.249,4.325,-4.313,-8.481,222.8,219.1,-8.306,,231.0,230.6,219.0,222.1,36,226.8,5,5,prime,10,0,71,norm,36,-5.006,down,norm,224.9087407,204.9,226.5,224.1,223.7,1,209.4,224.0,207.3,10,5,8.353,4.775,1.189,-1.728,-4.502,-7.759,233.1,5,295.9,-8.151,-7.842,-80,-8.101,-8.282,-4.68,-4.814,-4.64,-4.878,4.683,7.883,31,-1.62,1.726,4.655,8.231,-7.868,-8.179,-1.597,1.262,237.3,218.2,226.3,219.6,228.2,232.1,232.2,231.6,211.1,244.9,4,norm,1.864,2.045,-1.743,-1.286,-4.72,-4.452,-1.952,-1.787,-1.815,-1.246,2.049,-1.847,220.6,233.7,-4.591,-8.065,1.428,-1.618,7.664,4.819,-5.04,-7.529,4,4.797,4.323,4.879,5.068,1.753,1.586,1.837,1.384,4,5.169,4.388,60,195.984724652,norm,0,18,18,18,280.657,280.666,280.673014203,280.673,280.675,280.677,down,1,1.23801434315,8.76198565685,001,013,1920_1080,Intel(R) Core(TM) i5-3570 CPU @ 3.40GHz,orientation_search,LEPPC096,Intel(R) HD Graphics 2500,2018_Nov_17_1557,testMonitor,
214.2,210.5,218.4,209.9,36,-40,216.1,223.0,,216.1,8.037,8.298,8.396,8.169,7.864,7.554,7.508,4.604,-4.739,-8.319,1.356,-1.728,7.657,4.418,-5.298,-7.767,204.3,207.9,-8.175,221.8,215.0,220.1,214.0,212.8,36,208.4,4,5,probe,5,0,75,norm,36,-4.989,up,norm,213.034930143,204.5,217.6,214.2,203.0,4,217.4,209.5,215.8,10,5,8.343,4.748,1.991,-1.882,-5.11,-7.868,215.4,1,138.0,-7.524,-7.886,-80,-8.398,-8.412,-4.521,-4.448,-4.935,-5.257,4.303,7.952,28,-1.401,1.631,4.78,8.058,-8.128,-7.716,-1.67,1.689,203.4,215.5,212.7,209.7,215.5,207.3,209.6,210.8,216.4,218.9,0,norm,1.106,1.437,-1.613,-1.244,-5.158,-4.562,-1.371,-1.802,-1.631,-1.462,1.283,-1.196,216.3,209.7,-5.29,-7.554,1.272,-1.258,7.985,4.962,-4.464,-7.751,5,4.913,4.683,4.639,5.171,1.699,1.918,1.679,1.152,5,5.2,4.492,-80,224.9087407,norm,0,19,19,19,281.936,281.945,281.951704816,281.952,281.954,281.956,up,1,0.987654164473,9.01234583553,001,013,1920_1080,Intel(R) Core(TM) i5-3570 CPU @ 3.40GHz,orientation_search,LEPPC096,Intel(R) HD Graphics 2500,2018_Nov_17_1557,testMonitor,
245.9,273.6,256.7,266.6,36,10,249.6,269.6,,252.2,7.992,8.298,7.535,7.515,7.728,8.448,8.247,4.914,-4.614,-7.9,2.056,-1.116,7.966,4.442,-5.281,-8.449,264.5,250.9,-7.699,269.8,257.4,259.2,260.4,267.2,36,265.2,4,5,prime,10,0,90,norm,36,-4.402,up,norm,259.85141537,275.8,254.3,271.0,279.9,4,269.4,249.6,255.9,10,6,8.484,5.253,1.853,-2.067,-4.678,-8.086,273.1,6,349.9,-7.845,-7.546,10,-8.204,-7.648,-4.72,-5.104,-4.947,-4.406,4.346,8.314,28,-1.57,2.075,4.915,8.267,-7.726,-7.692,-1.965,1.809,247.8,266.6,247.9,260.3,271.6,254.8,261.4,274.3,278.2,274.3,0,norm,1.1,1.615,-1.347,-1.197,-4.659,-4.888,-1.151,-1.521,-1.751,-1.923,1.735,-1.128,249.5,239.9,-4.799,-7.576,1.888,-1.669,7.939,4.653,-5.17,-8.13,6,4.378,4.861,4.305,4.35,1.816,1.521,1.335,1.993,6,4.924,4.457,-40,224.9087407,norm,0,20,20,20,282.96,282.97,282.980352491,282.981,282.982,282.985,up,1,1.74324761186,8.25675238814,001,013,1920_1080,Intel(R) Core(TM) i5-3570 CPU @ 3.40GHz,orientation_search,LEPPC096,Intel(R) HD Graphics 2500,2018_Nov_17_1557,testMonitor,
252.9,250.3,267.8,261.9,36,10,266.2,263.6,277.3,253.0,7.534,7.987,7.538,7.582,8.379,7.834,7.574,4.318,-4.754,-8.144,1.688,-1.791,7.597,4.613,-4.833,-8.158,261.8,239.9,-8.345,257.8,255.6,246.5,251.4,265.9,36,254.7,1,5,prime,10,0,115,norm,36,-4.421,down,norm,259.85141537,275.0,261.0,272.9,252.4,2,275.7,269.4,257.8,10,6,8.457,5.101,1.613,-1.141,-4.583,-7.682,265.3,6,374.9,-7.669,-8.302,10,-7.858,-8.054,-5.165,-5.102,-4.779,-5.057,4.887,7.947,8,-1.616,2.075,4.492,7.521,-8.19,-8.02,-1.573,1.198,261.8,,264.1,258.6,261.7,262.8,259.3,269.2,247.4,265.3,1,norm,1.115,1.492,-1.522,-1.781,-4.913,-4.546,-1.904,-2.046,-1.264,-1.281,1.508,-1.644,255.8,254.2,-4.896,-8.2,1.83,-1.208,8.157,5.268,-5.031,-7.785,6,4.733,4.743,5.157,4.362,1.763,1.622,1.664,1.43,6,5.15,4.52,-40,224.9087407,norm,0,21,21,21,284.745,284.754,284.760687716,284.761,284.763,284.765,down,1,2.66210606353,7.33789393647,001,013,1920_1080,Intel(R) Core(TM) i5-3570 CPU @ 3.40GHz,orientation_search,LEPPC096,Intel(R) HD Graphics 2500,2018_Nov_17_1557,testMonitor,
256.8,256.4,269.5,262.9,36,10,273.7,253.1,254.5,256.8,8.32,8.363,7.924,7.744,7.702,8.3,8.212,4.369,-5.22,-8.222,1.616,-1.701,7.678,4.924,-4.367,-8.129,263.4,239.9,-8.317,250.7,259.3,261.8,263.7,248.7,36,260.4,0,5,prime,10,0,67,norm,36,-4.733,down,norm,259.85141537,272.3,263.7,274.1,251.7,2,263.3,253.6,269.9,10,6,7.872,4.841,1.342,-2.029,-4.943,-7.91,261.3,6,326.9,-7.552,-7.954,10,-7.673,-7.858,-4.786,-4.929,-4.939,-5.179,4.908,7.82,2,-1.685,2.084,5.183,7.558,-8.378,-7.828,-1.119,1.358,259.1,279.7,265.3,,279.9,267.3,273.3,254.4,253.0,257.5,2,norm,1.602,2.044,-1.303,-1.49,-4.474,-4.664,-1.467,-1.47,-1.459,-1.677,1.144,-1.961,263.1,250.8,-4.426,-7.599,1.166,-1.729,8.477,5.266,-4.557,-7.707,6,5.198,5.054,5.25,5.072,1.488,1.871,1.142,1.656,6,4.356,5.103,-40,224.9087407,norm,0,22,22,22,287.444,287.453,287.460194407,287.46,287.462,287.465,up,0,1.57701303888,-10,001,013,1920_1080,Intel(R) Core(TM) i5-3570 CPU @ 3.40GHz,orientation_search,LEPPC096,Intel(R) HD Graphics 2500,2018_Nov_17_1557,testMonitor,
260.3,268.9,269.4,265.2,36,10,271.4,249.7,263.4,256.2,8.199,8.141,8.444,7.748,8.352,7.69,8.257,5.195,-4.824,-8.163,1.462,-1.2,8.487,4.558,-4.829,-8.453,271.1,278.1,-8.414,260.1,269.9,268.6,266.2,259.5,36,268.8,0,5,prime,10,0,70,norm,36,-4.852,up,norm,259.85141537,272.6,267.5,260.8,263.0,5,254.2,252.3,279.9,10,6,8.175,4.621,1.548,-1.822,-4.839,-7.64,250.6,6,329.9,-8.156,-8.241,10,-7.654,-7.775,-4.781,-4.316,-4.973,-4.728,4.444,8.27,5,-1.857,1.121,4.596,8.134,-8.179,-8.32,-1.593,1.645,272.8,255.9,261.9,251.8,239.9,265.1,263.3,263.4,,268.0,3,norm,1.664,1.175,-1.262,-1.372,-4.438,-4.972,-1.98,-1.164,-1.966,-1.628,1.683,-1.149,255.7,240.4,-4.355,-8.353,1.896,-1.536,7.6,4.782,-4.58,-8.44,6,5.217,4.625,4.762,4.88,1.5,1.737,1.353,1.444,6,4.682,4.819,-40,224.9087407,norm,0,23,23,23,290.114,290.123,290.140466214,290.141,290.142,290.145,up,1,2.73549196046,7.26450803954,001,013,1920_1080,Intel(R) Core(TM) i5-3570 CPU @ 3.40GHz,orientation_search,LEPPC096,Intel(R) HD Graphics 2500,2018_Nov_17_1557,testMonitor,
268.1,251.9,240.8,259.4,36,10,279.9,259.7,255.8,263.5,8.161,7.908,8.463,7.525,8.299,7.902,7.946,5.008,-5.145,-8.057,1.358,-1.696,7.968,4.312,-4.588,-8.136,242.0,259.3,-8.048,265.4,252.6,254.7,264.4,244.0,36,255.4,1,5,prime,10,0,117,norm,36,-4.39,down,norm,259.85141537,244.8,265.5,252.1,267.8,2,264.4,260.0,256.5,10,6,8.166,4.343,1.554,-2.07,-5.069,-7.986,277.9,6,376.9,-8.43,-8.333,10,-8.126,-7.776,-5.046,-4.475,-4.793,-5.042,4.928,8.377,8,-1.795,1.542,4.797,7.978,-8.212,-8.299,-1.781,1.101,241.0,,252.6,263.8,244.6,258.1,256.3,272.0,239.9,251.4,4,norm,1.319,1.251,-1.146,-1.614,-5.003,-5.11,-1.764,-1.579,-1.252,-1.822,1.666,-1.644,258.4,251.3,-5.185,-7.576,1.767,-1.42,8.208,5.224,-4.693,-7.74,6,5.049,4.741,4.693,4.347,1.223,1.809,1.4,1.582,6,4.382,4.965,-40,224.9087407,norm,0,24,24,24,292.918,292.927,292.933619967,292.934,292.935,292.938,up,0,2.55348377981,-10,001,013,1920_1080,Intel(R) Core(TM) i5-3570 CPU @ 3.40GHz,orientation_search,LEPPC096,Intel(R) HD Graphics 2500,2018_Nov_17_1557,testMonitor,
249.4,274.9,262.2,252.4,36,10,258.7,277.4,259.4,255.6,7.864,7.948,8.173,7.583,8.403,8.389,7.507,4.758,-5.271,-7.807,2.047,-1.351,7.574,4.314,-4.889,-7.513,254.8,,-7.897,253.4,239.9,246.2,257.6,275.1,36,254.6,5,5,prime,10,0,60,norm,36,-5.108,up,norm,259.85141537,255.0,279.9,275.5,246.6,4,269.4,262.3,252.1,10,6,8.046,5.145,1.196,-2.028,-4.634,-8.098,242.8,6,319.9,-7.809,-7.702,10,-8.257,-7.519,-4.336,-4.457,-4.381,-5.072,4.404,7.687,34,-1.715,1.798,5.284,8.4,-8.191,-7.749,-1.346,2.034,266.0,260.7,263.8,263.5,250.3,242.9,264.9,272.2,249.8,244.5,5,norm,1.259,1.163,-1.842,-2.036,-5.049,-4.644,-1.207,-1.187,-1.775,-1.927,1.777,-1.171,265.3,258.4,-5.274,-7.639,2.016,-1.969,7.952,4.482,-5.215,-7.75,6,4.745,4.441,4.717,4.632,1.25,1.693,1.933,1.452,6,4.335,4.944,-40,224.9087407,norm,0,25,25,25,296.542,296.551,296.567394691,296.568,296.569,296.572,up,1,1.25540916992,8.74459083008,001,013,1920_1080,Intel(R) Core(TM) i5-3570 CPU @ 3.40GHz,orientation_search,LEPPC096,Intel(R) HD Graphics 2500,2018_Nov_17_1557,testMonitor,
,374.9,376.7,365.9,36,-30,366.9,375.0,381.4,373.2,7.555,8.08,8.25,8.246,7.611,8.386,7.877,4.517,-5.184,-8.42,1.2,-1.991,7.523,4.832,-4.8,-7.538,368.4,375.8,-7.866,364.2,371.3,374.9,369.4,372.2,36,374.2,3,5,probe,5,0,102,norm,36,-4.906,up,norm,371.378174486,378.0,363.2,373.1,368.8,4,373.0,369.7,366.6,10,6,7.996,4.985,1.48,-1.973,-4.807,-8.41,375.1,2,269.4,-8.026,-8.385,10,-7.807,-7.618,-4.939,-5.023,-4.564,-5.276,5.123,8.288,22,-1.584,1.157,4.307,7.574,-8.023,-7.834,-1.317,1.39,372.0,374.6,372.4,370.5,378.0,376.9,372.4,361.4,371.6,375.7,0,norm,1.883,1.983,-1.979,-1.818,-4.493,-4.414,-1.196,-1.62,-1.451,-1.251,1.61,-1.977,369.5,371.2,-4.893,-7.931,1.299,-1.924,8.411,4.933,-4.43,-7.769,7,4.342,4.83,5.16,4.893,1.813,1.8,1.114,1.923,7,4.971,4.456,10,259.85141537,norm,0,26,26,26,297.847,297.856,297.862858024,297.863,297.865,297.867,up,1,2.12752091119,7.87247908881,001,013,1920_1080,Intel(R) Core(TM) i5-3570 CPU @ 3.40GHz,orientation_search,LEPPC096,Intel(R) HD Graphics 2500,2018_Nov_17_1557,testMonitor,
347.5,346.4,,350.9,36,-30,349.1,346.0,342.7,341.8,8.447,8.037,8.116,8.303,7.727,8.234,8.444,4.334,-4.443,-7.545,1.869,-1.637,8.176,5.178,-4.481,-7.602,341.9,335.7,-8.396,346.0,355.4,339.2,349.3,336.8,36,349.8,3,5,probe,5,0,76,norm,36,-4.669,down,norm,345.378174486,344.1,338.4,341.4,342.8,2,350.4,347.8,346.0,10,6,7.961,4.343,1.775,-1.468,-5.037,-7.6,344.0,2,269.4,-7.549,-7.781,10,-7.73,-7.584,-4.568,-5.295,-5.21,-5.09,4.83,8.252,20,-1.575,1.811,4.983,8.485,-8.026,-8.202,-1.76,1.91,344.7,343.3,349.6,336.9,347.9,353.1,340.3,335.4,343.6,338.9,1,norm,1.721,1.988,-1.681,-1.137,-4.485,-5.029,-1.753,-2.076,-1.215,-1.221,2.023,-1.934,337.3,346.7,-4.447,-7.627,1.221,-1.892,7.59,4.439,-5.018,-7.591,7,4.673,4.537,4.475,5.071,1.756,1.955,1.719,2.026,7,4.635,5.273,10,259.85141537,norm,0,27,27,27,300.012,300.021,300.030393255,300.031,300.032,300.035,down,1,1.57569789241,8.42430210759,001,013,1920_1080,Intel(R) Core(TM) i5-3570 CPU @ 3.40GHz,orientation_search,LEPPC096,Intel(R) HD Graphics 2500,2018_Nov_17_1557,testMonitor,
18.1,28.5,30.7,8.8,36,10,10.9,20.4,14.4,10.7,7.588,8.132,8.391,7.932,8.381,8.448,7.684,4.323,-4.691,-8.094,1.22,-1.241,7.745,5.096,-4.596,-8.283,17.7,29.0,-8.145,-4.1,17.3,8.4,-4.3,2.1,36,34.3,2,5,prime,10,0,101,norm,36,-4.576,down,norm,15.6987018528,19.3,18.7,-3.2,33.2,1,32.6,,3.5,10,5,7.882,4.689,2.098,-1.389,-5.003,-8.179,22.4,5,116.7,-8.163,-7.587,10,-7.539,-8.002,-4.709,-4.615,-4.42,-4.809,5.06,7.67,13,-2.023,2.035,4.685,7.795,-8.031,-8.171,-1.755,2.042,10.6,10.6,4.3,27.8,3.5,10.8,14.7,35.7,13.6,7.9,0,norm,1.115,1.697,-1.158,-1.957,-4.753,-4.378,-1.867,-1.777,-1.545,-1.549,1.994,-1.166,11.7,22.0,-4.758,-8.437,1.267,-1.397,8.035,4.617,-4.854,-8.366,8,4.641,4.764,5.262,4.492,1.587,1.153,1.884,2.015,8,4.671,5.088,-30,259.85141537,norm,0,28,28,28,301.643,301.652,301.668356103,301.669,301.67,301.673,down,1,1.76037470053,8.23962529947,001,013,1920_1080,Intel(R) Core(TM) i5-3570 CPU @ 3.40GHz,orientation_search,LEPPC096,Intel(R) HD Graphics 2500,2018_Nov_17_1557,testMonitor,
35.7,0.6,11.9,16.3,36,10,22.2,28.9,29.6,16.3,8.245,7.788,7.707,8.075,8.296,7.508,8.358,4.612,-4.428,-8.264,1.832,-1.999,7.693,4.658,-5.027,-7.768,-4.3,5.2,-7.696,14.0,27.6,30.6,4.2,16.7,36,12.7,1,5,prime,10,0,112,norm,36,-5.298,up,norm,15.6987018528,14.5,25.6,22.2,4.3,5,,8.1,28.0,10,5,8.233,4.591,1.783,-2.093,-4.671,-7.839,15.3,5,127.7,-8.049,-7.635,10,-8.184,-7.885,-5.177,-5.142,-4.695,-4.832,4.977,8.368,11,-1.489,1.777,5.082,8.144,-8.252,-8.163,-1.376,1.635,0.6,10.1,24.2,16.6,3.5,5.0,17.4,13.8,31.4,3.1,1,norm,1.836,1.781,-1.92,-1.457,-4.548,-5.019,-1.428,-1.125,-1.961,-1.681,1.23,-1.288,24.7,19.6,-5.096,-8.309,1.25,-1.463,8.357,4.832,-5.295,-8.14,8,4.302,5.009,4.322,5.251,1.234,1.706,1.799,1.792,8,5.009,4.315,-30,259.85141537,norm,0,29,29,29,303.466,303.475,303.493447359,303.494,303.495,303.498,up,1,1.06949539367,8.93050460633,001,013,1920_1080,Intel(R) Core(TM) i5-3570 CPU @ 3.40GHz,orientation_search,LEPPC096,Intel(R) HD Graphics 2500,2018_Nov_17_1557,testMonitor,
19.1,13.6,11.5,1.0,36,10,14.8,12.1,16.4,25.5,8.428,8.231,7.8,8.197,7.584,7.611,8.277,4.425,-4.496,-8.473,2.024,-1.297,7.722,4.809,-4.662,-8.355,3.0,35.7,-8.414,24.5,23.4,18.5,4.0,4.2,36,24.7,0,5,prime,10,0,101,norm,36,-4.76,up,norm,15.6987018528,11.5,25.6,13.2,17.7,3,6.8,18.5,18.7,10,5,8.282,4.758,1.637,-1.922,-4.306,-8.034,7.4,5,116.7,-8.153,-8.231,10,-8.258,-7.913,-4.804,-4.367,-4.902,-4.959,4.438,7.543,3,-1.179,1.118,4.766,8.483,-8.134,-7.941,-1.378,1.222,-3.3,18.0,,19.3,3.5,-1.1,-4.3,22.4,27.4,4.3,2,norm,1.326,1.64,-1.983,-1.343,-4.917,-5.046,-1.426,-2.034,-2.09,-1.265,1.362,-1.419,15.5,16.6,-4.986,-8.028,1.788,-1.906,8.469,4.955,-5.073,-8.31,8,4.3,4.72,4.934,4.892,1.929,1.188,1.48,1.997,8,4.589,4.855,-30,259.85141537,norm,0,30,30,30,304.586,304.597,304.601698673,304.602,304.604,304.606,up,1,2.4336829021,7.5663170979,001,013,1920_1080,Intel(R) Core(TM) i5-3570 CPU @ 3.40GHz,orientation_search,LEPPC096,Intel(R) HD Graphics 2500,2018_Nov_17_1557,testMonitor,
14.9,,26.5,-3.2,36,10,3.7,25.4,5.3,-4.3,7.75,8.112,8.335,7.606,8.013,8.179,8.461,5.047,-4.661,-8.372,1.564,-2.085,7.959,4.91,-5.154,-8.398,19.5,0.2,-7.938,16.7,20.9,4.4,20.2,31.0,36,17.1,3,5,prime,10,0,99,norm,36,-4.418,up,norm,15.6987018528,-3.3,11.7,7.5,15.8,5,9.2,11.9,12.2,10,5,7.516,4.716,1.706,-1.853,-5.131,-7.729,7.3,5,114.7,-8.131,-8.015,10,-7.785,-8.211,-4.992,-4.66,-4.467,-4.774,4.69,7.658,23,-2.0,2.073,4.813,7.812,-7.908,-8.27,-1.201,1.75,11.2,18.7,20.3,16.5,28.2,15.6,2.7,35.7,4.9,13.5,3,norm,1.384,1.323,-1.669,-1.686,-4.967,-4.94,-1.819,-2.091,-1.74,-1.781,1.351,-2.039,21.3,12.1,-4.934,-7.998,1.901,-1.289,7.619,4.498,-5.246,-7.697,8,4.91,5.028,5.179,4.821,1.321,1.349,2.001,1.465,8,4.984,4.978,-30,259.85141537,norm,0,31,31,31,307.072,307.082,307.097026537,307.097,307.099,307.101,up,1,1.4238680519,8.5761319481,001,013,1920_1080,Intel(R) Core(TM) i5-3570 CPU @ 3.40GHz,orientation_search,LEPPC096,Intel(R) HD Graphics 2500,2018_Nov_17_1557,testMonitor,
5.9,24.8,0.7,9.2,36,10,20.1,11.2,,-4.3,8.379,7.999,7.715,7.585,7.52,8.015,8.318,4.795,-5.223,-7.577,1.526,-1.545,7.772,4.935,-5.052,-7.516,14.6,12.3,-8.313,10.0,13.7,32.8,28.4,4.4,36,24.0,4,5,prime,10,0,77,norm,36,-5.237,up,norm,15.6987018528,29.6,9.4,23.7,23.1,4,11.9,5.4,3.7,10,5,7.656,4.729,1.195,-1.14,-5.223,-8.307,9.1,5,92.7,-7.799,-7.856,10,-8.132,-7.557,-5.216,-4.539,-4.468,-4.906,4.82,8.082,28,-1.119,1.873,4.319,8.389,-7.77,-8.087,-1.476,1.532,2.6,35.7,14.3,17.4,2.4,28.2,3.5,20.3,-1.7,13.6,4,norm,1.816,1.676,-1.465,-1.698,-4.5,-4.798,-1.642,-1.445,-1.413,-2.033,1.774,-1.823,29.4,22.5,-4.488,-8.268,1.321,-2.05,8.208,4.462,-4.839,-7.608,8,5.177,4.511,5.2,5.286,1.142,2.033,1.545,1.144,8,4.946,5.007,-30,259.85141537,norm,0,32,32,32,308.558,308.568,308.578741715,308.579,308.581,308.583,up,1,1.81078583095,8.18921416905,001,013,1920_1080,Intel(R) Core(TM) i5-3570 CPU @ 3.40GHz,orientation_search,LEPPC096,Intel(R) HD Graphics 2500,2018_Nov_17_1557,testMonitor,
134.4,138.4,136.2,133.3,36,-20,136.2,141.0,,133.8,7.981,7.537,8.164,8.084,7.511,7.512,7.966,4.935,-4.563,-8.211,2.026,-2.001,8.266,4.896,-4.896,-8.221,135.8,131.2,-7.958,138.6,133.2,128.5,139.8,134.5,36,133.8,4,5,probe,5,0,110,norm,36,-4.476,up,norm,134.309814083,124.3,144.3,142.0,129.7,4,128.8,137.3,130.1,10,5,7.508,4.707,1.887,-1.118,-4.386,-8.04,140.8,1,24.3,-7.503,-7.793,10,-7.604,-7.709,-5.151,-4.405,-5.016,-4.945,5.258,8.097,28,-1.514,1.903,4.36,8.284,-8.417,-7.768,-1.202,1.317,139.5,138.6,128.1,134.7,137.2,132.1,130.6,131.5,131.4,132.6,0,norm,1.788,1.72,-1.727,-1.797,-5.066,-5.16,-1.978,-1.699,-1.475,-1.78,1.732,-2.029,131.6,130.1,-4.869,-7.658,1.426,-1.724,7.984,4.363,-5.15,-7.894,9,4.384,4.392,4.682,4.305,1.535,1.843,1.609,2.04,9,5.071,4.8,10,15.6987018528,norm,0,33,33,33,310.427,310.436,310.450743886,310.451,310.453,310.455,up,1,1.47259638647,8.52740361353,001,013,1920_1080,Intel(R) Core(TM) i5-3570 CPU @ 3.40GHz,orientation_search,LEPPC096,Intel(R) HD Graphics 2500,2018_Nov_17_1557,testMonitor,
313.2,319.0,307.1,314.0,36,-10,332.3,339.4,314.8,316.0,7.9,8.062,7.99,8.414,8.112,8.343,7.739,4.411,-4.506,-8.092,1.951,-1.883,7.69,4.46,-4.65,-8.471,323.2,325.0,-8.265,322.0,301.1,322.0,319.3,299.4,36,307.1,2,5,prime,10,0,110,norm,36,-5.079,up,norm,319.447585276,317.7,314.4,,305.3,3,322.5,322.1,310.5,10,6,7.591,5.27,1.201,-1.708,-4.37,-8.402,326.8,6,429.4,-7.974,-7.889,-10,-7.915,-7.577,-5.094,-4.336,-4.788,-4.45,5.241,7.908,15,-1.693,1.259,4.59,8.33,-8.182,-7.858,-1.779,1.481,333.9,311.4,322.4,327.2,315.1,316.3,331.9,316.3,322.2,303.1,0,norm,1.603,1.983,-1.877,-2.013,-4.366,-4.343,-1.638,-1.951,-1.272,-1.581,1.46,-1.145,319.2,329.0,-4.696,-8.244,1.169,-1.617,8.397,5.054,-5.063,-8.421,10,4.394,5.272,5.242,4.964,1.593,1.674,2.087,1.935,10,4.673,4.826,-20,15.6987018528,norm,0,34,34,34,311.964,311.974,311.980373922,311.981,311.982,311.985,up,1,1.76092677831,8.23907322169,001,013,1920_1080,Intel(R) Core(TM) i5-3570 CPU @ 3.40GHz,orientation_search,LEPPC096,Intel(R) HD Graphics 2500,2018_Nov_17_1557,testMonitor,
315.0,306.0,305.9,315.5,36,-10,311.7,325.4,,334.8,8.035,7.915,7.655,8.465,7.504,7.579,7.922,5.04,-5.254,-7.625,1.17,-1.764,7.588,4.496,-5.154,-8.255,315.4,328.4,-8.026,320.5,327.8,315.1,326.3,311.3,36,334.9,4,5,prime,10,0,89,norm,36,-4.389,up,norm,319.447585276,320.1,318.3,314.5,318.4,4,310.9,318.9,308.2,10,6,7.777,5.06,1.563,-1.984,-4.635,-8.379,311.7,6,408.4,-8.358,-8.359,-10,-7.887,-8.438,-4.739,-4.493,-5.202,-4.843,4.919,8.467,28,-1.99,1.12,4.501,7.652,-7.772,-7.537,-1.371,1.943,322.6,317.3,339.4,324.8,322.0,307.0,328.3,299.4,318.4,321.4,1,norm,1.986,2.023,-2.012,-1.754,-4.445,-4.652,-1.65,-2.091,-1.406,-1.593,1.193,-1.839,301.6,335.5,-5.067,-7.726,2.012,-2.096,7.879,5.105,-4.775,-7.515,10,4.73,4.577,4.571,5.26,1.675,1.137,1.833,1.915,10,4.721,5.189,-20,15.6987018528,norm,0,35,35,35,313.778,313.787,313.804534584,313.805,313.807,313.809,up,1,1.42360423781,8.57639576219,001,013,1920_1080,Intel(R) Core(TM) i5-3570 CPU @ 3.40GHz,orientation_search,LEPPC096,Intel(R) HD Graphics 2500,2018_Nov_17_1557,testMonitor,
319.5,322.1,314.9,308.5,36,-10,306.1,325.8,325.5,311.9,7.791,8.054,8.423,8.413,7.592,7.916,7.701,5.286,-4.548,-7.753,2.048,-1.637,7.935,5.132,-5.253,-7.692,320.6,316.0,-8.415,299.4,314.3,326.5,,308.5,36,330.9,5,5,prime,10,0,70,norm,36,-4.462,down,norm,319.447585276,303.4,327.0,324.3,318.3,2,327.1,301.3,334.6,10,6,7.855,4.396,1.964,-1.654,-5.008,-7.99,305.4,6,389.4,-8.386,-7.847,-10,-8.195,-7.661,-4.656,-4.944,-4.89,-5.069,5.148,7.76,32,-1.108,1.146,4.377,7.634,-8.428,-8.125,-1.709,1.156,318.4,327.2,316.2,318.0,315.7,327.5,315.0,305.8,339.4,306.6,2,norm,2.002,2.001,-1.352,-1.411,-4.384,-5.002,-2.05,-1.494,-1.667,-1.63,1.535,-1.743,318.6,337.3,-4.753,-8.308,1.152,-1.182,8.382,4.81,-4.985,-8.035,10,4.626,4.805,4.325,4.721,1.824,1.999,1.565,1.835,10,5.01,4.426,-20,15.6987018528,norm,0,36,36,36,315.271,315.28,315.287845022,315.288,315.29,315.292,down,1,1.32184142238,8.67815857762,001,013,1920_1080,Intel(R) Core(TM) i5-3570 CPU @ 3.40GHz,orientation_search,LEPPC096,Intel(R) HD Graphics 2500,2018_Nov_17_1557,testMonitor,
311.4,318.6,314.1,299.4,36,-10,339.4,310.6,,309.2,8.028,7.525,8.356,8.278,8.38,7.838,8.315,4.388,-4.759,-7.562,2.087,-1.386,7.978,5.089,-5.15,-7.941,327.3,309.2,-7.977,322.9,319.0,325.6,314.6,326.7,36,310.3,4,5,prime,10,0,61,norm,36,-5.124,up,norm,319.447585276,311.5,323.5,321.6,306.8,4,318.7,301.7,308.2,10,6,7.664,5.077,1.18,-1.72,-5.213,-7.612,315.7,6,380.4,-8.439,-7.592,-10,-7.792,-8.14,-4.55,-4.428,-5.182,-4.996,5.159,7.528,28,-1.739,1.593,4.933,8.117,-8.035,-7.878,-2.096,1.911,333.0,309.9,334.4,327.2,315.5,304.3,329.1,315.7,336.4,314.1,3,norm,2.028,1.18,-1.449,-1.532,-4.891,-4.991,-1.637,-1.11,-1.629,-2.036,1.662,-1.274,307.7,320.0,-4.317,-7.704,1.237,-1.731,7.824,4.484,-4.873,-7.614,10,5.096,4.663,5.271,4.784,1.195,1.428,1.8,1.532,10,4.335,4.655,-20,15.6987018528,norm,0,37,37,37,316.631,316.64,316.646877893,316.647,316.649,316.651,up,1,1.05077877981,8.94922122019,001,013,1920_1080,Intel(R) Core(TM) i5-3570 CPU @ 3.40GHz,orientation_search,LEPPC096,Intel(R) HD Graphics 2500,2018_Nov_17_1557,testMonitor,
327.9,309.2,300.5,315.8,36,-10,322.9,327.6,331.1,310.4,8.388,7.665,7.854,8.239,8.1,8.108,7.567,5.07,-4.925,-8.27,1.32,-1.275,8.156,4.362,-4.588,-8.22,322.4,326.6,-8.467,305.3,310.2,313.3,299.4,330.0,36,338.5,1,5,prime,10,0,90,norm,36,-4.93,up,norm,319.447585276,334.7,314.3,306.4,332.0,5,,337.3,314.6,10,6,8.284,5.225,2.024,-1.683,-5.245,-7.537,314.7,6,409.4,-7.529,-8.109,-10,-7.883,-7.564,-5.164,-4.694,-4.874,-5.098,5.161,7.59,11,-1.388,1.316,4.953,8.24,-8.259,-7.725,-1.134,1.493,307.3,314.5,317.8,321.0,339.4,329.3,325.1,327.1,324.0,309.6,4,norm,1.396,1.371,-1.381,-2.061,-4.865,-4.944,-1.879,-1.449,-1.834,-1.213,1.375,-1.643,312.3,336.5,-4.863,-8.347,1.514,-1.813,8.132,4.851,-4.621,-8.497,10,4.768,4.445,4.556,4.421,2.035,1.101,2.038,2.097,10,5.061,4.382,-20,15.6987018528,norm,0,38,38,38,317.721,317.73,317.737797466,317.738,317.74,317.742,up,1,1.18873936405,8.81126063595,001,013,1920_1080,Intel(R) Core(TM) i5-3570 CPU @ 3.40GHz,orientation_search,LEPPC096,Intel(R) HD Graphics 2500,2018_Nov_17_1557,testMonitor,
332.1,336.7,,322.5,36,-10,305.5,306.3,310.7,306.0,8.141,7.88,8.496,8.493,7.944,7.856,8.147,5.08,-5.234,-7.831,1.546,-1.854,7.626,5.074,-4.862,-8.317,304.8,305.6,-8.183,338.2,310.3,308.3,325.8,339.4,36,329.3,3,5,prime,10,0,106,norm,36,-4.34,down,norm,319.447585276,314.6,331.4,312.9,299.4,2,319.4,327.2,316.9,10,6,7.754,5.242,1.551,-1.632,-4.591,-8.179,315.3,6,425.4,-8.451,-8.417,-10,-7.823,-8.426,-5.131,-4.749,-4.609,-4.785,5.214,7.716,20,-1.74,1.262,4.651,7.677,-8.436,-8.409,-1.48,1.368,324.2,324.7,314.5,324.9,306.8,314.2,327.7,322.8,324.7,318.8,5,norm,1.444,1.623,-1.225,-1.94,-4.75,-4.654,-1.339,-1.545,-1.408,-1.133,2.044,-1.681,319.2,319.1,-4.324,-7.543,1.602,-1.556,8.387,5.173,-4.754,-7.884,10,5.104,5.093,4.552,4.304,1.429,1.358,1.435,2.082,10,5.015,5.21,-20,15.6987018528,norm,0,39,39,39,318.964,318.974,318.983475699,318.984,318.985,318.988,up,0,0.970534621978,-10,001,013,1920_1080,Intel(R) Core(TM) i5-3570 CPU @ 3.40GHz,orientation_search,LEPPC096,Intel(R) HD Graphics 2500,2018_Nov_17_1557,testMonitor,
360.1,361.3,,367.1,36,-80,370.4,371.9,375.0,365.0,8.441,7.863,8.1,8.153,7.81,8.484,8.056,4.931,-4.733,-7.795,1.913,-1.122,8.162,4.899,-5.019,-8.017,374.8,365.3,-8.078,376.4,376.8,375.0,364.3,363.6,36,361.1,3,5,probe,5,0,64,norm,36,-5.202,down,norm,368.568177104,366.8,377.6,369.9,369.1,2,363.0,367.9,360.6,10,6,7.701,4.524,2.062,-1.115,-4.582,-7.747,365.8,1,304.6,-7.93,-7.543,-10,-8.107,-7.512,-5.097,-4.987,-4.314,-5.179,4.384,7.65,20,-1.481,1.415,4.714,7.925,-8.321,-7.857,-2.051,1.736,373.6,370.6,378.6,366.5,361.5,371.1,358.6,367.0,372.1,367.1,0,norm,1.76,1.96,-1.754,-1.854,-4.338,-4.869,-1.398,-2.039,-1.176,-1.651,1.346,-1.14,369.6,366.2,-4.866,-8.146,1.95,-1.255,7.946,4.462,-4.826,-8.012,11,4.73,5.146,5.098,4.428,1.984,1.966,1.12,2.008,11,4.851,5.228,-10,319.447585276,norm,0,40,40,40,321.024,321.034,321.042703473,321.043,321.045,321.047,down,1,1.32196487771,8.67803512229,001,013,1920_1080,Intel(R) Core(TM) i5-3570 CPU @ 3.40GHz,orientation_search,LEPPC096,Intel(R) HD Graphics 2500,2018_Nov_17_1557,testMonitor,
85.1,53.0,65.6,63.6,36,60,65.4,70.3,86.0,56.6,8.393,8.008,8.497,8.172,8.262,8.032,7.61,4.646,-4.439,-8.269,1.784,-1.729,8.193,4.848,-5.076,-8.495,58.9,71.8,-8.431,69.3,59.7,73.9,72.7,74.1,36,66.5,1,5,prime,10,0,81,norm,36,-5.174,down,norm,65.9621039676,62.6,71.6,66.4,65.0,2,64.5,65.2,75.9,10,6,7.815,5.254,1.959,-1.52,-5.235,-7.805,61.4,6,147.0,-7.88,-7.853,60,-7.698,-7.602,-4.317,-4.51,-4.967,-4.588,4.967,8.309,8,-2.015,1.951,4.806,8.135,-7.716,-8.478,-1.614,1.218,72.9,,59.9,63.1,69.5,46.0,61.8,48.9,50.0,58.1,0,norm,1.368,1.746,-2.008,-1.787,-4.631,-4.755,-1.551,-2.0,-1.824,-1.853,1.326,-1.864,69.1,63.4,-4.723,-7.948,1.754,-1.761,7.663,5.284,-4.364,-8.014,12,4.864,5.231,4.481,4.787,1.443,1.318,1.611,1.964,12,4.458,4.882,-80,319.447585276,norm,0,41,41,41,322.386,322.395,322.401788261,322.402,322.404,322.406,down,1,1.2897816712,8.7102183288,001,013,1920_1080,Intel(R) Core(TM) i5-3570 CPU @ 3.40GHz,orientation_search,LEPPC096,Intel(R) HD Graphics 2500,2018_Nov_17_1557,testMonitor,
65.3,76.5,70.0,56.5,36,60,46.0,74.6,80.3,86.0,8.208,7.6,7.901,7.81,8.064,8.477,7.597,4.398,-4.563,-7.938,1.339,-1.34,7.561,5.189,-4.499,-8.185,67.4,53.8,-7.844,84.4,73.3,61.8,46.0,,36,84.6,4,5,prime,10,0,63,norm,36,-4.885,down,norm,65.9621039676,60.8,70.3,69.6,62.9,2,64.6,75.8,70.2,10,6,8.229,4.709,1.798,-1.466,-4.842,-7.986,52.9,6,129.0,-7.536,-8.007,60,-8.408,-8.48,-5.267,-5.075,-4.683,-4.727,5.131,8.492,26,-1.23,2.09,4.653,8.109,-8.123,-7.773,-1.255,1.798,69.7,65.2,51.7,57.6,51.4,69.5,76.9,59.5,65.2,72.8,1,norm,1.774,1.987,-1.662,-1.338,-4.674,-4.671,-1.113,-2.023,-1.861,-1.19,1.281,-1.489,69.8,56.4,-4.943,-7.707,1.855,-1.581,7.94,4.696,-5.166,-8.071,12,4.489,5.275,4.834,4.82,1.452,1.518,1.717,1.989,12,4.603,5.012,-80,319.447585276,norm,0,42,42,42,323.713,323.722,323.728882119,323.729,323.731,323.733,down,1,1.13881994205,8.86118005795,001,013,1920_1080,Intel(R) Core(TM) i5-3570 CPU @ 3.40GHz,orientation_search,LEPPC096,Intel(R) HD Graphics 2500,2018_Nov_17_1557,testMonitor,
,77.2,66.7,73.3,36,60,51.9,66.1,46.0,71.8,7.756,7.537,7.624,7.757,8.01,8.018,8.11,4.44,-5.122,-8.05,1.605,-1.342,7.6,5.092,-4.589,-7.676,69.1,86.0,-8.132,73.6,58.7,69.5,61.4,74.5,36,79.8,3,5,prime,10,0,72,norm,36,-5.198,up,norm,65.9621039676,63.6,58.3,74.8,63.8,4,61.4,46.6,78.4,10,6,7.758,5.282,1.718,-2.044,-4.754,-8.312,58.6,6,138.0,-7.829,-7.663,60,-7.526,-8.459,-4.932,-4.882,-4.408,-5.152,4.834,7.631,22,-1.843,1.407,4.827,7.891,-8.074,-8.195,-1.489,2.026,76.7,57.2,66.9,58.2,46.0,66.4,67.6,63.6,78.8,66.8,2,norm,1.288,1.43,-2.031,-2.011,-5.253,-4.577,-1.373,-1.665,-1.758,-1.565,1.376,-1.556,67.8,67.2,-4.898,-8.05,1.473,-1.415,7.613,4.891,-4.754,-8.421,12,4.524,5.04,5.245,4.357,2.013,1.882,1.627,1.824,12,4.665,4.321,-80,319.447585276,norm,0,43,43,43,324.904,324.916,324.920561471,324.921,324.922,324.925,up,1,1.05816829106,8.94183170894,001,013,1920_1080,Intel(R) Core(TM) i5-3570 CPU @ 3.40GHz,orientation_search,LEPPC096,Intel(R) HD Graphics 2500,2018_Nov_17_1557,testMonitor,
68.5,64.1,54.5,76.5,36,60,60.5,76.2,46.0,61.0,7.678,8.16,7.747,7.943,8.018,8.443,7.842,4.426,-4.558,-8.347,1.389,-2.031,8.383,4.544,-5.092,-7.797,61.9,69.4,-7.991,,69.3,76.6,81.5,84.6,36,62.3,5,5,prime,10,0,117,norm,36,-4.912,down,norm,65.9621039676,66.1,57.2,71.1,82.0,1,66.1,66.5,63.0,10,6,8.332,5.218,1.532,-1.931,-5.072,-8.254,58.0,6,183.0,-8.188,-8.253,60,-8.491,-8.305,-5.275,-4.392,-5.014,-5.215,4.688,7.875,31,-1.919,1.767,5.001,8.291,-7.816,-8.442,-1.818,1.453,74.8,54.7,67.1,56.6,56.3,76.6,57.7,57.1,55.3,86.0,3,norm,1.506,1.981,-1.268,-1.103,-4.439,-4.565,-1.871,-1.71,-1.649,-1.576,1.199,-1.565,61.9,76.0,-5.057,-8.179,1.841,-1.665,7.643,4.45,-4.551,-7.745,12,5.082,5.2,5.279,4.441,1.57,1.552,1.488,1.797,12,4.31,5.122,-80,319.447585276,norm,0,44,44,44,326.016,326.025,326.034406006,326.035,326.036,326.039,down,1,2.4666008037,7.5333991963,001,013,1920_1080,Intel(R) Core(TM) i5-3570 CPU @ 3.40GHz,orientation_search,LEPPC096,Intel(R) HD Graphics 2500,2018_Nov_17_1557,testMonitor,
68.0,69.3,76.0,65.2,36,60,79.1,60.3,82.3,70.3,8.017,8.328,7.95,8.103,7.982,8.244,7.655,5.271,-5.113,-7.799,1.989,-1.481,8.194,4.952,-4.861,-8.231,82.2,68.4,-7.552,63.9,86.0,76.9,46.2,67.1,36,63.5,2,5,prime,10,0,64,norm,36,-4.555,down,norm,65.9621039676,53.1,70.2,69.2,,2,61.1,62.4,46.0,10,6,8.301,4.973,1.337,-1.376,-4.495,-7.939,54.0,6,130.0,-7.581,-8.266,60,-7.537,-8.188,-4.65,-5.039,-4.63,-4.952,5.243,7.919,14,-2.097,1.558,4.339,8.267,-7.823,-7.852,-1.387,1.297,46.2,80.0,76.1,82.8,70.0,81.4,62.9,47.1,85.0,79.2,4,norm,1.499,2.02,-1.908,-1.343,-4.983,-5.04,-1.995,-1.331,-1.636,-1.849,1.132,-2.016,66.4,55.8,-5.198,-8.414,1.295,-2.036,7.892,5.148,-4.914,-7.668,12,4.881,4.513,5.152,4.757,2.016,1.31,1.139,1.947,12,4.971,5.156,-80,319.447585276,norm,0,45,45,45,328.538,328.549,328.56154822,328.562,328.563,328.566,down,1,1.69162215181,8.30837784819,001,013,1920_1080,Intel(R) Core(TM) i5-3570 CPU @ 3.40GHz,orientation_search,LEPPC096,Intel(R) HD Graphics 2500,2018_Nov_17_1557,testMonitor,
54.0,59.0,67.4,64.1,36,60,56.4,64.0,75.0,74.3,7.703,8.39,7.943,7.861,8.365,8.171,8.133,5.101,-5.208,-8.408,1.384,-1.277,7.959,4.776,-4.362,-8.381,62.6,46.0,-7.687,67.9,56.5,50.7,74.9,53.7,36,52.9,2,5,prime,10,0,114,norm,36,-5.059,down,norm,65.9621039676,60.9,62.9,63.9,68.8,1,76.3,,74.0,10,6,7.797,5.229,1.457,-1.25,-5.189,-8.085,56.0,6,180.0,-8.041,-7.513,60,-8.281,-8.032,-4.418,-4.955,-4.619,-5.112,5.287,8.153,13,-2.055,1.959,4.527,7.671,-8.438,-8.435,-1.451,1.957,64.0,70.9,52.8,86.0,72.5,59.2,55.4,66.1,54.0,50.3,5,norm,1.953,1.769,-1.731,-1.843,-4.548,-4.916,-1.822,-1.281,-1.432,-2.097,1.776,-1.489,58.7,73.4,-4.566,-7.633,1.779,-1.45,7.67,4.973,-5.257,-8.452,12,4.539,4.57,5.03,5.297,1.726,1.357,1.384,1.953,12,4.791,5.206,-80,319.447585276,norm,0,46,46,46,330.274,330.284,330.292958609,330.293,330.295,330.298,down,1,2.19951529443,7.80048470557,001,013,1920_1080,Intel(R) Core(TM) i5-3570 CPU @ 3.40GHz,orientation_search,LEPPC096,Intel(R) HD Graphics 2500,2018_Nov_17_1557,testMonitor,
199.8,197.4,203.2,189.8,36,-10,200.9,195.5,193.3,199.6,8.088,8.191,7.877,8.213,8.48,7.518,8.029,5.097,-4.634,-8.276,1.719,-1.912,7.987,5.223,-5.279,-7.512,199.1,194.3,-7.999,199.1,188.4,205.6,,206.9,36,187.0,5,5,probe,5,0,72,norm,36,-4.587,down,norm,196.877507647,200.8,191.3,202.2,198.8,2,197.5,202.4,194.7,10,6,7.815,5.067,2.1,-1.349,-4.84,-8.128,205.9,2,124.9,-8.305,-8.255,60,-8.061,-7.838,-5.168,-4.651,-4.666,-4.955,5.059,8.101,32,-1.387,1.372,4.715,8.323,-7.944,-7.695,-1.359,1.741,194.1,194.3,190.4,196.5,192.5,194.2,191.2,203.8,186.9,201.6,0,norm,1.75,1.931,-1.531,-1.462,-4.574,-5.039,-1.78,-2.076,-1.564,-1.294,1.769,-2.062,206.5,193.4,-5.245,-8.296,1.888,-1.572,8.443,4.758,-4.687,-7.65,13,5.19,5.25,4.652,4.669,2.029,1.483,1.52,1.651,13,4.642,4.539,60,65.9621039676,norm,0,47,47,47,332.53,332.539,332.554848429,332.555,332.557,332.559,down,1,1.57455389308,8.42544610692,001,013,1920_1080,Intel(R) Core(TM) i5-3570 CPU @ 3.40GHz,orientation_search,LEPPC096,Intel(R) HD Graphics 2500,2018_Nov_17_1557,testMonitor,
227.8,224.1,220.3,221.9,36,-10,225.0,234.9,226.4,220.4,8.004,7.672,8.264,7.671,7.658,7.614,8.185,4.502,-4.366,-7.972,1.686,-1.12,7.803,4.611,-4.398,-8.327,221.9,224.9,-8.242,231.4,227.7,234.6,226.4,231.8,36,225.3,1,5,probe,5,0,103,norm,36,-4.379,up,norm,227.877507647,224.2,235.0,233.4,221.8,5,,231.0,234.2,10,6,7.906,5.171,1.114,-1.863,-4.51,-8.023,232.0,2,124.9,-8.085,-7.519,60,-8.349,-7.522,-4.842,-4.304,-4.792,-4.401,5.199,8.222,11,-1.26,1.592,5.071,7.508,-7.63,-8.16,-1.393,1.996,228.8,217.9,229.0,217.9,237.9,221.7,227.9,229.8,226.9,229.2,1,norm,1.662,1.876,-2.018,-1.399,-4.939,-4.42,-1.449,-1.229,-1.637,-1.805,1.489,-1.285,221.8,225.5,-4.484,-8.243,1.565,-1.528,8.405,4.614,-4.917,-7.794,13,4.443,5.249,4.321,4.627,1.331,1.267,1.919,1.42,13,4.459,4.704,60,65.9621039676,norm,0,48,48,48,334.167,334.181,334.199079126,334.199,334.201,334.204,up,1,0.937630605333,9.06236939467,001,013,1920_1080,Intel(R) Core(TM) i5-3570 CPU @ 3.40GHz,orientation_search,LEPPC096,Intel(R) HD Graphics 2500,2018_Nov_17_1557,testMonitor,
27.7,29.4,33.9,19.3,36,0,35.4,48.6,30.3,38.8,8.467,7.694,8.081,7.641,7.56,7.75,8.101,4.96,-4.79,-7.881,1.796,-1.877,8.31,4.711,-4.364,-7.817,33.1,,-8.41,58.2,21.6,44.9,38.5,37.1,36,41.7,5,5,prime,10,0,113,norm,36,-4.379,up,norm,39.3291216343,25.5,55.3,21.8,43.6,4,30.0,34.8,31.0,10,5,7.719,4.862,2.025,-1.875,-5.261,-8.178,51.4,5,152.3,-8.475,-8.086,0,-8.136,-8.413,-5.136,-4.382,-4.858,-5.07,4.358,8.5,34,-1.979,1.704,5.259,8.283,-8.182,-8.032,-1.211,1.728,46.8,31.5,30.7,30.1,43.9,36.8,27.5,34.3,43.3,36.7,0,norm,1.839,1.308,-1.268,-1.393,-4.62,-4.911,-1.435,-1.987,-2.017,-1.652,1.791,-1.726,31.9,51.5,-5.096,-7.821,1.513,-1.281,8.288,4.549,-4.869,-7.881,14,5.146,4.468,4.862,4.449,1.199,1.432,1.1,1.758,14,4.939,4.37,-10,65.9621039676,norm,0,49,49,49,335.16,335.17,335.17653268,335.177,335.178,335.181,up,1,1.28713145639,8.71286854361,001,013,1920_1080,Intel(R) Core(TM) i5-3570 CPU @ 3.40GHz,orientation_search,LEPPC096,Intel(R) HD Graphics 2500,2018_Nov_17_1557,testMonitor,
48.4,25.3,30.4,29.4,36,0,44.3,41.4,48.0,45.1,8.344,7.895,8.347,7.759,8.101,7.535,8.378,5.173,-4.576,-8.071,1.719,-1.909,7.867,5.018,-4.942,-8.397,19.3,44.8,-8.384,32.0,46.7,36.7,59.3,31.2,36,39.0,1,5,prime,10,0,66,norm,36,-4.58,down,norm,39.3291216343,57.3,39.5,21.4,56.3,1,41.8,33.4,47.6,10,5,8.278,4.529,1.443,-1.36,-4.774,-8.197,42.6,5,105.3,-7.598,-8.375,0,-7.815,-8.042,-4.728,-4.858,-4.957,-4.62,4.999,7.808,7,-2.019,1.386,4.9,7.775,-8.065,-7.909,-1.271,1.878,36.8,19.3,50.8,49.5,40.8,39.5,,45.5,34.7,35.4,1,norm,1.799,1.418,-1.288,-1.382,-5.249,-4.339,-1.982,-1.81,-1.845,-1.63,1.67,-1.21,35.4,39.4,-5.116,-8.497,1.871,-1.133,8.041,4.791,-4.422,-7.512,14,5.262,4.625,5.155,5.246,1.493,2.079,1.351,1.869,14,5.18,4.378,-10,65.9621039676,norm,0,50,50,50,336.486,336.496,336.503279113,336.503,336.505,336.508,down,1,1.28727845578,8.71272154422,001,013,1920_1080,Intel(R) Core(TM) i5-3570 CPU @ 3.40GHz,orientation_search,LEPPC096,Intel(R) HD Graphics 2500,2018_Nov_17_1557,testMonitor,
47.4,43.0,36.1,48.3,36,0,43.3,32.3,38.3,40.6,8.306,8.371,7.712,8.214,8.379,8.177,8.234,5.07,-4.344,-7.95,1.462,-1.642,8.094,4.696,-4.373,-7.795,19.3,59.3,-8.422,49.1,44.6,24.5,38.8,34.3,36,37.1,0,5,prime,10,0,75,norm,36,-4.733,down,norm,39.3291216343,22.7,43.4,30.8,44.5,0,27.0,48.0,51.8,10,5,8.261,4.563,1.563,-1.342,-4.388,-7.927,37.6,5,114.3,-8.208,-7.705,0,-8.29,-7.787,-4.512,-4.496,-5.02,-4.75,5.166,7.891,0,-1.702,1.906,4.431,8.036,-8.025,-7.521,-1.9,1.403,28.0,35.4,48.5,53.0,36.4,,32.6,36.1,36.5,24.8,2,norm,2.068,1.471,-2.042,-1.686,-4.436,-4.877,-1.252,-1.435,-1.317,-1.636,1.486,-1.524,42.8,24.5,-5.281,-7.767,2.022,-1.465,7.777,4.365,-4.903,-7.958,14,4.832,4.514,5.048,4.505,1.98,1.121,2.098,1.267,14,4.369,5.116,-10,65.9621039676,norm,0,51,51,51,337.812,337.822,337.828275739,337.829,337.83,337.833,down,1,1.82614681405,8.17385318595,001,013,1920_1080,Intel(R) Core(TM) i5-3570 CPU @ 3.40GHz,orientation_search,LEPPC096,Intel(R) HD Graphics 2500,2018_Nov_17_1557,testMonitor,
46.0,41.9,40.9,42.7,36,0,39.6,33.7,50.8,59.3,7.786,8.317,7.934,7.815,7.609,8.047,7.813,5.196,-4.541,-7.714,1.167,-1.971,7.982,5.095,-5.204,-8.083,45.5,27.1,-8.324,47.7,51.2,39.0,33.2,,36,40.2,4,5,prime,10,0,62,norm,36,-5.244,down,norm,39.3291216343,19.3,52.8,43.6,35.5,2,31.2,56.4,25.8,10,5,7.847,4.41,1.658,-1.504,-5.259,-8.385,35.2,5,101.3,-7.538,-7.632,0,-8.496,-7.745,-4.891,-4.543,-5.161,-4.349,5.085,8.44,26,-1.641,1.93,5.146,7.629,-7.506,-8.005,-1.64,1.97,43.5,37.1,30.8,45.0,49.0,36.1,40.9,40.3,51.4,46.4,3,norm,1.301,1.879,-1.127,-1.515,-5.015,-4.865,-1.74,-1.224,-1.428,-1.542,1.144,-1.108,35.8,49.2,-5.293,-8.158,1.451,-1.684,7.64,4.777,-4.361,-7.68,14,4.664,4.841,5.206,5.061,1.528,1.762,1.974,1.701,14,4.825,4.68,-10,65.9621039676,norm,0,52,52,52,339.692,339.703,339.714966379,339.715,339.717,339.719,down,1,1.35831417361,8.64168582639,001,013,1920_1080,Intel(R) Core(TM) i5-3570 CPU @ 3.40GHz,orientation_search,LEPPC096,Intel(R) HD Graphics 2500,2018_Nov_17_1557,testMonitor,
33.7,53.1,19.3,33.8,36,0,51.0,34.0,45.4,29.2,8.074,7.756,7.699,7.797,8.378,7.784,7.545,4.369,-4.64,-8.188,1.339,-1.783,7.824,4.753,-4.634,-8.267,36.1,,-7.675,32.1,32.3,40.2,33.6,29.8,36,27.0,5,5,prime,10,0,106,norm,36,-4.639,up,norm,39.3291216343,32.3,35.9,40.3,33.5,4,21.9,35.8,44.8,10,5,7.912,4.399,1.222,-1.635,-4.656,-8.312,48.8,5,145.3,-7.716,-7.574,0,-8.487,-8.09,-4.68,-5.164,-4.674,-4.513,4.896,8.119,34,-1.434,1.214,4.845,8.427,-7.807,-7.77,-1.56,1.842,48.7,47.6,38.9,28.2,34.6,33.3,59.3,56.7,26.9,33.8,4,norm,1.139,1.224,-1.304,-1.861,-4.854,-4.698,-1.887,-1.727,-1.622,-2.039,1.485,-2.004,57.3,57.9,-4.81,-8.3,1.633,-1.36,7.926,4.543,-4.718,-8.168,14,4.496,4.752,4.51,4.679,1.887,1.847,1.91,1.575,14,4.445,4.366,-10,65.9621039676,norm,0,53,53,53,341.11,341.12,341.134618235,341.135,341.136,341.139,up,1,0.921521344038,9.07847865596,001,013,1920_1080,Intel(R) Core(TM) i5-3570 CPU @ 3.40GHz,orientation_search,LEPPC096,Intel(R) HD Graphics 2500,2018_Nov_17_1557,testMonitor,
144.6,142.8,130.7,142.0,36,40,137.2,136.9,144.9,140.0,8.021,7.819,7.66,8.139,7.712,7.956,8.379,4.515,-4.485,-8.081,1.399,-1.625,8.069,4.886,-4.636,-7.634,145.8,142.9,-8.16,136.3,140.5,132.8,147.8,142.2,36,141.3,2,5,probe,5,0,101,norm,36,-4.645,down,norm,137.793556375,142.4,128.9,135.7,133.7,0,140.8,135.8,,10,5,8.142,4.785,2.088,-1.628,-4.414,-8.015,134.7,1,36.8,-7.785,-8.056,0,-7.797,-8.477,-4.517,-5.208,-5.157,-4.548,4.469,7.787,12,-1.976,2.026,4.666,8.142,-8.258,-7.857,-2.039,1.756,137.4,138.0,138.0,142.2,128.7,127.8,133.9,138.7,141.1,144.1,0,norm,2.036,1.254,-1.75,-1.682,-5.023,-4.612,-1.893,-1.361,-1.583,-1.55,1.112,-1.743,138.3,139.7,-4.972,-7.837,1.233,-1.374,8.293,5.203,-4.778,-7.889,15,4.395,4.799,5.056,4.837,1.147,1.894,1.315,1.184,15,4.62,4.307,0,39.3291216343,norm,0,54,54,54,342.094,342.107,342.125820005,342.126,342.128,342.13,down,1,1.69823108726,8.30176891274,001,013,1920_1080,Intel(R) Core(TM) i5-3570 CPU @ 3.40GHz,orientation_search,LEPPC096,Intel(R) HD Graphics 2500,2018_Nov_17_1557,testMonitor,
3.0,20.9,-7.2,6.9,36,20,3.1,-2.2,5.4,,8.021,8.045,8.076,7.883,7.708,7.599,7.987,4.533,-4.536,-7.769,1.528,-1.204,8.226,5.033,-4.778,-8.128,21.2,10.7,-8.252,3.8,22.1,7.2,15.6,11.4,36,-5.0,4,5,prime,10,0,61,norm,36,-4.933,up,norm,12.7672214041,11.0,27.0,30.5,10.2,5,6.3,5.0,18.1,10,5,8.318,5.274,1.38,-1.96,-5.183,-7.827,32.8,5,73.8,-8.35,-7.977,20,-8.186,-8.186,-4.392,-4.332,-5.265,-5.265,5.27,7.537,29,-1.297,1.821,5.26,8.321,-8.407,-7.609,-1.19,1.596,17.4,2.5,3.5,23.8,12.0,28.9,8.0,2.7,-6.8,19.8,0,norm,1.435,2.064,-1.197,-1.405,-4.507,-4.995,-1.833,-1.576,-1.294,-1.414,1.691,-1.817,19.6,8.9,-5.114,-8.2,1.629,-1.781,7.825,5.196,-4.958,-8.475,16,4.883,4.624,4.646,4.92,1.665,1.652,1.893,1.514,16,5.003,4.799,40,39.3291216343,norm,0,55,55,55,343.866,343.884,343.897749702,343.898,343.9,343.903,up,1,1.60941538616,8.39058461384,001,013,1920_1080,Intel(R) Core(TM) i5-3570 CPU @ 3.40GHz,orientation_search,LEPPC096,Intel(R) HD Graphics 2500,2018_Nov_17_1557,testMonitor,
-1.0,32.8,10.1,8.4,36,20,21.0,-1.8,21.1,11.5,8.403,8.297,7.583,7.767,8.044,8.436,7.854,4.402,-4.651,-7.618,1.928,-1.599,8.491,4.379,-4.834,-8.14,21.8,25.7,-8.004,15.9,6.8,12.0,3.5,16.0,36,16.2,0,5,prime,10,0,87,norm,36,-4.392,up,norm,12.7672214041,1.6,6.0,0.4,26.0,3,12.1,16.6,20.3,10,5,8.192,4.33,1.392,-1.713,-4.545,-7.984,13.4,5,99.8,-7.67,-7.921,20,-8.39,-8.45,-4.976,-4.681,-4.406,-5.251,5.295,8.142,3,-1.799,1.427,4.372,8.193,-8.277,-8.109,-1.322,2.087,27.5,11.5,,-7.2,6.0,23.1,22.3,22.8,7.5,4.7,1,norm,1.653,1.32,-1.48,-1.586,-4.327,-4.328,-1.888,-1.399,-1.229,-1.55,1.216,-1.878,13.4,14.7,-4.359,-7.78,1.542,-1.938,8.277,4.553,-5.155,-8.343,16,4.726,4.435,4.939,4.81,1.712,1.495,1.827,1.821,16,4.866,4.312,40,39.3291216343,norm,0,56,56,56,345.545,345.555,345.564700105,345.565,345.567,345.569,up,1,2.6518239545,7.3481760455,001,013,1920_1080,Intel(R) Core(TM) i5-3570 CPU @ 3.40GHz,orientation_search,LEPPC096,Intel(R) HD Graphics 2500,2018_Nov_17_1557,testMonitor,
20.7,27.9,18.2,-7.2,36,20,26.0,7.4,3.5,16.5,7.765,8.452,7.836,7.926,7.789,8.013,8.249,4.349,-5.265,-7.787,1.882,-1.594,7.626,4.449,-4.863,-7.588,26.3,9.2,-7.749,-3.0,29.6,21.6,0.8,23.9,36,3.6,1,5,prime,10,0,114,norm,36,-4.417,up,norm,12.7672214041,32.8,30.5,-2.8,-0.9,5,,4.5,-0.6,10,5,8.2,4.485,1.889,-1.264,-4.731,-8.41,26.6,5,126.8,-7.722,-7.801,20,-7.793,-7.994,-4.431,-4.368,-4.789,-4.726,5.01,8.374,11,-1.259,1.443,5.15,7.94,-8.363,-7.853,-1.442,1.928,12.2,11.2,15.0,13.8,5.6,18.4,15.8,16.9,15.5,20.1,2,norm,1.473,1.108,-1.781,-1.521,-4.502,-5.262,-1.838,-1.669,-1.401,-1.505,1.466,-1.183,3.1,9.1,-4.368,-7.969,2.088,-1.719,7.777,4.318,-4.844,-8.46,16,4.783,5.258,5.108,5.217,1.45,1.854,1.375,1.27,16,5.151,5.245,40,39.3291216343,norm,0,57,57,57,348.253,348.262,348.279212204,348.279,348.281,348.284,up,1,0.872530402765,9.12746959724,001,013,1920_1080,Intel(R) Core(TM) i5-3570 CPU @ 3.40GHz,orientation_search,LEPPC096,Intel(R) HD Graphics 2500,2018_Nov_17_1557,testMonitor,
19.3,12.2,20.5,13.2,36,20,16.9,15.6,17.3,9.4,7.98,7.915,7.584,8.43,7.856,7.859,7.61,5.074,-5.246,-8.483,1.61,-1.233,7.662,4.803,-4.702,-8.379,32.0,27.1,-8.29,17.7,,7.7,22.1,14.4,36,7.0,5,5,prime,10,0,104,norm,36,-5.221,down,norm,12.7672214041,-6.4,26.8,3.1,-2.1,0,17.5,2.6,13.5,10,5,8.096,5.294,1.912,-1.34,-4.855,-7.549,18.5,5,116.8,-8.062,-7.681,20,-7.923,-8.466,-4.493,-4.959,-5.085,-5.151,5.004,8.468,30,-1.546,1.918,4.455,7.982,-8.03,-8.172,-1.723,1.801,19.9,29.5,18.2,21.4,-7.2,7.2,0.9,8.7,19.4,32.8,3,norm,1.182,1.851,-1.695,-1.811,-5.04,-5.206,-2.092,-1.206,-1.746,-1.482,1.279,-1.194,9.9,8.2,-4.443,-8.426,1.745,-1.719,8.087,5.156,-4.566,-7.99,16,4.898,5.159,5.281,4.419,2.069,1.429,1.753,2.015,16,5.006,4.477,40,39.3291216343,norm,0,58,58,58,349.189,349.198,349.215180539,349.215,349.217,349.22,down,1,0.835385136883,9.16461486312,001,013,1920_1080,Intel(R) Core(TM) i5-3570 CPU @ 3.40GHz,orientation_search,LEPPC096,Intel(R) HD Graphics 2500,2018_Nov_17_1557,testMonitor,
4.5,6.8,6.9,27.3,36,20,20.6,-2.9,5.1,10.2,7.991,8.113,7.54,7.699,8.457,8.351,8.24,4.574,-4.749,-8.369,1.998,-1.598,7.981,4.722,-4.737,-7.575,6.4,13.9,-7.722,13.7,6.4,-3.1,22.2,10.0,36,10.7,1,5,prime,10,0,104,norm,36,-4.793,down,norm,12.7672214041,16.8,16.1,10.6,25.6,2,-5.4,28.2,32.8,10,5,8.458,4.552,1.777,-1.54,-4.991,-8.321,28.9,5,116.8,-8.356,-8.027,20,-7.772,-7.925,-4.854,-4.373,-5.094,-4.967,5.208,7.839,8,-1.519,1.989,5.226,7.853,-7.592,-7.57,-1.699,1.493,-6.4,,10.6,-4.4,26.4,28.8,24.5,16.3,7.4,21.6,4,norm,1.209,2.015,-1.695,-2.067,-5.104,-4.655,-1.258,-2.04,-1.679,-1.922,1.14,-1.404,5.7,-7.2,-5.084,-7.701,1.746,-2.077,7.564,4.541,-4.664,-8.271,16,5.166,4.953,4.908,4.877,2.02,1.907,1.193,1.898,16,4.71,4.626,40,39.3291216343,norm,0,59,59,59,350.073,350.083,350.089502403,350.09,350.091,350.094,down,1,1.65956632464,8.34043367536,001,013,1920_1080,Intel(R) Core(TM) i5-3570 CPU @ 3.40GHz,orientation_search,LEPPC096,Intel(R) HD Graphics 2500,2018_Nov_17_1557,testMonitor,
143.9,136.6,140.1,142.3,36,40,137.9,133.0,138.3,140.5,7.721,7.81,7.616,8.1,7.544,8.321,8.234,4.783,-5.256,-7.793,1.293,-1.189,8.138,4.542,-5.285,-8.485,136.1,133.4,-7.779,138.9,139.5,143.1,137.8,138.2,36,,4,5,probe,5,0,109,norm,36,-5.066,up,norm,138.479361385,138.2,134.8,144.2,139.2,3,134.2,135.4,129.3,10,5,7.517,4.627,1.969,-1.46,-5.056,-7.837,140.1,2,29.5,-7.843,-7.575,20,-7.999,-7.593,-4.731,-5.082,-4.958,-4.724,4.862,7.804,27,-1.351,1.971,4.931,7.59,-8.339,-7.518,-1.193,2.096,139.9,130.3,142.1,137.0,135.3,128.5,137.6,148.5,133.6,134.5,0,norm,1.849,1.59,-1.845,-1.98,-5.263,-4.973,-1.419,-1.5,-2.095,-1.91,1.852,-1.787,136.5,144.1,-4.954,-7.993,1.875,-1.808,8.213,4.443,-5.001,-8.134,17,4.677,5.233,5.276,4.414,1.4,1.153,1.65,2.084,17,4.329,4.551,20,12.7672214041,norm,0,60,60,60,351.785,351.795,351.80449474,351.805,351.806,351.809,up,1,1.10353254316,8.89646745684,001,013,1920_1080,Intel(R) Core(TM) i5-3570 CPU @ 3.40GHz,orientation_search,LEPPC096,Intel(R) HD Graphics 2500,2018_Nov_17_1557,testMonitor,
101.0,97.9,98.4,102.6,36,40,,104.0,100.3,91.3,8.116,8.202,8.462,7.727,8.229,7.961,7.954,4.836,-4.587,-7.875,1.667,-1.292,8.222,5.297,-5.166,-7.866,89.5,109.5,-7.609,103.7,96.1,106.7,97.4,108.1,36,103.8,4,5,probe,5,0,70,norm,36,-5.007,down,norm,99.4793613849,100.0,95.6,98.9,106.3,0,90.8,96.5,98.2,10,5,8.292,4.729,1.203,-1.69,-4.884,-8.029,101.1,2,29.5,-7.686,-7.784,20,-7.686,-7.593,-5.145,-4.513,-5.137,-5.146,5.111,8.037,24,-1.252,1.151,5.205,8.13,-7.955,-8.079,-1.967,1.625,99.9,100.8,101.6,107.1,97.6,104.9,100.6,104.4,104.1,98.9,1,norm,1.271,1.796,-1.779,-1.383,-5.013,-5.258,-1.584,-1.615,-1.492,-2.003,1.46,-1.852,92.7,99.4,-5.071,-7.546,1.445,-1.638,8.256,5.018,-4.616,-8.477,17,5.258,4.927,4.85,4.57,1.463,1.617,1.829,1.8,17,4.402,4.955,20,12.7672214041,norm,0,61,61,61,352.929,352.939,352.945364826,352.946,352.947,352.95,down,1,1.09011696261,8.90988303739,001,013,1920_1080,Intel(R) Core(TM) i5-3570 CPU @ 3.40GHz,orientation_search,LEPPC096,Intel(R) HD Graphics 2500,2018_Nov_17_1557,testMonitor,
210.3,232.1,214.2,237.2,36,80,,226.3,219.0,226.1,8.342,8.302,7.563,7.941,7.512,7.835,8.488,4.811,-5.071,-8.388,1.845,-1.502,7.936,4.738,-5.11,-8.346,230.0,234.7,-7.71,213.9,248.4,225.3,231.4,222.3,36,237.0,4,5,prime,10,0,111,norm,36,-4.476,down,norm,230.312154753,233.6,241.6,236.1,222.0,0,211.2,229.7,211.0,10,5,8.13,5.266,1.898,-1.487,-5.058,-8.467,238.1,5,341.3,-8.218,-8.056,80,-7.794,-8.457,-4.822,-4.865,-5.194,-4.79,4.602,7.968,24,-1.459,1.34,5.182,7.912,-7.858,-8.362,-1.357,2.063,231.0,231.5,210.6,238.5,225.9,226.4,221.7,250.3,220.3,242.3,0,norm,1.36,1.247,-1.989,-1.989,-4.557,-4.711,-1.324,-1.25,-1.191,-1.361,1.163,-1.429,219.1,226.6,-5.171,-7.582,1.576,-1.486,7.611,4.979,-4.489,-8.317,18,4.534,5.035,4.412,4.936,1.755,1.245,1.434,1.764,18,5.132,4.775,40,12.7672214041,norm,0,62,62,62,354.072,362.374,362.381813248,362.382,362.384,362.386,down,1,0.954965968283,9.04503403172,001,013,1920_1080,Intel(R) Core(TM) i5-3570 CPU @ 3.40GHz,orientation_search,LEPPC096,Intel(R) HD Graphics 2500,2018_Nov_17_1557,testMonitor,
230.4,236.8,230.1,232.8,36,80,226.7,218.4,232.4,225.2,7.887,8.273,7.672,7.969,8.326,7.54,8.163,4.878,-5.064,-8.161,1.756,-2.04,7.711,5.046,-4.961,-7.69,234.8,214.7,-8.347,,250.3,236.2,238.9,227.8,36,235.3,5,5,prime,10,0,112,norm,36,-4.694,down,norm,230.312154753,232.9,232.8,238.5,238.1,1,229.0,215.2,243.5,10,5,8.389,4.823,1.159,-1.991,-4.415,-8.487,235.2,5,342.3,-7.621,-8.035,80,-8.109,-7.999,-4.798,-5.217,-4.946,-5.006,4.72,7.839,31,-1.223,1.936,5.201,8.259,-8.103,-8.108,-1.777,2.004,218.7,220.8,221.4,224.0,228.6,246.7,231.6,235.9,227.4,248.3,1,norm,2.066,1.786,-1.78,-2.032,-4.822,-4.709,-1.847,-1.34,-1.103,-1.415,2.004,-1.427,238.2,242.9,-4.497,-7.78,1.984,-1.115,8.044,5.223,-4.628,-7.545,18,5.123,4.744,4.901,4.494,1.653,1.382,1.272,1.844,18,5.028,5.103,40,12.7672214041,norm,0,63,63,63,363.38,363.389,363.395713896,363.396,363.398,363.4,down,1,0.988086409077,9.01191359092,001,013,1920_1080,Intel(R) Core(TM) i5-3570 CPU @ 3.40GHz,orientation_search,LEPPC096,Intel(R) HD Graphics 2500,2018_Nov_17_1557,testMonitor,
229.0,234.2,210.3,237.9,36,80,230.6,246.9,232.0,241.8,7.603,8.366,7.543,8.316,7.652,8.001,8.314,4.594,-4.368,-7.509,1.226,-1.439,8.323,4.836,-4.369,-8.464,240.1,216.4,-8.098,234.3,233.3,233.6,237.8,248.6,36,229.1,0,5,prime,10,0,95,norm,36,-5.06,down,norm,230.312154753,221.2,242.2,235.9,241.3,1,238.9,224.9,213.4,10,5,7.778,4.915,1.209,-1.107,-4.874,-7.947,250.3,5,325.3,-8.239,-7.638,80,-8.484,-8.113,-4.573,-5.118,-4.348,-4.854,5.06,7.842,1,-1.631,1.34,4.4,8.01,-8.159,-8.396,-1.79,2.024,214.9,230.5,248.7,230.5,,222.3,224.0,233.7,214.1,241.5,2,norm,1.665,1.962,-1.73,-1.402,-4.895,-4.478,-1.73,-1.795,-1.19,-2.082,1.34,-2.036,226.9,232.7,-5.253,-8.452,1.341,-1.521,8.087,4.392,-5.164,-8.007,18,4.821,4.669,4.755,5.083,2.058,2.021,1.196,1.185,18,4.554,5.292,40,12.7672214041,norm,0,64,64,64,364.425,364.44,364.45764018,364.458,364.459,364.462,down,1,0.85390162632,9.14609837368,001,013,1920_1080,Intel(R) Core(TM) i5-3570 CPU @ 3.40GHz,orientation_search,LEPPC096,Intel(R) HD Graphics 2500,2018_Nov_17_1557,testMonitor,
225.5,229.0,213.0,239.4,36,80,228.2,221.6,221.0,229.5,8.34,8.151,8.483,8.052,7.93,7.794,8.417,5.014,-4.608,-8.066,1.18,-1.909,8.173,5.232,-4.794,-7.514,220.6,233.2,-8.212,226.1,225.4,228.8,231.6,234.2,36,244.2,3,5,prime,10,0,78,norm,36,-5.152,down,norm,230.312154753,240.2,223.4,212.2,218.9,0,223.4,229.2,226.7,10,5,7.755,5.148,1.49,-1.1,-4.577,-7.715,243.0,5,308.3,-7.76,-7.995,80,-7.916,-8.06,-5.279,-5.169,-4.746,-4.586,5.282,8.342,18,-1.646,1.193,5.058,8.255,-8.434,-8.219,-1.493,1.592,227.5,224.1,250.3,247.8,210.3,226.6,226.5,226.0,227.8,228.2,3,norm,2.072,1.186,-1.789,-1.653,-4.332,-4.531,-1.981,-1.2,-1.912,-2.023,1.759,-1.986,234.1,,-4.835,-8.157,1.796,-1.306,8.194,5.136,-4.999,-8.029,18,4.549,4.512,4.782,4.363,1.422,1.822,1.584,1.137,18,5.186,4.356,40,12.7672214041,norm,0,65,65,65,365.349,365.359,365.375886486,365.376,365.378,365.381,down,1,0.950797464126,9.04920253587,001,013,1920_1080,Intel(R) Core(TM) i5-3570 CPU @ 3.40GHz,orientation_search,LEPPC096,Intel(R) HD Graphics 2500,2018_Nov_17_1557,testMonitor,
227.7,222.9,239.8,227.6,36,80,221.2,218.5,233.4,233.6,7.693,7.57,7.887,8.131,8.024,7.833,8.095,4.865,-4.919,-7.614,1.939,-1.59,7.977,4.432,-5.027,-8.007,229.5,234.8,-7.615,240.0,210.3,227.9,222.8,223.6,36,224.8,0,5,prime,10,0,92,norm,36,-4.925,up,norm,230.312154753,241.5,242.0,223.0,246.6,3,225.7,236.9,221.9,10,5,8.343,4.396,1.531,-1.901,-4.62,-8.265,235.2,5,322.3,-7.946,-7.62,80,-8.276,-7.544,-5.133,-4.78,-4.906,-4.786,4.879,7.7,3,-1.141,1.319,4.547,8.341,-7.933,-7.768,-1.256,1.381,250.3,224.3,,246.0,227.3,223.9,225.6,214.3,236.3,243.1,4,norm,1.248,1.196,-1.185,-1.9,-5.005,-5.174,-1.309,-1.984,-1.36,-1.195,1.891,-1.475,231.3,223.6,-5.184,-8.172,1.528,-1.481,7.773,4.815,-4.412,-8.242,18,4.614,4.874,5.268,5.081,1.518,1.484,1.965,2.0,18,4.492,4.621,40,12.7672214041,norm,0,66,66,66,366.365,366.377,366.38053221,366.381,366.382,366.385,up,1,1.10670495291,8.89329504709,001,013,1920_1080,Intel(R) Core(TM) i5-3570 CPU @ 3.40GHz,orientation_search,LEPPC096,Intel(R) HD Graphics 2500,2018_Nov_17_1557,testMonitor,
412.2,404.8,411.3,411.0,36,30,406.3,407.9,406.3,409.1,7.758,8.304,8.164,7.662,8.418,7.65,7.74,4.744,-4.363,-8.26,2.034,-1.599,7.6,4.417,-5.053,-7.987,404.1,404.9,-7.758,405.5,417.8,408.7,409.9,397.8,36,407.4,2,5,probe,5,0,99,norm,36,-4.476,down,norm,407.76698525,406.6,416.6,415.4,403.9,0,415.0,403.3,,10,5,7.965,5.197,1.217,-1.749,-4.778,-7.944,412.3,1,308.8,-7.562,-7.691,80,-8.433,-8.375,-4.534,-4.429,-4.8,-4.431,4.471,8.492,12,-1.525,1.637,4.924,8.303,-8.39,-7.556,-1.701,1.71,413.8,416.2,405.4,411.7,404.3,401.5,406.1,406.9,417.3,406.9,0,norm,2.048,1.643,-1.197,-1.891,-5.268,-5.088,-1.249,-1.49,-1.693,-1.563,2.016,-1.884,407.4,412.6,-5.012,-7.536,1.265,-1.354,7.789,5.169,-4.545,-7.562,19,4.764,4.558,4.875,4.704,1.36,1.803,1.45,1.568,19,5.166,4.305,80,230.312154753,norm,0,67,67,67,367.529,367.541,367.545241551,367.545,367.547,367.55,down,1,0.770131294297,9.2298687057,001,013,1920_1080,Intel(R) Core(TM) i5-3570 CPU @ 3.40GHz,orientation_search,LEPPC096,Intel(R) HD Graphics 2500,2018_Nov_17_1557,testMonitor,
312.3,289.8,309.7,325.0,36,30,301.6,295.7,293.7,,7.881,8.071,7.941,8.017,8.015,7.791,8.119,4.354,-4.572,-8.461,1.533,-1.659,7.689,4.521,-4.438,-7.649,296.2,314.8,-8.177,294.4,317.4,314.4,308.4,295.5,36,299.2,4,5,prime,10,0,104,norm,36,-4.79,up,norm,309.831176027,311.8,325.5,306.2,325.2,5,302.6,298.5,312.7,10,5,7.762,4.509,1.599,-1.569,-5.29,-8.137,309.7,5,413.8,-7.553,-7.563,30,-8.365,-8.383,-4.705,-4.958,-4.441,-4.442,4.309,8.113,29,-1.739,1.11,5.223,7.992,-7.908,-8.37,-1.998,2.071,309.3,325.8,329.8,317.7,294.4,310.7,300.9,302.3,306.0,304.3,0,norm,1.216,1.726,-1.638,-1.902,-5.237,-4.418,-1.226,-1.253,-1.96,-1.692,1.127,-1.371,316.5,311.6,-4.906,-7.537,1.868,-1.528,7.908,4.439,-4.667,-7.941,20,4.992,4.877,4.529,4.736,1.145,1.659,2.024,2.078,20,4.349,4.908,30,230.312154753,norm,0,68,68,68,368.351,368.36,368.371049693,368.371,368.373,368.375,up,1,1.47267758326,8.52732241674,001,013,1920_1080,Intel(R) Core(TM) i5-3570 CPU @ 3.40GHz,orientation_search,LEPPC096,Intel(R) HD Graphics 2500,2018_Nov_17_1557,testMonitor,
306.9,314.3,305.3,323.2,36,30,317.3,301.0,292.6,323.6,7.504,8.484,8.473,8.269,7.642,8.419,7.505,4.509,-4.818,-7.59,2.034,-1.589,8.232,4.357,-4.316,-8.189,302.5,309.4,-8.064,310.3,329.8,308.8,305.1,289.8,36,320.2,1,5,prime,10,0,60,norm,36,-4.696,down,norm,309.831176027,314.3,320.9,299.2,312.1,1,306.4,301.8,303.8,10,5,7.916,5.023,1.632,-1.557,-4.835,-8.148,300.1,5,369.8,-8.099,-8.371,30,-8.333,-8.282,-5.11,-5.23,-4.802,-4.782,5.106,8.262,7,-1.397,1.461,4.68,7.649,-7.895,-8.317,-1.189,1.565,306.2,328.4,313.0,315.1,309.7,311.4,,296.9,307.2,319.0,1,norm,1.591,1.283,-1.981,-1.241,-4.538,-4.758,-1.709,-2.065,-1.591,-1.226,1.12,-2.019,306.6,318.8,-4.439,-8.337,1.388,-2.034,8.003,5.103,-5.105,-8.114,20,4.571,5.155,5.185,5.172,1.2,1.453,1.936,1.263,20,4.959,4.332,30,230.312154753,norm,0,69,69,69,369.864,369.875,369.884035595,369.884,369.886,369.889,down,1,0.988342978848,9.01165702115,001,013,1920_1080,Intel(R) Core(TM) i5-3570 CPU @ 3.40GHz,orientation_search,LEPPC096,Intel(R) HD Graphics 2500,2018_Nov_17_1557,testMonitor,
297.0,314.9,305.8,323.8,36,30,315.1,306.2,329.8,289.8,8.113,8.327,7.559,7.989,8.364,7.847,8.151,4.717,-4.744,-8.127,1.308,-1.908,8.059,4.935,-4.372,-7.983,301.5,301.7,-7.913,312.3,312.4,311.9,311.2,308.1,36,320.7,0,5,prime,10,0,70,norm,36,-4.859,up,norm,309.831176027,316.3,306.0,305.3,311.3,3,301.1,322.5,316.8,10,5,7.991,4.846,1.335,-1.801,-4.637,-7.847,301.7,5,379.8,-7.76,-8.123,30,-8.279,-7.601,-5.071,-4.781,-4.725,-4.653,4.679,7.582,3,-1.368,1.299,5.261,7.671,-7.941,-7.973,-1.709,2.014,324.3,304.6,,310.2,303.9,321.4,309.8,314.7,313.8,308.5,2,norm,1.385,1.802,-1.514,-1.368,-4.576,-5.157,-1.718,-1.209,-1.212,-1.79,1.606,-1.574,313.5,299.7,-5.225,-7.966,1.351,-1.823,7.649,4.342,-5.234,-8.216,20,4.714,4.857,4.894,4.69,1.773,1.785,1.294,1.96,20,5.182,4.591,30,230.312154753,norm,0,70,70,70,370.914,370.924,370.930198836,370.93,370.932,370.935,up,1,0.872369820272,9.12763017973,001,013,1920_1080,Intel(R) Core(TM) i5-3570 CPU @ 3.40GHz,orientation_search,LEPPC096,Intel(R) HD Graphics 2500,2018_Nov_17_1557,testMonitor,
312.9,315.7,306.5,300.3,36,30,301.6,320.6,,322.7,8.102,8.198,8.471,7.51,7.551,8.008,8.085,4.625,-5.166,-8.364,1.228,-1.448,8.26,4.663,-5.194,-8.267,308.8,289.8,-7.664,294.7,310.5,304.1,310.1,298.6,36,318.5,4,5,prime,10,0,82,norm,36,-5.093,up,norm,309.831176027,308.1,306.0,314.4,298.3,4,313.4,302.6,313.0,10,5,8.176,4.49,1.518,-1.293,-4.793,-8.234,314.1,5,391.8,-7.501,-7.621,30,-8.155,-7.719,-4.304,-4.601,-5.095,-5.236,5.014,7.571,28,-2.091,1.22,4.4,8.323,-7.92,-7.72,-1.683,1.831,305.7,292.7,313.0,314.8,316.4,312.0,306.0,298.2,329.8,313.7,3,norm,1.158,1.976,-1.357,-1.272,-5.036,-4.851,-1.377,-1.659,-1.51,-1.602,1.334,-2.033,311.9,297.2,-5.099,-8.061,1.122,-1.721,7.503,4.66,-4.487,-7.842,20,5.119,4.647,4.899,4.918,1.962,2.047,1.873,1.415,20,4.589,4.593,30,230.312154753,norm,0,71,71,71,371.84,371.849,371.864940767,371.865,371.867,371.869,up,1,1.15685498586,8.84314501414,001,013,1920_1080,Intel(R) Core(TM) i5-3570 CPU @ 3.40GHz,orientation_search,LEPPC096,Intel(R) HD Graphics 2500,2018_Nov_17_1557,testMonitor,
319.4,303.4,313.6,326.3,36,30,306.9,308.2,313.2,312.1,8.287,8.095,8.428,7.958,7.924,7.954,8.339,5.26,-4.328,-8.268,1.786,-1.887,7.839,4.393,-5.02,-7.659,315.4,328.4,-8.359,293.9,303.9,324.4,,324.0,36,318.2,5,5,prime,10,0,62,norm,36,-5.099,down,norm,309.831176027,308.2,289.8,291.6,315.5,2,296.9,301.3,314.9,10,5,8.157,4.981,1.281,-1.419,-4.979,-8.013,297.9,5,371.8,-7.765,-7.812,30,-7.828,-8.452,-5.063,-4.31,-4.984,-4.873,4.631,7.756,32,-1.823,1.277,5.023,8.188,-8.106,-7.658,-2.052,1.62,329.8,302.2,311.6,311.8,310.4,327.1,317.0,315.8,311.3,316.2,4,norm,1.351,2.025,-2.032,-1.261,-4.895,-4.45,-1.757,-1.413,-1.655,-1.33,1.209,-1.659,305.2,291.0,-4.357,-8.28,2.054,-1.147,8.377,4.518,-4.407,-8.253,20,5.182,4.985,4.842,5.108,2.027,1.892,1.894,1.725,20,4.989,5.034,30,230.312154753,norm,0,72,72,72,373.067,373.076,373.084142509,373.084,373.086,373.089,down,1,1.10448577532,8.89551422468,001,013,1920_1080,Intel(R) Core(TM) i5-3570 CPU @ 3.40GHz,orientation_search,LEPPC096,Intel(R) HD Graphics 2500,2018_Nov_17_1557,testMonitor,
434.2,,445.6,440.7,36,-60,436.7,434.6,437.2,449.9,8.31,7.76,8.386,8.478,7.617,8.26,8.232,5.01,-4.818,-8.348,1.571,-1.415,8.182,4.382,-4.8,-7.936,445.1,432.7,-7.553,445.0,434.8,440.2,438.4,442.6,36,442.4,3,5,probe,5,0,105,norm,36,-4.561,up,norm,441.949666937,443.1,441.8,446.8,436.6,5,445.7,442.1,451.9,10,5,8.083,4.596,1.69,-1.109,-5.181,-8.106,447.9,2,336.9,-7.642,-7.576,30,-8.438,-8.282,-5.049,-4.809,-5.041,-4.336,4.524,8.08,23,-1.344,1.988,4.349,8.481,-8.401,-8.244,-1.551,1.436,446.6,439.5,447.8,440.9,431.9,440.0,442.6,437.3,443.8,442.5,0,norm,2.013,1.152,-1.986,-1.906,-4.587,-4.668,-1.471,-1.377,-1.268,-1.164,1.134,-1.154,438.2,432.0,-4.586,-8.073,1.944,-1.761,7.544,5.071,-4.483,-7.725,21,5.018,4.737,4.468,4.585,1.797,1.782,1.682,1.623,21,4.621,5.065,30,309.831176027,norm,0,73,73,73,374.225,374.235,374.251927971,374.252,374.254,374.256,up,1,1.20216218892,8.79783781108,001,013,1920_1080,Intel(R) Core(TM) i5-3570 CPU @ 3.40GHz,orientation_search,LEPPC096,Intel(R) HD Graphics 2500,2018_Nov_17_1557,testMonitor,
418.1,413.6,418.5,415.1,36,-60,420.6,416.8,420.8,409.1,7.522,8.094,7.973,7.739,8.497,8.209,8.444,5.117,-4.621,-7.968,1.587,-1.802,8.401,5.274,-4.307,-7.577,418.6,410.5,-8.394,407.9,413.5,405.9,416.9,418.6,36,416.4,2,5,probe,5,0,79,norm,36,-4.501,down,norm,415.949666937,413.4,424.8,410.4,,2,414.0,416.9,414.3,10,5,8.034,4.874,1.167,-2.055,-4.863,-8.153,424.2,2,336.9,-8.304,-7.602,30,-8.358,-8.401,-5.077,-5.105,-4.962,-4.34,5.019,7.86,14,-1.131,1.556,4.499,7.95,-8.259,-7.911,-1.149,1.868,411.8,415.2,414.3,421.7,421.9,415.6,415.4,418.4,414.5,415.8,1,norm,1.237,1.823,-1.799,-1.817,-5.066,-4.446,-1.986,-1.199,-1.943,-1.947,1.561,-1.708,425.9,416.8,-4.937,-7.823,2.03,-1.495,7.835,4.588,-4.553,-7.568,21,4.715,5.236,4.803,4.684,2.024,1.411,1.275,1.614,21,4.673,5.291,30,309.831176027,norm,0,74,74,74,375.491,375.5,375.515528055,375.516,375.518,375.52,down,1,0.871336900558,9.12866309944,001,013,1920_1080,Intel(R) Core(TM) i5-3570 CPU @ 3.40GHz,orientation_search,LEPPC096,Intel(R) HD Graphics 2500,2018_Nov_17_1557,testMonitor,
286.0,294.4,298.9,,36,80,307.5,295.3,304.5,283.6,7.985,8.473,7.944,7.954,7.538,8.178,7.852,4.366,-4.336,-7.587,1.542,-1.665,8.358,4.953,-5.115,-7.571,309.2,302.9,-7.667,304.4,287.8,314.0,291.1,293.1,36,289.0,3,5,prime,10,0,116,norm,36,-4.382,up,norm,299.858302403,289.1,298.6,317.1,297.7,3,304.9,310.3,303.4,10,6,8.022,4.925,1.851,-1.637,-4.479,-8.34,294.4,6,415.9,-8.041,-7.954,80,-8.046,-8.009,-4.317,-5.078,-5.295,-4.459,4.569,7.555,21,-1.613,1.158,4.526,7.938,-8.32,-8.195,-2.017,1.434,306.2,286.2,306.9,279.9,299.9,301.3,307.8,289.8,309.6,286.4,0,norm,1.473,1.275,-1.643,-1.361,-4.44,-4.568,-2.087,-1.953,-1.796,-1.269,1.216,-1.76,302.1,289.8,-5.031,-8.076,1.389,-1.129,7.88,4.928,-4.999,-7.644,22,5.13,5.234,4.393,4.373,1.699,1.88,1.232,1.513,22,5.183,4.345,-60,309.831176027,norm,0,75,75,75,376.424,376.434,376.451402214,376.452,376.453,376.456,up,1,1.17116161813,8.82883838187,001,013,1920_1080,Intel(R) Core(TM) i5-3570 CPU @ 3.40GHz,orientation_search,LEPPC096,Intel(R) HD Graphics 2500,2018_Nov_17_1557,testMonitor,
289.0,290.1,296.4,297.1,36,80,314.5,279.9,319.9,291.0,8.175,7.66,7.909,7.831,8.186,8.239,7.716,4.832,-5.023,-7.697,1.101,-1.771,7.814,5.232,-4.99,-7.685,318.5,313.9,-8.027,287.0,299.4,283.2,305.3,290.5,36,305.9,0,5,prime,10,0,94,norm,36,-4.422,down,norm,299.858302403,305.1,305.2,314.8,284.0,0,303.6,295.4,316.4,10,6,8.282,5.01,1.416,-1.563,-4.459,-8.216,282.4,6,393.9,-7.556,-7.64,80,-7.55,-8.158,-4.724,-5.227,-4.431,-4.971,4.863,8.17,0,-1.295,1.677,5.142,7.567,-7.562,-7.967,-1.702,1.512,288.6,292.6,300.9,306.9,293.0,,314.2,294.6,282.5,307.9,1,norm,1.353,1.156,-1.895,-1.586,-5.273,-4.434,-1.692,-1.779,-1.543,-1.983,1.909,-1.652,293.6,290.4,-4.883,-7.732,1.984,-1.673,8.23,5.144,-4.657,-8.288,22,4.466,4.447,4.769,5.265,1.23,1.691,1.553,2.028,22,4.721,4.502,-60,309.831176027,norm,0,76,76,76,377.653,377.663,377.669112229,377.669,377.671,377.673,up,0,1.79211600334,-10,001,013,1920_1080,Intel(R) Core(TM) i5-3570 CPU @ 3.40GHz,orientation_search,LEPPC096,Intel(R) HD Graphics 2500,2018_Nov_17_1557,testMonitor,
305.8,299.8,308.1,290.9,36,80,307.3,298.4,300.5,294.7,8.328,8.011,8.032,8.043,7.886,7.866,7.632,4.484,-4.726,-7.88,1.683,-1.565,7.959,5.096,-5.005,-7.895,301.6,319.9,-8.466,,298.7,312.9,303.0,292.4,36,314.7,5,5,prime,10,0,90,norm,36,-4.9,down,norm,299.858302403,295.0,286.8,283.8,309.9,1,302.1,307.6,305.7,10,6,7.673,4.397,1.759,-1.871,-5.225,-8.345,298.5,6,389.9,-8.272,-8.376,80,-7.787,-7.933,-4.374,-4.645,-5.152,-4.432,4.472,7.799,31,-1.106,1.45,4.611,8.105,-7.767,-7.507,-1.275,1.28,318.1,303.0,305.0,284.2,279.9,305.7,297.1,299.7,287.3,294.3,2,norm,1.808,1.92,-1.723,-1.12,-5.183,-4.408,-1.923,-1.897,-1.234,-2.002,1.203,-1.213,293.9,315.6,-5.069,-7.702,1.215,-1.36,7.595,4.899,-5.147,-8.444,22,4.384,4.387,5.192,4.461,1.17,1.745,1.65,1.971,22,4.936,5.131,-60,309.831176027,norm,0,77,77,77,380.532,380.541,380.554151163,380.554,380.556,380.559,down,1,0.533700137552,9.46629986245,001,013,1920_1080,Intel(R) Core(TM) i5-3570 CPU @ 3.40GHz,orientation_search,LEPPC096,Intel(R) HD Graphics 2500,2018_Nov_17_1557,testMonitor,
295.9,292.4,297.6,308.5,36,80,314.0,319.9,311.5,308.1,7.87,8.321,8.183,7.852,8.367,8.04,8.288,5.237,-4.304,-8.31,1.16,-1.158,8.442,5.038,-4.31,-7.93,304.9,299.0,-8.39,293.9,291.9,309.4,311.9,298.9,36,302.2,2,5,prime,10,0,81,norm,36,-5.014,down,norm,299.858302403,297.2,298.3,295.2,302.8,1,294.4,,307.8,10,6,7.868,4.825,1.792,-1.215,-4.444,-7.564,314.3,6,380.9,-8.369,-7.916,80,-7.523,-7.792,-4.415,-4.372,-4.423,-4.445,4.471,7.799,13,-1.879,1.245,4.71,7.507,-8.341,-8.48,-1.667,1.531,296.2,279.9,295.0,302.5,298.8,297.2,292.1,312.1,294.6,289.8,3,norm,1.316,1.844,-1.357,-1.535,-4.636,-5.043,-2.062,-1.612,-1.962,-1.34,1.186,-1.326,316.7,308.0,-4.324,-8.291,1.917,-1.339,7.787,4.714,-5.136,-8.141,22,4.7,5.137,4.556,5.209,1.986,2.004,1.146,1.344,22,4.312,5.226,-60,309.831176027,norm,0,78,78,78,381.125,381.135,381.146791716,381.147,381.149,381.151,down,1,1.91190993858,8.08809006142,001,013,1920_1080,Intel(R) Core(TM) i5-3570 CPU @ 3.40GHz,orientation_search,LEPPC096,Intel(R) HD Graphics 2500,2018_Nov_17_1557,testMonitor,
303.9,282.4,294.7,297.2,36,80,304.7,298.2,310.5,293.9,7.988,7.607,8.047,7.696,7.626,8.47,8.105,4.414,-4.368,-8.475,1.448,-1.119,8.326,4.454,-4.805,-7.696,297.8,303.2,-8.451,305.3,296.2,303.0,299.3,282.9,36,284.5,1,5,prime,10,0,116,norm,36,-5.114,down,norm,299.858302403,287.2,299.7,304.2,298.4,2,287.4,319.9,298.1,10,6,8.179,4.989,1.995,-1.15,-4.958,-8.264,287.3,6,415.9,-8.01,-8.043,80,-7.719,-7.596,-5.009,-4.565,-5.233,-4.831,5.092,7.766,8,-2.055,2.027,4.4,8.476,-7.603,-8.198,-1.86,1.198,301.9,,299.4,279.9,293.7,290.8,292.8,281.8,314.0,298.0,4,norm,1.813,1.93,-1.878,-1.159,-4.802,-4.553,-1.163,-1.266,-1.339,-1.596,1.621,-1.947,311.3,296.5,-5.187,-8.314,1.24,-2.03,8.346,4.777,-4.832,-7.56,22,4.756,5.017,4.4,4.379,1.249,2.011,1.492,2.045,22,4.698,5.093,-60,309.831176027,norm,0,79,79,79,383.082,383.091,383.097599443,383.098,383.1,383.102,down,1,1.90906774921,8.09093225079,001,013,1920_1080,Intel(R) Core(TM) i5-3570 CPU @ 3.40GHz,orientation_search,LEPPC096,Intel(R) HD Graphics 2500,2018_Nov_17_1557,testMonitor,
305.6,304.8,298.5,293.9,36,80,301.8,307.7,310.8,319.9,8.28,8.42,7.533,8.149,8.374,7.791,8.456,5.233,-4.81,-7.543,1.347,-1.74,7.743,4.483,-4.595,-7.863,285.9,294.8,-8.35,290.6,279.9,308.5,297.7,295.9,36,298.1,2,5,prime,10,0,62,norm,36,-4.59,up,norm,299.858302403,296.4,,297.1,315.5,4,299.4,317.4,319.5,10,6,8.152,4.451,1.258,-1.306,-4.856,-7.65,290.3,6,361.9,-7.863,-7.648,80,-7.532,-7.533,-4.472,-4.842,-4.413,-4.763,4.586,8.296,16,-1.276,1.306,5.066,8.208,-7.573,-8.032,-1.313,1.746,290.0,315.5,290.3,298.8,295.9,299.8,288.2,292.6,296.3,309.9,5,norm,1.84,1.198,-1.386,-1.395,-4.675,-4.817,-1.711,-1.701,-1.924,-1.335,1.922,-1.688,318.3,293.4,-4.503,-8.239,2.062,-1.172,8.419,4.569,-5.085,-8.052,22,4.756,5.227,4.728,4.929,1.568,1.28,1.24,1.851,22,4.358,4.72,-60,309.831176027,norm,0,80,80,80,385.028,385.037,385.046674569,385.047,385.049,385.051,down,0,1.20635816114,-10,001,013,1920_1080,Intel(R) Core(TM) i5-3570 CPU @ 3.40GHz,orientation_search,LEPPC096,Intel(R) HD Graphics 2500,2018_Nov_17_1557,testMonitor,
506.8,,499.7,490.4,36,-60,508.7,495.0,501.7,505.1,8.381,8.194,8.217,7.782,7.993,7.681,8.459,4.834,-5.019,-8.493,1.221,-1.331,8.292,4.551,-5.263,-8.479,499.1,502.4,-7.996,505.9,510.1,501.4,510.4,499.0,36,502.3,3,5,probe,5,0,115,norm,36,-4.813,up,norm,500.40092932,490.8,508.4,492.0,493.2,5,497.7,508.3,499.0,10,6,8.473,5.099,1.142,-1.201,-4.333,-8.456,501.9,1,385.4,-7.972,-8.397,80,-7.813,-7.678,-4.658,-4.86,-4.393,-4.414,4.916,8.291,23,-2.056,1.885,4.965,7.585,-8.146,-7.8,-1.237,1.584,501.3,502.0,505.5,491.0,492.9,500.2,497.7,494.4,497.6,501.8,0,norm,1.634,1.895,-1.871,-1.956,-4.864,-4.332,-1.126,-1.209,-1.922,-1.413,1.103,-1.653,506.3,504.6,-5.045,-7.564,1.508,-1.743,7.569,4.443,-4.504,-8.167,23,4.989,4.306,4.85,4.381,1.232,1.475,1.385,1.926,23,5.073,4.437,80,299.858302403,norm,0,81,81,81,387.307,387.316,387.324256197,387.324,387.326,387.329,up,1,0.936897419482,9.06310258052,001,013,1920_1080,Intel(R) Core(TM) i5-3570 CPU @ 3.40GHz,orientation_search,LEPPC096,Intel(R) HD Graphics 2500,2018_Nov_17_1557,testMonitor,
322.5,328.7,314.6,326.0,36,-30,324.1,316.0,335.2,316.2,8.207,8.008,7.517,8.274,7.531,7.8,7.864,4.556,-5.15,-8.173,2.068,-1.532,7.686,4.483,-4.941,-8.316,335.5,317.4,-8.085,,321.4,345.8,307.0,345.7,36,333.2,5,5,prime,10,0,79,norm,36,-4.532,down,norm,327.047336721,316.4,334.3,336.2,313.2,1,343.6,334.1,331.6,10,5,7.663,4.741,1.419,-1.354,-4.611,-8.401,342.6,5,406.0,-7.726,-7.951,-30,-8.265,-7.941,-4.775,-5.252,-4.739,-5.127,4.572,8.117,31,-1.555,1.497,4.331,8.132,-7.823,-7.621,-1.801,1.755,317.3,347.0,322.0,330.0,330.1,340.0,333.6,309.0,310.8,320.7,0,norm,1.325,1.831,-1.625,-1.11,-4.763,-4.509,-1.28,-1.579,-1.433,-1.34,2.029,-1.334,333.8,343.7,-4.425,-7.653,1.907,-1.267,8.414,4.362,-4.499,-8.394,24,4.412,4.607,5.101,4.6,1.507,1.235,1.859,1.977,24,5.287,4.479,-60,299.858302403,norm,0,82,82,82,388.298,388.308,388.322325585,388.322,388.324,388.327,down,1,0.936313345945,9.06368665406,001,013,1920_1080,Intel(R) Core(TM) i5-3570 CPU @ 3.40GHz,orientation_search,LEPPC096,Intel(R) HD Graphics 2500,2018_Nov_17_1557,testMonitor,
324.2,322.2,322.6,314.4,36,-30,315.8,319.1,320.1,312.8,7.601,8.115,7.928,8.457,8.061,7.75,7.862,5.231,-4.441,-7.817,1.369,-1.29,7.53,4.4,-5.158,-8.378,336.0,334.2,-7.612,321.8,329.2,326.2,307.0,326.5,36,,4,5,prime,10,0,111,norm,36,-4.977,up,norm,327.047336721,339.9,322.1,309.5,318.2,3,319.6,320.1,323.0,10,5,7.523,4.529,1.536,-1.271,-4.307,-7.817,338.1,5,438.0,-8.257,-7.921,-30,-8.178,-8.234,-4.801,-5.254,-4.335,-4.869,5.141,7.519,27,-1.989,1.405,4.502,8.292,-7.854,-8.485,-1.256,1.303,347.0,323.7,330.4,312.0,325.0,319.7,327.5,324.4,336.9,310.2,1,norm,1.92,1.734,-1.184,-1.526,-4.531,-4.748,-2.083,-1.125,-1.856,-1.129,1.742,-1.644,347.0,315.1,-5.099,-7.503,1.41,-1.17,8.127,5.041,-4.54,-8.294,24,4.93,4.602,4.762,5.2,1.519,1.835,1.603,1.442,24,4.412,4.733,-60,299.858302403,norm,0,83,83,83,389.295,389.305,389.320884568,389.321,389.323,389.325,up,1,3.7764154426,6.2235845574,001,013,1920_1080,Intel(R) Core(TM) i5-3570 CPU @ 3.40GHz,orientation_search,LEPPC096,Intel(R) HD Graphics 2500,2018_Nov_17_1557,testMonitor,
335.2,347.0,341.0,329.3,36,-30,342.6,333.2,343.5,331.3,8.338,7.807,7.51,8.448,8.307,7.913,7.733,5.16,-4.509,-8.493,1.592,-1.704,7.57,5.024,-4.577,-8.243,316.1,324.8,-7.625,327.1,326.6,313.5,313.2,326.5,36,,4,5,prime,10,0,119,norm,36,-4.477,up,norm,327.047336721,319.1,323.0,340.2,324.5,3,307.0,326.8,321.9,10,5,8.189,4.613,1.459,-1.666,-4.784,-7.887,332.2,5,446.0,-7.826,-8.403,-30,-7.542,-7.705,-5.181,-4.947,-4.858,-4.373,4.945,8.175,27,-1.429,1.123,4.853,7.959,-7.99,-8.302,-1.866,1.806,328.7,316.0,331.6,315.9,342.5,329.8,338.5,326.5,325.7,328.6,2,norm,1.269,1.71,-1.309,-1.731,-4.521,-5.095,-1.612,-2.027,-1.674,-1.446,1.657,-1.172,316.1,332.9,-4.771,-7.837,1.895,-1.765,8.468,4.964,-5.08,-8.429,24,4.782,4.729,4.813,4.427,1.301,1.719,1.418,1.398,24,4.568,4.707,-60,299.858302403,norm,0,84,84,84,393.133,393.142,393.158422174,393.159,393.16,393.163,up,1,1.77722710862,8.22277289138,001,013,1920_1080,Intel(R) Core(TM) i5-3570 CPU @ 3.40GHz,orientation_search,LEPPC096,Intel(R) HD Graphics 2500,2018_Nov_17_1557,testMonitor,
333.3,321.3,317.3,347.0,36,-30,323.9,337.2,,321.0,8.305,8.037,8.21,7.761,8.363,8.237,8.273,5.278,-4.43,-8.429,1.871,-1.66,7.638,4.773,-4.906,-8.315,329.4,339.4,-7.977,320.5,326.0,307.0,314.7,313.8,36,328.2,4,5,prime,10,0,110,norm,36,-4.991,up,norm,327.047336721,318.6,319.1,345.6,330.9,4,342.4,325.3,313.8,10,5,8.401,5.191,1.948,-1.534,-4.443,-8.418,337.0,5,437.0,-8.266,-8.007,-30,-7.553,-8.286,-4.385,-4.359,-4.74,-5.169,4.317,8.069,28,-1.592,1.995,4.582,7.923,-7.533,-7.856,-1.624,1.979,326.9,326.2,330.5,343.0,322.4,339.0,337.2,308.9,309.2,327.7,3,norm,1.238,1.222,-2.036,-1.584,-4.525,-4.405,-1.455,-1.671,-1.265,-1.504,1.548,-1.123,329.7,332.1,-5.092,-7.658,1.572,-1.226,8.347,4.609,-4.462,-7.738,24,5.115,4.92,5.028,4.73,1.31,1.73,1.285,2.072,24,4.99,4.927,-60,299.858302403,norm,0,85,85,85,394.973,394.987,395.005246701,395.005,395.007,395.01,up,1,1.42690885646,8.57309114354,001,013,1920_1080,Intel(R) Core(TM) i5-3570 CPU @ 3.40GHz,orientation_search,LEPPC096,Intel(R) HD Graphics 2500,2018_Nov_17_1557,testMonitor,
318.3,333.6,307.0,318.6,36,-30,327.2,339.4,318.0,316.7,8.24,7.552,8.17,7.88,7.583,8.482,8.247,4.981,-4.481,-7.748,1.525,-1.946,7.789,5.231,-4.907,-8.082,326.0,308.2,-7.592,339.3,319.0,328.4,323.8,321.2,36,316.2,1,5,prime,10,0,72,norm,36,-4.848,down,norm,327.047336721,340.2,324.6,319.8,335.5,0,327.3,316.8,332.7,10,5,8.088,5.209,1.882,-1.669,-5.112,-7.887,324.9,5,399.0,-8.172,-8.405,-30,-8.041,-7.755,-4.705,-4.931,-4.836,-5.215,4.579,8.49,6,-1.398,1.636,5.159,8.335,-8.221,-8.159,-1.694,1.774,314.8,325.8,337.1,347.0,327.7,317.2,328.2,,308.8,325.9,4,norm,1.929,2.02,-1.639,-1.661,-5.079,-5.277,-1.675,-1.982,-2.011,-1.84,1.22,-2.079,331.0,321.6,-5.232,-7.765,1.84,-1.501,7.51,4.884,-4.614,-7.706,24,4.763,4.597,4.343,4.82,1.556,1.273,1.652,1.576,24,4.618,4.771,-60,299.858302403,norm,0,86,86,86,396.47,396.485,396.501872205,396.502,396.504,396.507,down,1,0.985795391947,9.01420460805,001,013,1920_1080,Intel(R) Core(TM) i5-3570 CPU @ 3.40GHz,orientation_search,LEPPC096,Intel(R) HD Graphics 2500,2018_Nov_17_1557,testMonitor,
413.1,411.2,405.9,409.0,36,-20,407.8,402.1,407.0,400.2,8.252,7.9,8.344,8.144,7.534,8.475,8.362,4.948,-4.73,-7.788,1.381,-1.542,8.337,5.247,-4.963,-7.695,407.8,402.5,-7.987,414.6,417.9,,416.4,408.0,36,419.1,5,5,probe,5,0,110,norm,36,-4.761,up,norm,410.238984625,406.0,420.2,418.7,407.3,3,406.0,405.7,406.1,10,5,7.521,4.675,1.487,-1.826,-4.365,-7.851,413.9,1,300.2,-8.465,-7.908,-30,-7.989,-7.797,-5.056,-4.686,-4.979,-4.956,5.007,8.146,33,-1.259,1.883,4.649,7.958,-7.815,-8.138,-2.018,1.784,401.5,401.2,410.2,406.1,407.0,411.5,410.4,413.2,406.7,411.2,0,norm,1.541,1.688,-1.59,-1.358,-5.054,-5.008,-1.968,-1.993,-1.817,-1.305,1.399,-1.229,409.4,412.8,-4.638,-7.815,1.605,-1.912,8.165,5.126,-4.602,-8.396,25,5.144,5.158,4.623,5.233,1.41,2.004,1.953,1.243,25,4.51,4.665,-30,327.047336721,norm,0,87,87,87,397.511,397.52,397.527027512,397.527,397.529,397.531,up,1,1.17234002799,8.82765997201,001,013,1920_1080,Intel(R) Core(TM) i5-3570 CPU @ 3.40GHz,orientation_search,LEPPC096,Intel(R) HD Graphics 2500,2018_Nov_17_1557,testMonitor,
165.1,152.0,142.5,162.3,36,-20,159.2,153.5,144.7,161.3,8.075,8.485,7.85,7.966,8.139,8.461,7.991,5.049,-5.11,-7.547,1.251,-1.64,8.392,5.236,-4.565,-8.458,158.4,147.5,-7.735,158.3,,152.0,148.4,144.3,36,141.2,5,5,prime,10,0,105,norm,36,-4.5,down,norm,150.250047542,131.8,141.5,143.6,154.2,0,160.2,139.6,145.4,10,6,8.287,5.281,1.555,-1.224,-4.515,-7.971,155.1,6,255.3,-7.657,-8.23,-20,-8.419,-7.746,-4.565,-4.867,-4.537,-5.166,5.042,8.153,30,-1.224,1.407,5.097,7.827,-8.437,-8.04,-1.659,1.168,158.4,149.9,170.3,130.3,140.6,148.0,161.7,147.7,168.7,138.9,0,norm,1.41,1.63,-1.448,-1.634,-4.863,-4.54,-1.295,-1.546,-1.776,-1.464,1.602,-1.466,151.6,141.0,-5.249,-7.876,1.924,-1.766,8.001,5.206,-4.478,-8.412,26,4.969,4.349,4.933,4.97,1.688,1.445,1.463,1.693,26,4.41,5.251,-20,327.047336721,norm,0,88,88,88,398.736,398.747,398.758415111,398.759,398.76,398.763,down,1,1.18960506064,8.81039493936,001,013,1920_1080,Intel(R) Core(TM) i5-3570 CPU @ 3.40GHz,orientation_search,LEPPC096,Intel(R) HD Graphics 2500,2018_Nov_17_1557,testMonitor,
,162.2,144.4,130.3,36,-20,150.2,152.1,145.2,156.1,7.777,7.53,7.564,7.983,7.883,8.329,7.573,5.163,-4.734,-8.057,1.374,-1.279,7.97,4.495,-4.359,-7.525,148.6,148.9,-8.005,140.1,156.4,152.3,140.4,158.6,36,149.6,3,5,prime,10,0,113,norm,36,-4.769,up,norm,150.250047542,161.5,170.3,169.7,169.7,4,146.3,143.5,152.1,10,6,7.785,5.157,1.109,-1.568,-4.312,-8.017,150.4,6,263.3,-8.069,-8.066,-20,-8.488,-8.376,-5.165,-4.599,-4.578,-5.292,4.588,8.011,22,-2.007,1.322,4.346,7.655,-7.661,-7.544,-1.415,1.781,153.3,153.6,147.6,151.5,159.5,143.1,146.9,148.7,148.5,145.3,1,norm,1.495,1.256,-1.752,-1.199,-5.172,-4.729,-1.332,-1.743,-1.416,-1.76,1.301,-1.901,158.0,151.9,-4.919,-8.256,1.538,-1.748,8.389,4.892,-5.208,-7.608,26,4.703,4.545,4.783,4.572,1.304,1.735,1.329,1.522,26,4.421,5.196,-20,327.047336721,norm,0,89,89,89,399.985,399.996,400.006299542,400.006,400.008,400.011,down,0,2.26187865216,-10,001,013,1920_1080,Intel(R) Core(TM) i5-3570 CPU @ 3.40GHz,orientation_search,LEPPC096,Intel(R) HD Graphics 2500,2018_Nov_17_1557,testMonitor,
167.9,158.9,150.6,151.9,36,-20,158.3,164.1,144.2,130.3,8.199,8.496,8.091,8.219,8.014,7.57,7.916,4.753,-5.156,-7.771,1.985,-1.167,8.261,4.693,-5.085,-7.823,149.4,150.2,-8.028,150.2,148.2,160.6,145.6,132.0,36,154.0,3,5,prime,10,0,116,norm,36,-4.867,down,norm,150.250047542,154.5,148.4,148.5,170.3,0,159.1,146.8,145.1,10,6,7.536,4.612,1.776,-1.76,-4.404,-7.699,141.6,6,266.3,-7.76,-7.941,-20,-8.076,-8.079,-4.619,-4.352,-4.462,-5.187,4.558,8.3,18,-1.318,1.91,5.246,8.27,-7.849,-7.953,-1.804,1.645,159.7,143.4,153.8,152.6,156.9,142.4,149.6,162.7,158.3,151.1,2,norm,1.443,1.805,-2.037,-1.195,-5.299,-4.793,-1.295,-1.437,-1.98,-1.748,1.722,-1.823,157.9,,-4.38,-7.697,1.864,-1.36,7.935,4.609,-4.432,-8.016,26,5.192,5.197,5.052,4.903,1.371,1.258,1.806,2.072,26,4.855,5.254,-20,327.047336721,norm,0,90,90,90,403.339,403.348,403.360256558,403.36,403.362,403.365,up,0,0.854654432213,-10,001,013,1920_1080,Intel(R) Core(TM) i5-3570 CPU @ 3.40GHz,orientation_search,LEPPC096,Intel(R) HD Graphics 2500,2018_Nov_17_1557,testMonitor,
147.2,170.3,153.1,,36,-20,152.1,157.9,147.2,145.5,8.45,7.739,7.602,8.035,8.293,8.009,7.965,4.347,-4.857,-7.623,1.214,-1.166,7.888,4.64,-5.202,-8.056,146.9,147.5,-7.824,151.8,154.8,143.7,157.4,148.7,36,151.2,3,5,prime,10,0,104,norm,36,-4.736,up,norm,150.250047542,138.6,159.9,158.9,142.3,3,155.1,130.3,148.0,10,6,7.608,4.723,1.65,-1.31,-4.39,-7.821,158.8,6,254.3,-8.301,-8.047,-20,-7.9,-7.985,-4.476,-5.154,-4.716,-4.984,5.043,7.648,21,-1.137,1.859,5.175,7.863,-8.211,-8.204,-1.109,1.586,154.7,150.2,142.1,141.3,144.8,143.9,150.5,163.7,143.4,150.8,3,norm,1.439,1.118,-1.29,-1.394,-4.84,-4.815,-1.487,-1.528,-2.031,-1.429,1.522,-1.784,146.4,146.3,-4.542,-8.395,2.026,-1.881,7.958,4.528,-4.995,-8.091,26,5.272,4.441,4.845,4.719,1.728,1.342,1.713,1.411,26,4.978,5.281,-20,327.047336721,norm,0,91,91,91,405.285,405.295,405.310328986,405.311,405.312,405.315,up,1,3.52524661637,6.47475338363,001,013,1920_1080,Intel(R) Core(TM) i5-3570 CPU @ 3.40GHz,orientation_search,LEPPC096,Intel(R) HD Graphics 2500,2018_Nov_17_1557,testMonitor,
160.5,159.5,,164.2,36,-20,146.8,141.6,148.2,169.0,8.193,8.076,7.56,8.127,8.217,8.421,8.441,5.004,-5.178,-8.3,2.005,-1.992,7.903,4.663,-5.241,-8.49,154.5,143.7,-7.603,159.5,157.8,168.8,154.0,130.3,36,144.0,3,5,prime,10,0,97,norm,36,-4.799,down,norm,150.250047542,161.0,162.6,162.5,170.3,2,155.2,144.5,133.9,10,6,8.319,5.041,1.434,-1.639,-5.237,-7.681,141.8,6,247.3,-7.534,-8.177,-20,-8.045,-7.542,-4.36,-4.565,-4.955,-4.734,5.213,8.27,20,-1.223,1.898,4.412,8.042,-7.567,-8.344,-2.089,1.982,158.1,148.8,154.1,149.9,139.8,144.6,147.4,163.5,152.3,151.0,4,norm,1.498,1.25,-1.399,-1.809,-4.535,-5.185,-2.068,-1.962,-1.245,-1.211,1.443,-1.381,137.1,151.6,-4.491,-8.116,1.961,-1.276,7.848,5.208,-5.057,-8.389,26,4.985,4.794,4.721,4.865,1.955,1.328,1.992,1.552,26,4.684,4.454,-20,327.047336721,norm,0,92,92,92,408.873,408.886,408.913518782,408.914,408.916,408.918,up,0,3.62210291225,-10,001,013,1920_1080,Intel(R) Core(TM) i5-3570 CPU @ 3.40GHz,orientation_search,LEPPC096,Intel(R) HD Graphics 2500,2018_Nov_17_1557,testMonitor,
131.1,153.7,158.3,145.5,36,-20,140.9,146.7,143.0,144.6,8.405,7.543,8.118,7.685,8.401,7.54,8.009,5.002,-4.757,-7.609,1.417,-1.339,8.006,4.676,-5.102,-8.142,142.1,141.2,-7.715,148.6,135.0,142.1,156.6,154.2,36,145.3,0,5,prime,10,0,110,norm,36,-5.202,down,norm,150.250047542,141.7,147.6,170.3,160.1,0,138.5,150.9,152.4,10,6,7.766,4.555,1.602,-1.563,-4.421,-7.898,155.8,6,260.3,-8.164,-8.107,-20,-7.521,-8.291,-5.235,-5.214,-4.854,-4.823,4.359,7.504,0,-1.287,1.229,4.357,7.669,-8.433,-7.733,-1.866,1.603,141.0,141.0,151.2,130.3,152.1,,157.1,142.5,147.1,146.0,5,norm,1.137,1.237,-1.126,-2.005,-5.248,-4.62,-1.199,-1.841,-1.178,-1.371,1.196,-1.279,147.4,166.6,-4.353,-8.378,1.877,-2.043,7.601,5.151,-5.171,-8.488,26,4.577,4.952,4.665,4.376,1.813,1.879,1.987,1.906,26,4.643,4.303,-20,327.047336721,norm,0,93,93,93,413.613,413.623,413.640199533,413.64,413.642,413.645,down,1,1.72374347973,8.27625652027,001,013,1920_1080,Intel(R) Core(TM) i5-3570 CPU @ 3.40GHz,orientation_search,LEPPC096,Intel(R) HD Graphics 2500,2018_Nov_17_1557,testMonitor,
245.6,239.3,242.2,250.9,36,-30,240.0,234.7,,249.3,8.313,7.963,7.503,8.153,7.955,8.464,7.985,4.626,-5.026,-8.479,2.017,-1.121,8.084,5.088,-4.93,-7.584,249.8,238.3,-8.352,240.2,252.2,233.4,241.7,253.4,36,237.5,4,5,probe,5,0,115,norm,36,-4.927,up,norm,243.422420771,243.2,245.4,237.0,241.9,4,243.7,244.4,237.9,10,6,7.874,5.062,1.234,-1.902,-4.766,-8.328,249.8,1,128.4,-7.518,-8.027,-20,-8.322,-8.463,-4.664,-4.395,-5.246,-4.827,4.558,8.188,28,-1.812,1.716,4.907,8.132,-7.702,-7.787,-1.311,1.965,241.1,240.0,243.8,252.2,250.5,242.8,247.3,248.0,245.6,241.7,0,norm,1.728,2.027,-1.127,-1.345,-4.873,-5.075,-1.51,-1.662,-1.401,-1.672,1.429,-2.099,244.8,241.5,-4.99,-8.469,1.751,-1.778,8.374,5.094,-4.762,-7.525,27,4.339,4.46,4.624,4.374,1.177,1.665,1.467,1.652,27,4.963,4.959,-20,150.250047542,norm,0,94,94,94,415.388,415.398,415.403925638,415.404,415.406,415.409,up,1,1.18848822752,8.81151177248,001,013,1920_1080,Intel(R) Core(TM) i5-3570 CPU @ 3.40GHz,orientation_search,LEPPC096,Intel(R) HD Graphics 2500,2018_Nov_17_1557,testMonitor,
,236.2,260.9,244.3,36,-60,249.9,269.0,254.3,240.5,8.341,8.218,8.05,8.476,7.757,8.465,7.627,5.199,-4.622,-7.558,1.433,-1.472,8.118,4.939,-4.725,-8.439,252.6,258.4,-7.634,262.3,249.3,249.8,251.5,260.8,36,243.1,3,5,prime,10,0,71,norm,36,-4.426,up,norm,249.032258848,245.4,258.5,247.7,259.6,4,248.4,232.1,246.9,10,6,7.86,4.369,1.833,-1.141,-4.633,-8.125,252.7,6,320.0,-8.295,-7.578,-60,-7.915,-7.834,-4.734,-4.676,-4.901,-5.23,4.602,7.802,22,-1.34,1.968,4.578,7.748,-8.061,-7.523,-1.858,1.521,236.7,239.4,263.1,253.8,260.0,243.4,240.1,229.0,241.9,251.4,0,norm,1.692,1.216,-1.601,-1.714,-4.349,-4.833,-1.849,-1.894,-1.227,-1.116,1.696,-1.628,238.6,242.5,-5.097,-7.745,1.26,-1.64,7.697,4.398,-4.904,-7.6,28,4.834,4.382,4.657,4.611,1.692,2.047,1.139,1.315,28,4.864,4.819,-30,150.250047542,norm,0,95,95,95,416.636,416.645,416.651753021,416.652,416.654,416.656,up,1,2.46609158816,7.53390841184,001,013,1920_1080,Intel(R) Core(TM) i5-3570 CPU @ 3.40GHz,orientation_search,LEPPC096,Intel(R) HD Graphics 2500,2018_Nov_17_1557,testMonitor,
