d_ori_22,d_ori_23,d_ori_20,d_ori_21,set_size,ctpd,d_ori_24,d_ori_25,d_ori_28,d_ori_29,stim_pos_x_30,stim_pos_x_31,stim_pos_x_32,stim_pos_x_33,stim_pos_x_34,stim_pos_x_35,stim_pos_y_11,stim_pos_y_10,stim_pos_y_13,stim_pos_y_12,stim_pos_y_15,stim_pos_y_14,stim_pos_y_17,stim_pos_y_16,stim_pos_y_19,stim_pos_y_18,d_ori_35,d_ori_34,stim_pos_x_3,d_ori_31,d_ori_30,d_ori_33,d_ori_32,d_ori_26,test_set_size,d_ori_27,targetCol,dsd_test,seq_type,dsd,blockRepN,targetDist,dtype_test,prime_set_size,stim_pos_y_25,correctResponse,dtype,distrMean,d_ori_17,d_ori_16,d_ori_15,d_ori_14,targetRow,d_ori_11,d_ori_13,d_ori_12,dsd_prime,streak_length_prime,stim_pos_y_35,stim_pos_y_34,stim_pos_y_33,stim_pos_y_32,stim_pos_y_31,stim_pos_y_30,d_ori_10,nextProbe,targetOri,stim_pos_x_1,stim_pos_x_2,ctpd_prime,stim_pos_x_4,stim_pos_x_5,stim_pos_x_6,stim_pos_x_7,stim_pos_x_8,stim_pos_x_9,stim_pos_y_28,stim_pos_y_29,targetPos,stim_pos_y_20,stim_pos_y_21,stim_pos_y_22,stim_pos_y_23,stim_pos_y_24,stim_pos_x_0,stim_pos_y_26,stim_pos_y_27,d_ori_9,d_ori_8,d_ori_3,d_ori_2,d_ori_1,d_ori_0,d_ori_7,d_ori_6,d_ori_5,d_ori_4,trialN,dtype_prime,stim_pos_x_18,stim_pos_x_19,stim_pos_x_12,stim_pos_x_13,stim_pos_x_10,stim_pos_x_11,stim_pos_x_16,stim_pos_x_17,stim_pos_x_14,stim_pos_x_15,stim_pos_y_9,stim_pos_y_8,d_ori_19,d_ori_18,stim_pos_y_1,stim_pos_y_0,stim_pos_y_3,stim_pos_y_2,stim_pos_y_5,stim_pos_y_4,stim_pos_y_7,stim_pos_y_6,totBlockN,stim_pos_x_27,stim_pos_x_26,stim_pos_x_25,stim_pos_x_24,stim_pos_x_23,stim_pos_x_22,stim_pos_x_21,stim_pos_x_20,blockN,stim_pos_x_29,stim_pos_x_28,prevDistrCTPD,prevDistrMean,prevDistrType,trials.thisRepN,trials.thisTrialN,trials.thisN,trials.thisIndex,timeStart,timeBeforeDraw,timeDraw,timeAfterSaving,timeAfterWritingToTemp,timeAfterPreparingNext,answer,correct,rt,trialScore,session,participant,resolution,cpu_info,expName,pc_name,graphic_card,date,monitorName,
316.7,321.9,304.5,324.4,36,-30,314.1,316.0,321.6,312.8,8.144,8.499,7.511,8.384,8.419,8.45,7.741,4.689,-4.505,-8.004,1.688,-1.743,7.963,4.761,-4.778,-8.426,324.3,324.3,-7.886,340.5,302.2,330.3,326.8,324.6,36,325.7,1,5,prime,10,0,94,norm,36,-4.581,up,norm,322.176111167,324.2,330.9,311.4,327.5,3,319.2,328.1,342.2,10,5,8.36,5.026,1.289,-1.949,-5.123,-8.191,314.2,5,416.2,-7.644,-7.905,-30,-8.196,-8.229,-4.412,-4.455,-4.574,-4.634,5.23,7.715,9,-1.27,1.869,4.501,7.87,-7.992,-7.796,-1.266,1.208,,335.6,328.5,326.3,321.0,318.2,334.8,335.3,328.9,329.7,0,norm,1.526,1.25,-1.28,-1.73,-4.572,-4.543,-1.588,-1.855,-1.379,-1.796,1.648,-1.625,331.4,320.8,-4.802,-7.526,1.217,-1.916,8.277,4.743,-4.4,-8.289,0,4.681,5.127,4.617,5.286,1.898,1.358,1.53,1.763,0,4.538,4.482,,,,0,0,0,0,715.894,715.911,715.917216833,715.918,715.918,715.92,down,0,6.08694560263,-10,001,313,1920_1080,Intel(R) Core(TM) i5-8350U CPU @ 1.70GHz,orientation_search,prilt00735,Intel(R) UHD Graphics 620,2018_Nov_08_1356,testMonitor,
326.0,305.8,327.7,342.2,36,-30,324.6,320.6,313.5,325.2,8.003,7.71,8.433,7.723,8.346,8.368,7.958,4.667,-5.038,-8.399,1.928,-2.086,8.266,4.365,-4.921,-7.978,308.8,302.2,-8.091,307.8,310.9,310.0,312.3,340.5,36,333.8,3,5,prime,10,0,90,norm,36,-4.558,down,norm,322.176111167,323.4,320.4,307.4,333.7,0,314.4,331.0,321.6,10,5,8.467,5.078,1.603,-1.625,-4.916,-7.502,324.0,5,412.2,-7.93,-8.279,-30,-7.997,-8.161,-5.034,-4.621,-5.053,-4.882,4.407,7.583,18,-1.7,1.988,4.473,7.6,-7.715,-7.52,-1.173,1.566,321.3,324.8,322.0,325.6,335.2,314.2,335.4,329.3,327.8,327.0,1,norm,1.732,1.957,-1.232,-1.756,-4.775,-5.004,-1.356,-1.304,-1.875,-1.185,1.276,-1.341,339.1,,-4.757,-8.348,1.833,-1.125,8.051,5.073,-5.183,-8.282,0,5.229,4.814,4.442,4.881,1.631,1.624,1.464,1.13,0,4.747,4.909,,,,0,1,1,1,723.059,723.068,723.082618981,723.083,723.093,723.098,down,1,4.22469377173,5.77530622827,001,313,1920_1080,Intel(R) Core(TM) i5-8350U CPU @ 1.70GHz,orientation_search,prilt00735,Intel(R) UHD Graphics 620,2018_Nov_08_1356,testMonitor,
316.7,320.8,334.9,319.1,36,-30,324.8,304.6,309.0,333.2,8.194,8.032,7.852,7.911,7.629,7.551,8.325,4.34,-4.637,-7.86,1.372,-1.781,8.128,5.164,-4.712,-8.246,339.2,315.6,-7.793,,308.2,330.9,320.8,313.3,36,332.6,5,5,prime,10,0,116,norm,36,-4.762,down,norm,322.176111167,326.6,328.3,302.2,331.9,1,321.9,326.8,319.8,10,5,8.302,4.941,1.571,-1.519,-5.129,-8.431,314.5,5,438.2,-8.376,-8.141,-30,-8.185,-8.442,-4.475,-4.849,-5.18,-4.749,5.242,7.667,31,-1.614,1.612,5.292,7.688,-8.064,-8.206,-2.027,1.411,305.2,320.6,323.5,325.6,322.4,320.6,325.3,333.6,326.4,337.9,2,norm,1.437,1.339,-2.021,-2.018,-4.405,-4.884,-1.291,-1.701,-1.352,-1.682,2.086,-1.133,332.3,342.2,-4.964,-8.018,1.516,-2.047,8.287,4.759,-4.364,-7.666,0,4.949,5.105,4.633,5.098,1.547,1.961,1.297,1.587,0,4.681,5.045,,,,0,2,2,2,727.354,727.366,727.370966644,727.371,727.373,727.375,down,1,4.74690099159,5.25309900841,001,313,1920_1080,Intel(R) Core(TM) i5-8350U CPU @ 1.70GHz,orientation_search,prilt00735,Intel(R) UHD Graphics 620,2018_Nov_08_1356,testMonitor,
316.0,317.7,327.5,324.9,36,-30,311.6,336.2,315.1,309.3,8.245,8.113,8.405,7.621,7.685,8.432,7.676,4.461,-4.556,-8.414,1.444,-1.572,8.13,4.979,-4.691,-7.762,324.2,313.2,-8.017,340.9,327.3,329.6,312.7,326.8,36,314.6,2,5,prime,10,0,113,norm,36,-4.902,up,norm,322.176111167,313.5,338.1,,321.0,3,340.0,320.7,321.6,10,5,8.428,4.31,1.154,-1.537,-5.292,-8.264,342.2,5,435.2,-7.971,-7.725,-30,-7.579,-8.054,-4.904,-4.607,-4.969,-5.064,5.042,8.298,15,-1.948,2.095,5.008,7.988,-7.868,-8.36,-2.071,1.967,311.0,336.4,331.8,320.1,314.1,325.2,325.5,317.2,333.4,302.2,3,norm,1.833,1.725,-1.26,-1.109,-4.548,-4.847,-1.721,-2.055,-1.918,-1.142,1.812,-1.91,310.8,318.0,-4.701,-8.247,2.095,-1.66,7.84,4.908,-5.131,-7.63,0,4.852,4.742,5.03,5.004,1.935,1.487,1.5,1.951,0,4.857,4.405,,,,0,3,3,3,732.166,732.191,732.19600229,732.196,732.201,732.205,up,1,2.58441962453,7.41558037547,001,313,1920_1080,Intel(R) Core(TM) i5-8350U CPU @ 1.70GHz,orientation_search,prilt00735,Intel(R) UHD Graphics 620,2018_Nov_08_1356,testMonitor,
330.1,314.5,341.0,338.0,36,-30,304.4,325.0,323.5,,8.332,8.44,8.32,7.849,8.179,8.472,7.511,4.893,-4.811,-7.748,1.524,-2.058,7.926,4.5,-5.089,-7.834,318.5,323.5,-7.998,324.2,325.7,320.8,337.8,318.6,36,314.8,4,5,prime,10,0,101,norm,36,-4.967,up,norm,322.176111167,302.2,304.5,312.9,314.7,5,307.1,319.6,315.1,10,5,8.203,4.543,1.182,-2.001,-4.709,-8.08,342.2,5,423.2,-7.908,-8.411,-30,-8.15,-8.49,-4.79,-4.809,-4.532,-5.136,5.036,8.151,29,-2.097,1.163,5.216,7.605,-7.54,-7.84,-1.252,1.444,324.6,332.6,331.8,328.0,328.6,328.2,308.3,334.5,340.2,334.5,4,norm,1.879,1.454,-1.884,-2.05,-4.81,-4.642,-1.275,-1.377,-1.566,-1.925,1.301,-1.861,332.7,334.3,-4.926,-7.659,1.392,-1.223,7.984,4.715,-4.58,-8.225,0,4.658,5.174,4.724,5.183,2.02,1.305,1.791,1.219,0,5.295,4.589,,,,0,4,4,4,734.82,734.831,734.83718054,734.837,734.846,734.851,up,1,1.40390643566,8.59609356434,001,313,1920_1080,Intel(R) Core(TM) i5-8350U CPU @ 1.70GHz,orientation_search,prilt00735,Intel(R) UHD Graphics 620,2018_Nov_08_1356,testMonitor,
373.4,367.5,371.3,370.1,36,-20,365.7,361.2,373.2,377.6,7.997,8.18,8.498,7.665,8.193,8.005,8.47,4.535,-5.253,-8.461,1.406,-1.279,8.053,4.48,-4.405,-7.608,372.8,368.3,-8.469,377.4,379.8,367.5,373.2,371.4,36,374.4,0,5,probe,5,0,79,norm,36,-4.46,up,norm,369.76848193,376.1,363.3,363.7,366.8,3,372.3,368.3,360.9,10,5,8.348,4.338,1.846,-1.582,-4.996,-8.118,379.4,2,290.8,-7.985,-7.78,-30,-7.922,-7.557,-4.486,-4.885,-4.737,-4.514,4.773,7.827,3,-1.462,1.421,4.751,8.013,-7.512,-7.869,-1.617,1.147,359.8,367.2,,368.1,368.7,366.0,379.0,376.4,378.0,376.7,0,norm,1.278,1.818,-1.864,-1.951,-4.93,-4.534,-1.722,-1.32,-1.842,-1.298,1.57,-1.725,374.3,374.4,-5.239,-7.559,1.54,-1.908,7.833,4.976,-5.04,-8.367,1,5.169,5.282,5.202,4.332,1.877,1.968,2.051,1.752,1,4.871,4.339,-30,322.176111167,norm,0,5,5,5,736.284,736.301,736.3060927,736.307,736.31,736.315,up,1,1.88831363822,8.11168636178,001,313,1920_1080,Intel(R) Core(TM) i5-8350U CPU @ 1.70GHz,orientation_search,prilt00735,Intel(R) UHD Graphics 620,2018_Nov_08_1356,testMonitor,
350.8,361.4,358.7,,36,-20,355.9,352.2,353.9,360.7,8.116,8.434,8.351,8.422,8.358,8.409,8.44,5.112,-4.502,-8.041,1.249,-1.421,7.62,4.395,-5.118,-8.126,361.0,352.2,-7.524,356.8,361.3,353.7,360.6,353.8,36,364.8,3,5,probe,5,0,67,norm,36,-4.359,up,norm,357.76848193,352.6,365.5,361.7,361.4,3,366.7,358.7,360.0,10,5,8.05,4.791,1.253,-1.342,-4.607,-7.978,361.8,2,290.8,-8.005,-7.635,-30,-8.283,-7.719,-4.831,-4.312,-4.576,-4.923,4.689,7.886,21,-1.318,1.235,5.277,7.651,-8.485,-7.544,-1.692,1.764,347.8,355.1,363.4,357.6,355.2,367.8,351.6,359.0,349.4,359.0,1,norm,1.985,1.191,-1.616,-1.792,-4.885,-5.194,-1.946,-2.007,-1.864,-2.04,1.225,-1.912,349.1,361.9,-4.836,-8.363,1.676,-1.231,8.43,5.137,-5.231,-8.319,1,5.297,4.439,4.594,4.331,1.611,1.722,2.066,1.241,1,4.562,4.755,-30,322.176111167,norm,0,6,6,6,738.224,738.235,738.239917151,738.24,738.242,738.244,up,1,2.39299185552,7.60700814448,001,313,1920_1080,Intel(R) Core(TM) i5-8350U CPU @ 1.70GHz,orientation_search,prilt00735,Intel(R) UHD Graphics 620,2018_Nov_08_1356,testMonitor,
72.4,81.6,72.1,77.3,36,20,80.6,86.4,72.8,97.8,7.548,8.01,8.107,7.955,7.811,8.143,7.935,4.819,-4.337,-8.38,1.192,-1.779,7.854,4.633,-5.187,-8.075,57.8,58.5,-7.9,82.7,71.8,86.9,90.7,76.2,36,88.1,2,5,prime,10,0,61,norm,36,-4.34,up,norm,77.8020039623,80.4,63.7,,83.4,3,61.6,87.3,70.0,10,6,8.481,4.981,1.587,-1.284,-4.858,-8.346,84.8,6,138.8,-8.395,-8.174,20,-7.581,-8.035,-4.674,-4.418,-4.776,-5.044,5.015,8.405,15,-1.916,1.381,4.36,8.082,-8.176,-8.02,-1.414,1.875,64.6,62.7,75.1,63.6,74.5,74.6,87.3,59.7,86.8,95.0,0,norm,1.372,2.02,-1.908,-1.44,-4.549,-4.797,-1.792,-1.537,-1.692,-1.961,1.107,-1.497,74.0,63.4,-4.353,-8.4,1.25,-1.934,8.103,4.993,-4.397,-8.251,2,4.693,4.852,5.213,4.337,1.755,2.001,1.799,1.558,2,5.253,4.89,-20,322.176111167,norm,0,7,7,7,740.67,740.686,740.69130787,740.692,740.695,740.7,up,1,3.1698864741,6.8301135259,001,313,1920_1080,Intel(R) Core(TM) i5-8350U CPU @ 1.70GHz,orientation_search,prilt00735,Intel(R) UHD Graphics 620,2018_Nov_08_1356,testMonitor,
78.5,60.9,93.4,87.4,36,20,88.9,93.0,75.5,75.0,7.981,8.185,7.662,8.41,8.388,8.358,8.086,4.738,-4.869,-7.947,1.317,-1.65,8.0,4.445,-4.968,-7.881,77.7,,-7.68,88.4,91.4,84.9,71.9,83.3,36,63.8,5,5,prime,10,0,92,norm,36,-4.809,up,norm,77.8020039623,85.1,66.6,94.5,81.5,4,79.1,74.2,75.5,10,6,7.553,4.838,1.156,-1.428,-4.756,-7.66,88.1,6,169.8,-7.829,-8.327,20,-7.698,-7.554,-4.452,-4.564,-5.276,-5.137,5.028,7.904,34,-1.423,2.096,4.521,8.395,-7.784,-7.511,-1.923,1.61,80.7,87.8,68.3,80.3,95.6,70.7,81.6,72.8,90.9,81.1,1,norm,1.268,1.537,-1.205,-2.04,-4.725,-4.803,-1.689,-1.208,-1.63,-1.816,1.611,-1.17,97.8,57.8,-4.676,-7.812,2.006,-1.949,7.569,4.583,-5.054,-8.18,2,4.789,5.156,4.465,4.775,1.62,1.719,1.204,1.797,2,4.591,5.277,-20,322.176111167,norm,0,8,8,8,743.9,743.917,743.922417853,743.923,743.926,743.932,down,0,4.88992687246,-10,001,313,1920_1080,Intel(R) Core(TM) i5-8350U CPU @ 1.70GHz,orientation_search,prilt00735,Intel(R) UHD Graphics 620,2018_Nov_08_1356,testMonitor,
57.8,90.9,74.0,75.6,36,20,77.6,64.4,71.6,74.2,7.671,8.325,7.719,7.551,8.21,8.019,7.865,4.855,-4.641,-8.239,1.143,-1.621,7.515,4.354,-4.351,-8.007,87.8,84.0,-7.672,96.1,72.6,93.3,74.8,70.8,36,82.7,3,5,prime,10,0,85,norm,36,-4.475,down,norm,77.8020039623,82.6,83.4,76.3,79.2,1,80.3,77.4,82.1,10,6,8.055,5.035,1.377,-1.498,-4.969,-8.348,81.5,6,162.8,-8.081,-7.598,20,-7.653,-8.063,-4.915,-4.93,-4.563,-5.109,5.117,7.989,19,-1.144,1.863,4.92,7.803,-8.293,-7.811,-1.408,1.561,74.7,97.8,83.8,75.5,68.2,94.7,77.3,66.9,89.9,76.5,2,norm,2.011,1.541,-1.678,-1.706,-4.304,-5.271,-1.256,-1.618,-1.914,-2.053,1.558,-1.901,,76.9,-4.516,-8.007,2.033,-1.616,7.956,4.493,-4.902,-8.175,2,5.299,5.168,5.282,4.32,1.109,1.675,1.224,1.852,2,5.174,4.694,-20,322.176111167,norm,0,9,9,9,749.876,749.886,749.896500789,749.897,749.9,749.904,down,1,1.43299758041,8.56700241959,001,313,1920_1080,Intel(R) Core(TM) i5-8350U CPU @ 1.70GHz,orientation_search,prilt00735,Intel(R) UHD Graphics 620,2018_Nov_08_1356,testMonitor,
80.9,74.6,59.5,60.8,36,20,88.3,83.2,75.3,71.5,7.934,7.618,8.487,8.243,8.217,8.065,7.875,4.744,-4.815,-8.09,2.094,-1.878,7.75,4.946,-4.899,-8.227,68.1,79.1,-8.498,85.2,82.5,63.1,76.7,79.9,36,75.2,1,5,prime,10,0,66,norm,36,-4.42,up,norm,77.8020039623,77.8,72.1,63.7,69.9,4,80.6,74.2,85.1,10,6,7.934,4.926,1.154,-1.808,-4.861,-8.449,,6,143.8,-7.716,-7.793,20,-7.767,-8.294,-4.932,-4.637,-4.339,-4.601,5.235,8.052,10,-1.787,1.667,4.827,8.113,-8.267,-7.707,-1.426,2.076,57.8,73.9,74.6,68.6,89.3,97.8,72.7,84.2,76.9,70.8,3,norm,1.505,1.186,-1.657,-2.075,-5.272,-4.733,-1.136,-1.679,-1.285,-1.318,1.735,-1.379,82.0,76.9,-5.227,-8.169,1.388,-1.363,7.83,4.803,-4.304,-7.947,2,4.41,5.204,4.387,4.952,2.096,1.788,1.717,1.567,2,4.636,5.111,-20,322.176111167,norm,0,10,10,10,751.366,751.383,751.388421655,751.389,751.392,751.398,up,1,1.43784106376,8.56215893624,001,313,1920_1080,Intel(R) Core(TM) i5-8350U CPU @ 1.70GHz,orientation_search,prilt00735,Intel(R) UHD Graphics 620,2018_Nov_08_1356,testMonitor,
70.9,66.0,62.8,66.2,36,20,92.8,77.0,83.2,73.9,7.838,8.051,7.647,7.626,7.59,8.179,8.056,4.84,-4.303,-8.389,1.911,-1.184,8.096,4.868,-5.019,-8.414,81.2,70.5,-8.02,71.6,87.0,,97.8,70.1,36,77.2,5,5,prime,10,0,101,norm,36,-5.148,up,norm,77.8020039623,87.3,79.3,65.1,62.3,3,81.5,57.8,78.0,10,6,7.603,4.853,2.073,-1.488,-5.191,-7.917,86.2,6,178.8,-8.396,-8.446,20,-7.948,-7.65,-4.593,-4.854,-4.435,-4.962,4.553,7.974,33,-1.536,1.488,4.306,8.226,-7.625,-7.508,-1.811,2.043,74.1,92.4,75.8,70.6,76.7,81.0,83.1,82.2,61.4,80.3,4,norm,1.16,1.763,-1.148,-1.127,-4.376,-4.544,-1.516,-1.371,-1.918,-1.779,1.146,-1.17,78.9,92.5,-4.302,-8.111,1.984,-1.462,8.251,5.218,-4.615,-7.836,2,4.774,4.85,4.885,5.227,1.247,2.094,1.631,1.239,2,5.026,4.86,-20,322.176111167,norm,0,11,11,11,752.868,752.879,752.884130139,752.884,752.886,752.889,down,0,0.8314631986,-10,001,313,1920_1080,Intel(R) Core(TM) i5-8350U CPU @ 1.70GHz,orientation_search,prilt00735,Intel(R) UHD Graphics 620,2018_Nov_08_1356,testMonitor,
62.0,87.4,71.9,78.0,36,20,83.1,89.9,71.6,,8.488,8.218,8.429,8.206,8.015,7.918,7.9,4.982,-4.488,-8.093,1.798,-1.135,7.912,5.084,-4.984,-7.775,92.2,97.8,-7.758,71.5,72.9,83.4,84.2,89.1,36,94.4,4,5,prime,10,0,80,norm,36,-4.804,up,norm,77.8020039623,63.5,64.9,78.1,57.8,5,86.3,62.7,66.8,10,6,8.331,5.094,1.535,-2.011,-4.697,-8.297,74.0,6,157.8,-8.149,-8.051,20,-8.167,-7.714,-4.618,-5.211,-5.055,-4.463,5.2,7.808,29,-1.948,1.857,4.932,7.909,-7.68,-8.413,-1.826,1.746,83.9,75.1,71.8,85.7,82.6,81.3,84.5,64.2,71.8,79.1,5,norm,1.972,1.721,-2.054,-1.759,-5.208,-4.462,-1.122,-1.25,-1.509,-1.56,1.968,-1.238,85.3,76.3,-4.304,-7.607,1.938,-2.003,8.392,5.29,-4.793,-8.294,2,4.486,4.431,5.037,4.904,1.554,1.683,1.84,1.522,2,4.47,4.753,-20,322.176111167,norm,0,12,12,12,754.765,754.773,754.781751604,754.782,754.792,754.797,up,1,0.705514809146,9.29448519085,001,313,1920_1080,Intel(R) Core(TM) i5-8350U CPU @ 1.70GHz,orientation_search,prilt00735,Intel(R) UHD Graphics 620,2018_Nov_08_1356,testMonitor,
172.1,170.2,166.9,169.7,36,-40,171.1,168.2,171.9,169.1,8.185,8.156,7.894,8.226,8.243,7.819,7.72,5.168,-4.64,-8.34,1.11,-1.728,8.261,4.785,-4.459,-8.423,169.9,166.0,-7.544,172.3,170.2,172.0,174.0,160.6,36,170.2,1,5,probe,5,0,69,norm,36,-4.968,down,norm,170.607936496,175.2,180.6,172.4,164.9,0,173.8,176.6,170.7,10,6,7.693,4.9,2.072,-1.758,-4.303,-7.968,172.3,2,101.6,-7.693,-7.806,20,-7.68,-7.725,-5.081,-5.284,-4.894,-4.593,4.567,7.782,6,-1.28,1.417,4.584,7.742,-8.498,-8.393,-1.987,1.216,169.8,173.2,166.4,175.9,173.2,171.9,164.7,,172.6,179.5,0,norm,1.427,1.293,-2.054,-1.572,-4.562,-4.846,-2.016,-1.828,-1.174,-1.379,2.012,-1.614,177.1,173.4,-4.943,-7.732,1.899,-1.68,7.53,4.528,-5.097,-8.167,3,4.631,4.489,5.098,4.784,1.912,1.921,1.685,1.601,3,4.4,4.464,20,77.8020039623,norm,0,13,13,13,755.536,755.553,755.55856575,755.559,755.564,755.568,down,1,2.35118008599,7.64881991401,001,313,1920_1080,Intel(R) Core(TM) i5-8350U CPU @ 1.70GHz,orientation_search,prilt00735,Intel(R) UHD Graphics 620,2018_Nov_08_1356,testMonitor,
208.6,199.7,198.7,196.0,36,-40,198.8,193.0,201.6,203.6,8.438,7.941,7.824,8.376,8.142,7.849,8.198,4.305,-4.327,-8.022,1.967,-1.626,8.266,5.054,-4.504,-7.95,202.0,194.1,-8.382,194.6,198.5,193.6,206.2,204.0,36,196.1,3,5,probe,5,0,97,norm,36,-4.697,down,norm,198.607936496,190.0,201.9,194.1,202.8,1,200.8,190.7,199.7,10,6,8.285,5.285,1.979,-1.748,-4.773,-8.306,192.1,2,101.6,-8.481,-7.64,20,-7.586,-8.382,-5.299,-4.391,-4.766,-4.852,5.255,7.754,19,-2.083,1.34,5.217,8.153,-8.063,-7.544,-1.136,1.415,194.9,202.4,200.9,202.2,200.5,198.2,200.3,202.4,188.6,199.0,1,norm,1.963,1.482,-2.012,-1.295,-4.581,-4.716,-1.259,-1.783,-1.739,-2.069,2.0,-1.905,,201.7,-4.978,-8.203,1.369,-1.102,7.914,4.427,-4.55,-8.148,3,4.744,5.232,4.332,5.037,1.536,1.886,1.985,1.972,3,4.873,4.52,20,77.8020039623,norm,0,14,14,14,757.956,757.977,757.983404265,757.984,757.987,757.99,up,0,2.14589373284,-10,001,313,1920_1080,Intel(R) Core(TM) i5-8350U CPU @ 1.70GHz,orientation_search,prilt00735,Intel(R) UHD Graphics 620,2018_Nov_08_1356,testMonitor,
177.1,167.9,168.9,164.7,36,-10,173.0,170.1,186.6,168.6,8.022,8.016,8.191,8.303,8.322,7.881,7.665,4.486,-4.612,-7.911,1.911,-1.959,7.712,5.188,-4.527,-7.797,180.2,172.8,-7.71,171.8,178.9,176.6,186.8,178.2,36,182.2,3,5,prime,10,0,63,norm,36,-5.28,down,norm,176.857419868,179.4,196.9,195.2,181.4,0,156.9,185.3,175.3,10,6,7.757,4.936,2.074,-1.859,-5.144,-7.813,168.7,6,239.9,-8.46,-8.363,-10,-7.935,-8.496,-4.851,-4.307,-4.33,-4.755,5.056,8.299,18,-1.44,1.318,4.743,8.134,-8.226,-8.263,-1.974,1.97,181.4,163.4,171.8,182.3,179.5,160.9,177.8,174.5,163.6,161.0,0,norm,1.654,1.924,-1.935,-1.89,-4.329,-4.809,-1.434,-1.608,-1.418,-1.632,1.113,-1.466,165.5,,-5.114,-7.681,2.094,-1.649,8.175,4.698,-4.417,-7.529,4,5.199,4.485,5.216,5.002,2.073,1.489,1.212,1.905,4,4.617,4.604,-40,77.8020039623,norm,0,15,15,15,761.188,761.197,761.211217568,761.212,761.215,761.219,down,1,2.63213290414,7.36786709586,001,313,1920_1080,Intel(R) Core(TM) i5-8350U CPU @ 1.70GHz,orientation_search,prilt00735,Intel(R) UHD Graphics 620,2018_Nov_08_1356,testMonitor,
,177.0,177.3,180.1,36,-10,176.5,169.0,173.8,169.3,8.295,8.304,8.21,8.228,7.723,8.202,8.025,4.47,-5.181,-7.532,1.662,-1.51,7.6,4.43,-5.089,-7.629,184.1,187.4,-7.603,194.4,156.9,179.6,178.5,173.3,36,170.3,3,5,prime,10,0,101,norm,36,-4.56,up,norm,176.857419868,179.6,176.5,176.9,192.3,4,162.7,173.9,177.9,10,6,8.167,4.501,1.564,-1.876,-5.186,-7.833,181.9,6,277.9,-7.662,-8.319,-10,-7.715,-8.345,-5.127,-4.833,-4.622,-4.992,5.053,8.248,22,-1.966,1.839,4.683,7.809,-8.369,-7.586,-1.61,1.81,174.7,170.0,172.5,178.6,191.6,176.4,196.9,173.3,173.6,161.7,1,norm,1.341,1.725,-1.775,-1.331,-4.967,-4.919,-1.26,-1.784,-1.986,-1.626,1.674,-1.963,179.2,187.1,-5.094,-7.724,1.431,-1.762,7.817,4.738,-4.533,-8.221,4,5.019,4.843,4.707,4.901,1.545,1.686,1.898,1.639,4,4.933,4.614,-40,77.8020039623,norm,0,16,16,16,763.886,763.903,763.907847437,763.908,763.913,763.917,up,1,10.4659848992,-0.465984899216,001,313,1920_1080,Intel(R) Core(TM) i5-8350U CPU @ 1.70GHz,orientation_search,prilt00735,Intel(R) UHD Graphics 620,2018_Nov_08_1356,testMonitor,
156.9,182.2,170.9,170.4,36,-10,165.3,183.7,,178.7,7.5,8.456,7.862,7.617,8.381,8.158,7.924,4.933,-4.784,-8.091,1.339,-1.264,8.166,5.142,-5.246,-7.788,162.3,174.6,-8.07,172.8,179.4,160.5,187.9,196.9,36,184.5,4,5,prime,10,0,80,norm,36,-5.187,up,norm,176.857419868,173.9,169.4,186.3,178.1,4,186.4,173.6,184.2,10,6,7.592,4.443,1.543,-1.961,-5.19,-7.551,173.5,6,256.9,-7.905,-7.892,-10,-8.086,-7.516,-4.763,-5.035,-4.637,-5.196,4.453,7.84,28,-1.346,1.809,4.33,8.416,-7.652,-8.388,-1.132,1.24,171.1,175.4,175.9,185.4,178.5,163.7,173.4,164.9,172.5,167.4,2,norm,1.968,1.237,-1.329,-1.415,-4.716,-4.364,-1.149,-2.009,-1.133,-1.848,1.341,-1.392,172.1,166.4,-4.8,-8.027,1.282,-1.571,7.997,5.229,-4.576,-7.561,4,5.063,5.076,5.19,4.751,2.016,2.017,2.035,2.059,4,5.084,5.28,-40,77.8020039623,norm,0,17,17,17,774.411,774.421,774.429704141,774.43,774.433,774.436,up,1,4.83044837866,5.16955162134,001,313,1920_1080,Intel(R) Core(TM) i5-8350U CPU @ 1.70GHz,orientation_search,prilt00735,Intel(R) UHD Graphics 620,2018_Nov_08_1356,testMonitor,
195.0,183.2,186.5,190.2,36,-10,171.3,,174.1,190.0,8.141,7.888,7.908,7.897,7.813,8.223,7.531,4.767,-5.158,-7.754,1.763,-1.613,7.898,4.563,-4.656,-8.003,181.3,178.9,-7.717,185.9,184.0,163.6,174.6,176.0,36,162.5,4,5,prime,10,0,70,norm,36,-5.063,down,norm,176.857419868,196.9,157.5,156.9,177.8,1,177.3,176.9,172.0,10,6,7.709,5.043,1.113,-1.799,-4.387,-8.258,182.9,6,246.9,-8.369,-7.619,-10,-8.273,-8.024,-4.805,-4.996,-4.572,-4.365,4.86,8.298,25,-1.606,1.769,5.278,7.905,-8.109,-8.32,-1.395,1.49,176.5,180.4,180.4,168.9,180.9,164.1,184.5,175.7,171.4,175.3,3,norm,1.272,1.998,-1.504,-1.893,-4.619,-4.444,-1.887,-1.361,-1.539,-1.622,1.354,-1.8,182.7,187.9,-4.564,-8.075,1.624,-1.772,7.862,4.543,-4.516,-7.968,4,5.144,4.618,4.336,5.233,1.426,2.07,1.405,1.605,4,5.165,4.311,-40,77.8020039623,norm,0,18,18,18,779.295,779.306,779.312901013,779.313,779.316,779.318,down,1,3.53295761411,6.46704238589,001,313,1920_1080,Intel(R) Core(TM) i5-8350U CPU @ 1.70GHz,orientation_search,prilt00735,Intel(R) UHD Graphics 620,2018_Nov_08_1356,testMonitor,
162.8,169.4,160.8,160.9,36,-10,168.0,181.4,196.9,178.6,8.118,8.361,8.06,8.228,8.223,7.624,7.836,5.183,-4.395,-7.599,1.309,-1.36,7.982,4.743,-5.128,-7.502,175.0,178.4,-8.425,164.5,185.0,169.7,165.2,,36,179.9,4,5,prime,10,0,71,norm,36,-5.148,down,norm,176.857419868,167.0,182.9,181.4,187.2,2,176.9,169.4,173.8,10,6,7.78,5.149,1.917,-1.427,-4.349,-7.948,179.0,6,247.9,-8.144,-7.975,-10,-8.199,-7.527,-4.421,-4.815,-4.961,-5.162,5.181,8.063,26,-1.991,2.003,4.85,8.422,-7.645,-7.732,-1.623,1.961,174.4,187.4,160.4,165.1,190.1,164.9,171.8,178.0,176.9,160.5,4,norm,1.255,1.386,-1.676,-1.328,-4.695,-4.391,-1.455,-1.914,-1.275,-1.888,1.201,-1.215,156.9,174.6,-4.903,-8.238,1.799,-1.111,8.475,4.748,-4.536,-8.067,4,5.237,4.696,4.626,5.091,1.786,1.874,2.047,1.204,4,4.889,4.979,-40,77.8020039623,norm,0,19,19,19,782.872,782.884,782.888922314,782.89,782.893,782.896,up,0,6.218362894,-10,001,313,1920_1080,Intel(R) Core(TM) i5-8350U CPU @ 1.70GHz,orientation_search,prilt00735,Intel(R) UHD Graphics 620,2018_Nov_08_1356,testMonitor,
185.0,161.1,174.8,184.9,36,-10,172.2,162.6,182.9,171.0,7.614,8.332,7.646,8.005,7.597,8.089,8.099,4.742,-4.743,-7.857,1.167,-1.29,8.244,5.031,-4.799,-8.187,196.9,181.0,-8.279,169.6,176.3,,171.6,174.9,36,179.6,5,5,prime,10,0,105,norm,36,-4.947,up,norm,176.857419868,171.9,181.2,166.1,178.9,3,190.6,177.7,177.6,10,6,8.006,5.069,1.613,-1.984,-4.396,-8.183,173.6,6,281.9,-7.752,-7.791,-10,-7.521,-8.088,-4.507,-5.149,-4.913,-4.523,4.917,7.787,33,-1.428,1.379,4.391,8.164,-7.513,-7.975,-1.343,2.097,180.9,190.5,178.7,156.9,160.9,185.6,170.6,170.1,182.6,163.8,5,norm,1.309,1.474,-1.545,-1.854,-4.844,-4.88,-1.139,-2.071,-1.168,-1.385,1.478,-1.602,173.5,167.1,-4.663,-8.495,1.847,-1.503,7.746,4.352,-4.558,-7.858,4,4.679,4.372,4.372,4.657,1.69,1.132,1.149,1.852,4,4.317,4.428,-40,77.8020039623,norm,0,20,20,20,790.176,790.184,790.193567046,790.194,790.197,790.201,up,1,4.46276437167,5.53723562833,001,313,1920_1080,Intel(R) Core(TM) i5-8350U CPU @ 1.70GHz,orientation_search,prilt00735,Intel(R) UHD Graphics 620,2018_Nov_08_1356,testMonitor,
259.2,260.4,263.6,271.0,36,10,263.0,268.2,262.3,260.1,8.301,8.393,8.126,8.315,7.58,8.266,7.558,4.825,-4.757,-7.927,1.454,-1.356,8.334,4.858,-5.049,-7.723,258.1,260.3,-7.922,262.3,260.5,260.9,261.6,,36,257.6,4,5,probe,5,0,90,norm,36,-4.927,down,norm,260.956334352,263.6,257.5,256.1,262.2,2,257.9,263.6,262.7,10,6,8.043,4.814,2.003,-1.36,-4.901,-8.451,263.4,2,171.0,-8.477,-7.525,-10,-8.407,-7.523,-4.449,-5.078,-4.411,-4.603,4.65,8.196,26,-1.821,2.043,4.818,8.035,-8.48,-8.075,-1.785,1.306,255.5,260.4,258.6,267.1,262.0,263.1,255.3,252.9,256.4,256.0,0,norm,1.244,1.962,-1.71,-1.357,-5.258,-4.35,-1.418,-1.811,-1.355,-1.289,2.022,-1.83,251.0,266.2,-5.109,-8.325,1.512,-1.676,7.809,4.463,-4.887,-7.542,5,5.15,4.582,4.855,4.51,1.631,1.198,1.732,1.238,5,5.122,4.306,-10,176.857419868,norm,0,21,21,21,794.695,794.705,794.71218432,794.713,794.715,794.718,down,1,1.47892317829,8.52107682171,001,313,1920_1080,Intel(R) Core(TM) i5-8350U CPU @ 1.70GHz,orientation_search,prilt00735,Intel(R) UHD Graphics 620,2018_Nov_08_1356,testMonitor,
260.8,260.9,270.8,271.6,36,10,264.0,265.7,268.3,266.0,8.084,8.273,8.128,8.059,8.066,7.749,7.65,5.093,-4.929,-7.656,1.647,-1.725,7.616,4.905,-5.121,-8.447,271.7,264.2,-7.845,264.9,263.0,269.7,265.6,266.8,36,264.8,1,5,probe,5,0,95,norm,36,-5.122,down,norm,265.956334352,257.3,264.5,265.2,271.4,0,276.0,265.6,266.6,10,6,7.651,4.939,1.929,-1.977,-5.229,-8.056,264.3,2,171.0,-8.076,-8.315,-10,-7.915,-7.505,-5.211,-4.579,-4.899,-4.933,4.454,8.178,6,-1.325,2.077,5.09,8.218,-7.689,-8.186,-1.601,1.614,269.2,256.0,272.2,273.0,265.1,256.0,261.8,,265.6,265.2,1,norm,1.799,1.561,-1.15,-1.559,-5.289,-5.0,-1.16,-2.077,-1.456,-1.21,1.967,-1.155,261.1,261.0,-4.768,-7.961,1.269,-2.036,7.816,4.826,-4.885,-7.677,5,4.752,4.393,4.813,4.81,1.352,1.846,1.959,1.683,5,5.24,5.067,-10,176.857419868,norm,0,22,22,22,796.228,796.246,796.250475815,796.251,796.253,796.256,down,1,1.17404242909,8.82595757091,001,313,1920_1080,Intel(R) Core(TM) i5-8350U CPU @ 1.70GHz,orientation_search,prilt00735,Intel(R) UHD Graphics 620,2018_Nov_08_1356,testMonitor,
88.3,87.6,72.2,69.7,36,80,76.2,74.2,73.3,58.7,7.73,8.372,7.667,7.691,8.063,7.963,7.665,4.481,-4.914,-8.458,1.129,-1.263,7.776,5.24,-4.958,-7.666,64.1,84.9,-8.093,71.5,90.4,71.6,67.7,78.1,36,68.4,2,5,prime,10,0,94,norm,36,-5.07,up,norm,78.6929354261,72.5,,73.8,93.4,4,81.0,93.0,81.3,10,6,7.916,5.011,1.96,-1.933,-4.567,-7.619,83.5,6,172.7,-7.773,-7.873,80,-7.941,-8.248,-5.021,-4.954,-4.927,-4.871,4.599,8.332,16,-1.484,1.119,4.411,7.663,-7.646,-8.222,-1.521,1.516,98.7,87.0,75.9,85.2,75.9,80.3,77.8,78.9,88.6,78.2,0,norm,2.089,1.512,-1.698,-1.406,-4.869,-4.378,-1.508,-1.793,-1.986,-1.287,1.189,-1.121,94.1,86.3,-4.803,-8.34,1.794,-1.569,7.811,4.647,-4.827,-7.772,6,4.991,4.564,4.677,5.061,1.307,1.762,1.69,1.41,6,4.844,4.795,10,176.857419868,norm,0,23,23,23,797.459,797.469,797.477153859,797.477,797.48,797.482,up,1,1.31605078961,8.68394921039,001,313,1920_1080,Intel(R) Core(TM) i5-8350U CPU @ 1.70GHz,orientation_search,prilt00735,Intel(R) UHD Graphics 620,2018_Nov_08_1356,testMonitor,
82.2,84.1,61.7,80.7,36,80,98.7,93.0,91.8,78.3,8.078,7.56,8.353,7.709,8.373,7.547,8.301,4.939,-4.7,-7.575,1.658,-1.995,7.809,4.314,-4.607,-7.977,82.4,74.2,-7.576,77.8,97.8,58.7,84.9,75.8,36,85.3,2,5,prime,10,0,67,norm,36,-5.222,down,norm,78.6929354261,66.4,78.8,91.1,74.2,1,70.8,,82.5,10,6,7.676,5.065,2.023,-1.704,-4.555,-8.376,88.0,6,145.7,-8.085,-7.913,80,-7.702,-7.786,-5.223,-4.42,-5.232,-5.261,4.683,8.412,13,-1.871,1.495,5.262,7.853,-8.101,-7.744,-1.823,2.061,86.2,78.2,68.1,91.8,90.9,83.8,67.7,81.2,69.7,71.5,1,norm,1.598,1.755,-1.425,-1.852,-5.158,-5.179,-1.928,-2.05,-1.195,-1.222,1.546,-1.846,69.7,68.2,-5.205,-8.104,1.109,-1.314,7.933,5.234,-5.009,-7.638,6,5.232,4.359,4.31,4.373,1.578,1.676,1.688,2.095,6,4.902,5.19,10,176.857419868,norm,0,24,24,24,798.827,798.838,798.844327486,798.845,798.847,798.849,down,1,2.04758473935,7.95241526065,001,313,1920_1080,Intel(R) Core(TM) i5-8350U CPU @ 1.70GHz,orientation_search,prilt00735,Intel(R) UHD Graphics 620,2018_Nov_08_1356,testMonitor,
76.1,94.8,78.8,90.8,36,80,84.3,74.8,61.2,74.0,7.898,7.629,8.277,7.547,7.732,8.352,7.685,4.583,-4.673,-8.281,1.941,-2.061,8.295,5.168,-5.114,-7.966,62.5,87.4,-7.803,,72.8,85.3,58.7,84.1,36,75.5,5,5,prime,10,0,84,norm,36,-4.839,down,norm,78.6929354261,91.8,75.6,88.8,66.8,1,86.1,72.6,95.5,10,6,7.798,4.821,1.513,-1.181,-4.753,-7.731,70.3,6,162.7,-8.392,-7.713,80,-8.421,-7.551,-4.728,-4.581,-4.829,-5.067,4.301,7.536,31,-1.781,1.919,4.482,7.83,-8.445,-7.986,-1.591,1.876,75.2,64.8,87.8,98.7,72.9,79.2,82.0,61.0,88.1,65.8,2,norm,2.01,2.006,-1.855,-1.92,-4.431,-4.727,-1.654,-1.23,-1.935,-1.713,1.859,-1.101,77.3,84.6,-4.963,-8.466,1.571,-1.998,7.738,4.843,-4.321,-8.384,6,4.616,5.025,5.289,4.501,1.49,1.614,1.481,1.328,6,5.093,4.975,10,176.857419868,norm,0,25,25,25,800.926,800.937,800.944836246,800.945,800.948,800.951,down,1,5.26107120482,4.73892879518,001,313,1920_1080,Intel(R) Core(TM) i5-8350U CPU @ 1.70GHz,orientation_search,prilt00735,Intel(R) UHD Graphics 620,2018_Nov_08_1356,testMonitor,
70.5,67.1,75.8,62.1,36,80,88.8,91.3,95.2,63.7,7.778,7.769,7.84,7.573,8.093,8.227,8.465,5.16,-5.179,-7.754,1.782,-1.454,7.927,4.686,-4.439,-7.717,76.8,74.2,-7.809,79.0,85.1,86.2,68.6,69.4,36,58.7,0,5,prime,10,0,86,norm,36,-5.072,down,norm,78.6929354261,77.9,81.8,96.5,69.5,1,71.0,88.1,72.8,10,6,8.099,5.172,1.449,-1.609,-4.524,-8.065,78.8,6,164.7,-7.944,-7.709,80,-7.986,-8.19,-4.93,-5.291,-4.688,-4.321,4.659,7.883,1,-2.039,1.81,5.019,7.596,-7.561,-8.3,-1.404,1.499,95.2,92.0,78.6,98.7,,90.0,75.8,82.1,86.5,71.1,3,norm,1.842,1.996,-1.905,-1.25,-4.588,-4.479,-1.514,-1.296,-2.064,-1.546,1.48,-1.67,78.0,91.0,-4.558,-7.636,1.255,-1.537,8.068,4.341,-4.578,-7.822,6,4.618,4.632,4.496,4.6,1.963,1.682,1.939,1.865,6,4.509,4.869,10,176.857419868,norm,0,26,26,26,806.242,806.252,806.258912485,806.259,806.262,806.265,down,1,9.61098641147,0.38901358853,001,313,1920_1080,Intel(R) Core(TM) i5-8350U CPU @ 1.70GHz,orientation_search,prilt00735,Intel(R) UHD Graphics 620,2018_Nov_08_1356,testMonitor,
66.1,76.8,76.7,75.3,36,80,,58.7,81.9,98.7,7.984,7.893,7.537,8.123,7.677,8.01,7.913,5.089,-4.463,-8.174,1.434,-1.349,7.664,5.009,-5.121,-8.463,68.0,75.9,-8.167,64.4,77.8,82.6,95.6,80.1,36,71.9,4,5,prime,10,0,116,norm,36,-5.014,down,norm,78.6929354261,92.2,72.2,74.9,69.1,0,68.9,97.3,82.4,10,6,8.195,5.092,1.448,-1.523,-4.539,-8.417,81.4,6,194.7,-8.201,-8.31,80,-8.236,-7.61,-4.457,-5.274,-5.179,-4.306,5.182,7.511,24,-1.69,1.263,4.946,7.836,-8.257,-8.181,-1.478,1.758,84.9,62.0,74.0,66.4,74.5,69.7,76.8,84.6,87.5,76.9,4,norm,1.579,2.084,-2.047,-1.7,-4.426,-4.502,-1.311,-1.427,-1.168,-1.158,1.83,-1.159,90.3,77.5,-4.338,-8.302,1.664,-1.999,7.83,4.889,-4.531,-8.195,6,4.494,4.365,4.631,4.749,1.438,1.506,1.796,1.775,6,4.518,4.569,10,176.857419868,norm,0,27,27,27,815.892,815.92,815.926170364,815.927,815.93,815.934,down,1,11.0761303982,-1.07613039816,001,313,1920_1080,Intel(R) Core(TM) i5-8350U CPU @ 1.70GHz,orientation_search,prilt00735,Intel(R) UHD Graphics 620,2018_Nov_08_1356,testMonitor,
78.9,76.4,76.8,95.7,36,80,69.0,84.6,71.5,82.7,7.603,7.751,7.573,7.798,8.192,7.722,7.916,4.724,-5.268,-7.752,1.639,-1.964,8.222,4.975,-4.983,-8.31,84.1,70.2,-8.159,73.1,83.1,65.9,,67.3,36,65.8,5,5,prime,10,0,91,norm,36,-4.695,down,norm,78.6929354261,82.5,74.2,96.8,83.5,2,64.0,72.9,59.8,10,6,8.216,4.973,1.865,-1.809,-4.307,-8.071,58.7,6,169.7,-8.343,-8.319,80,-8.053,-7.733,-4.915,-5.121,-5.147,-5.115,5.023,8.176,32,-1.228,1.34,4.76,8.384,-7.908,-7.679,-1.788,1.183,95.3,67.0,86.0,89.6,97.5,98.7,84.9,72.5,74.8,76.2,5,norm,1.486,1.773,-1.91,-1.803,-5.042,-4.395,-1.422,-1.406,-1.533,-1.585,1.508,-2.029,84.9,86.1,-4.369,-8.187,1.992,-1.337,7.647,4.972,-4.321,-7.75,6,4.988,5.158,5.185,5.149,1.258,2.015,1.533,1.223,6,4.482,5.233,10,176.857419868,norm,0,28,28,28,827.046,827.065,827.070733328,827.071,827.075,827.079,down,1,11.0467751518,-1.04677515177,001,313,1920_1080,Intel(R) Core(TM) i5-8350U CPU @ 1.70GHz,orientation_search,prilt00735,Intel(R) UHD Graphics 620,2018_Nov_08_1356,testMonitor,
269.3,273.3,276.1,271.5,36,-30,268.8,269.7,280.6,267.6,7.855,8.406,8.38,8.484,7.944,7.976,8.038,5.112,-5.298,-7.961,1.812,-1.212,8.003,5.172,-5.085,-8.252,270.9,263.7,-7.846,267.6,272.8,264.0,264.1,282.5,36,271.3,1,5,probe,5,0,107,norm,36,-4.715,up,norm,273.679679588,272.8,283.1,270.0,267.2,5,,281.7,278.7,10,6,7.588,5.19,2.02,-1.135,-4.939,-7.664,275.2,2,166.7,-8.271,-8.065,80,-8.054,-8.041,-4.637,-4.57,-4.622,-4.913,4.517,7.626,11,-1.846,1.898,4.665,7.946,-8.333,-8.193,-1.809,1.976,277.1,283.7,277.1,271.4,278.0,277.9,271.8,271.1,269.3,279.2,0,norm,1.753,1.698,-1.272,-1.556,-4.425,-4.646,-1.894,-1.246,-2.022,-2.012,1.625,-1.709,269.1,267.3,-4.766,-8.313,1.779,-1.304,7.838,5.07,-4.613,-7.51,7,4.755,4.504,4.376,4.97,1.538,1.616,1.365,1.229,7,4.562,4.367,80,78.6929354261,norm,0,29,29,29,838.158,838.174,838.179228866,838.18,838.192,838.196,up,1,5.51157402406,4.48842597594,001,313,1920_1080,Intel(R) Core(TM) i5-8350U CPU @ 1.70GHz,orientation_search,prilt00735,Intel(R) UHD Graphics 620,2018_Nov_08_1356,testMonitor,
275.5,271.6,270.4,259.5,36,-30,267.8,263.7,266.3,266.3,7.786,8.231,7.7,8.105,7.898,8.016,7.596,4.629,-4.874,-8.138,1.705,-1.47,7.53,4.519,-5.028,-8.143,257.0,,-7.807,267.1,263.9,264.8,267.6,256.7,36,271.6,5,5,probe,5,0,100,norm,36,-5.011,up,norm,266.679679588,259.7,269.2,274.2,263.6,4,264.4,274.5,263.2,10,6,7.654,4.443,1.665,-2.01,-4.974,-7.992,276.7,2,166.7,-8.465,-7.541,80,-8.1,-7.808,-4.3,-4.483,-4.548,-4.463,4.37,7.645,34,-1.151,1.715,4.611,7.933,-7.949,-8.304,-1.593,1.886,262.3,263.7,261.6,262.2,269.6,270.9,270.3,262.5,266.0,264.1,1,norm,1.59,1.137,-1.666,-1.873,-5.122,-5.208,-1.216,-1.699,-1.178,-1.933,1.684,-1.905,268.9,267.2,-4.516,-7.528,1.133,-1.288,7.921,5.192,-4.473,-8.438,7,5.049,4.645,5.099,4.403,1.358,1.504,2.015,1.983,7,5.16,5.212,80,78.6929354261,norm,0,30,30,30,843.739,843.758,843.762910735,843.763,843.767,843.772,up,1,1.50191406166,8.49808593834,001,313,1920_1080,Intel(R) Core(TM) i5-8350U CPU @ 1.70GHz,orientation_search,prilt00735,Intel(R) UHD Graphics 620,2018_Nov_08_1356,testMonitor,
,266.2,285.2,290.9,36,-20,272.7,261.3,281.1,263.1,7.84,8.457,7.538,8.247,8.32,7.602,8.114,5.127,-5.081,-8.23,1.333,-1.976,8.496,4.647,-4.589,-8.127,264.7,272.6,-8.404,272.5,270.1,272.6,269.3,250.9,36,283.9,3,5,prime,10,0,88,norm,36,-5.039,up,norm,270.852192792,267.9,272.9,262.4,254.6,4,275.6,269.0,277.9,10,5,7.618,4.439,1.8,-1.822,-4.803,-7.508,277.0,5,358.9,-7.89,-7.584,-20,-8.086,-7.685,-4.667,-5.104,-4.444,-4.857,5.15,8.017,22,-1.875,2.072,4.359,7.81,-7.992,-8.442,-1.398,1.55,255.4,275.0,274.2,259.0,266.7,258.4,266.7,272.2,288.6,271.8,0,norm,2.084,1.455,-1.369,-1.587,-4.953,-4.85,-1.452,-1.134,-1.664,-1.316,2.089,-1.957,268.2,271.3,-4.96,-8.33,1.443,-1.971,8.223,5.104,-4.999,-8.056,8,4.662,4.89,4.408,5.121,1.665,1.846,1.183,1.86,8,4.436,5.058,-30,78.6929354261,norm,0,31,31,31,845.304,845.314,845.32290447,845.323,845.325,845.328,up,1,3.57879517811,6.42120482189,001,313,1920_1080,Intel(R) Core(TM) i5-8350U CPU @ 1.70GHz,orientation_search,prilt00735,Intel(R) UHD Graphics 620,2018_Nov_08_1356,testMonitor,
288.0,266.5,279.8,281.6,36,-20,277.3,250.9,259.4,255.1,8.15,8.197,7.781,7.68,8.344,7.942,7.705,5.226,-4.543,-7.831,1.722,-1.284,8.198,4.665,-5.133,-8.078,269.2,258.6,-8.423,271.1,272.3,280.9,277.0,264.4,36,272.8,2,5,prime,10,0,62,norm,36,-4.522,down,norm,270.852192792,261.9,273.1,287.5,273.7,0,259.6,269.4,,10,5,7.963,4.577,1.493,-2.006,-4.532,-8.488,288.2,5,332.9,-7.693,-8.432,-20,-8.148,-7.518,-4.999,-4.627,-4.304,-4.668,4.995,7.663,12,-2.062,1.924,4.982,8.166,-8.439,-7.849,-1.215,1.714,263.8,279.6,264.5,255.2,290.9,272.7,278.4,267.5,262.8,269.4,1,norm,1.273,1.531,-1.695,-1.365,-4.921,-4.838,-2.089,-1.674,-1.475,-1.744,2.061,-1.919,262.7,273.2,-4.511,-7.658,2.082,-2.051,7.789,4.482,-5.018,-8.022,8,5.123,4.766,4.851,4.986,1.424,1.27,1.341,1.959,8,5.255,5.022,-30,78.6929354261,norm,0,32,32,32,848.937,848.954,848.959197109,848.96,848.963,848.968,down,1,1.78953963146,8.21046036854,001,313,1920_1080,Intel(R) Core(TM) i5-8350U CPU @ 1.70GHz,orientation_search,prilt00735,Intel(R) UHD Graphics 620,2018_Nov_08_1356,testMonitor,
268.9,262.9,274.9,268.7,36,-20,280.2,262.5,,274.5,8.404,8.092,7.807,7.97,8.256,7.826,7.992,5.222,-5.008,-8.385,1.892,-1.279,7.566,4.455,-4.738,-8.31,268.5,262.8,-7.82,282.5,257.7,273.9,265.9,274.9,36,282.2,4,5,prime,10,0,94,norm,36,-5.296,up,norm,270.852192792,290.9,274.9,288.1,282.8,4,257.3,276.6,271.9,10,5,8.428,4.316,1.996,-1.104,-4.454,-7.687,270.8,5,364.9,-8.001,-8.208,-20,-7.992,-8.014,-4.536,-4.947,-5.263,-5.023,4.307,7.687,28,-1.461,1.674,5.246,7.585,-7.793,-8.351,-1.54,1.778,271.6,250.9,289.7,283.5,258.6,275.4,268.2,281.7,280.8,280.9,2,norm,1.562,1.414,-1.473,-1.97,-4.707,-5.157,-1.203,-1.285,-1.826,-1.355,1.629,-2.095,268.5,254.3,-5.164,-8.115,1.647,-1.894,8.427,4.363,-4.414,-8.484,8,4.316,4.443,4.66,4.991,1.28,1.753,1.453,1.806,8,4.917,5.009,-30,78.6929354261,norm,0,33,33,33,850.793,850.812,850.817777442,850.818,850.822,850.826,up,1,4.53044135755,5.46955864245,001,313,1920_1080,Intel(R) Core(TM) i5-8350U CPU @ 1.70GHz,orientation_search,prilt00735,Intel(R) UHD Graphics 620,2018_Nov_08_1356,testMonitor,
269.9,277.0,267.0,285.4,36,-20,262.1,253.1,268.8,266.1,8.499,7.581,8.173,7.915,8.403,8.051,8.316,4.812,-4.311,-8.41,2.079,-1.715,8.163,4.572,-5.018,-7.589,250.9,273.6,-8.325,267.7,275.6,265.7,277.9,,36,290.9,4,5,prime,10,0,92,norm,36,-4.617,down,norm,270.852192792,270.7,258.3,270.1,267.6,2,256.2,277.7,277.2,10,5,8.274,4.568,1.313,-1.281,-4.934,-8.22,269.7,5,362.9,-7.62,-7.57,-20,-7.72,-7.651,-4.612,-4.528,-4.88,-4.332,5.212,7.748,26,-1.835,2.028,4.48,7.802,-7.56,-7.711,-1.454,1.682,274.5,280.5,276.3,269.2,269.0,260.4,265.7,273.7,264.4,270.0,3,norm,1.685,1.453,-1.287,-1.876,-4.686,-4.435,-1.183,-1.446,-1.331,-1.962,1.462,-1.264,273.8,275.3,-5.159,-7.769,1.422,-1.708,7.851,5.106,-5.076,-7.643,8,4.778,4.517,4.765,4.406,1.908,2.014,1.727,1.165,8,4.394,5.295,-30,78.6929354261,norm,0,34,34,34,855.386,855.395,855.402826265,855.403,855.405,855.407,down,1,2.78339130247,7.21660869753,001,313,1920_1080,Intel(R) Core(TM) i5-8350U CPU @ 1.70GHz,orientation_search,prilt00735,Intel(R) UHD Graphics 620,2018_Nov_08_1356,testMonitor,
282.9,269.5,276.5,270.7,36,-20,254.3,262.4,280.0,269.6,8.201,7.752,8.317,7.755,7.945,8.417,8.351,4.471,-4.424,-8.208,1.594,-1.667,7.755,4.753,-4.465,-8.055,271.0,253.9,-8.417,275.7,262.9,280.3,269.3,264.0,36,277.9,2,5,prime,10,0,116,norm,36,-5.187,up,norm,270.852192792,,288.0,286.9,288.4,5,268.6,278.4,262.2,10,5,8.047,5.131,1.738,-1.133,-4.519,-7.548,274.8,5,386.9,-8.079,-7.85,-20,-8.151,-7.862,-4.799,-5.028,-5.171,-5.059,4.396,7.825,17,-1.842,1.714,5.133,7.654,-8.272,-8.367,-1.63,1.351,272.2,275.7,257.9,287.2,290.9,260.4,268.9,273.5,252.9,261.7,4,norm,1.431,1.606,-1.574,-1.208,-4.985,-4.64,-1.208,-1.3,-1.11,-1.894,1.527,-1.771,250.9,267.2,-5.154,-7.93,2.088,-1.192,7.693,4.875,-4.313,-7.885,8,4.549,5.008,4.692,4.824,2.055,1.925,1.883,1.786,8,4.364,5.174,-30,78.6929354261,norm,0,35,35,35,858.223,858.234,858.238265031,858.239,858.24,858.242,up,1,1.36335630497,8.63664369503,001,313,1920_1080,Intel(R) Core(TM) i5-8350U CPU @ 1.70GHz,orientation_search,prilt00735,Intel(R) UHD Graphics 620,2018_Nov_08_1356,testMonitor,
340.3,333.1,334.4,335.4,36,-80,340.7,341.5,337.8,336.0,7.589,8.285,8.368,8.107,8.057,7.765,7.716,5.228,-5.203,-8.157,2.085,-1.767,8.193,4.978,-4.339,-7.72,344.3,341.8,-8.058,339.2,345.6,335.0,334.8,330.3,36,334.0,3,5,probe,5,0,82,norm,36,-4.945,down,norm,335.63283085,333.3,337.5,343.4,331.6,1,330.0,334.7,339.9,10,5,7.524,5.167,1.64,-1.482,-5.046,-7.864,325.6,2,253.6,-8.192,-7.64,-20,-8.109,-7.825,-4.968,-4.544,-4.75,-4.989,4.786,8.431,19,-1.798,1.47,4.638,8.486,-8.212,-8.019,-1.135,2.086,339.7,335.2,343.2,336.2,333.4,335.9,336.2,337.1,334.9,343.6,0,norm,1.147,2.068,-1.155,-1.627,-4.409,-4.499,-1.396,-1.748,-1.86,-1.79,1.784,-1.367,,332.8,-4.462,-8.402,1.988,-1.731,7.606,4.404,-4.975,-8.42,9,5.135,4.9,5.032,5.188,1.336,1.552,1.461,1.534,9,4.941,4.916,-20,270.852192792,norm,0,36,36,36,859.638,859.65,859.654527534,859.655,859.657,859.659,down,1,2.13238350363,7.86761649637,001,313,1920_1080,Intel(R) Core(TM) i5-8350U CPU @ 1.70GHz,orientation_search,prilt00735,Intel(R) UHD Graphics 620,2018_Nov_08_1356,testMonitor,
377.9,362.8,372.4,368.2,36,-80,362.6,364.3,374.3,368.8,8.174,8.478,8.173,8.232,8.155,8.382,8.403,5.193,-5.103,-8.183,1.983,-1.641,7.9,4.93,-4.965,-7.976,372.5,373.4,-8.369,,369.3,377.1,366.4,374.9,36,373.5,5,5,probe,5,0,119,norm,36,-5.218,down,norm,372.63283085,371.0,377.5,374.0,378.0,1,377.9,377.0,374.9,10,5,7.917,5.105,2.079,-1.905,-4.626,-8.482,374.8,2,253.6,-8.409,-7.858,-20,-8.448,-7.648,-4.404,-4.993,-5.183,-4.831,5.205,8.339,31,-1.994,1.678,4.874,8.244,-7.746,-7.76,-1.634,1.246,368.3,370.7,364.6,367.8,373.0,364.8,372.0,369.1,366.8,373.9,1,norm,1.744,1.707,-1.561,-1.901,-5.036,-5.26,-1.513,-1.106,-1.433,-1.206,1.695,-2.011,382.6,379.1,-4.352,-7.919,2.054,-1.571,7.518,4.781,-4.553,-7.813,9,4.501,4.598,4.508,4.977,1.376,1.63,2.069,1.454,9,5.01,4.4,-20,270.852192792,norm,0,37,37,37,861.825,861.845,861.851288103,861.852,861.856,861.86,up,0,4.01135204908,-10,001,313,1920_1080,Intel(R) Core(TM) i5-8350U CPU @ 1.70GHz,orientation_search,prilt00735,Intel(R) UHD Graphics 620,2018_Nov_08_1356,testMonitor,
126.4,141.6,139.6,130.0,36,60,138.2,129.8,147.7,151.7,7.934,7.874,7.844,8.095,8.269,8.185,8.378,4.411,-5.295,-8.133,1.16,-2.009,7.682,4.405,-4.917,-8.196,140.0,132.8,-7.891,139.4,124.9,113.7,117.4,136.3,36,149.5,2,5,prime,10,0,115,norm,36,-4.528,up,norm,133.723687219,136.8,128.9,,132.3,3,121.1,135.3,138.1,10,6,8.068,4.42,1.54,-1.65,-5.034,-8.24,131.6,6,248.7,-8.2,-7.84,60,-7.984,-8.039,-5.099,-4.957,-4.821,-4.689,5.189,7.953,15,-1.577,2.041,4.707,8.499,-8.139,-8.456,-1.983,1.458,132.7,130.1,129.1,130.7,151.3,136.5,135.4,153.7,144.4,113.8,0,norm,1.943,1.279,-1.461,-1.141,-4.979,-4.394,-1.966,-1.341,-1.768,-1.383,1.109,-1.586,150.4,137.1,-4.388,-8.496,1.995,-1.287,8.47,4.868,-4.605,-7.729,10,4.423,4.336,5.032,4.821,1.565,1.171,1.779,1.847,10,4.65,4.595,-80,270.852192792,norm,0,38,38,38,866.93,866.939,866.947575018,866.948,866.95,866.953,up,1,1.63638985503,8.36361014497,001,313,1920_1080,Intel(R) Core(TM) i5-8350U CPU @ 1.70GHz,orientation_search,prilt00735,Intel(R) UHD Graphics 620,2018_Nov_08_1356,testMonitor,
137.6,114.2,129.9,153.6,36,60,146.9,122.3,145.4,149.3,8.083,7.768,7.868,7.59,7.91,7.507,7.95,4.916,-5.001,-7.655,1.346,-1.404,7.884,4.363,-5.17,-7.856,126.4,142.0,-7.579,138.7,133.1,128.0,143.7,123.7,36,134.3,0,5,prime,10,0,113,norm,36,-4.434,up,norm,133.723687219,152.5,138.4,118.2,150.3,4,113.7,143.0,136.5,10,6,8.375,4.752,1.464,-1.397,-4.328,-8.261,134.1,6,246.7,-8.097,-8.034,60,-8.202,-7.628,-4.707,-4.608,-5.212,-5.042,5.05,7.762,4,-1.303,1.586,4.724,7.509,-7.635,-7.579,-1.726,1.936,138.5,137.7,145.7,127.6,138.5,142.2,153.7,147.0,129.7,,1,norm,1.574,1.571,-2.076,-1.226,-5.011,-4.442,-1.551,-1.263,-1.854,-1.656,1.179,-1.744,150.2,133.8,-4.687,-8.196,1.992,-1.928,8.184,4.5,-5.149,-8.021,10,4.787,4.594,4.653,4.622,1.359,1.708,1.865,1.173,10,4.944,4.582,-80,270.852192792,norm,0,39,39,39,868.618,868.635,868.639631446,868.64,868.642,868.644,up,1,1.49363563697,8.50636436303,001,313,1920_1080,Intel(R) Core(TM) i5-8350U CPU @ 1.70GHz,orientation_search,prilt00735,Intel(R) UHD Graphics 620,2018_Nov_08_1356,testMonitor,
141.8,120.5,150.6,135.7,36,60,123.7,134.0,135.2,135.1,7.865,8.088,7.598,8.118,8.411,8.14,7.964,4.907,-5.132,-8.368,1.827,-1.754,8.479,4.915,-4.845,-7.747,149.9,138.6,-8.308,130.9,120.7,135.1,145.9,113.7,36,,4,5,prime,10,0,67,norm,36,-4.817,up,norm,133.723687219,132.1,133.1,130.5,127.9,3,149.9,133.9,138.8,10,6,7.694,4.394,1.417,-1.264,-5.003,-7.891,136.5,6,200.7,-7.898,-8.454,60,-8.132,-7.537,-4.439,-4.702,-4.417,-4.839,4.397,7.514,27,-1.816,1.935,5.19,8.143,-7.56,-8.21,-1.155,1.537,130.0,128.6,130.9,124.6,130.5,133.9,143.1,137.5,129.7,145.5,2,norm,1.981,1.708,-1.82,-1.671,-4.89,-5.07,-1.465,-1.482,-1.245,-2.052,1.206,-1.448,136.8,135.4,-4.96,-7.803,1.415,-1.385,7.606,5.122,-5.258,-8.308,10,4.579,5.008,5.136,4.305,1.411,1.564,1.287,1.249,10,4.582,5.107,-80,270.852192792,norm,0,40,40,40,870.167,870.185,870.189933894,870.19,870.194,870.199,up,1,1.68815377302,8.31184622698,001,313,1920_1080,Intel(R) Core(TM) i5-8350U CPU @ 1.70GHz,orientation_search,prilt00735,Intel(R) UHD Graphics 620,2018_Nov_08_1356,testMonitor,
120.8,137.2,125.3,135.4,36,60,124.1,119.6,129.9,133.4,7.948,8.192,8.403,7.738,8.023,7.904,8.311,4.972,-4.824,-7.881,1.544,-1.597,7.761,5.193,-5.282,-7.949,139.1,128.9,-7.57,144.8,121.1,137.0,129.8,125.7,36,129.0,1,5,prime,10,0,107,norm,36,-4.383,down,norm,133.723687219,133.7,130.5,137.6,123.6,0,138.3,138.2,132.5,10,6,8.122,5.144,1.117,-1.978,-5.087,-7.807,140.2,6,240.7,-7.828,-7.929,60,-7.73,-7.717,-4.621,-4.801,-4.832,-4.398,4.92,7.661,6,-2.079,1.202,4.702,7.92,-8.338,-7.636,-1.262,1.285,153.7,133.7,136.4,141.4,114.1,142.8,124.7,,141.5,146.8,3,norm,1.444,1.16,-1.727,-1.87,-4.401,-4.459,-1.453,-1.12,-1.932,-1.776,1.112,-1.387,113.7,127.0,-4.577,-8.258,1.129,-1.626,8.11,5.051,-5.296,-7.544,10,5.083,4.998,4.713,4.679,1.228,1.828,1.802,1.493,10,4.744,5.126,-80,270.852192792,norm,0,41,41,41,871.917,871.927,871.934681026,871.935,871.938,871.94,down,1,1.21428417119,8.78571582881,001,313,1920_1080,Intel(R) Core(TM) i5-8350U CPU @ 1.70GHz,orientation_search,prilt00735,Intel(R) UHD Graphics 620,2018_Nov_08_1356,testMonitor,
142.7,128.4,113.7,129.2,36,60,120.8,124.5,126.5,,7.802,7.653,8.233,8.304,8.107,8.495,8.173,5.195,-4.974,-7.961,1.955,-1.766,8.118,4.709,-4.6,-8.471,143.3,130.5,-7.732,128.8,145.3,124.8,131.3,128.9,36,139.6,4,5,prime,10,0,93,norm,36,-5.043,up,norm,133.723687219,153.7,116.8,119.8,140.1,5,124.2,145.6,124.9,10,6,8.316,5.267,1.29,-1.543,-4.509,-8.362,135.7,6,226.7,-8.379,-7.9,60,-7.663,-8.196,-4.989,-4.855,-4.692,-5.199,4.301,8.457,29,-1.374,2.042,4.333,7.597,-7.529,-8.46,-1.468,1.865,140.1,124.2,139.7,123.8,127.1,134.5,120.9,116.4,120.8,116.6,4,norm,1.617,1.471,-1.439,-1.968,-4.937,-5.217,-1.558,-1.303,-1.475,-1.375,1.314,-1.745,134.1,131.3,-4.408,-8.133,1.67,-1.218,7.971,4.539,-5.016,-7.729,10,4.391,4.971,4.617,4.698,1.267,1.532,1.189,1.39,10,4.834,4.68,-80,270.852192792,norm,0,42,42,42,873.191,873.208,873.214454838,873.215,873.218,873.222,up,1,1.46503921018,8.53496078982,001,313,1920_1080,Intel(R) Core(TM) i5-8350U CPU @ 1.70GHz,orientation_search,prilt00735,Intel(R) UHD Graphics 620,2018_Nov_08_1356,testMonitor,
130.3,121.5,122.3,129.3,36,60,,122.9,131.2,133.1,8.244,8.4,8.061,8.409,8.117,7.817,7.973,4.576,-4.411,-8.086,1.57,-1.252,7.598,4.478,-5.075,-7.867,133.6,153.7,-7.725,137.6,135.4,120.9,140.6,133.6,36,122.7,4,5,prime,10,0,97,norm,36,-5.266,down,norm,133.723687219,137.2,113.7,135.9,132.5,0,138.1,136.3,139.9,10,6,7.7,4.501,1.512,-1.959,-4.859,-8.139,128.0,6,230.7,-7.581,-7.821,60,-8.015,-7.937,-4.495,-5.094,-5.268,-5.039,5.293,8.471,24,-1.587,1.6,5.101,8.227,-8.335,-8.175,-1.782,1.545,136.7,133.9,138.0,132.0,148.2,135.2,124.3,115.3,121.3,129.4,5,norm,1.904,1.85,-1.597,-1.958,-4.55,-4.764,-1.683,-1.736,-1.366,-1.71,1.339,-1.951,133.3,133.8,-4.632,-8.422,1.692,-1.596,7.797,4.786,-5.028,-8.197,10,5.099,4.852,5.075,5.089,1.847,1.196,1.199,1.752,10,4.812,4.909,-80,270.852192792,norm,0,43,43,43,874.705,874.717,874.721175117,874.721,874.724,874.727,down,1,1.35948767526,8.64051232474,001,313,1920_1080,Intel(R) Core(TM) i5-8350U CPU @ 1.70GHz,orientation_search,prilt00735,Intel(R) UHD Graphics 620,2018_Nov_08_1356,testMonitor,
255.0,258.5,245.2,252.6,36,-60,246.0,255.8,254.0,,7.799,8.385,8.099,7.739,8.427,8.367,7.591,4.492,-5.098,-7.724,1.129,-1.632,7.588,4.618,-4.638,-8.254,251.9,252.7,-8.419,258.4,255.5,255.2,243.7,254.0,36,251.8,4,5,probe,5,0,61,norm,36,-4.352,up,norm,253.745824979,256.6,248.3,251.8,250.0,5,256.0,248.1,247.4,10,6,7.593,4.46,1.271,-1.809,-4.489,-7.718,252.7,1,192.7,-8.319,-7.731,60,-7.583,-8.07,-5.162,-4.504,-4.571,-5.066,5.073,7.557,29,-1.197,1.966,5.227,8.043,-7.903,-7.79,-1.306,1.6,249.2,262.2,250.8,259.5,247.4,249.0,263.7,255.7,257.6,255.3,0,norm,1.568,2.021,-1.755,-1.456,-4.899,-4.857,-1.918,-1.996,-2.06,-2.003,1.624,-1.197,250.9,244.1,-4.559,-8.372,1.39,-1.349,7.675,4.775,-4.363,-7.78,11,4.86,5.182,4.51,4.685,1.797,1.243,1.713,1.666,11,4.643,4.888,60,133.723687219,norm,0,44,44,44,876.117,876.128,876.135424723,876.136,876.138,876.14,up,1,0.798013026855,9.20198697314,001,313,1920_1080,Intel(R) Core(TM) i5-8350U CPU @ 1.70GHz,orientation_search,prilt00735,Intel(R) UHD Graphics 620,2018_Nov_08_1356,testMonitor,
253.3,248.7,255.9,262.5,36,0,278.7,250.2,245.3,277.4,8.227,8.492,8.333,8.332,7.691,8.006,8.149,5.041,-4.414,-7.624,1.494,-1.442,8.292,4.709,-4.806,-8.436,254.8,266.0,-7.625,261.3,270.3,238.7,253.4,244.9,36,239.6,1,5,prime,10,0,116,norm,36,-5.287,down,norm,258.747691583,243.9,257.3,258.5,264.0,2,249.1,253.6,271.0,10,5,8.243,4.924,1.803,-1.86,-4.512,-7.514,262.0,5,374.7,-7.875,-7.754,0,-7.706,-7.958,-4.922,-4.798,-4.374,-4.98,4.816,7.507,8,-1.587,1.181,4.842,8.114,-7.954,-7.666,-1.939,1.13,253.7,,244.2,274.8,269.7,254.1,252.6,262.7,260.5,248.7,0,norm,1.393,1.32,-1.712,-1.226,-5.188,-5.114,-2.05,-1.371,-1.708,-1.822,1.682,-1.673,261.0,263.4,-5.179,-8.103,1.104,-1.79,7.788,4.724,-5.245,-7.9,12,4.449,4.737,4.839,4.739,1.167,1.857,2.08,1.548,12,4.799,5.177,-60,133.723687219,norm,0,45,45,45,876.972,876.99,876.995744669,876.996,876.999,877.004,up,0,6.89615513405,-10,001,313,1920_1080,Intel(R) Core(TM) i5-8350U CPU @ 1.70GHz,orientation_search,prilt00735,Intel(R) UHD Graphics 620,2018_Nov_08_1356,testMonitor,
248.5,251.7,249.7,275.8,36,0,260.2,265.0,270.8,270.5,7.787,8.46,7.744,7.773,7.805,8.113,7.767,4.406,-4.625,-7.856,1.936,-1.124,8.215,5.012,-4.701,-8.119,251.1,256.3,-8.402,272.1,254.6,246.5,259.5,262.0,36,256.1,2,5,prime,10,0,99,norm,36,-4.513,up,norm,258.747691583,260.5,257.3,,252.7,3,258.8,272.3,240.2,10,5,7.914,4.379,2.021,-1.79,-4.608,-7.509,256.9,5,357.7,-7.635,-8.246,0,-8.282,-7.993,-4.383,-4.727,-5.225,-4.354,4.868,8.228,15,-1.55,1.177,4.737,7.596,-7.61,-8.157,-1.292,1.656,258.4,260.3,268.0,255.9,264.3,253.2,278.7,256.0,238.7,249.6,1,norm,1.933,1.119,-1.222,-1.644,-5.21,-4.812,-1.257,-2.074,-1.432,-1.576,1.874,-1.694,265.7,278.1,-4.648,-8.364,1.465,-1.878,8.36,4.958,-4.528,-7.975,12,4.673,4.739,5.02,4.441,1.41,1.77,1.358,1.902,12,5.056,4.533,-60,133.723687219,norm,0,46,46,46,884.943,884.953,884.962064421,884.962,884.966,884.97,up,1,3.29868003196,6.70131996804,001,313,1920_1080,Intel(R) Core(TM) i5-8350U CPU @ 1.70GHz,orientation_search,prilt00735,Intel(R) UHD Graphics 620,2018_Nov_08_1356,testMonitor,
259.3,259.6,258.2,258.9,36,0,257.6,262.7,255.6,250.2,7.973,8.263,8.462,8.409,8.325,7.589,7.74,4.906,-4.832,-7.859,1.622,-1.47,7.865,4.647,-5.119,-8.146,238.7,,-7.537,267.3,255.5,256.7,262.8,267.9,36,269.7,5,5,prime,10,0,109,norm,36,-5.174,up,norm,258.747691583,260.5,263.6,271.2,259.6,4,256.8,264.9,263.1,10,5,8.288,5.269,1.55,-1.461,-5.172,-7.892,260.8,5,367.7,-8.188,-7.723,0,-7.726,-7.693,-5.019,-4.499,-4.989,-5.192,5.231,8.008,34,-1.839,2.003,4.569,8.417,-7.932,-7.857,-1.609,1.312,262.2,271.4,257.6,257.5,264.4,252.9,256.8,255.8,278.7,264.3,2,norm,1.442,1.654,-1.592,-1.393,-4.678,-4.447,-1.571,-1.265,-1.52,-1.491,1.696,-1.588,253.6,253.0,-4.943,-8.033,1.963,-1.411,7.672,4.331,-4.846,-7.594,12,5.235,4.643,5.006,5.264,1.768,2.011,1.173,1.12,12,4.527,4.372,-60,133.723687219,norm,0,47,47,47,888.3,888.311,888.317455011,888.318,888.32,888.322,down,0,4.99611624792,-10,001,313,1920_1080,Intel(R) Core(TM) i5-8350U CPU @ 1.70GHz,orientation_search,prilt00735,Intel(R) UHD Graphics 620,2018_Nov_08_1356,testMonitor,
249.0,257.2,263.0,273.7,36,0,,257.8,251.8,261.4,7.8,8.418,7.866,8.086,7.819,8.45,8.037,4.554,-5.094,-8.412,1.211,-1.436,7.581,5.056,-4.857,-8.353,272.5,265.6,-8.251,238.7,262.4,258.8,268.8,267.5,36,247.2,4,5,prime,10,0,94,norm,36,-4.702,down,norm,258.747691583,266.7,265.0,266.6,265.6,0,250.1,262.5,254.3,10,5,8.41,4.942,2.095,-1.703,-4.567,-8.322,265.0,5,352.7,-7.871,-8.214,0,-8.468,-7.884,-4.966,-5.192,-4.481,-4.328,5.299,7.767,24,-1.3,1.359,4.66,7.717,-8.446,-7.551,-1.107,1.188,253.5,253.7,256.8,278.7,243.4,260.0,252.4,248.9,259.1,259.4,3,norm,1.291,1.604,-1.181,-1.485,-5.078,-5.022,-1.444,-1.485,-1.748,-1.215,1.175,-1.67,250.6,244.0,-4.87,-7.884,1.772,-1.353,8.054,4.402,-5.096,-7.846,12,4.906,4.4,5.209,4.413,1.252,1.909,1.33,1.395,12,5.039,4.342,-60,133.723687219,norm,0,48,48,48,894.382,894.391,894.410954546,894.411,894.415,894.419,up,0,1.7489074078,-10,001,313,1920_1080,Intel(R) Core(TM) i5-8350U CPU @ 1.70GHz,orientation_search,prilt00735,Intel(R) UHD Graphics 620,2018_Nov_08_1356,testMonitor,
254.3,262.7,240.6,252.3,36,0,267.1,262.0,257.4,256.4,7.846,7.954,7.862,8.159,7.54,8.199,7.537,4.815,-4.757,-8.425,1.135,-1.437,8.162,4.447,-4.687,-8.47,264.9,241.1,-8.416,262.2,261.6,251.7,261.4,239.3,36,257.4,2,5,prime,10,0,79,norm,36,-5.024,down,norm,258.747691583,256.9,253.6,268.2,,2,268.5,259.4,249.6,10,5,8.415,4.823,1.117,-1.667,-4.334,-7.963,238.7,5,337.7,-7.548,-8.17,0,-8.24,-7.717,-4.806,-5.249,-4.744,-4.586,4.433,7.861,14,-1.294,1.692,4.494,8.026,-8.459,-8.197,-1.671,1.526,266.4,259.4,260.9,271.2,260.9,248.5,260.9,240.7,278.7,253.4,4,norm,1.857,1.907,-1.253,-1.264,-4.997,-4.319,-1.738,-1.871,-1.903,-1.465,1.32,-1.377,251.7,259.7,-5.258,-7.53,1.897,-1.152,8.249,4.571,-4.945,-7.868,12,5.15,4.654,4.496,4.682,1.164,1.628,2.091,1.483,12,4.735,4.777,-60,133.723687219,norm,0,49,49,49,897.228,897.236,897.247127287,897.247,897.25,897.253,down,1,17.430304716,-7.43030471602,001,313,1920_1080,Intel(R) Core(TM) i5-8350U CPU @ 1.70GHz,orientation_search,prilt00735,Intel(R) UHD Graphics 620,2018_Nov_08_1356,testMonitor,
321.1,324.9,325.7,323.7,36,-40,327.5,320.3,326.0,321.3,8.276,8.464,8.481,8.138,8.316,7.711,7.649,5.274,-4.507,-7.848,1.417,-1.382,8.084,5.053,-4.354,-7.856,318.4,326.7,-7.661,324.1,316.8,317.0,323.3,326.0,36,334.2,1,5,probe,5,0,62,norm,36,-4.581,down,norm,324.166955682,315.7,322.2,325.5,326.8,2,323.2,314.2,326.2,10,5,8.111,4.87,1.117,-1.567,-4.615,-8.361,330.0,1,262.2,-8.288,-8.162,0,-7.823,-8.32,-4.969,-4.431,-4.655,-4.939,4.877,8.421,8,-1.421,1.873,4.887,8.032,-8.383,-8.277,-1.977,1.681,326.7,,319.7,330.2,327.3,318.5,325.7,326.2,318.8,330.2,0,norm,1.935,1.284,-2.073,-1.238,-5.026,-4.828,-1.315,-1.463,-1.253,-1.475,1.858,-1.484,316.3,330.8,-4.391,-8.265,1.925,-1.297,7.789,5.106,-4.585,-8.147,13,4.555,4.313,5.201,5.295,1.967,1.249,1.478,1.275,13,4.607,4.851,0,258.747691583,norm,0,50,50,50,914.719,914.737,914.742094774,914.743,914.746,914.749,down,1,1.34968351011,8.65031648989,001,313,1920_1080,Intel(R) Core(TM) i5-8350U CPU @ 1.70GHz,orientation_search,prilt00735,Intel(R) UHD Graphics 620,2018_Nov_08_1356,testMonitor,
215.6,189.2,200.1,222.4,36,40,211.5,206.5,204.9,214.8,8.465,8.285,8.475,7.918,7.809,8.038,7.81,4.432,-5.209,-8.141,1.905,-1.216,8.376,4.868,-4.444,-7.973,227.4,197.0,-7.806,212.2,197.3,200.9,200.9,209.3,36,200.1,0,5,prime,10,0,71,norm,36,-4.981,up,norm,209.201839585,209.6,202.7,212.2,219.5,5,218.4,198.7,216.9,10,5,7.59,5.041,1.61,-2.09,-5.046,-8.289,210.6,5,280.2,-8.008,-8.055,40,-7.763,-7.961,-4.506,-4.661,-4.697,-4.711,4.329,7.723,5,-1.828,1.827,4.551,8.045,-7.533,-7.592,-1.123,1.863,200.4,201.5,197.6,214.0,217.6,206.0,219.7,195.6,,229.2,0,norm,1.519,1.16,-1.686,-1.485,-4.303,-4.407,-1.674,-1.655,-1.706,-2.005,1.459,-1.523,220.6,207.5,-5.243,-7.99,1.781,-2.054,7.984,4.561,-5.01,-8.266,14,4.514,5.075,5.186,5.111,1.877,1.375,1.314,1.145,14,5.291,5.08,-40,258.747691583,norm,0,51,51,51,916.126,916.136,916.14479898,916.145,916.148,916.151,up,1,6.76492363197,3.23507636803,001,313,1920_1080,Intel(R) Core(TM) i5-8350U CPU @ 1.70GHz,orientation_search,prilt00735,Intel(R) UHD Graphics 620,2018_Nov_08_1356,testMonitor,
189.2,204.4,215.7,206.3,36,40,218.2,203.8,208.2,214.4,7.623,8.332,7.907,8.017,7.917,8.225,7.893,4.402,-4.746,-8.45,1.31,-1.996,7.783,4.339,-5.259,-8.005,217.6,195.4,-8.106,209.8,205.4,206.5,201.3,201.0,36,214.3,0,5,prime,10,0,100,norm,36,-4.725,down,norm,209.201839585,195.7,212.5,207.6,210.0,0,205.1,218.0,200.4,10,5,7.705,5.177,2.005,-1.643,-5.137,-7.784,211.3,5,309.2,-7.577,-8.375,40,-7.537,-8.106,-4.86,-5.28,-4.931,-4.783,4.789,7.654,0,-1.401,1.807,4.472,8.09,-7.856,-7.681,-1.966,1.101,229.2,208.9,212.3,213.0,197.5,,209.7,190.1,201.0,198.9,1,norm,1.845,1.899,-1.246,-1.42,-4.515,-4.547,-2.01,-1.106,-1.766,-1.352,1.672,-1.296,194.8,211.3,-5.049,-7.749,1.499,-1.447,8.114,4.375,-4.813,-8.099,14,4.407,4.73,4.385,4.591,1.805,1.961,1.405,1.156,14,4.552,4.739,-40,258.747691583,norm,0,52,52,52,922.946,922.955,922.963491326,922.964,922.966,922.969,down,1,1.2286326125,8.7713673875,001,313,1920_1080,Intel(R) Core(TM) i5-8350U CPU @ 1.70GHz,orientation_search,prilt00735,Intel(R) UHD Graphics 620,2018_Nov_08_1356,testMonitor,
189.3,229.2,229.0,211.2,36,40,204.8,216.6,193.6,208.7,7.578,7.777,8.116,7.659,8.363,7.817,7.56,5.227,-4.657,-7.729,1.267,-1.67,8.146,5.026,-4.317,-7.599,214.8,217.4,-8.204,213.7,189.2,193.1,215.5,195.8,36,217.6,3,5,prime,10,0,102,norm,36,-5.246,down,norm,209.201839585,206.7,201.2,218.0,197.0,0,209.6,217.3,223.0,10,5,7.945,4.788,1.438,-1.203,-5.126,-7.635,224.2,5,311.2,-7.506,-8.455,40,-7.526,-8.314,-4.604,-4.654,-4.433,-4.744,4.463,8.078,18,-1.214,1.988,4.644,7.885,-7.849,-7.667,-2.079,1.742,208.1,209.4,212.9,217.0,222.3,206.8,213.0,210.7,215.1,199.9,2,norm,1.615,1.79,-1.746,-1.467,-5.214,-4.935,-1.291,-1.298,-1.948,-1.578,1.719,-1.305,215.8,,-5.191,-8.338,2.049,-1.459,8.053,4.838,-4.413,-7.997,14,4.412,4.843,4.742,4.856,1.569,1.725,1.777,1.943,14,5.108,4.959,-40,258.747691583,norm,0,53,53,53,924.228,924.238,924.24549245,924.246,924.248,924.251,down,1,1.4132023807,8.5867976193,001,313,1920_1080,Intel(R) Core(TM) i5-8350U CPU @ 1.70GHz,orientation_search,prilt00735,Intel(R) UHD Graphics 620,2018_Nov_08_1356,testMonitor,
219.2,219.5,200.9,,36,40,205.5,207.1,197.2,194.9,7.817,7.625,8.18,7.51,7.866,7.902,8.466,5.274,-4.588,-8.47,1.104,-1.356,8.445,5.154,-4.463,-8.212,199.4,204.7,-7.978,213.9,227.9,216.0,214.0,221.3,36,221.5,3,5,prime,10,0,96,norm,36,-5.279,up,norm,209.201839585,209.3,223.7,201.9,229.2,3,189.2,225.4,218.4,10,5,8.281,4.312,1.408,-1.61,-5.268,-8.433,225.6,5,305.2,-7.553,-7.582,40,-7.764,-7.977,-5.017,-5.061,-5.005,-5.194,5.059,7.955,21,-1.539,1.161,4.838,8.144,-8.256,-7.643,-1.92,1.977,211.7,197.6,201.7,215.0,209.4,206.8,210.5,207.1,206.2,206.6,3,norm,1.482,1.533,-1.925,-1.287,-5.265,-5.159,-1.187,-1.934,-1.831,-1.759,1.659,-1.706,209.6,208.1,-5.141,-7.625,1.757,-1.645,7.563,4.7,-4.641,-8.217,14,4.779,4.489,4.672,4.812,1.294,1.807,1.89,1.53,14,4.437,4.777,-40,258.747691583,norm,0,54,54,54,925.696,925.707,925.71199043,925.712,925.714,925.717,up,1,4.22806930372,5.77193069628,001,313,1920_1080,Intel(R) Core(TM) i5-8350U CPU @ 1.70GHz,orientation_search,prilt00735,Intel(R) UHD Graphics 620,2018_Nov_08_1356,testMonitor,
216.3,202.0,210.0,200.9,36,40,206.4,217.7,208.1,189.2,7.971,8.165,7.786,8.481,7.64,8.357,7.912,4.897,-4.409,-7.743,1.428,-2.033,8.068,4.907,-4.618,-8.439,202.8,200.6,-8.014,208.3,213.0,203.4,203.3,225.2,36,209.9,2,5,prime,10,0,83,norm,36,-5.232,up,norm,209.201839585,200.9,229.2,,212.5,3,218.4,223.3,200.2,10,5,7.858,5.176,1.601,-1.138,-5.011,-8.351,216.5,5,292.2,-7.976,-7.701,40,-7.658,-7.62,-4.701,-5.133,-4.362,-4.828,4.408,7.88,15,-1.213,1.341,4.654,7.864,-8.357,-8.156,-1.406,1.62,202.2,208.2,200.9,204.4,217.5,218.3,219.9,203.5,209.4,215.4,4,norm,1.565,1.317,-1.749,-1.183,-4.442,-4.742,-1.41,-1.591,-1.961,-1.609,1.555,-1.914,203.1,207.1,-5.295,-8.022,1.993,-1.82,8.493,4.668,-4.676,-7.69,14,5.071,5.105,4.703,4.407,1.538,1.57,1.166,1.286,14,4.457,4.609,-40,258.747691583,norm,0,55,55,55,929.969,929.987,929.99282875,929.993,929.996,929.999,up,1,0.965998401356,9.03400159864,001,313,1920_1080,Intel(R) Core(TM) i5-8350U CPU @ 1.70GHz,orientation_search,prilt00735,Intel(R) UHD Graphics 620,2018_Nov_08_1356,testMonitor,
314.7,305.2,306.0,306.5,36,-10,299.0,,312.3,313.3,7.847,7.534,7.727,8.473,8.347,8.092,7.781,5.296,-4.393,-8.213,1.649,-1.769,8.321,5.246,-5.119,-8.474,310.5,308.1,-7.731,317.0,308.4,301.0,308.6,310.5,36,312.2,4,5,probe,5,0,63,norm,36,-4.634,down,norm,308.638368101,311.6,304.8,314.4,305.9,1,306.2,306.3,309.3,10,5,8.15,4.721,1.148,-1.248,-5.008,-8.076,312.0,1,245.6,-7.557,-8.39,40,-8.443,-7.981,-4.894,-4.407,-4.694,-5.245,4.766,8.433,25,-1.179,1.625,4.501,8.316,-7.852,-7.713,-1.829,1.888,306.6,301.0,311.2,311.1,318.6,313.9,308.1,306.4,313.4,311.0,0,norm,1.407,1.206,-1.177,-1.768,-5.192,-4.657,-2.01,-1.812,-1.229,-1.297,1.781,-1.798,298.6,305.9,-5.096,-7.564,1.952,-1.256,7.656,4.77,-4.959,-8.239,15,5.116,4.729,5.046,4.527,1.99,1.809,2.015,2.021,15,4.404,5.012,40,209.201839585,norm,0,56,56,56,930.986,931.006,931.011826784,931.012,931.016,931.02,down,1,1.81000399664,8.18999600336,001,313,1920_1080,Intel(R) Core(TM) i5-8350U CPU @ 1.70GHz,orientation_search,prilt00735,Intel(R) UHD Graphics 620,2018_Nov_08_1356,testMonitor,
106.0,95.5,90.1,90.0,36,-60,87.6,98.1,112.5,91.7,7.934,8.244,7.945,7.886,8.21,7.852,7.615,4.942,-5.177,-7.768,1.809,-1.14,7.824,4.872,-4.626,-7.862,100.5,90.4,-7.954,104.4,,96.1,83.6,102.6,36,87.8,5,5,prime,10,0,109,norm,36,-5.163,down,norm,92.4940345294,101.2,87.3,83.9,88.1,0,99.5,91.1,84.6,10,5,7.667,4.329,1.305,-1.908,-4.349,-8.036,86.7,5,201.5,-7.98,-8.385,-60,-7.585,-8.486,-5.034,-5.183,-4.927,-5.024,5.084,7.769,30,-1.604,1.534,4.594,7.996,-7.803,-8.316,-1.195,1.98,73.2,110.5,79.8,95.4,83.6,110.0,94.3,96.8,80.3,93.0,0,norm,1.654,2.062,-1.132,-1.226,-4.328,-4.448,-1.367,-1.479,-1.232,-1.115,1.79,-1.524,93.4,72.5,-4.777,-7.679,1.304,-1.417,8.496,4.834,-5.252,-8.425,16,4.714,5.11,5.061,4.399,1.714,1.828,2.017,2.029,16,4.825,4.327,-10,209.201839585,norm,0,57,57,57,932.862,932.879,932.884436367,932.885,932.889,932.894,up,0,5.18494242692,-10,001,313,1920_1080,Intel(R) Core(TM) i5-8350U CPU @ 1.70GHz,orientation_search,prilt00735,Intel(R) UHD Graphics 620,2018_Nov_08_1356,testMonitor,
103.4,89.2,101.8,,36,-60,100.0,94.5,73.5,86.4,8.429,7.949,7.653,7.855,8.47,7.59,7.74,4.551,-5.021,-8.238,1.776,-1.56,7.646,5.245,-4.985,-7.744,83.7,88.1,-8.209,86.7,90.7,109.4,89.5,104.5,36,112.5,3,5,prime,10,0,95,norm,36,-4.409,up,norm,92.4940345294,88.4,81.6,87.5,76.9,3,90.2,103.4,94.6,10,5,7.717,4.644,1.786,-1.856,-4.491,-8.449,84.2,5,187.5,-8.16,-7.544,-60,-7.648,-7.699,-4.494,-4.467,-4.995,-5.089,4.322,8.482,21,-1.5,1.496,5.151,7.902,-7.896,-7.912,-1.211,1.867,97.5,102.2,72.5,102.8,93.4,103.9,101.9,94.1,88.3,103.3,1,norm,1.984,1.924,-1.158,-2.035,-5.096,-5.199,-1.236,-1.961,-1.658,-1.716,1.203,-1.707,93.0,82.5,-5.275,-8.404,1.191,-1.593,8.314,4.932,-4.643,-8.041,16,4.656,4.813,5.067,4.393,1.742,1.523,1.522,1.624,16,4.511,4.714,-10,209.201839585,norm,0,58,58,58,939.139,939.146,939.158887641,939.159,939.163,939.165,up,1,1.06371924214,8.93628075786,001,313,1920_1080,Intel(R) Core(TM) i5-8350U CPU @ 1.70GHz,orientation_search,prilt00735,Intel(R) UHD Graphics 620,2018_Nov_08_1356,testMonitor,
77.4,98.3,97.0,88.6,36,-60,96.2,,90.1,104.7,7.646,8.464,8.185,8.152,8.414,7.731,8.189,4.437,-4.559,-7.542,1.25,-1.258,8.025,4.522,-4.349,-8.321,87.2,100.6,-8.335,111.9,87.9,97.0,92.0,98.8,36,91.2,4,5,prime,10,0,91,norm,36,-5.295,down,norm,92.4940345294,107.1,81.3,74.1,87.3,1,103.2,92.8,93.1,10,5,7.646,4.532,1.28,-1.76,-4.925,-8.008,72.5,5,183.5,-8.477,-8.404,-60,-7.662,-8.107,-4.528,-4.55,-4.384,-4.962,4.43,8.064,25,-1.593,1.608,4.785,8.357,-8.179,-7.897,-1.39,1.762,79.6,78.2,100.1,91.5,87.5,90.9,97.8,90.7,94.5,81.9,2,norm,1.241,1.17,-1.846,-2.063,-4.537,-5.071,-2.024,-1.297,-1.855,-2.038,1.135,-1.768,112.5,99.6,-4.688,-8.027,1.202,-1.203,8.117,5.218,-5.076,-7.733,16,5.073,5.102,4.639,4.579,1.512,2.022,1.54,1.835,16,4.342,5.26,-10,209.201839585,norm,0,59,59,59,940.267,940.286,940.292367517,940.293,940.296,940.3,down,1,4.11139255547,5.88860744453,001,313,1920_1080,Intel(R) Core(TM) i5-8350U CPU @ 1.70GHz,orientation_search,prilt00735,Intel(R) UHD Graphics 620,2018_Nov_08_1356,testMonitor,
112.5,91.9,101.8,90.7,36,-60,100.6,77.6,96.9,96.2,8.316,7.672,8.237,8.324,8.286,7.988,8.257,4.773,-5.092,-8.226,1.697,-1.607,8.245,5.207,-4.479,-8.253,94.5,,-7.91,83.3,98.8,72.9,88.3,97.9,36,78.8,5,5,prime,10,0,118,norm,36,-4.823,up,norm,92.4940345294,91.6,85.1,72.5,86.5,4,107.7,109.5,88.9,10,5,8.29,4.404,1.806,-1.765,-5.093,-8.2,99.0,5,210.5,-8.223,-7.846,-60,-7.853,-8.121,-4.69,-4.632,-4.306,-4.689,4.56,8.268,34,-1.985,1.439,4.588,8.362,-7.962,-7.595,-1.409,1.445,111.3,92.3,92.7,105.4,101.2,92.1,88.6,82.1,88.0,91.8,3,norm,1.626,1.766,-1.206,-1.873,-4.626,-4.32,-1.17,-1.853,-1.538,-2.072,1.363,-1.542,89.2,83.3,-5.25,-8.479,2.073,-1.168,8.115,4.93,-4.391,-7.97,16,5.154,4.533,5.17,5.191,1.265,1.193,1.912,1.105,16,4.463,4.625,-10,209.201839585,norm,0,60,60,60,944.441,944.451,944.458990257,944.459,944.462,944.464,down,0,1.99707759943,-10,001,313,1920_1080,Intel(R) Core(TM) i5-8350U CPU @ 1.70GHz,orientation_search,prilt00735,Intel(R) UHD Graphics 620,2018_Nov_08_1356,testMonitor,
88.3,87.7,111.1,92.9,36,-60,77.6,94.2,80.6,83.4,8.268,8.19,7.637,7.726,7.756,7.565,7.595,4.41,-5.113,-7.798,1.637,-1.108,8.327,4.588,-4.934,-7.72,84.3,98.9,-8.359,98.9,76.0,76.2,89.0,90.8,36,89.2,0,5,prime,10,0,74,norm,36,-4.868,down,norm,92.4940345294,112.0,88.7,92.6,99.8,2,112.5,84.0,88.4,10,5,8.435,5.221,1.656,-1.215,-5.119,-7.993,85.3,5,166.5,-7.653,-7.824,-60,-7.764,-8.038,-5.032,-4.935,-4.962,-4.922,4.467,8.066,2,-1.833,1.133,4.464,8.388,-8.443,-8.255,-1.206,1.611,89.0,89.9,99.2,,86.3,89.9,91.3,86.6,110.9,99.9,4,norm,1.911,1.955,-1.911,-1.53,-4.302,-4.926,-1.449,-1.648,-1.407,-1.347,1.712,-1.421,84.4,97.0,-5.055,-8.481,2.004,-1.334,8.428,4.789,-4.671,-8.257,16,5.283,5.223,4.984,4.409,1.74,2.099,1.678,1.554,16,4.38,5.123,-10,209.201839585,norm,0,61,61,61,947.523,947.531,947.54105241,947.541,947.549,947.554,down,1,1.18977078787,8.81022921213,001,313,1920_1080,Intel(R) Core(TM) i5-8350U CPU @ 1.70GHz,orientation_search,prilt00735,Intel(R) UHD Graphics 620,2018_Nov_08_1356,testMonitor,
132.4,135.4,132.2,124.9,36,30,120.1,132.3,121.5,129.5,8.076,7.888,7.659,7.964,8.422,7.934,7.813,4.384,-4.677,-8.202,2.005,-1.991,8.152,4.656,-4.72,-7.538,124.3,135.3,-7.595,135.3,136.0,132.3,131.7,122.0,36,138.8,1,5,probe,5,0,98,norm,36,-4.34,down,norm,128.810213777,126.9,127.3,130.0,129.2,0,126.8,129.9,127.6,10,5,7.803,4.45,1.159,-1.275,-4.518,-8.134,133.0,1,30.8,-7.711,-8.078,-60,-7.545,-7.769,-4.851,-4.769,-4.555,-4.86,4.363,8.31,6,-1.521,1.934,5.101,8.476,-7.837,-8.154,-1.768,1.644,134.9,129.9,134.1,118.8,133.2,124.8,125.7,,127.5,119.8,0,norm,1.36,1.314,-1.217,-1.815,-4.446,-4.465,-2.049,-1.464,-1.119,-1.299,1.763,-1.343,137.2,128.7,-4.458,-7.918,1.458,-2.087,7.525,5.283,-5.118,-8.165,17,4.984,5.215,4.324,4.305,1.868,1.539,2.01,2.042,17,4.758,5.032,-60,92.4940345294,norm,0,62,62,62,948.774,948.784,948.791483398,948.792,948.794,948.797,down,1,1.380704379,8.619295621,001,313,1920_1080,Intel(R) Core(TM) i5-8350U CPU @ 1.70GHz,orientation_search,prilt00735,Intel(R) UHD Graphics 620,2018_Nov_08_1356,testMonitor,
281.8,,280.3,273.1,36,80,310.4,284.9,279.8,297.4,7.955,7.9,7.875,7.704,7.941,7.73,7.944,5.202,-5.284,-7.729,1.668,-2.069,8.461,5.23,-4.687,-7.642,285.1,295.8,-8.109,293.3,295.5,278.8,270.4,280.9,36,281.0,3,5,prime,10,0,74,norm,36,-5.088,up,norm,290.408815472,290.3,294.9,292.9,277.3,5,272.1,285.8,299.7,10,5,7.961,5.132,1.156,-1.741,-5.257,-8.321,288.2,5,364.4,-8.484,-7.894,80,-7.55,-7.838,-4.552,-4.752,-4.99,-4.993,4.45,8.143,23,-1.314,1.192,4.776,7.576,-8.375,-8.258,-1.371,2.029,283.0,290.9,273.8,279.5,295.0,288.5,272.9,294.0,302.9,301.6,0,norm,1.24,1.96,-1.126,-1.899,-4.875,-4.502,-1.246,-1.804,-1.531,-1.878,1.694,-1.151,288.3,287.4,-4.595,-7.551,1.44,-1.696,8.442,4.467,-4.974,-8.116,18,4.757,5.224,4.885,4.875,1.569,2.059,1.807,2.005,18,4.782,4.874,30,92.4940345294,norm,0,63,63,63,950.213,964.542,964.554751669,964.555,964.557,964.559,up,1,1.55011665839,8.44988334161,001,313,1920_1080,Intel(R) Core(TM) i5-8350U CPU @ 1.70GHz,orientation_search,prilt00735,Intel(R) UHD Graphics 620,2018_Nov_08_1356,testMonitor,
307.3,277.1,301.4,288.4,36,80,282.4,299.8,302.3,295.0,8.174,8.344,8.045,8.309,8.28,7.893,8.449,4.501,-4.733,-8.398,1.32,-1.644,7.947,4.991,-5.02,-7.864,298.4,286.2,-7.526,270.4,298.0,281.6,279.8,280.7,36,293.7,1,5,prime,10,0,115,norm,36,-5.274,down,norm,290.408815472,270.8,287.3,274.8,271.6,0,310.4,291.5,299.7,10,5,7.604,4.567,1.145,-1.263,-5.178,-8.349,289.2,5,405.4,-8.086,-7.92,80,-7.884,-7.557,-4.582,-5.025,-4.61,-4.956,4.526,8.059,6,-1.73,1.198,4.952,7.923,-8.156,-8.155,-1.771,1.185,299.6,289.3,287.0,283.6,299.8,279.6,292.0,,284.2,295.3,1,norm,1.374,1.159,-1.301,-1.337,-4.754,-4.368,-1.575,-1.768,-1.256,-1.199,1.657,-1.551,280.0,300.8,-4.51,-7.717,1.345,-1.69,8.364,4.315,-4.608,-8.455,18,4.922,4.764,4.642,4.655,1.684,2.09,1.991,1.182,18,5.044,4.686,30,92.4940345294,norm,0,64,64,64,966.14,966.158,966.163158634,966.164,966.167,966.173,up,0,0.835807103198,-10,001,313,1920_1080,Intel(R) Core(TM) i5-8350U CPU @ 1.70GHz,orientation_search,prilt00735,Intel(R) UHD Graphics 620,2018_Nov_08_1356,testMonitor,
303.2,301.6,310.4,306.8,36,80,281.5,302.0,303.8,283.5,7.758,8.255,8.079,8.161,7.934,7.59,8.281,4.636,-4.433,-8.021,1.729,-1.283,7.89,5.273,-5.281,-8.437,286.8,287.5,-7.872,286.7,286.1,300.8,302.1,291.2,36,293.2,3,5,prime,10,0,63,norm,36,-4.457,down,norm,290.408815472,291.5,283.3,295.1,281.5,1,301.3,270.4,304.4,10,5,7.516,4.343,1.162,-1.212,-4.696,-7.704,287.8,5,353.4,-7.967,-8.052,80,-7.613,-8.109,-4.391,-4.823,-5.288,-4.328,5.141,8.448,19,-1.301,1.507,5.178,8.285,-7.619,-7.984,-1.928,1.102,274.9,288.8,304.5,305.9,296.2,287.7,286.9,283.5,286.1,302.1,2,norm,1.837,1.365,-1.431,-1.29,-4.81,-4.528,-1.246,-1.907,-1.387,-1.737,1.31,-1.938,,297.6,-4.962,-8.227,1.503,-1.451,8.153,5.257,-4.317,-8.321,18,4.899,4.412,4.462,5.275,1.253,1.755,1.132,1.362,18,4.479,4.531,30,92.4940345294,norm,0,65,65,65,968.061,968.069,968.085068807,968.086,968.089,968.092,down,1,0.332869580248,9.66713041975,001,313,1920_1080,Intel(R) Core(TM) i5-8350U CPU @ 1.70GHz,orientation_search,prilt00735,Intel(R) UHD Graphics 620,2018_Nov_08_1356,testMonitor,
283.2,287.5,283.2,304.4,36,80,285.6,294.0,292.5,294.2,8.433,7.508,8.222,7.882,8.076,8.118,7.814,4.87,-4.983,-7.517,1.727,-1.268,7.616,4.437,-4.315,-7.976,298.4,306.1,-8.436,290.5,306.2,280.8,,285.1,36,284.3,5,5,prime,10,0,85,norm,36,-5.198,down,norm,290.408815472,301.8,291.0,281.4,304.7,2,290.8,277.2,300.3,10,5,7.82,4.404,1.717,-1.861,-4.345,-7.68,278.2,5,375.4,-8.192,-8.154,80,-8.335,-8.278,-4.791,-4.84,-5.154,-4.973,4.419,7.861,32,-1.347,1.476,4.53,7.579,-8.012,-7.82,-1.267,1.618,297.2,291.1,291.0,277.3,299.5,298.1,310.4,292.3,293.3,270.4,3,norm,1.583,1.397,-1.975,-1.907,-4.891,-4.888,-1.312,-1.503,-1.306,-2.026,1.608,-1.815,305.6,297.3,-4.834,-7.582,2.094,-1.684,7.668,4.568,-4.469,-8.441,18,4.827,4.531,4.436,5.117,1.248,2.083,1.708,1.17,18,4.921,4.79,30,92.4940345294,norm,0,66,66,66,968.456,968.467,968.473770766,968.474,968.476,968.478,down,1,1.08052020999,8.91947979001,001,313,1920_1080,Intel(R) Core(TM) i5-8350U CPU @ 1.70GHz,orientation_search,prilt00735,Intel(R) UHD Graphics 620,2018_Nov_08_1356,testMonitor,
288.7,283.9,297.0,310.4,36,80,270.4,303.7,278.9,281.3,8.266,8.353,7.607,7.96,7.96,8.111,8.185,4.543,-4.399,-7.663,1.754,-1.234,7.536,4.754,-4.819,-7.704,302.8,297.5,-8.285,277.8,290.4,310.3,277.1,278.8,36,295.5,0,5,prime,10,0,103,norm,36,-5.291,down,norm,290.408815472,292.3,293.0,292.6,292.9,0,294.0,305.8,288.2,10,5,7.993,4.38,2.036,-1.778,-4.928,-7.599,283.8,5,393.4,-8.163,-7.61,80,-8.498,-8.139,-5.015,-5.182,-4.492,-5.207,4.876,7.697,0,-1.816,1.683,5.084,7.625,-7.564,-7.91,-1.544,1.338,295.1,288.3,293.0,291.5,293.2,,271.0,276.6,294.9,280.6,4,norm,2.088,2.098,-1.886,-1.803,-4.925,-4.509,-2.054,-1.15,-1.142,-2.096,1.78,-1.268,270.6,277.1,-4.389,-7.613,1.137,-1.854,8.086,5.19,-4.648,-8.272,18,5.243,4.426,4.398,4.395,1.129,1.815,1.939,1.323,18,4.989,5.279,30,92.4940345294,norm,0,67,67,67,969.588,969.606,969.611704725,969.612,969.615,969.621,down,1,1.77131121865,8.22868878135,001,313,1920_1080,Intel(R) Core(TM) i5-8350U CPU @ 1.70GHz,orientation_search,prilt00735,Intel(R) UHD Graphics 620,2018_Nov_08_1356,testMonitor,
450.9,457.7,450.5,456.5,36,60,456.3,454.8,455.7,453.5,8.463,8.402,8.124,8.143,8.231,7.62,8.193,4.509,-4.856,-7.831,1.567,-2.027,7.993,4.702,-4.483,-7.707,452.2,458.5,-8.356,455.6,460.7,450.1,464.9,465.7,36,454.3,1,5,probe,5,0,78,norm,36,-5.094,up,norm,455.702155785,456.9,445.7,454.9,451.2,5,,448.9,450.5,10,5,7.54,5.274,1.673,-1.776,-4.585,-8.072,455.9,1,377.7,-8.215,-7.671,80,-8.065,-7.705,-4.629,-4.3,-4.382,-5.216,4.788,7.728,11,-1.501,1.612,5.296,8.067,-8.271,-8.189,-1.302,1.162,454.7,455.9,455.5,449.6,456.7,454.8,454.7,455.4,454.4,460.0,0,norm,1.657,1.748,-1.454,-1.251,-4.352,-5.079,-1.839,-1.131,-1.833,-1.471,1.757,-1.982,457.7,452.9,-4.448,-8.092,1.337,-1.139,7.558,4.934,-4.973,-7.583,19,4.504,4.721,4.624,4.683,1.86,1.166,1.596,1.826,19,5.029,4.326,80,290.408815472,norm,0,68,68,68,971.429,971.446,971.452252695,971.453,971.456,971.46,up,1,0.981805072472,9.01819492753,001,313,1920_1080,Intel(R) Core(TM) i5-8350U CPU @ 1.70GHz,orientation_search,prilt00735,Intel(R) UHD Graphics 620,2018_Nov_08_1356,testMonitor,
223.0,197.0,201.6,,36,-80,213.0,191.7,211.6,188.7,8.274,7.818,8.455,7.664,8.019,7.752,7.656,4.965,-4.509,-7.557,1.624,-1.343,7.759,5.229,-4.934,-7.655,204.7,209.2,-7.789,203.7,184.9,194.7,209.5,192.9,36,183.0,3,5,prime,10,0,119,norm,36,-4.323,up,norm,203.028691623,196.1,186.0,185.2,207.7,3,205.4,211.1,196.3,10,6,8.141,4.832,2.058,-1.203,-4.926,-8.34,199.0,6,322.0,-7.595,-7.775,-80,-7.724,-8.345,-5.146,-5.192,-4.773,-5.27,4.559,8.019,21,-1.792,1.325,4.892,8.075,-7.67,-7.522,-2.074,1.588,191.8,198.5,204.4,193.7,211.1,191.3,202.7,192.0,217.5,193.5,0,norm,1.521,1.462,-1.579,-1.102,-4.488,-5.277,-2.037,-1.809,-1.423,-1.221,1.311,-1.279,200.3,216.3,-5.009,-8.176,1.331,-1.584,7.578,4.939,-4.439,-7.9,20,4.637,4.792,4.44,4.968,1.704,1.135,1.663,1.983,20,4.498,4.382,60,290.408815472,norm,0,69,69,69,972.478,972.49,972.494272397,972.495,972.497,972.5,up,1,1.8500399663,8.1499600337,001,313,1920_1080,Intel(R) Core(TM) i5-8350U CPU @ 1.70GHz,orientation_search,prilt00735,Intel(R) UHD Graphics 620,2018_Nov_08_1356,testMonitor,
195.7,188.2,183.0,199.0,36,-80,206.1,213.8,206.0,210.7,8.444,8.0,8.229,7.679,7.633,8.15,8.024,4.941,-4.934,-7.805,1.569,-1.787,8.142,5.062,-4.939,-7.621,208.3,194.6,-7.882,210.7,223.0,207.7,196.6,205.7,36,207.6,3,5,prime,10,0,85,norm,36,-5.163,down,norm,203.028691623,209.5,192.1,193.4,192.8,1,196.5,205.2,189.3,10,6,8.157,4.696,1.929,-1.109,-5.074,-8.281,196.5,6,288.0,-7.686,-8.305,-80,-8.16,-7.813,-4.314,-4.391,-5.259,-4.891,4.914,7.552,19,-1.665,1.545,4.341,7.79,-7.56,-7.913,-1.462,1.383,212.5,194.4,202.2,205.1,199.9,210.5,200.4,191.2,205.2,197.4,1,norm,1.94,2.019,-1.18,-1.487,-5.253,-4.987,-1.901,-1.718,-1.753,-1.139,1.519,-1.426,,212.8,-5.214,-7.592,1.924,-2.015,8.129,4.722,-5.004,-8.337,20,4.531,4.517,5.225,4.72,1.407,1.932,1.391,1.415,20,4.484,5.274,60,290.408815472,norm,0,70,70,70,974.374,974.386,974.390173691,974.39,974.392,974.395,down,1,1.81306519908,8.18693480092,001,313,1920_1080,Intel(R) Core(TM) i5-8350U CPU @ 1.70GHz,orientation_search,prilt00735,Intel(R) UHD Graphics 620,2018_Nov_08_1356,testMonitor,
194.8,189.7,201.3,203.9,36,-80,183.0,199.1,213.0,210.0,7.949,7.847,7.844,8.365,8.128,7.78,7.81,4.592,-4.425,-7.744,1.526,-1.897,7.854,4.906,-5.264,-7.952,215.4,223.0,-7.986,207.5,199.9,214.2,200.1,192.5,36,200.9,1,5,prime,10,0,71,norm,36,-4.496,down,norm,203.028691623,220.5,197.3,211.9,184.9,2,201.5,214.3,208.3,10,6,7.514,4.377,1.929,-1.308,-4.749,-7.833,212.1,6,274.0,-8.089,-8.336,-80,-7.898,-8.454,-4.537,-4.878,-4.935,-4.611,5.298,8.425,8,-1.747,1.835,4.409,8.242,-7.788,-8.04,-1.764,1.39,204.7,,205.8,209.8,204.7,184.8,188.0,201.8,186.2,206.8,2,norm,1.243,1.467,-1.363,-1.632,-5.007,-4.379,-1.458,-1.442,-2.034,-1.738,1.661,-1.944,203.7,205.7,-4.503,-8.208,1.279,-1.325,7.658,4.576,-5.151,-8.5,20,4.897,4.388,4.68,5.147,2.033,1.903,2.052,1.896,20,4.384,4.87,60,290.408815472,norm,0,71,71,71,976.238,976.248,976.25488561,976.255,976.257,976.26,down,1,6.88053425221,3.11946574779,001,313,1920_1080,Intel(R) Core(TM) i5-8350U CPU @ 1.70GHz,orientation_search,prilt00735,Intel(R) UHD Graphics 620,2018_Nov_08_1356,testMonitor,
183.0,205.3,197.6,210.8,36,-80,201.6,203.8,197.0,186.6,8.14,7.691,7.708,7.903,7.7,7.502,7.843,4.779,-5.053,-7.61,1.553,-1.803,7.561,4.924,-4.438,-8.174,187.5,,-7.686,199.1,217.9,191.8,210.8,197.0,36,214.5,5,5,prime,10,0,103,norm,36,-4.37,up,norm,203.028691623,199.4,202.4,205.7,198.0,4,214.6,205.3,216.0,10,6,8.034,5.243,2.07,-2.091,-4.57,-8.382,198.5,6,306.0,-8.318,-8.489,-80,-8.266,-7.512,-4.586,-5.081,-4.979,-5.012,4.579,8.393,34,-1.777,1.298,4.705,7.917,-8.269,-7.989,-1.272,1.855,223.0,201.5,202.4,204.6,212.1,210.6,191.7,206.2,198.6,219.7,3,norm,1.55,1.964,-1.201,-1.541,-5.186,-4.902,-1.662,-1.418,-1.303,-2.035,1.182,-1.795,211.8,194.0,-5.01,-7.961,1.775,-1.943,7.545,5.165,-4.339,-7.839,20,4.415,4.92,4.986,5.297,1.168,1.242,1.303,1.328,20,5.037,4.835,60,290.408815472,norm,0,72,72,72,983.17,983.18,983.186978548,983.187,983.191,983.194,up,1,2.62922724622,7.37077275378,001,313,1920_1080,Intel(R) Core(TM) i5-8350U CPU @ 1.70GHz,orientation_search,prilt00735,Intel(R) UHD Graphics 620,2018_Nov_08_1356,testMonitor,
200.3,203.5,209.1,208.1,36,-80,205.1,,201.6,200.5,8.271,8.256,7.758,7.595,8.267,8.131,8.226,4.97,-4.716,-7.826,1.498,-2.067,8.416,4.536,-4.394,-8.464,209.1,202.6,-7.737,200.5,189.1,187.3,183.0,201.9,36,202.1,4,5,prime,10,0,73,norm,36,-4.721,down,norm,203.028691623,208.1,217.3,223.0,195.6,1,203.2,198.5,206.0,10,6,7.665,4.474,1.951,-1.263,-4.421,-8.484,215.7,6,276.0,-7.568,-7.884,-80,-8.368,-7.608,-4.931,-4.514,-4.616,-4.998,4.949,7.705,25,-1.192,1.994,4.661,8.233,-7.688,-8.13,-2.09,1.827,194.1,211.1,201.3,207.2,216.6,210.1,204.2,206.7,212.2,217.0,4,norm,2.043,1.81,-1.3,-1.452,-5.182,-4.346,-1.961,-1.857,-1.599,-1.868,1.31,-1.4,204.8,191.1,-4.561,-7.62,1.432,-1.46,8.244,5.069,-5.264,-8.144,20,4.886,5.2,4.361,5.207,1.907,1.696,1.66,1.767,20,4.809,4.433,60,290.408815472,norm,0,73,73,73,985.841,985.857,985.86224859,985.863,985.866,985.87,down,1,1.40265019766,8.59734980234,001,313,1920_1080,Intel(R) Core(TM) i5-8350U CPU @ 1.70GHz,orientation_search,prilt00735,Intel(R) UHD Graphics 620,2018_Nov_08_1356,testMonitor,
197.7,208.0,202.9,202.7,36,-80,209.4,210.2,202.4,206.7,8.218,7.939,7.984,8.174,7.594,7.585,7.789,4.426,-4.381,-7.896,1.168,-1.205,7.587,4.814,-4.939,-8.265,188.1,223.0,-7.779,217.2,210.1,191.7,193.0,217.1,36,200.7,3,5,prime,10,0,94,norm,36,-4.751,down,norm,203.028691623,199.7,206.2,196.2,217.0,1,183.0,208.1,209.8,10,6,7.746,4.464,1.13,-1.373,-4.981,-8.075,218.1,6,297.0,-8.283,-7.713,-80,-7.919,-8.234,-5.031,-5.208,-5.202,-4.584,4.771,7.834,19,-2.038,1.158,4.94,7.756,-8.134,-7.562,-1.874,1.547,218.9,208.5,197.6,199.6,223.0,209.5,203.2,206.9,198.0,219.4,5,norm,1.385,1.266,-2.022,-1.345,-4.657,-4.668,-1.96,-1.695,-1.898,-2.089,1.325,-1.533,,214.0,-4.884,-8.122,1.209,-1.637,7.705,4.794,-4.854,-7.901,20,4.473,4.465,4.767,5.201,1.354,1.797,1.593,1.762,20,5.039,4.464,60,290.408815472,norm,0,74,74,74,987.307,987.318,987.332602778,987.333,987.337,987.341,down,1,1.43277290501,8.56722709499,001,313,1920_1080,Intel(R) Core(TM) i5-8350U CPU @ 1.70GHz,orientation_search,prilt00735,Intel(R) UHD Graphics 620,2018_Nov_08_1356,testMonitor,
233.0,228.2,235.3,237.8,36,0,234.6,240.4,231.6,231.7,8.415,8.193,8.418,8.085,8.454,7.904,7.521,5.107,-4.507,-8.301,1.955,-1.554,8.482,4.727,-5.108,-8.381,237.7,238.8,-7.713,240.2,240.6,240.8,231.7,239.2,36,239.8,0,5,probe,5,0,106,norm,36,-4.738,down,norm,235.665440219,238.1,240.4,236.8,232.0,2,232.7,238.5,233.0,10,6,8.28,4.928,1.92,-1.107,-4.911,-8.137,228.8,2,129.7,-8.325,-7.775,-80,-8.326,-8.434,-4.323,-4.551,-4.42,-4.689,4.576,7.726,2,-1.549,2.002,4.951,7.678,-7.625,-7.517,-1.839,1.52,240.7,239.1,239.0,,235.0,228.7,232.0,237.9,237.4,233.6,0,norm,1.54,1.33,-1.35,-1.629,-4.319,-4.368,-1.654,-1.475,-1.343,-1.479,1.86,-1.905,225.7,245.7,-4.69,-8.04,1.188,-1.609,7.776,5.024,-4.457,-8.368,21,4.847,4.646,4.309,4.948,1.44,1.656,1.315,1.763,21,4.797,5.108,-80,203.028691623,norm,0,75,75,75,988.805,988.823,988.828380393,988.829,988.833,988.838,down,1,1.45133833092,8.54866166908,001,313,1920_1080,Intel(R) Core(TM) i5-8350U CPU @ 1.70GHz,orientation_search,prilt00735,Intel(R) UHD Graphics 620,2018_Nov_08_1356,testMonitor,
212.2,212.7,223.7,213.6,36,0,222.6,211.5,203.7,211.0,7.946,7.507,7.607,8.376,7.916,7.782,7.531,4.872,-4.795,-8.421,2.088,-1.984,8.397,4.62,-5.108,-8.235,209.2,214.9,-7.624,204.8,213.9,218.1,204.3,218.1,36,207.4,0,5,probe,5,0,84,norm,36,-5.135,down,norm,213.665440219,209.0,210.4,211.6,214.5,2,211.7,212.2,210.5,10,6,7.67,4.915,1.479,-1.769,-4.911,-8.286,208.8,2,129.7,-8.104,-8.219,-80,-8.411,-8.361,-4.385,-5.076,-4.6,-4.483,5.09,7.952,2,-1.705,1.283,4.652,7.833,-7.847,-7.908,-1.544,1.79,221.3,209.9,211.6,,217.0,209.4,216.5,214.0,213.2,218.9,1,norm,1.247,1.167,-1.749,-1.831,-5.197,-4.943,-1.148,-1.945,-2.067,-1.301,2.072,-1.265,210.2,220.7,-5.08,-7.798,1.406,-1.853,8.069,4.669,-4.547,-7.763,21,4.534,4.994,4.728,4.456,1.642,1.676,1.752,1.496,21,5.281,5.235,-80,203.028691623,norm,0,76,76,76,990.317,990.334,990.339000086,990.339,990.343,990.347,down,1,1.35690876882,8.64309123118,001,313,1920_1080,Intel(R) Core(TM) i5-8350U CPU @ 1.70GHz,orientation_search,prilt00735,Intel(R) UHD Graphics 620,2018_Nov_08_1356,testMonitor,
44.4,29.5,43.3,47.4,36,20,29.5,15.5,22.3,38.3,8.265,7.558,8.419,8.28,8.279,7.696,8.299,4.806,-5.106,-8.228,1.975,-1.933,7.897,5.01,-4.381,-7.889,27.3,36.0,-7.612,19.6,25.0,29.5,30.9,39.2,36,46.4,2,5,prime,10,0,119,norm,36,-4.817,down,norm,35.4590056359,36.1,36.5,27.9,28.7,0,32.0,39.1,,10,5,7.781,4.537,1.428,-2.036,-5.09,-8.448,37.9,5,154.5,-8.024,-8.392,20,-8.344,-7.75,-4.994,-5.21,-5.16,-5.252,4.541,7.917,12,-1.424,1.528,4.342,7.866,-8.014,-7.917,-1.457,2.058,34.2,18.4,55.5,32.6,33.8,25.9,44.2,44.5,30.7,22.3,0,norm,1.703,1.638,-1.467,-1.758,-4.714,-5.289,-1.184,-1.964,-1.263,-2.089,2.086,-1.15,27.2,42.7,-4.563,-8.018,1.755,-1.592,8.472,4.619,-5.0,-7.778,22,4.499,5.222,4.603,4.778,1.999,2.035,1.554,1.363,22,5.047,4.408,0,203.028691623,norm,0,77,77,77,991.734,991.752,991.7568526,991.757,991.761,991.766,down,1,1.17285424183,8.82714575817,001,313,1920_1080,Intel(R) Core(TM) i5-8350U CPU @ 1.70GHz,orientation_search,prilt00735,Intel(R) UHD Graphics 620,2018_Nov_08_1356,testMonitor,
29.8,23.6,37.0,19.2,36,20,36.0,32.5,31.0,49.0,7.576,7.828,7.926,8.244,8.481,8.425,7.975,4.794,-4.999,-7.831,1.842,-1.842,8.2,4.79,-4.889,-8.198,,24.5,-7.708,41.8,31.2,33.6,37.2,49.0,36,37.8,5,5,prime,10,0,109,norm,36,-5.176,up,norm,35.4590056359,28.4,26.1,23.0,42.2,5,45.7,15.5,26.6,10,5,8.308,4.532,2.036,-1.309,-5.235,-8.345,29.0,5,144.5,-8.306,-8.261,20,-8.228,-8.244,-4.687,-5.173,-5.22,-4.407,4.665,7.985,35,-2.069,1.424,5.244,7.502,-7.689,-7.895,-1.151,1.632,49.7,17.4,20.7,32.2,37.8,44.6,55.5,18.8,33.0,25.5,1,norm,2.077,2.034,-1.845,-1.512,-4.713,-4.346,-1.478,-1.252,-1.3,-1.697,1.183,-1.413,52.6,19.8,-4.957,-8.37,1.401,-1.256,7.669,5.137,-4.668,-8.474,22,4.732,4.607,4.825,4.57,1.895,1.646,1.81,2.038,22,5.165,5.244,0,203.028691623,norm,0,78,78,78,992.974,992.992,992.998082158,992.999,993.002,993.006,up,1,0.899642463657,9.10035753634,001,313,1920_1080,Intel(R) Core(TM) i5-8350U CPU @ 1.70GHz,orientation_search,prilt00735,Intel(R) UHD Graphics 620,2018_Nov_08_1356,testMonitor,
15.5,38.0,47.4,28.9,36,20,34.5,16.1,37.9,22.2,8.127,7.804,7.548,7.762,7.711,8.056,8.112,5.187,-4.652,-7.993,1.203,-1.565,8.482,4.419,-5.064,-7.686,46.3,,-7.523,21.8,35.1,19.9,34.7,37.8,36,45.4,5,5,prime,10,0,78,norm,36,-4.733,up,norm,35.4590056359,28.5,37.0,50.7,51.9,4,35.7,31.3,46.1,10,5,7.538,5.028,2.045,-1.671,-5.284,-8.01,35.6,5,113.5,-8.419,-7.981,20,-7.774,-7.531,-4.621,-5.053,-5.026,-4.38,4.631,7.514,34,-1.743,1.799,4.573,8.499,-7.62,-7.788,-1.37,2.092,46.5,23.3,30.6,20.7,35.5,53.7,45.2,55.5,38.6,23.4,2,norm,1.62,1.813,-1.423,-1.692,-4.486,-5.258,-1.729,-1.57,-1.868,-1.869,1.242,-1.24,42.2,51.6,-4.356,-7.819,1.379,-1.637,7.895,4.378,-4.875,-7.657,22,5.118,4.314,5.168,5.006,1.122,1.398,1.754,1.453,22,4.689,4.702,0,203.028691623,norm,0,79,79,79,993.936,993.947,993.954204563,993.954,993.957,993.959,up,1,1.12983808249,8.87016191751,001,313,1920_1080,Intel(R) Core(TM) i5-8350U CPU @ 1.70GHz,orientation_search,prilt00735,Intel(R) UHD Graphics 620,2018_Nov_08_1356,testMonitor,
32.9,15.5,34.8,46.0,36,20,55.5,31.9,27.9,36.4,7.841,7.589,7.534,8.47,7.607,8.115,7.874,4.675,-4.931,-7.709,1.702,-1.742,8.377,4.342,-4.738,-7.515,36.4,49.6,-7.698,22.6,38.8,41.3,43.6,36.0,36,39.6,0,5,prime,10,0,79,norm,36,-4.69,up,norm,35.4590056359,21.0,30.8,34.0,30.7,5,27.4,18.0,34.4,10,5,7.758,4.855,1.163,-1.944,-4.985,-8.176,34.0,5,114.5,-8.041,-7.563,20,-7.767,-7.632,-4.618,-5.271,-5.013,-5.074,4.396,8.162,5,-1.878,2.057,5.209,8.474,-7.591,-7.782,-1.966,2.089,38.9,44.0,48.4,49.6,31.5,45.4,22.7,35.2,,33.9,3,norm,1.569,1.888,-1.952,-1.388,-4.867,-4.766,-1.598,-2.016,-2.058,-1.116,2.031,-1.16,39.9,28.1,-4.532,-7.783,1.509,-1.72,8.221,4.544,-4.402,-8.382,22,4.929,4.782,4.755,5.162,1.523,1.985,2.035,1.966,22,4.441,5.269,0,203.028691623,norm,0,80,80,80,995.125,995.141,995.147304435,995.148,995.151,995.156,up,1,0.767014301455,9.23298569855,001,313,1920_1080,Intel(R) Core(TM) i5-8350U CPU @ 1.70GHz,orientation_search,prilt00735,Intel(R) UHD Graphics 620,2018_Nov_08_1356,testMonitor,
49.5,55.5,42.6,25.8,36,20,40.1,30.6,20.3,22.3,7.789,7.939,8.439,7.845,8.199,8.022,8.365,4.835,-4.42,-8.358,1.489,-1.417,8.177,4.901,-4.582,-7.971,23.5,50.9,-7.736,54.7,41.6,40.8,21.7,30.2,36,45.0,0,5,prime,10,0,101,norm,36,-4.368,down,norm,35.4590056359,45.3,40.0,51.2,37.7,0,33.7,42.2,24.7,10,5,8.431,4.497,1.872,-1.454,-4.429,-7.764,37.4,5,136.5,-7.722,-8.045,20,-8.397,-8.227,-4.382,-4.413,-4.829,-5.236,5.005,8.418,0,-2.068,1.249,4.896,7.863,-8.409,-7.521,-1.753,1.493,15.5,35.6,36.0,35.0,50.7,,28.0,41.0,36.4,25.4,4,norm,1.325,1.863,-1.635,-1.913,-4.361,-4.342,-1.56,-1.403,-1.871,-1.127,1.876,-1.196,45.0,37.3,-4.572,-7.677,1.12,-1.427,7.559,4.301,-4.486,-7.781,22,5.003,4.865,5.154,4.55,1.167,1.279,1.676,1.401,22,4.791,4.956,0,203.028691623,norm,0,81,81,81,995.957,995.975,995.980350623,995.981,995.984,995.988,down,1,1.59952094451,8.40047905549,001,313,1920_1080,Intel(R) Core(TM) i5-8350U CPU @ 1.70GHz,orientation_search,prilt00735,Intel(R) UHD Graphics 620,2018_Nov_08_1356,testMonitor,
132.5,127.3,125.6,119.8,36,10,134.5,124.0,133.3,119.5,7.746,7.512,8.37,7.88,8.426,7.754,7.71,4.451,-5.265,-8.495,1.978,-1.426,8.409,4.902,-5.26,-7.785,121.8,125.5,-7.792,132.1,131.1,116.5,120.6,119.7,36,129.5,1,5,probe,5,0,67,norm,36,-5.059,down,norm,126.49350692,126.3,136.5,124.1,126.3,0,129.8,124.8,117.5,10,5,8.407,5.258,1.6,-1.989,-4.464,-7.873,129.8,1,59.5,-7.905,-7.598,20,-8.144,-7.603,-4.967,-5.079,-5.18,-4.814,4.872,7.53,6,-1.219,1.356,4.502,8.055,-7.978,-8.157,-1.673,1.379,132.8,126.3,134.1,127.4,125.0,129.8,128.1,,118.1,128.3,0,norm,1.756,1.764,-1.867,-1.663,-4.325,-4.971,-1.915,-1.86,-1.522,-2.047,1.746,-1.71,123.1,124.7,-5.139,-7.833,2.035,-1.236,7.858,4.395,-5.121,-8.389,23,5.289,4.61,4.977,5.218,1.915,1.659,1.345,1.719,23,4.797,5.015,20,35.4590056359,norm,0,82,82,82,997.623,997.646,997.65355268,997.654,997.657,997.661,down,1,1.79379334184,8.20620665816,001,313,1920_1080,Intel(R) Core(TM) i5-8350U CPU @ 1.70GHz,orientation_search,prilt00735,Intel(R) UHD Graphics 620,2018_Nov_08_1356,testMonitor,
128.2,124.0,123.0,118.5,36,40,109.8,121.4,124.3,132.3,8.411,7.932,7.517,7.581,7.962,7.981,7.669,4.666,-4.55,-7.882,1.876,-1.385,8.383,5.244,-4.793,-7.972,115.8,132.3,-8.457,121.3,121.8,139.8,130.5,116.0,36,147.6,2,5,prime,10,0,90,norm,36,-4.925,down,norm,127.59864841,135.8,134.8,129.6,126.1,1,127.1,,132.9,10,6,7.622,5.1,1.892,-1.823,-4.769,-7.811,134.9,6,217.6,-7.854,-8.199,40,-7.889,-8.14,-4.495,-4.426,-4.588,-4.957,4.671,7.985,13,-2.065,1.918,4.434,8.141,-7.502,-8.343,-1.777,1.894,130.0,142.3,131.7,126.8,113.6,124.5,135.2,126.9,129.1,126.7,0,norm,1.588,1.179,-1.827,-1.566,-5.03,-4.494,-2.012,-1.554,-1.334,-1.956,1.722,-2.025,125.9,125.5,-4.469,-8.298,1.452,-1.47,8.147,4.652,-4.458,-8.086,24,4.889,4.642,5.285,4.667,1.75,1.215,1.24,1.855,24,5.122,5.033,10,35.4590056359,norm,0,83,83,83,999.491,999.507,999.51167394,999.512,999.517,999.521,down,1,1.09975858196,8.90024141804,001,313,1920_1080,Intel(R) Core(TM) i5-8350U CPU @ 1.70GHz,orientation_search,prilt00735,Intel(R) UHD Graphics 620,2018_Nov_08_1356,testMonitor,
130.2,126.1,118.1,141.0,36,40,119.1,126.5,130.6,127.0,8.26,8.367,8.247,7.799,7.921,8.433,8.112,5.083,-5.122,-7.809,1.129,-1.336,7.782,5.003,-5.029,-7.867,119.6,126.4,-8.429,107.6,129.3,121.4,120.9,138.3,36,134.5,1,5,prime,10,0,101,norm,36,-4.844,up,norm,127.59864841,126.5,127.2,134.3,112.5,5,,145.1,120.4,10,6,8.126,4.532,1.936,-1.769,-4.851,-8.072,127.3,6,228.6,-8.451,-7.833,40,-7.931,-8.387,-4.32,-4.696,-4.779,-4.649,4.834,8.227,11,-1.452,1.558,4.996,7.6,-8.494,-7.594,-1.845,1.431,130.0,120.4,118.0,130.7,120.5,127.2,147.6,126.2,136.8,133.1,1,norm,1.497,2.033,-1.304,-2.036,-5.124,-4.752,-1.512,-1.351,-1.889,-1.825,2.021,-1.312,109.0,126.3,-4.59,-7.932,1.992,-1.491,7.816,4.308,-4.376,-8.185,24,4.516,4.479,4.972,4.859,1.38,1.833,1.452,1.417,24,4.752,4.903,10,35.4590056359,norm,0,84,84,84,1000.65,1000.66,1000.66737994,1000.668,1000.67,1000.673,up,1,1.91490634925,8.08509365075,001,313,1920_1080,Intel(R) Core(TM) i5-8350U CPU @ 1.70GHz,orientation_search,prilt00735,Intel(R) UHD Graphics 620,2018_Nov_08_1356,testMonitor,
136.1,116.9,136.4,125.0,36,40,116.4,114.4,131.7,147.6,7.757,7.774,8.24,7.718,7.769,7.815,7.901,4.545,-4.814,-7.904,1.312,-1.346,7.971,5.278,-4.813,-7.522,,122.3,-8.46,140.5,132.5,129.3,128.3,127.7,36,126.4,5,5,prime,10,0,94,norm,36,-4.789,up,norm,127.59864841,123.6,143.1,131.8,132.6,5,143.7,120.2,142.4,10,6,8.0,5.147,1.321,-1.563,-4.977,-8.008,124.2,6,221.6,-7.901,-8.237,40,-8.147,-8.276,-5.155,-4.417,-4.604,-4.667,4.768,7.901,35,-1.883,1.273,4.677,7.67,-7.77,-7.949,-1.254,1.325,107.6,121.8,126.7,115.5,138.0,134.1,140.5,121.4,125.3,131.7,2,norm,1.931,1.812,-1.555,-2.028,-4.575,-4.636,-1.123,-1.284,-1.698,-1.232,1.363,-1.83,125.1,123.5,-5.234,-8.133,1.329,-1.255,8.053,4.596,-5.084,-7.932,24,5.047,5.05,5.107,4.877,2.038,1.937,1.771,1.336,24,4.431,4.384,10,35.4590056359,norm,0,85,85,85,1002.623,1002.64,1002.6459526,1002.647,1002.65,1002.654,up,1,1.58403670418,8.41596329582,001,313,1920_1080,Intel(R) Core(TM) i5-8350U CPU @ 1.70GHz,orientation_search,prilt00735,Intel(R) UHD Graphics 620,2018_Nov_08_1356,testMonitor,
137.6,129.4,123.0,122.2,36,40,116.5,123.5,123.8,147.0,7.585,7.585,8.177,7.798,7.636,8.35,8.418,4.44,-4.621,-7.631,2.005,-2.021,7.922,4.653,-4.471,-8.163,128.6,142.5,-8.468,136.8,135.2,124.8,127.9,146.5,36,117.9,2,5,prime,10,0,81,norm,36,-4.725,up,norm,127.59864841,137.4,,121.7,111.6,4,136.2,136.3,119.7,10,6,8.351,4.641,1.538,-1.849,-4.427,-7.918,126.9,6,208.6,-7.624,-8.148,40,-8.234,-7.778,-5.098,-4.843,-4.522,-5.107,4.919,7.905,16,-1.281,1.31,4.855,8.188,-8.186,-7.817,-1.305,1.101,128.6,130.4,140.9,119.8,147.6,114.2,121.0,116.0,107.6,121.1,3,norm,1.558,1.31,-1.452,-1.95,-4.495,-5.277,-1.71,-1.922,-1.106,-1.356,1.468,-1.277,133.7,127.9,-4.853,-8.118,1.273,-1.501,8.118,4.961,-4.74,-8.267,24,4.924,5.07,4.828,4.867,1.615,1.878,1.72,1.225,24,4.35,4.434,10,35.4590056359,norm,0,86,86,86,1004.336,1004.346,1004.35219545,1004.352,1004.354,1004.357,up,1,1.03057853917,8.96942146083,001,313,1920_1080,Intel(R) Core(TM) i5-8350U CPU @ 1.70GHz,orientation_search,prilt00735,Intel(R) UHD Graphics 620,2018_Nov_08_1356,testMonitor,
129.4,141.3,147.6,121.7,36,40,138.2,128.6,126.3,114.4,8.278,8.16,8.074,7.678,7.86,8.113,8.194,4.337,-5.281,-8.319,1.42,-1.32,8.291,4.304,-4.622,-8.154,137.9,114.0,-7.907,126.9,130.9,132.7,143.7,115.8,36,127.7,0,5,prime,10,0,73,norm,36,-4.999,down,norm,127.59864841,134.7,124.7,125.6,123.9,2,121.8,138.1,127.3,10,6,7.819,4.934,2.024,-2.078,-4.641,-7.762,115.8,6,200.6,-8.054,-7.605,40,-8.437,-8.444,-5.172,-5.275,-4.621,-5.123,4.718,8.12,2,-1.67,1.103,4.336,8.259,-7.574,-7.879,-1.111,1.875,126.1,107.6,109.8,,122.5,135.9,116.7,130.1,128.0,125.3,4,norm,1.407,1.403,-1.441,-1.999,-4.901,-5.115,-1.604,-2.059,-1.368,-1.197,1.991,-1.172,115.7,115.2,-4.438,-7.586,1.87,-1.347,7.805,4.567,-4.476,-7.701,24,4.853,4.652,4.625,4.71,1.784,1.631,1.192,1.729,24,4.661,4.826,10,35.4590056359,norm,0,87,87,87,1005.42,1005.437,1005.44266672,1005.443,1005.448,1005.453,down,1,1.4322506427,8.5677493573,001,313,1920_1080,Intel(R) Core(TM) i5-8350U CPU @ 1.70GHz,orientation_search,prilt00735,Intel(R) UHD Graphics 620,2018_Nov_08_1356,testMonitor,
128.8,127.3,129.4,113.5,36,40,133.0,123.9,130.7,120.7,7.776,8.277,8.399,7.842,7.908,7.976,7.514,4.91,-4.747,-7.893,1.947,-1.564,8.03,4.784,-4.594,-8.147,127.3,127.4,-8.018,115.5,112.7,123.4,141.0,126.6,36,144.2,1,5,prime,10,0,61,norm,36,-4.781,up,norm,127.59864841,128.9,140.9,120.5,129.2,4,124.5,118.7,136.5,10,6,8.201,4.431,1.992,-1.919,-4.308,-7.722,,6,188.6,-7.728,-8.22,40,-8.047,-8.169,-4.892,-5.103,-4.551,-5.285,5.194,7.735,10,-1.275,1.371,4.612,7.789,-7.962,-7.917,-2.05,1.75,122.8,128.6,117.5,147.6,125.6,122.1,115.0,116.0,118.2,107.6,5,norm,1.872,1.169,-1.972,-1.905,-5.034,-4.732,-1.905,-1.58,-1.512,-1.345,1.725,-1.196,112.0,129.1,-4.43,-7.743,2.099,-1.856,7.947,4.937,-4.55,-8.188,24,4.453,5.259,5.114,5.224,2.03,2.034,1.683,1.97,24,4.923,4.969,10,35.4590056359,norm,0,88,88,88,1006.908,1006.923,1006.9273861,1006.928,1006.934,1006.94,up,1,0.928406856925,9.07159314308,001,313,1920_1080,Intel(R) Core(TM) i5-8350U CPU @ 1.70GHz,orientation_search,prilt00735,Intel(R) UHD Graphics 620,2018_Nov_08_1356,testMonitor,
284.1,292.0,291.7,,36,30,288.3,280.0,287.7,294.8,8.469,8.393,7.516,8.272,8.4,7.871,7.569,5.147,-4.52,-7.837,1.796,-1.841,8.067,4.701,-5.028,-7.828,289.4,289.3,-7.594,294.7,279.2,286.0,295.2,286.4,36,288.9,3,5,probe,5,0,114,norm,36,-5.048,up,norm,287.284570355,297.3,292.4,293.4,289.7,3,289.6,292.9,285.1,10,6,7.908,4.974,1.164,-1.532,-4.501,-7.808,285.7,2,173.3,-7.62,-7.562,40,-8.009,-8.086,-4.345,-4.436,-4.545,-4.649,4.815,8.272,21,-1.654,1.993,4.382,7.84,-8.358,-8.176,-1.922,1.459,282.0,277.3,288.6,283.3,290.7,285.6,291.4,292.1,281.1,284.9,0,norm,1.102,2.043,-1.539,-1.634,-4.699,-4.607,-1.303,-1.186,-1.826,-1.286,1.769,-1.342,285.2,292.4,-5.124,-8.32,1.501,-1.4,8.381,5.215,-4.928,-8.24,25,4.814,4.781,4.763,4.755,1.27,1.499,1.674,2.084,25,4.947,4.514,40,127.59864841,norm,0,89,89,89,1007.891,1007.907,1007.91175009,1007.912,1007.914,1007.917,up,1,1.4025729655,8.5974270345,001,313,1920_1080,Intel(R) Core(TM) i5-8350U CPU @ 1.70GHz,orientation_search,prilt00735,Intel(R) UHD Graphics 620,2018_Nov_08_1356,testMonitor,
267.4,267.8,275.8,282.3,36,30,272.1,269.8,275.9,271.3,8.317,8.096,8.101,7.727,8.157,8.41,8.022,4.33,-4.991,-7.705,1.708,-1.769,7.998,4.595,-4.623,-8.408,267.9,273.1,-7.507,280.2,274.2,271.3,266.3,262.3,36,270.8,0,5,probe,5,0,99,norm,36,-4.774,up,norm,272.284570355,273.1,267.6,271.6,266.9,4,268.5,279.3,271.8,10,6,7.807,4.998,1.773,-1.638,-4.621,-7.766,280.1,2,173.3,-7.88,-7.948,40,-8.109,-7.837,-4.849,-4.666,-5.095,-5.104,5.25,8.294,4,-1.321,1.79,4.468,8.386,-8.307,-7.633,-2.079,2.086,267.9,270.2,269.4,276.9,278.4,279.9,268.6,272.5,263.1,,1,norm,1.482,1.871,-1.593,-1.454,-4.396,-4.888,-1.543,-1.768,-1.841,-2.023,1.699,-1.745,269.0,278.3,-4.733,-7.576,1.648,-1.696,7.771,5.047,-5.023,-7.898,25,4.864,4.937,4.906,4.585,1.326,1.672,1.3,1.878,25,5.139,5.143,40,127.59864841,norm,0,90,90,90,1009.35,1009.36,1009.36702672,1009.367,1009.37,1009.373,up,1,1.0647518849,8.9352481151,001,313,1920_1080,Intel(R) Core(TM) i5-8350U CPU @ 1.70GHz,orientation_search,prilt00735,Intel(R) UHD Graphics 620,2018_Nov_08_1356,testMonitor,
136.8,127.2,137.9,131.8,36,30,120.2,133.2,124.9,115.1,7.753,7.763,8.035,8.363,8.453,7.503,8.248,4.69,-4.434,-8.181,1.177,-1.405,8.162,5.228,-4.674,-7.879,,129.8,-8.377,125.1,144.1,132.0,123.3,133.8,36,126.5,5,5,prime,10,0,113,norm,36,-4.369,up,norm,128.840755401,146.8,121.7,110.8,122.5,5,114.8,134.9,138.3,10,6,7.707,5.252,1.106,-1.643,-4.358,-8.183,137.8,6,241.8,-7.867,-8.087,30,-7.613,-7.657,-4.544,-5.251,-5.191,-4.682,4.639,8.46,35,-1.487,2.055,4.365,8.238,-7.83,-7.515,-1.343,2.098,131.7,123.8,121.3,139.5,129.1,148.8,118.0,125.7,133.6,113.3,0,norm,1.224,1.383,-1.251,-1.754,-4.982,-5.157,-1.431,-1.352,-1.468,-1.944,1.482,-1.458,108.8,130.7,-4.733,-8.364,1.723,-1.272,8.242,4.401,-4.761,-7.883,26,4.824,4.75,5.142,4.731,1.933,1.835,1.399,1.47,26,4.958,4.494,30,127.59864841,norm,0,91,91,91,1010.467,1010.483,1010.4874279,1010.488,1010.49,1010.493,up,1,0.943124176367,9.05687582363,001,313,1920_1080,Intel(R) Core(TM) i5-8350U CPU @ 1.70GHz,orientation_search,prilt00735,Intel(R) UHD Graphics 620,2018_Nov_08_1356,testMonitor,
119.7,128.0,108.8,115.3,36,30,148.8,129.4,115.9,128.2,7.74,7.701,7.729,7.907,7.595,8.044,7.954,4.562,-4.351,-7.877,1.138,-1.851,8.401,4.384,-4.886,-8.215,124.4,141.0,-7.696,132.8,134.4,131.9,118.9,133.1,36,134.8,2,5,prime,10,0,103,norm,36,-5.11,down,norm,128.840755401,128.2,141.0,133.7,113.6,0,130.8,137.8,,10,6,8.358,5.091,2.09,-1.656,-4.801,-7.771,142.3,6,231.8,-8.445,-8.437,30,-8.263,-7.68,-5.161,-5.121,-4.888,-4.846,5.17,7.584,12,-1.904,1.864,4.617,8.344,-7.602,-8.159,-1.922,1.549,126.5,133.9,122.9,125.3,131.6,112.3,130.8,119.8,137.9,114.5,1,norm,1.94,1.174,-1.328,-1.564,-4.753,-4.772,-1.553,-1.335,-1.256,-1.908,1.744,-1.176,131.3,124.1,-4.454,-8.381,1.997,-1.298,7.743,4.974,-4.856,-7.776,26,4.569,5.129,5.293,5.237,1.922,1.771,1.24,1.607,26,4.469,4.989,30,127.59864841,norm,0,92,92,92,1011.467,1011.476,1011.48369537,1011.484,1011.486,1011.488,down,1,1.29880533171,8.70119466829,001,313,1920_1080,Intel(R) Core(TM) i5-8350U CPU @ 1.70GHz,orientation_search,prilt00735,Intel(R) UHD Graphics 620,2018_Nov_08_1356,testMonitor,
117.4,125.5,122.0,114.2,36,30,112.9,136.3,121.6,130.4,7.556,7.512,8.417,8.264,8.216,8.017,7.995,4.91,-4.857,-7.814,1.353,-1.187,8.074,5.256,-4.305,-8.109,126.0,118.2,-7.934,130.7,127.3,136.3,124.6,135.0,36,127.6,1,5,prime,10,0,76,norm,36,-4.346,up,norm,128.840755401,129.5,129.6,129.0,130.9,4,114.7,126.4,128.8,10,6,8.253,5.112,1.678,-1.47,-4.844,-8.256,,6,204.8,-8.428,-7.675,30,-8.133,-7.778,-5.226,-4.37,-4.814,-4.558,4.741,7.701,10,-2.073,1.738,5.05,7.918,-8.392,-7.624,-1.978,1.404,135.9,129.8,114.8,116.0,108.8,117.0,135.6,148.8,122.1,136.7,2,norm,1.696,1.18,-1.25,-1.937,-4.364,-4.461,-1.611,-1.333,-1.856,-1.677,1.592,-1.287,127.0,122.5,-4.896,-8.434,1.917,-1.512,8.228,5.062,-4.437,-8.274,26,4.369,4.3,4.556,4.533,1.893,1.389,1.461,1.543,26,5.02,4.53,30,127.59864841,norm,0,93,93,93,1012.82,1012.838,1012.84333751,1012.844,1012.848,1012.852,up,1,1.06726814146,8.93273185854,001,313,1920_1080,Intel(R) Core(TM) i5-8350U CPU @ 1.70GHz,orientation_search,prilt00735,Intel(R) UHD Graphics 620,2018_Nov_08_1356,testMonitor,
136.8,129.7,125.9,118.7,36,30,140.5,108.8,130.1,125.6,7.703,8.329,7.582,7.688,7.513,8.069,8.39,5.059,-4.409,-8.495,1.83,-1.251,8.087,4.45,-4.438,-7.505,117.5,123.0,-7.772,130.3,120.6,136.6,127.9,121.5,36,146.9,3,5,prime,10,0,61,norm,36,-4.425,down,norm,128.840755401,135.8,142.0,119.5,120.3,1,109.8,137.9,139.7,10,6,8.335,4.49,1.315,-1.274,-4.915,-8.303,127.8,6,189.8,-8.015,-8.238,30,-7.55,-8.06,-5.033,-4.881,-5.183,-4.606,4.489,8.1,19,-1.422,1.66,5.192,8.388,-8.199,-8.22,-1.434,1.769,122.6,128.6,136.5,124.1,126.6,122.8,130.1,148.8,146.3,117.0,3,norm,1.4,2.022,-1.72,-1.219,-4.977,-4.629,-1.294,-1.312,-2.078,-1.676,1.928,-1.818,,129.8,-4.812,-8.283,1.716,-1.664,7.91,5.053,-4.424,-7.709,26,4.575,4.305,4.937,4.524,2.014,1.794,1.543,1.89,26,4.403,4.805,30,127.59864841,norm,0,94,94,94,1013.956,1013.973,1013.97865692,1013.979,1013.982,1013.987,down,1,0.813745166248,9.18625483375,001,313,1920_1080,Intel(R) Core(TM) i5-8350U CPU @ 1.70GHz,orientation_search,prilt00735,Intel(R) UHD Graphics 620,2018_Nov_08_1356,testMonitor,
133.1,125.7,124.1,126.6,36,30,136.0,141.2,120.5,117.8,8.208,7.929,8.289,8.22,7.735,8.429,7.749,4.973,-4.717,-7.977,2.083,-1.941,8.291,5.141,-5.181,-7.773,118.7,108.8,-8.087,124.6,,148.8,137.1,126.3,36,129.0,5,5,prime,10,0,77,norm,36,-4.397,down,norm,128.840755401,130.8,146.9,134.2,129.4,0,136.7,134.2,117.0,10,6,8.113,4.577,1.858,-2.085,-4.782,-8.159,117.6,6,205.8,-7.653,-8.45,30,-8.248,-8.417,-4.482,-5.135,-5.115,-4.368,4.662,8.378,30,-2.097,1.111,5.179,8.206,-8.478,-7.595,-1.853,1.295,127.1,137.5,121.0,131.3,123.7,110.8,130.0,122.8,142.0,138.5,4,norm,1.819,1.681,-1.498,-1.777,-4.835,-4.919,-1.726,-1.911,-1.419,-1.244,1.206,-1.407,144.3,144.6,-4.878,-7.652,1.11,-1.434,7.551,4.666,-4.419,-8.251,26,4.884,4.813,4.332,4.495,1.366,1.583,1.371,1.421,26,5.104,4.86,30,127.59864841,norm,0,95,95,95,1014.829,1014.849,1014.85392858,1014.854,1014.858,1014.864,down,1,0.992514960366,9.00748503963,001,313,1920_1080,Intel(R) Core(TM) i5-8350U CPU @ 1.70GHz,orientation_search,prilt00735,Intel(R) UHD Graphics 620,2018_Nov_08_1356,testMonitor,
