d_ori_22,d_ori_23,d_ori_20,d_ori_21,set_size,ctpd,d_ori_24,d_ori_25,d_ori_28,d_ori_29,stim_pos_x_30,stim_pos_x_31,stim_pos_x_32,stim_pos_x_33,stim_pos_x_34,stim_pos_x_35,stim_pos_y_11,stim_pos_y_10,stim_pos_y_13,stim_pos_y_12,stim_pos_y_15,stim_pos_y_14,stim_pos_y_17,stim_pos_y_16,stim_pos_y_19,stim_pos_y_18,d_ori_35,d_ori_34,stim_pos_x_3,d_ori_31,d_ori_30,d_ori_33,d_ori_32,d_ori_26,test_set_size,d_ori_27,targetCol,dsd_test,seq_type,dsd,blockRepN,targetDist,dtype_test,prime_set_size,stim_pos_y_25,correctResponse,dtype,distrMean,d_ori_17,d_ori_16,d_ori_15,d_ori_14,targetRow,d_ori_11,d_ori_13,d_ori_12,dsd_prime,streak_length_prime,stim_pos_y_35,stim_pos_y_34,stim_pos_y_33,stim_pos_y_32,stim_pos_y_31,stim_pos_y_30,d_ori_10,nextProbe,targetOri,stim_pos_x_1,stim_pos_x_2,ctpd_prime,stim_pos_x_4,stim_pos_x_5,stim_pos_x_6,stim_pos_x_7,stim_pos_x_8,stim_pos_x_9,stim_pos_y_28,stim_pos_y_29,targetPos,stim_pos_y_20,stim_pos_y_21,stim_pos_y_22,stim_pos_y_23,stim_pos_y_24,stim_pos_x_0,stim_pos_y_26,stim_pos_y_27,d_ori_9,d_ori_8,d_ori_3,d_ori_2,d_ori_1,d_ori_0,d_ori_7,d_ori_6,d_ori_5,d_ori_4,trialN,dtype_prime,stim_pos_x_18,stim_pos_x_19,stim_pos_x_12,stim_pos_x_13,stim_pos_x_10,stim_pos_x_11,stim_pos_x_16,stim_pos_x_17,stim_pos_x_14,stim_pos_x_15,stim_pos_y_9,stim_pos_y_8,d_ori_19,d_ori_18,stim_pos_y_1,stim_pos_y_0,stim_pos_y_3,stim_pos_y_2,stim_pos_y_5,stim_pos_y_4,stim_pos_y_7,stim_pos_y_6,totBlockN,stim_pos_x_27,stim_pos_x_26,stim_pos_x_25,stim_pos_x_24,stim_pos_x_23,stim_pos_x_22,stim_pos_x_21,stim_pos_x_20,blockN,stim_pos_x_29,stim_pos_x_28,prevDistrCTPD,prevDistrMean,prevDistrType,trials.thisRepN,trials.thisTrialN,trials.thisN,trials.thisIndex,timeStart,timeBeforeDraw,timeDraw,timeAfterSaving,timeAfterWritingToTemp,timeAfterPreparingNext,answer,correct,rt,trialScore,session,participant,resolution,cpu_info,expName,pc_name,graphic_card,date,monitorName,
42.5,31.2,48.7,16.1,36,80,50.7,26.3,36.8,42.1,8.218,7.615,7.69,7.541,7.755,8.152,7.575,5.172,-4.507,-7.663,1.666,-1.682,8.375,4.536,-5.007,-8.481,56.1,34.5,-7.791,43.2,43.0,37.3,40.1,21.0,36,30.0,1,5,prime,10,0,106,norm,36,-4.671,up,norm,36.1159508985,49.4,29.8,38.3,17.4,4,42.3,18.3,41.2,10,5,8.098,4.487,2.024,-1.877,-4.612,-7.58,,5,142.1,-8.368,-7.796,80,-8.233,-8.435,-4.316,-4.82,-5.235,-4.701,4.468,8.468,10,-1.463,1.377,4.928,7.777,-8.085,-8.122,-1.799,1.785,50.5,54.6,24.1,26.2,47.5,32.6,30.0,24.9,48.4,32.1,0,norm,1.704,1.783,-1.131,-1.892,-5.153,-4.314,-1.38,-1.403,-1.678,-1.942,1.874,-1.99,34.5,25.5,-4.984,-7.975,1.977,-1.402,8.047,4.659,-4.503,-7.91,0,5.113,4.922,4.816,4.356,1.344,1.821,1.549,1.379,0,4.66,4.477,,,,0,0,0,0,237.852,237.882,237.90237889,237.903,237.903,237.905,up,1,1.72490816176,8.27509183824,001,008,1920_1080,Intel(R) Core(TM) i5-3570 CPU @ 3.40GHz,orientation_search,LEPPC096,Intel(R) HD Graphics 2500,2018_Oct_23_1409,testMonitor,
54.5,40.0,37.1,36.7,36,80,50.7,21.7,25.0,55.5,8.482,8.28,8.099,7.929,8.266,7.884,8.454,4.526,-4.979,-7.997,1.518,-2.058,8.038,4.973,-4.65,-8.041,49.6,46.1,-8.21,19.2,33.4,36.4,25.4,44.6,36,24.9,1,5,prime,10,0,85,norm,36,-4.513,down,norm,36.1159508985,22.7,26.4,39.7,39.1,1,34.4,19.2,39.6,10,5,7.937,4.701,1.834,-1.71,-5.105,-7.514,16.1,5,121.1,-8.489,-8.121,80,-7.904,-8.419,-4.762,-4.307,-5.2,-4.794,4.682,7.968,7,-1.277,1.641,5.244,8.125,-7.638,-8.06,-1.147,1.892,33.8,37.3,42.2,18.7,38.9,38.7,,28.4,25.5,30.5,1,norm,1.581,1.765,-1.945,-1.577,-5.239,-5.107,-1.162,-1.659,-1.932,-1.632,1.947,-1.627,27.5,56.1,-4.631,-7.723,1.286,-1.268,7.759,4.642,-4.823,-7.965,0,4.403,4.559,4.453,5.041,1.95,1.476,1.767,2.069,0,4.428,4.656,,,,0,1,1,1,239.663,239.673,239.687951607,239.688,239.689,239.692,down,1,0.927447334503,9.0725526655,001,008,1920_1080,Intel(R) Core(TM) i5-3570 CPU @ 3.40GHz,orientation_search,LEPPC096,Intel(R) HD Graphics 2500,2018_Oct_23_1409,testMonitor,
33.1,46.7,40.7,35.4,36,80,44.7,56.1,20.1,34.6,8.26,8.34,8.486,8.077,8.495,8.174,8.038,5.229,-4.948,-8.392,1.717,-1.329,7.824,4.492,-4.554,-7.606,21.9,40.9,-7.851,43.1,48.6,45.7,45.9,27.2,36,52.3,1,5,prime,10,0,88,norm,36,-4.668,up,norm,36.1159508985,36.1,27.9,32.9,34.3,5,,47.5,39.7,10,5,8.097,4.782,1.802,-1.215,-4.735,-8.315,44.9,5,124.1,-7.566,-8.362,80,-7.747,-7.791,-4.909,-5.106,-5.036,-4.91,4.422,8.327,11,-1.532,1.952,5.164,8.331,-8.394,-8.152,-1.272,1.824,43.2,50.8,35.4,39.4,41.7,34.1,37.5,37.5,32.4,42.0,2,norm,2.081,1.146,-1.974,-1.899,-4.527,-4.495,-1.887,-1.458,-1.371,-1.303,1.203,-1.905,43.5,50.1,-4.601,-7.706,1.831,-1.45,7.959,5.273,-4.779,-8.198,0,4.599,4.964,4.512,4.642,1.819,1.398,1.41,1.765,0,4.889,4.302,,,,0,2,2,2,240.652,240.661,240.671024393,240.671,240.673,240.675,up,1,0.772753396583,9.22724660342,001,008,1920_1080,Intel(R) Core(TM) i5-3570 CPU @ 3.40GHz,orientation_search,LEPPC096,Intel(R) HD Graphics 2500,2018_Oct_23_1409,testMonitor,
26.4,37.3,34.4,28.7,36,80,47.5,45.3,35.2,47.6,7.593,7.945,7.888,7.632,8.396,7.686,8.161,4.62,-4.685,-7.627,1.811,-1.135,8.087,5.13,-4.882,-8.454,55.7,48.3,-7.849,51.3,28.0,32.9,44.2,21.0,36,36.6,0,5,prime,10,0,94,norm,36,-4.615,down,norm,36.1159508985,27.3,30.6,41.6,32.6,0,55.6,32.7,25.3,10,5,7.74,4.664,2.087,-2.012,-4.428,-8.469,32.6,5,130.1,-7.672,-7.545,80,-8.315,-8.382,-5.003,-5.056,-4.481,-5.207,5.107,8.182,0,-1.829,1.444,4.801,8.161,-8.094,-7.622,-1.75,1.803,27.0,37.7,30.3,36.7,56.1,,22.3,37.7,23.3,28.7,3,norm,1.946,2.015,-1.466,-1.515,-4.54,-4.311,-1.796,-1.678,-1.442,-1.212,1.997,-1.649,16.5,16.1,-4.692,-8.004,1.177,-1.956,7.736,4.677,-4.718,-7.737,0,4.596,5.041,4.833,4.817,1.525,1.466,2.077,1.889,0,4.333,4.931,,,,0,3,3,3,241.467,241.478,241.483071578,241.483,241.485,241.487,down,1,0.791014793731,9.20898520627,001,008,1920_1080,Intel(R) Core(TM) i5-3570 CPU @ 3.40GHz,orientation_search,LEPPC096,Intel(R) HD Graphics 2500,2018_Oct_23_1409,testMonitor,
51.5,32.4,46.4,46.3,36,80,34.9,28.9,35.0,35.2,7.551,7.841,8.413,8.168,7.956,7.504,8.065,4.941,-5.264,-7.508,1.637,-1.904,8.223,4.992,-5.106,-8.448,56.1,19.1,-7.853,32.7,39.3,39.2,33.5,27.5,36,16.1,1,5,prime,10,0,104,norm,36,-4.565,up,norm,36.1159508985,40.2,26.0,17.5,30.3,5,,34.9,52.1,10,5,8.016,4.54,1.967,-1.996,-4.923,-7.83,33.1,5,140.1,-7.592,-8.14,80,-8.094,-7.775,-4.402,-4.469,-4.316,-4.707,4.623,8.308,11,-1.814,1.22,4.999,8.002,-8.421,-7.55,-1.846,2.028,45.2,23.6,38.0,41.2,31.0,39.5,31.0,34.1,40.0,39.3,4,norm,1.203,1.308,-1.31,-1.959,-5.281,-4.468,-1.287,-1.896,-1.2,-1.652,1.557,-1.883,42.3,26.1,-4.46,-8.114,1.271,-1.544,8.493,4.498,-4.557,-8.198,0,5.214,4.646,4.587,4.552,1.959,1.717,1.479,1.258,0,4.425,4.711,,,,0,4,4,4,242.326,242.346,242.357815382,242.358,242.36,242.363,up,1,0.688040049625,9.31195995038,001,008,1920_1080,Intel(R) Core(TM) i5-3570 CPU @ 3.40GHz,orientation_search,LEPPC096,Intel(R) HD Graphics 2500,2018_Oct_23_1409,testMonitor,
,198.7,193.7,199.3,36,40,194.9,195.8,194.2,192.3,7.68,8.029,7.873,7.781,7.844,7.836,7.501,4.802,-4.555,-8.008,1.822,-1.859,8.365,4.842,-4.303,-7.538,203.5,192.6,-8.499,193.3,205.0,195.1,196.5,201.7,36,194.5,3,5,probe,5,0,88,norm,36,-5.04,up,norm,196.425166608,201.2,199.0,195.8,197.9,4,198.8,206.4,200.5,10,5,7.771,5.107,1.611,-1.385,-5.29,-8.466,192.2,1,108.4,-7.933,-7.898,80,-7.982,-8.14,-4.817,-5.213,-4.867,-5.12,4.434,8.078,22,-1.538,1.675,4.689,8.018,-8.484,-7.536,-1.653,1.156,195.3,198.7,187.5,197.5,186.4,200.5,191.7,199.0,199.2,189.5,0,norm,1.317,1.225,-1.789,-1.287,-4.563,-4.801,-1.972,-1.135,-1.122,-1.481,1.683,-1.698,201.9,200.6,-4.885,-7.894,2.001,-1.434,8.398,5.258,-4.785,-7.588,1,5.063,4.467,4.943,5.224,1.388,1.834,1.256,1.188,1,5.084,4.868,80,36.1159508985,norm,0,5,5,5,243.09,243.099,243.107350078,243.108,243.109,243.112,up,1,1.0602262677,8.9397737323,001,008,1920_1080,Intel(R) Core(TM) i5-3570 CPU @ 3.40GHz,orientation_search,LEPPC096,Intel(R) HD Graphics 2500,2018_Oct_23_1409,testMonitor,
272.2,259.5,242.4,271.5,36,0,264.6,252.0,269.6,277.1,7.933,8.231,7.949,7.658,7.651,8.452,7.95,5.008,-4.715,-7.959,2.038,-1.995,8.344,4.342,-4.555,-7.643,251.4,261.3,-7.568,267.1,257.3,265.4,275.0,254.2,36,280.5,0,5,prime,10,0,118,norm,36,-4.988,down,norm,260.534227366,252.7,258.6,261.7,270.5,0,261.5,251.8,246.4,10,5,8.113,4.598,1.875,-1.552,-4.572,-8.134,249.2,5,378.5,-8.48,-7.865,0,-8.404,-7.904,-5.16,-4.423,-4.434,-4.437,4.76,8.035,0,-1.145,1.841,4.509,7.991,-8.311,-7.634,-2.099,1.221,257.9,275.8,278.1,258.1,261.3,,243.8,244.8,265.7,269.9,0,norm,2.077,1.394,-1.378,-1.492,-4.689,-4.341,-1.563,-1.865,-1.185,-2.015,1.19,-2.009,253.1,253.3,-4.747,-8.41,1.961,-1.392,7.774,4.64,-4.949,-7.599,2,5.1,4.465,4.399,4.696,1.516,1.147,1.801,1.773,2,5.094,4.649,40,36.1159508985,norm,0,6,6,6,244.205,244.216,244.220401221,244.221,244.222,244.225,up,0,2.28449118443,-10,001,008,1920_1080,Intel(R) Core(TM) i5-3570 CPU @ 3.40GHz,orientation_search,LEPPC096,Intel(R) HD Graphics 2500,2018_Oct_23_1409,testMonitor,
280.5,257.6,265.2,266.8,36,0,250.9,264.1,267.1,,8.163,7.771,8.386,7.776,8.324,7.737,8.313,4.893,-4.433,-8.114,1.63,-1.983,7.954,4.456,-4.398,-7.821,274.7,279.9,-7.864,248.1,267.1,268.6,272.6,247.8,36,240.5,4,5,prime,10,0,81,norm,36,-4.927,up,norm,260.534227366,265.2,245.4,276.0,254.4,5,251.2,258.4,269.8,10,5,8.292,4.469,1.536,-1.721,-4.558,-7.905,247.5,5,341.5,-8.33,-8.307,0,-7.908,-7.966,-4.467,-5.047,-5.206,-4.461,4.935,7.977,29,-2.038,2.012,4.953,7.789,-8.279,-7.608,-1.271,1.957,258.0,241.4,249.7,259.4,241.2,249.9,272.7,248.6,253.5,242.6,1,norm,1.793,1.668,-1.148,-1.586,-4.509,-4.42,-1.185,-1.853,-1.968,-1.642,2.04,-1.938,251.5,280.3,-4.341,-8.288,1.439,-1.657,8.037,4.347,-4.886,-7.575,2,4.37,4.583,4.981,4.352,1.382,1.891,1.554,1.931,2,4.36,4.879,40,36.1159508985,norm,0,7,7,7,247.575,247.584,247.597223572,247.597,247.599,247.602,up,1,1.85963765776,8.14036234224,001,008,1920_1080,Intel(R) Core(TM) i5-3570 CPU @ 3.40GHz,orientation_search,LEPPC096,Intel(R) HD Graphics 2500,2018_Oct_23_1409,testMonitor,
268.9,262.9,255.4,248.9,36,0,263.9,252.9,254.6,260.9,7.984,7.908,8.118,7.767,7.805,8.204,8.05,4.536,-4.476,-8.425,1.419,-2.056,7.88,5.22,-4.676,-7.79,250.6,254.9,-8.047,280.5,251.3,276.9,255.8,261.1,36,240.5,2,5,prime,10,0,95,norm,36,-4.35,up,norm,260.534227366,267.2,259.0,,241.5,3,249.4,252.6,261.3,10,5,7.821,4.786,1.899,-1.212,-4.969,-8.259,252.7,5,355.5,-8.039,-8.318,0,-7.72,-7.908,-4.626,-4.391,-4.332,-4.934,4.975,7.63,15,-1.729,1.775,5.282,8.193,-7.785,-7.774,-1.17,1.722,256.3,255.8,268.1,261.7,247.7,252.7,268.5,251.3,259.6,264.9,2,norm,1.551,1.202,-2.093,-1.266,-4.826,-4.591,-1.107,-2.048,-2.012,-1.591,1.44,-1.523,259.1,249.5,-4.408,-8.414,1.546,-1.25,7.724,4.894,-4.454,-7.935,2,4.785,4.547,4.768,5.091,1.886,1.526,1.364,1.462,2,4.985,4.76,40,36.1159508985,norm,0,8,8,8,249.501,249.51,249.516946533,249.517,249.519,249.521,down,0,1.50401341427,-10,001,008,1920_1080,Intel(R) Core(TM) i5-3570 CPU @ 3.40GHz,orientation_search,LEPPC096,Intel(R) HD Graphics 2500,2018_Oct_23_1409,testMonitor,
271.5,258.3,277.9,270.3,36,0,273.1,,263.7,263.6,7.657,8.142,8.444,8.179,7.752,7.594,7.777,5.045,-4.571,-8.392,1.6,-1.772,8.184,5.039,-4.739,-7.522,272.9,250.7,-8.284,265.0,259.3,255.6,280.5,262.4,36,257.8,4,5,prime,10,0,69,norm,36,-4.528,down,norm,260.534227366,258.0,257.7,253.2,249.7,1,266.3,267.9,240.5,10,5,8.007,4.795,2.023,-1.806,-4.923,-8.147,246.5,5,329.5,-7.967,-8.447,0,-8.026,-8.458,-5.116,-5.218,-4.992,-4.763,4.36,7.859,25,-1.194,1.669,5.115,8.47,-7.868,-8.337,-1.25,1.117,261.5,267.8,271.2,267.1,255.9,250.1,247.6,267.5,261.3,269.0,3,norm,1.935,1.556,-1.282,-1.721,-4.442,-4.978,-1.605,-1.883,-1.756,-1.442,1.227,-1.726,246.8,267.5,-4.627,-8.333,2.073,-2.003,8.414,4.683,-4.475,-8.36,2,4.84,4.687,4.909,4.581,1.125,1.852,1.734,1.368,2,4.563,4.764,40,36.1159508985,norm,0,9,9,9,252.09,252.1,252.107755464,252.108,252.11,252.112,down,1,4.32424107049,5.67575892951,001,008,1920_1080,Intel(R) Core(TM) i5-3570 CPU @ 3.40GHz,orientation_search,LEPPC096,Intel(R) HD Graphics 2500,2018_Oct_23_1409,testMonitor,
273.0,247.1,261.7,251.5,36,0,258.6,261.4,252.0,244.2,8.038,8.135,8.092,8.021,7.658,8.307,7.867,5.216,-4.763,-8.394,1.355,-1.301,7.533,5.053,-4.972,-7.8,,280.5,-8.356,266.3,260.4,255.0,262.7,261.1,36,269.7,5,5,prime,10,0,88,norm,36,-4.777,up,norm,260.534227366,260.8,245.9,259.4,258.8,5,271.3,258.3,267.6,10,5,8.167,4.825,1.814,-2.046,-4.538,-8.388,275.9,5,348.5,-8.458,-8.038,0,-8.159,-8.364,-4.315,-4.836,-5.168,-4.892,5.144,8.152,35,-1.44,1.31,5.228,7.529,-8.495,-7.682,-1.99,1.976,258.0,259.3,252.2,272.3,250.7,260.3,259.3,254.2,270.0,240.5,4,norm,1.517,2.068,-1.49,-2.002,-4.549,-4.532,-1.311,-1.73,-2.002,-1.989,1.751,-1.899,251.8,248.5,-4.727,-7.892,1.466,-1.193,8.294,5.26,-5.121,-8.133,2,4.309,4.346,4.335,4.764,1.876,1.724,1.344,2.024,2,4.853,5.051,40,36.1159508985,norm,0,10,10,10,256.469,256.479,256.488850822,256.489,256.491,256.493,up,1,3.90693382515,6.09306617485,001,008,1920_1080,Intel(R) Core(TM) i5-3570 CPU @ 3.40GHz,orientation_search,LEPPC096,Intel(R) HD Graphics 2500,2018_Oct_23_1409,testMonitor,
359.5,362.7,361.0,366.9,36,20,363.4,366.0,356.5,362.8,8.236,8.092,7.808,8.295,8.413,7.652,8.487,5.137,-5.251,-7.757,1.458,-1.161,8.013,5.218,-4.364,-8.338,351.8,359.4,-7.656,356.7,353.7,363.8,352.1,362.6,36,368.2,2,5,probe,5,0,103,norm,36,-4.605,up,norm,361.789554572,,359.4,367.0,364.8,5,362.3,359.9,353.0,10,5,7.983,4.551,1.702,-1.114,-4.607,-8.258,367.1,1,258.8,-7.922,-8.218,0,-7.598,-8.173,-5.288,-5.062,-4.827,-4.821,4.441,8.453,17,-1.278,1.403,4.351,7.79,-8.053,-8.356,-1.214,1.332,366.0,371.8,362.5,358.0,358.0,364.3,359.5,357.9,361.1,357.7,0,norm,1.808,2.092,-1.465,-1.32,-4.675,-5.106,-1.224,-2.038,-1.824,-1.766,2.08,-1.753,364.8,363.1,-5.027,-8.228,1.605,-1.241,7.689,5.002,-4.432,-7.905,3,5.239,4.304,5.117,4.657,1.477,1.467,1.849,2.003,3,4.329,5.169,0,260.534227366,norm,0,11,11,11,260.421,260.43,260.436609426,260.437,260.439,260.441,down,0,3.30416283064,-10,001,008,1920_1080,Intel(R) Core(TM) i5-3570 CPU @ 3.40GHz,orientation_search,LEPPC096,Intel(R) HD Graphics 2500,2018_Oct_23_1409,testMonitor,
34.4,50.6,47.6,40.1,36,-10,22.7,44.8,50.9,46.2,8.152,7.708,8.216,8.281,7.837,7.848,7.611,4.722,-4.615,-8.377,1.294,-1.418,7.644,4.522,-4.97,-8.0,24.1,47.8,-7.63,36.9,38.1,45.9,29.5,39.0,36,27.0,3,5,prime,10,0,75,norm,36,-4.589,down,norm,42.1234883584,26.0,43.2,35.8,41.3,0,62.1,49.4,45.9,10,6,8.274,4.988,1.223,-1.583,-4.653,-8.325,36.8,6,117.1,-8.484,-8.394,-10,-8.193,-8.322,-4.39,-5.15,-5.008,-4.801,5.177,8.146,18,-2.022,1.491,5.015,7.957,-7.988,-7.66,-1.959,1.297,22.1,39.2,45.0,52.3,49.2,29.0,44.8,39.4,30.5,45.6,0,norm,1.92,1.136,-1.565,-1.891,-4.892,-4.866,-2.013,-1.706,-1.408,-1.936,1.16,-1.208,54.0,,-4.615,-7.732,1.796,-1.207,7.591,4.584,-4.622,-8.134,4,5.054,5.106,4.404,5.18,1.436,1.784,1.348,1.979,4,4.665,4.369,20,260.534227366,norm,0,12,12,12,264.811,264.821,264.83472044,264.835,264.837,264.839,down,1,1.16210589546,8.83789410454,001,008,1920_1080,Intel(R) Core(TM) i5-3570 CPU @ 3.40GHz,orientation_search,LEPPC096,Intel(R) HD Graphics 2500,2018_Oct_23_1409,testMonitor,
49.5,44.6,38.5,39.0,36,-10,44.0,23.8,46.3,29.2,8.31,8.454,8.267,7.554,7.736,8.153,7.812,4.665,-5.005,-7.847,1.65,-1.393,7.995,4.718,-5.283,-7.702,27.2,43.1,-8.073,39.8,56.7,39.3,22.1,36.8,36,46.4,2,5,prime,10,0,70,norm,36,-4.943,down,norm,42.1234883584,46.8,44.8,62.1,43.8,0,46.8,42.7,,10,6,7.737,4.916,1.562,-1.768,-5.19,-7.527,43.6,6,112.1,-8.044,-8.16,-10,-7.913,-7.842,-4.719,-5.168,-4.511,-5.046,4.681,8.224,12,-1.494,1.204,5.078,7.855,-8.334,-7.553,-1.57,1.555,53.3,36.0,42.2,51.5,47.4,36.6,51.0,46.1,48.0,43.3,1,norm,1.102,1.603,-1.669,-1.24,-4.853,-5.1,-1.567,-1.498,-2.014,-1.503,1.288,-1.418,55.0,52.4,-4.324,-8.394,2.044,-1.532,7.745,5.021,-5.137,-8.408,4,5.258,5.237,4.808,5.101,1.569,1.542,2.034,1.37,4,4.877,4.838,20,260.534227366,norm,0,13,13,13,266.021,266.03,266.036832494,266.037,266.039,266.041,down,1,0.705022201158,9.29497779884,001,008,1920_1080,Intel(R) Core(TM) i5-3570 CPU @ 3.40GHz,orientation_search,LEPPC096,Intel(R) HD Graphics 2500,2018_Oct_23_1409,testMonitor,
51.5,37.3,41.3,57.2,36,-10,38.2,33.5,62.1,28.4,7.757,8.453,8.337,8.391,8.078,8.229,7.873,4.86,-5.019,-8.394,1.176,-1.14,7.754,5.195,-4.712,-7.602,60.3,54.3,-8.257,34.6,54.1,46.4,28.7,34.9,36,50.2,1,5,prime,10,0,60,norm,36,-4.766,down,norm,42.1234883584,25.7,34.3,39.5,48.7,0,28.4,46.1,46.8,10,6,7.972,4.868,1.921,-1.569,-5.04,-7.995,60.0,6,102.1,-8.309,-8.281,-10,-7.855,-7.569,-4.397,-5.2,-4.535,-4.848,4.756,7.957,6,-1.194,1.279,4.626,7.858,-8.153,-8.344,-1.627,1.146,32.5,30.2,22.1,43.7,45.2,41.7,38.2,,60.3,31.0,2,norm,1.867,2.055,-1.789,-1.243,-4.674,-4.461,-1.922,-1.888,-1.706,-1.571,1.479,-1.399,39.7,31.4,-4.318,-8.431,2.049,-2.068,7.839,4.443,-5.206,-7.903,4,4.422,5.143,4.667,4.631,1.389,1.6,1.542,1.245,4,5.256,4.567,20,260.534227366,norm,0,14,14,14,266.785,266.795,266.801277736,266.801,266.803,266.806,down,1,0.590721998013,9.40927800199,001,008,1920_1080,Intel(R) Core(TM) i5-3570 CPU @ 3.40GHz,orientation_search,LEPPC096,Intel(R) HD Graphics 2500,2018_Oct_23_1409,testMonitor,
22.1,,52.6,59.3,36,-10,59.4,58.7,44.4,39.3,8.435,8.401,8.301,8.111,8.101,7.67,8.326,4.328,-4.73,-7.59,2.074,-1.543,7.832,5.074,-4.799,-7.637,58.9,54.2,-7.669,50.5,57.4,57.7,49.4,38.6,36,47.7,3,5,prime,10,0,95,norm,36,-5.083,up,norm,42.1234883584,52.9,42.4,29.9,43.0,5,33.0,37.4,31.9,10,6,7.757,4.606,1.853,-1.423,-4.777,-8.319,49.2,6,137.1,-7.766,-8.1,-10,-8.037,-7.644,-4.657,-5.193,-4.619,-4.544,4.66,8.391,23,-1.759,1.845,4.974,8.249,-8.096,-8.453,-2.046,1.515,44.8,50.6,40.4,36.3,32.2,53.2,47.4,43.9,38.3,39.5,3,norm,1.198,1.32,-1.948,-1.589,-4.33,-5.152,-1.746,-2.002,-1.106,-1.36,1.156,-1.671,49.2,62.1,-4.725,-8.107,1.107,-1.137,8.472,4.802,-4.734,-8.275,4,5.213,4.603,4.47,4.328,1.44,1.208,1.455,1.89,4,4.421,4.574,20,260.534227366,norm,0,15,15,15,267.429,267.438,267.456041704,267.456,267.458,267.46,up,1,0.770837848524,9.22916215148,001,008,1920_1080,Intel(R) Core(TM) i5-3570 CPU @ 3.40GHz,orientation_search,LEPPC096,Intel(R) HD Graphics 2500,2018_Oct_23_1409,testMonitor,
36.3,45.9,43.9,47.2,36,-10,38.5,43.1,48.2,38.1,8.275,7.631,8.49,8.082,7.733,7.885,7.69,5.024,-5.179,-7.51,1.481,-1.74,8.316,4.84,-4.986,-7.505,50.6,22.1,-8.001,52.3,36.7,50.9,25.6,38.2,36,34.4,3,5,prime,10,0,89,norm,36,-4.854,down,norm,42.1234883584,42.1,48.0,43.6,52.7,0,48.5,56.5,48.3,10,6,7.701,4.675,1.634,-1.659,-4.694,-8.22,27.1,6,131.1,-8.453,-7.572,-10,-7.641,-7.791,-5.173,-4.721,-5.072,-4.861,4.977,8.307,18,-1.791,1.578,4.4,8.33,-8.336,-8.08,-2.015,1.318,34.9,42.4,44.6,49.9,53.1,40.6,62.1,42.3,37.6,36.0,4,norm,1.328,1.601,-2.07,-2.09,-4.564,-4.831,-1.391,-1.379,-2.1,-2.004,1.659,-1.368,49.6,,-5.252,-7.929,1.552,-1.976,8.432,4.617,-4.592,-8.032,4,4.363,5.037,4.798,4.727,1.951,1.133,1.678,1.286,4,4.769,4.364,20,260.534227366,norm,0,16,16,16,268.252,268.261,268.267492431,268.268,268.269,268.272,down,1,0.759597209686,9.24040279031,001,008,1920_1080,Intel(R) Core(TM) i5-3570 CPU @ 3.40GHz,orientation_search,LEPPC096,Intel(R) HD Graphics 2500,2018_Oct_23_1409,testMonitor,
25.9,48.8,42.5,42.0,36,-10,54.2,47.9,44.8,47.1,7.854,8.343,8.411,7.83,7.859,7.981,7.816,4.718,-5.137,-8.416,1.531,-1.223,7.978,4.348,-5.122,-7.92,30.8,44.3,-8.078,49.5,38.9,44.9,42.1,44.0,36,31.7,1,5,prime,10,0,98,norm,36,-4.957,down,norm,42.1234883584,45.1,62.1,37.5,36.5,0,46.3,35.3,44.1,10,6,8.176,4.594,1.354,-1.813,-4.537,-7.812,52.0,6,140.1,-7.706,-8.204,-10,-8.272,-7.65,-4.886,-5.172,-4.39,-4.574,4.392,7.734,6,-1.877,1.224,4.347,7.998,-8.413,-7.918,-2.071,1.98,38.7,27.8,42.2,34.3,39.2,43.8,47.6,,22.1,47.8,5,norm,2.023,1.866,-1.801,-1.394,-4.327,-5.041,-1.951,-1.495,-1.308,-1.417,1.496,-1.77,37.1,35.1,-4.561,-7.996,1.668,-1.242,7.783,4.59,-4.718,-8.399,4,4.441,5.281,4.801,5.068,1.308,1.47,1.105,1.439,4,4.463,5.106,20,260.534227366,norm,0,17,17,17,269.048,269.058,269.0642427,269.064,269.066,269.069,down,1,0.689605148375,9.31039485163,001,008,1920_1080,Intel(R) Core(TM) i5-3570 CPU @ 3.40GHz,orientation_search,LEPPC096,Intel(R) HD Graphics 2500,2018_Oct_23_1409,testMonitor,
102.6,101.3,102.6,104.4,36,60,98.0,103.4,102.8,112.3,7.841,8.14,7.636,7.715,7.598,8.29,7.579,4.769,-5.173,-8.428,1.676,-1.501,7.792,4.627,-5.268,-8.179,103.0,111.9,-8.275,98.0,104.9,106.2,100.3,92.3,36,98.0,0,5,probe,5,0,72,norm,36,-4.41,down,norm,102.285858228,104.6,99.9,110.0,102.0,2,101.7,106.7,98.3,10,6,8.018,4.408,1.675,-1.439,-4.449,-8.27,97.4,2,30.3,-7.944,-7.779,-10,-7.578,-8.066,-4.893,-5.132,-4.314,-5.001,4.988,8.167,2,-1.948,1.91,4.533,8.02,-8.335,-7.565,-1.898,1.749,103.4,102.0,98.3,,100.0,105.3,106.9,105.8,107.1,101.2,0,norm,1.504,1.208,-1.944,-1.963,-4.303,-4.487,-1.452,-1.457,-1.857,-1.813,1.177,-1.521,98.1,95.5,-5.259,-8.075,1.147,-2.007,8.147,4.602,-4.399,-7.626,5,5.144,4.584,4.492,4.769,1.229,1.48,1.258,1.834,5,4.774,5.082,-10,42.1234883584,norm,0,18,18,18,269.796,269.807,269.811939123,269.812,269.814,269.817,down,1,2.26366676829,7.73633323171,001,008,1920_1080,Intel(R) Core(TM) i5-3570 CPU @ 3.40GHz,orientation_search,LEPPC096,Intel(R) HD Graphics 2500,2018_Oct_23_1409,testMonitor,
133.7,138.3,140.9,133.0,36,60,135.6,143.2,142.4,132.9,8.321,7.672,8.113,7.532,7.57,8.096,8.424,5.041,-5.163,-7.829,2.084,-1.405,7.821,4.513,-4.362,-8.002,137.1,145.6,-8.391,140.9,143.4,138.6,134.7,135.4,36,141.1,1,5,probe,5,0,108,norm,36,-5.148,down,norm,138.285858228,148.3,136.6,139.8,137.8,2,129.9,138.4,145.7,10,6,7.701,4.978,1.295,-1.543,-4.93,-8.243,137.5,2,30.3,-7.635,-8.048,-10,-8.219,-8.28,-4.721,-5.149,-4.742,-4.469,4.807,7.789,8,-1.523,2.031,4.717,8.353,-8.052,-8.364,-1.725,1.745,128.3,,138.2,142.0,130.9,134.4,146.3,136.7,132.7,128.3,1,norm,1.446,1.557,-1.464,-1.995,-4.66,-4.637,-1.186,-1.953,-1.391,-1.784,1.393,-1.289,134.5,136.0,-5.061,-7.7,1.83,-1.189,7.954,4.341,-4.755,-7.823,5,4.73,4.764,4.853,5.19,1.942,1.405,1.412,2.022,5,5.263,5.055,-10,42.1234883584,norm,0,19,19,19,272.12,272.13,272.136445822,272.137,272.139,272.141,down,1,0.858801529781,9.14119847022,001,008,1920_1080,Intel(R) Core(TM) i5-3570 CPU @ 3.40GHz,orientation_search,LEPPC096,Intel(R) HD Graphics 2500,2018_Oct_23_1409,testMonitor,
-5.4,13.0,9.5,5.0,36,-20,-5.1,18.6,12.4,-2.3,7.545,7.725,8.081,8.201,7.983,8.15,7.836,4.771,-5.03,-7.886,1.251,-1.794,7.856,5.296,-4.518,-8.068,0.7,-11.0,-7.824,13.1,10.9,6.4,-3.0,-6.1,36,19.6,2,5,prime,10,0,109,norm,36,-4.821,down,norm,9.0374846147,-0.1,25.0,16.7,17.4,0,28.8,8.9,,10,5,8.295,4.855,1.107,-1.794,-4.454,-8.079,10.6,5,118.0,-7.835,-7.804,-20,-8.081,-8.485,-4.666,-5.078,-4.504,-4.651,5.275,8.355,12,-2.005,2.067,4.998,7.849,-8.356,-8.124,-1.508,1.926,29.0,22.4,16.9,-4.9,22.3,17.8,24.1,9.9,16.8,0.6,0,norm,1.378,1.599,-1.107,-1.362,-4.429,-4.482,-1.671,-1.34,-1.338,-1.354,1.62,-1.92,1.6,15.5,-4.401,-7.648,1.348,-1.974,8.091,4.674,-5.191,-7.878,6,4.767,4.596,4.488,5.08,1.233,1.951,1.781,1.248,6,4.758,5.235,60,42.1234883584,norm,0,20,20,20,273.033,273.045,273.071251385,273.071,273.073,273.076,down,1,3.35192988599,6.64807011401,001,008,1920_1080,Intel(R) Core(TM) i5-3570 CPU @ 3.40GHz,orientation_search,LEPPC096,Intel(R) HD Graphics 2500,2018_Oct_23_1409,testMonitor,
5.9,24.8,11.8,13.1,36,-20,2.4,-10.7,26.6,3.2,7.603,7.652,7.767,7.689,8.156,7.904,7.812,4.303,-4.478,-8.095,1.155,-1.685,7.548,4.787,-4.937,-8.473,7.5,,-7.651,21.8,-11.0,-8.9,8.4,-1.7,36,-0.1,5,5,prime,10,0,90,norm,36,-4.778,up,norm,9.0374846147,17.6,9.3,-8.2,22.5,4,19.3,15.9,0.8,10,5,8.326,5.262,1.313,-1.226,-4.725,-8.138,17.2,5,99.0,-7.888,-8.022,-20,-8.417,-7.904,-4.531,-4.995,-5.095,-4.54,4.918,8.008,34,-1.581,1.491,5.119,8.082,-7.753,-7.535,-1.135,1.17,11.5,12.5,1.0,0.8,11.9,6.5,-0.4,0.9,29.0,26.4,1,norm,1.612,1.97,-1.295,-1.905,-5.114,-4.469,-2.067,-1.451,-1.194,-1.354,1.167,-1.413,8.7,-0.9,-5.105,-7.582,1.624,-1.797,8.069,4.687,-4.411,-8.034,6,4.509,4.983,4.484,4.305,1.353,1.426,1.287,1.699,6,4.479,4.341,60,42.1234883584,norm,0,21,21,21,276.46,276.469,276.487465325,276.488,276.489,276.492,up,1,3.63489883455,6.36510116545,001,008,1920_1080,Intel(R) Core(TM) i5-3570 CPU @ 3.40GHz,orientation_search,LEPPC096,Intel(R) HD Graphics 2500,2018_Oct_23_1409,testMonitor,
12.6,22.2,20.1,9.1,36,-20,2.7,15.4,-2.3,-0.2,7.964,7.976,7.565,7.671,8.307,8.302,7.937,5.01,-4.535,-7.607,1.404,-2.069,7.63,4.808,-4.702,-7.512,15.0,-2.0,-8.276,5.7,3.2,8.2,6.7,8.8,36,-11.0,1,5,prime,10,0,74,norm,36,-4.388,up,norm,9.0374846147,23.7,6.3,2.8,6.7,4,13.1,19.5,-1.1,10,5,7.717,4.807,2.078,-2.088,-4.782,-7.897,,5,83.0,-7.725,-8.29,-20,-7.755,-8.046,-4.685,-5.024,-4.867,-4.647,4.469,8.332,10,-1.373,1.856,4.991,8.299,-8.242,-8.209,-1.425,2.037,20.2,8.9,7.6,0.2,15.8,29.0,4.3,-3.1,17.2,26.9,2,norm,1.225,1.854,-2.019,-1.909,-5.017,-4.695,-1.402,-1.112,-1.342,-1.577,2.068,-2.089,14.9,1.1,-5.106,-7.849,2.076,-1.905,7.99,4.427,-4.372,-7.857,6,4.736,4.575,4.632,5.035,1.767,1.297,2.043,1.919,6,4.582,4.414,60,42.1234883584,norm,0,22,22,22,280.17,280.179,280.185560643,280.186,280.187,280.19,up,1,2.88937634513,7.11062365487,001,008,1920_1080,Intel(R) Core(TM) i5-3570 CPU @ 3.40GHz,orientation_search,LEPPC096,Intel(R) HD Graphics 2500,2018_Oct_23_1409,testMonitor,
15.4,-0.8,1.2,15.9,36,-20,-11.0,2.2,14.9,-0.7,7.94,8.037,8.451,7.982,8.169,8.455,7.749,4.731,-4.328,-7.584,1.864,-2.023,7.856,5.074,-4.632,-8.228,6.4,22.0,-7.688,3.7,20.6,14.9,2.0,-2.7,36,8.2,2,5,prime,10,0,117,norm,36,-4.975,up,norm,9.0374846147,-6.5,20.1,,-4.2,3,1.2,12.2,-8.8,10,5,7.995,4.3,2.071,-1.269,-4.554,-7.838,16.4,5,126.0,-7.539,-7.893,-20,-7.856,-8.392,-4.854,-4.752,-4.735,-4.443,4.796,8.47,15,-1.818,2.044,4.837,8.046,-8.333,-7.659,-1.205,1.767,3.7,3.5,29.0,21.9,22.5,10.5,-0.2,6.3,16.6,-2.8,3,norm,1.53,1.926,-1.896,-1.55,-5.239,-4.495,-1.59,-2.057,-1.853,-1.419,1.699,-2.092,17.0,8.4,-4.791,-8.117,1.679,-1.355,7.633,5.169,-5.223,-8.002,6,5.013,4.679,5.152,4.741,1.39,1.417,1.449,1.624,6,4.716,4.59,60,42.1234883584,norm,0,23,23,23,283.112,283.122,283.132937405,283.133,283.135,283.137,up,1,1.34673864813,8.65326135187,001,008,1920_1080,Intel(R) Core(TM) i5-3570 CPU @ 3.40GHz,orientation_search,LEPPC096,Intel(R) HD Graphics 2500,2018_Oct_23_1409,testMonitor,
19.5,14.9,6.0,1.9,36,-20,14.9,8.6,5.8,-0.8,8.485,8.204,8.321,7.784,8.26,8.078,7.692,5.086,-4.914,-7.675,1.594,-1.454,7.849,4.989,-5.097,-7.735,10.7,-0.1,-7.969,,18.8,19.5,15.0,21.5,36,15.4,5,5,prime,10,0,67,norm,36,-4.588,down,norm,9.0374846147,25.6,5.5,-0.5,-6.3,1,-4.8,1.2,27.0,10,5,8.199,4.404,1.947,-2.09,-4.911,-7.834,10.7,5,76.0,-7.639,-7.901,-20,-7.649,-7.653,-4.772,-4.937,-5.135,-4.5,4.305,7.669,31,-1.528,1.652,4.883,8.472,-8.076,-8.134,-1.108,1.184,9.1,25.5,2.3,18.3,9.6,-4.2,13.8,8.9,20.8,-11.0,4,norm,1.437,1.308,-1.448,-1.366,-4.626,-4.539,-1.986,-1.491,-1.532,-1.153,1.426,-2.055,29.0,10.6,-4.605,-7.797,1.217,-1.44,8.29,4.487,-5.082,-8.382,6,4.982,5.246,4.935,4.453,1.182,1.771,1.557,1.639,6,4.76,4.868,60,42.1234883584,norm,0,24,24,24,284.5,284.51,284.521015186,284.521,284.523,284.525,up,0,2.02540561262,-10,001,008,1920_1080,Intel(R) Core(TM) i5-3570 CPU @ 3.40GHz,orientation_search,LEPPC096,Intel(R) HD Graphics 2500,2018_Oct_23_1409,testMonitor,
87.7,94.0,93.4,89.3,36,-80,101.3,98.1,95.8,91.1,8.179,8.218,8.5,8.383,8.27,8.177,8.12,4.877,-5.131,-7.993,1.462,-1.386,7.831,4.656,-4.912,-8.468,102.3,96.0,-7.804,94.6,96.2,87.2,88.4,,36,97.3,4,5,probe,5,0,102,norm,36,-4.512,down,norm,94.0519299239,101.5,93.8,96.8,94.6,2,95.7,102.4,96.7,10,5,8.12,5.186,1.268,-1.745,-5.22,-7.741,89.1,1,-7.9,-8.403,-7.557,-20,-7.514,-7.834,-5.077,-4.505,-5.174,-4.363,4.964,7.628,26,-1.199,1.732,4.669,8.244,-8.093,-8.492,-1.373,1.439,84.1,87.3,98.9,94.8,94.6,95.3,102.2,91.4,96.5,96.7,0,norm,1.435,1.591,-1.416,-1.712,-5.247,-4.903,-1.849,-1.522,-2.05,-1.931,1.196,-1.917,104.1,95.6,-4.752,-7.623,2.034,-1.864,8.321,5.006,-4.525,-7.744,7,5.246,4.541,4.693,5.146,1.673,1.262,1.554,1.84,7,4.768,4.674,-20,9.0374846147,norm,0,25,25,25,287.601,287.611,287.625658564,287.626,287.628,287.63,down,1,2.02772745247,7.97227254753,001,008,1920_1080,Intel(R) Core(TM) i5-3570 CPU @ 3.40GHz,orientation_search,LEPPC096,Intel(R) HD Graphics 2500,2018_Oct_23_1409,testMonitor,
202.3,208.3,225.7,236.6,36,-30,217.2,236.9,210.0,207.7,7.546,7.975,8.366,8.143,8.374,8.022,7.522,4.979,-4.894,-8.424,1.113,-1.403,7.5,4.539,-4.847,-7.7,201.0,219.1,-7.749,218.3,,220.5,223.6,219.3,36,229.0,5,5,prime,10,0,88,norm,36,-4.851,down,norm,217.364084669,216.3,213.6,225.0,237.4,0,220.3,204.1,208.2,10,6,8.331,5.24,2.033,-1.736,-5.135,-8.403,201.3,6,305.4,-8.328,-7.52,-30,-7.833,-7.706,-5.083,-5.039,-4.561,-4.572,4.457,7.758,30,-1.942,1.578,4.907,8.497,-8.425,-7.797,-1.187,1.957,217.3,211.4,197.4,203.9,219.3,203.3,217.4,225.6,211.8,218.6,0,norm,1.909,1.115,-1.831,-1.564,-5.143,-4.752,-1.273,-1.632,-1.362,-1.923,1.969,-2.033,230.2,212.2,-4.618,-8.062,1.474,-1.724,8.368,4.841,-4.901,-7.768,8,5.08,4.677,4.747,4.731,1.413,1.218,1.578,1.333,8,5.163,5.127,-80,9.0374846147,norm,0,26,26,26,289.701,289.711,289.717284003,289.717,289.719,289.722,down,1,0.858593252417,9.14140674758,001,008,1920_1080,Intel(R) Core(TM) i5-3570 CPU @ 3.40GHz,orientation_search,LEPPC096,Intel(R) HD Graphics 2500,2018_Oct_23_1409,testMonitor,
237.4,230.1,206.2,230.7,36,-30,228.9,224.3,231.4,204.8,7.723,7.633,8.056,8.145,8.367,7.799,7.797,4.722,-4.699,-8.491,1.301,-1.628,8.402,4.794,-5.008,-8.251,211.0,228.6,-7.578,223.6,235.5,227.1,,220.5,36,214.1,5,5,prime,10,0,103,norm,36,-4.567,down,norm,217.364084669,217.3,211.8,209.2,210.1,2,217.3,207.3,212.4,10,6,7.946,4.558,1.778,-1.219,-4.33,-7.873,218.1,6,320.4,-8.037,-7.536,-30,-7.56,-8.298,-4.32,-4.846,-4.337,-4.31,4.838,7.522,32,-1.854,1.821,5.104,8.073,-7.811,-8.315,-1.118,1.525,204.7,204.2,226.5,220.9,232.3,208.4,197.4,227.5,224.5,217.3,1,norm,1.877,1.456,-1.626,-1.351,-5.011,-4.344,-1.399,-1.323,-1.265,-2.039,1.745,-1.61,209.7,233.2,-4.684,-7.76,1.658,-1.34,8.061,5.286,-4.87,-8.471,8,5.123,5.213,4.626,4.421,1.346,1.931,1.15,1.904,8,5.044,4.85,-80,9.0374846147,norm,0,27,27,27,290.614,290.625,290.629398501,290.63,290.631,290.634,down,1,1.0327547851,8.9672452149,001,008,1920_1080,Intel(R) Core(TM) i5-3570 CPU @ 3.40GHz,orientation_search,LEPPC096,Intel(R) HD Graphics 2500,2018_Oct_23_1409,testMonitor,
,216.5,218.0,209.6,36,-30,212.5,212.3,210.9,234.2,8.373,7.518,7.765,7.655,7.678,8.057,8.392,5.125,-5.115,-7.579,1.512,-1.571,7.924,4.327,-4.583,-8.493,233.3,226.3,-8.287,206.8,225.0,228.1,206.9,237.4,36,223.1,3,5,prime,10,0,77,norm,36,-4.771,up,norm,217.364084669,214.3,217.2,221.2,204.5,4,225.6,211.3,224.9,10,6,8.268,4.775,1.394,-1.795,-4.372,-7.765,223.9,6,294.4,-8.286,-7.931,-30,-8.237,-7.873,-5.002,-4.486,-4.543,-5.095,4.769,7.802,22,-1.447,1.812,5.194,7.597,-8.088,-7.887,-1.944,1.91,225.9,215.2,225.3,216.9,209.3,227.9,208.6,197.4,231.7,210.9,2,norm,1.535,2.064,-1.82,-1.252,-5.008,-5.103,-1.418,-1.939,-1.65,-1.399,1.901,-1.446,218.7,225.8,-4.488,-8.259,1.458,-1.87,8.024,4.518,-4.37,-7.979,8,5.231,5.156,4.486,4.471,1.684,2.066,1.433,1.842,8,4.804,5.023,-80,9.0374846147,norm,0,28,28,28,291.683,291.693,291.712705221,291.713,291.715,291.717,up,1,1.06318410814,8.93681589186,001,008,1920_1080,Intel(R) Core(TM) i5-3570 CPU @ 3.40GHz,orientation_search,LEPPC096,Intel(R) HD Graphics 2500,2018_Oct_23_1409,testMonitor,
219.1,229.7,228.7,215.6,36,-30,220.5,219.1,201.5,218.0,7.59,7.896,7.986,8.393,8.107,8.041,8.161,5.115,-5.167,-7.66,1.972,-1.43,8.414,4.518,-5.028,-7.738,215.3,218.4,-7.824,237.4,226.4,208.1,216.0,236.6,36,217.1,2,5,prime,10,0,86,norm,36,-4.771,down,norm,217.364084669,220.4,220.7,213.6,218.0,0,227.4,212.7,,10,6,7.786,4.339,1.644,-1.584,-4.646,-7.61,217.9,6,303.4,-8.278,-8.362,-30,-7.984,-7.769,-5.282,-4.946,-4.58,-4.493,4.324,7.99,12,-2.094,1.109,5.281,7.599,-8.181,-8.297,-1.63,2.07,217.0,208.2,235.3,210.7,203.4,213.1,199.0,197.4,223.4,210.0,3,norm,1.565,1.429,-1.4,-1.294,-4.303,-4.937,-1.24,-1.795,-1.401,-1.58,1.514,-1.925,232.3,211.0,-5.052,-7.784,1.531,-1.422,7.56,5.122,-5.01,-8.384,8,5.148,5.129,4.76,5.027,1.276,1.725,1.103,2.076,8,5.268,5.067,-80,9.0374846147,norm,0,29,29,29,292.821,292.83,292.838672579,292.839,292.841,292.843,down,1,0.80744938709,9.19255061291,001,008,1920_1080,Intel(R) Core(TM) i5-3570 CPU @ 3.40GHz,orientation_search,LEPPC096,Intel(R) HD Graphics 2500,2018_Oct_23_1409,testMonitor,
209.7,203.1,228.5,,36,-30,220.7,225.1,214.1,215.6,8.019,8.1,7.763,8.325,7.539,7.77,8.276,4.813,-5.145,-7.785,1.589,-1.461,7.792,5.235,-5.147,-8.015,201.3,205.6,-7.646,216.7,227.5,223.8,218.3,211.6,36,224.0,3,5,prime,10,0,85,norm,36,-5.1,up,norm,217.364084669,217.1,214.0,231.2,198.5,3,209.9,213.9,222.3,10,6,7.987,5.086,1.781,-1.369,-4.35,-8.031,218.6,6,302.4,-7.652,-7.549,-30,-8.416,-7.933,-4.468,-4.686,-4.51,-4.857,4.843,8.394,21,-1.633,2.086,4.725,8.48,-7.702,-8.197,-2.027,1.384,230.5,221.3,225.0,206.5,226.3,214.7,217.5,215.5,197.4,214.3,4,norm,1.986,1.319,-1.111,-2.061,-4.94,-4.652,-1.16,-1.518,-1.194,-1.534,1.335,-1.599,227.9,237.4,-4.929,-7.567,1.127,-1.242,8.046,4.863,-4.815,-8.455,8,4.416,5.164,4.77,5.047,1.429,1.641,1.542,1.441,8,4.381,4.372,-80,9.0374846147,norm,0,30,30,30,293.683,293.693,293.709358294,293.71,293.711,293.714,up,1,0.892182656229,9.10781734377,001,008,1920_1080,Intel(R) Core(TM) i5-3570 CPU @ 3.40GHz,orientation_search,LEPPC096,Intel(R) HD Graphics 2500,2018_Oct_23_1409,testMonitor,
210.1,222.3,228.6,231.9,36,-30,216.1,237.4,212.1,228.1,7.504,7.935,7.825,7.549,7.907,8.246,7.591,4.791,-4.497,-7.767,1.287,-1.784,8.09,4.342,-4.982,-8.049,225.5,205.0,-7.512,223.7,218.5,197.4,214.5,230.4,36,232.6,2,5,prime,10,0,70,norm,36,-5.104,down,norm,217.364084669,202.0,225.1,210.5,,2,210.3,215.2,218.9,10,6,7.966,4.583,1.186,-1.138,-4.771,-8.09,206.1,6,287.4,-7.699,-8.394,-30,-8.017,-7.8,-4.643,-5.023,-4.874,-5.274,4.636,8.064,14,-1.582,1.294,4.358,7.716,-8.057,-7.818,-1.492,1.263,214.1,228.3,204.9,222.5,213.6,219.6,222.3,225.2,205.1,211.5,5,norm,1.314,1.802,-1.138,-1.702,-4.817,-5.031,-1.688,-1.473,-1.563,-1.308,1.598,-1.696,197.9,229.8,-4.611,-7.519,1.876,-1.807,8.362,5.232,-5.232,-7.801,8,4.889,4.948,4.899,5.299,2.04,1.894,1.718,2.027,8,4.701,5.01,-80,9.0374846147,norm,0,31,31,31,294.646,294.655,294.662017755,294.662,294.664,294.666,down,1,0.927504384388,9.07249561561,001,008,1920_1080,Intel(R) Core(TM) i5-3570 CPU @ 3.40GHz,orientation_search,LEPPC096,Intel(R) HD Graphics 2500,2018_Oct_23_1409,testMonitor,
295.6,308.4,310.0,307.4,36,-60,309.7,301.5,310.5,307.0,8.005,8.103,8.216,8.133,7.913,7.776,8.31,5.21,-4.773,-8.249,1.793,-1.899,7.783,4.761,-4.657,-8.151,303.3,304.1,-8.352,309.7,300.1,303.6,308.7,301.2,36,309.1,1,5,probe,5,0,119,norm,36,-5.268,up,norm,305.625261664,298.0,301.6,299.6,300.4,3,315.6,304.6,312.4,10,6,8.148,4.365,2.017,-1.238,-4.742,-8.195,311.9,1,186.6,-8.388,-7.709,-30,-7.775,-7.546,-5.239,-4.785,-5.189,-5.168,4.637,7.624,9,-1.199,1.712,4.681,7.612,-7.68,-8.489,-1.758,1.66,,308.7,305.5,303.7,314.4,299.9,306.8,310.3,306.6,304.1,0,norm,1.616,1.743,-1.54,-1.699,-4.305,-5.133,-2.026,-2.062,-1.645,-1.319,1.17,-1.172,305.2,306.4,-4.435,-7.662,1.586,-1.962,8.19,4.616,-4.44,-8.178,9,5.237,4.355,4.778,5.206,1.826,1.571,1.613,1.493,9,4.685,4.347,-30,217.364084669,norm,0,32,32,32,295.61,295.62,295.628082128,295.628,295.63,295.632,up,1,1.31704282364,8.68295717636,001,008,1920_1080,Intel(R) Core(TM) i5-3570 CPU @ 3.40GHz,orientation_search,LEPPC096,Intel(R) HD Graphics 2500,2018_Oct_23_1409,testMonitor,
182.6,189.3,206.0,214.1,36,30,200.2,191.1,200.1,184.3,7.872,7.519,8.403,7.737,7.744,7.846,7.752,5.26,-4.682,-8.351,1.443,-1.408,7.717,5.187,-5.205,-8.179,182.3,203.0,-7.781,195.9,179.4,198.9,195.1,199.2,36,182.9,1,5,prime,10,0,90,norm,36,-4.338,up,norm,194.105707259,207.1,186.7,192.2,206.9,4,174.1,206.3,189.7,10,6,7.512,5.008,1.218,-1.616,-5.179,-7.95,,6,284.1,-8.484,-7.985,30,-7.586,-7.749,-4.5,-4.562,-5.012,-4.976,4.818,7.921,10,-1.759,2.084,4.534,7.851,-8.003,-7.906,-1.293,1.56,213.0,206.7,191.9,209.1,194.4,202.1,199.7,203.3,197.7,210.6,0,norm,1.994,1.617,-1.462,-1.42,-5.242,-4.663,-1.577,-1.985,-1.765,-2.063,1.987,-1.554,201.3,203.3,-4.384,-7.531,1.326,-1.161,8.25,5.015,-4.712,-7.878,10,4.963,4.94,4.509,4.795,1.752,1.687,1.618,1.231,10,4.649,5.179,-60,217.364084669,norm,0,33,33,33,296.982,296.991,297.000832808,297.001,297.003,297.005,up,1,1.57460012255,8.42539987745,001,008,1920_1080,Intel(R) Core(TM) i5-3570 CPU @ 3.40GHz,orientation_search,LEPPC096,Intel(R) HD Graphics 2500,2018_Oct_23_1409,testMonitor,
183.3,,181.7,181.2,36,30,174.1,191.1,196.2,192.1,8.489,8.296,8.099,7.869,8.294,7.869,7.595,4.72,-4.488,-7.639,1.738,-1.385,7.527,4.324,-4.425,-8.121,195.7,190.6,-7.553,196.7,197.4,209.5,196.8,190.8,36,204.5,3,5,prime,10,0,82,norm,36,-4.951,up,norm,194.105707259,197.2,185.3,196.5,196.4,5,191.2,192.3,185.5,10,6,8.281,4.747,1.112,-2.0,-5.205,-8.0,188.1,6,276.1,-8.289,-7.771,30,-8.196,-8.051,-4.571,-4.879,-5.271,-5.196,5.281,8.146,23,-1.872,1.92,5.169,7.911,-8.152,-8.146,-1.644,1.444,203.8,196.9,192.5,204.4,197.9,191.6,201.1,206.9,194.1,195.8,1,norm,1.45,1.74,-1.193,-1.62,-4.715,-4.758,-1.514,-1.61,-2.013,-1.621,1.838,-1.16,186.3,214.1,-4.782,-8.456,1.527,-1.959,8.377,5.284,-5.084,-7.749,10,4.931,4.564,4.465,4.949,1.338,1.382,1.257,1.61,10,4.828,4.332,-60,217.364084669,norm,0,34,34,34,298.613,298.626,298.645268633,298.645,298.647,298.65,up,1,3.1624666077,6.8375333923,001,008,1920_1080,Intel(R) Core(TM) i5-3570 CPU @ 3.40GHz,orientation_search,LEPPC096,Intel(R) HD Graphics 2500,2018_Oct_23_1409,testMonitor,
,192.0,194.4,200.9,36,30,197.7,187.3,193.0,210.1,7.684,8.114,8.005,7.509,8.353,8.072,8.016,4.946,-5.277,-8.286,1.246,-1.347,8.011,4.601,-4.621,-7.756,183.9,214.1,-8.055,189.5,190.9,187.5,194.0,201.6,36,199.1,3,5,prime,10,0,101,norm,36,-5.26,up,norm,194.105707259,203.6,209.0,176.4,195.1,4,199.4,184.7,208.7,10,6,8.417,5.209,2.055,-1.524,-4.715,-7.893,201.1,6,295.1,-8.094,-7.511,30,-8.255,-8.422,-4.747,-5.203,-4.307,-4.426,5.173,8.366,22,-1.625,1.77,4.817,7.921,-8.066,-7.983,-1.869,1.146,187.1,188.6,185.6,178.6,200.7,186.6,174.1,208.5,191.0,201.3,2,norm,1.458,1.506,-1.23,-1.304,-4.586,-4.49,-1.68,-1.194,-1.549,-2.067,1.996,-1.706,187.7,198.9,-4.995,-8.412,1.736,-1.206,8.167,4.691,-4.418,-7.533,10,4.799,5.268,5.242,5.199,1.99,1.392,1.216,1.718,10,4.328,5.286,-60,217.364084669,norm,0,35,35,35,301.845,301.854,301.86795698,301.868,301.87,301.872,up,1,1.73693361385,8.26306638615,001,008,1920_1080,Intel(R) Core(TM) i5-3570 CPU @ 3.40GHz,orientation_search,LEPPC096,Intel(R) HD Graphics 2500,2018_Oct_23_1409,testMonitor,
189.5,196.0,199.6,192.3,36,30,201.9,199.0,194.1,189.4,8.104,8.468,7.514,8.198,7.749,7.642,7.842,4.344,-5.203,-7.737,1.579,-1.275,7.823,4.368,-5.083,-8.08,200.9,174.1,-8.211,189.1,198.0,182.2,,209.6,36,212.6,5,5,prime,10,0,71,norm,36,-4.34,down,norm,194.105707259,204.4,188.1,193.3,187.1,2,210.6,176.4,189.0,10,6,8.45,4.86,2.023,-2.001,-4.749,-7.568,212.3,6,265.1,-7.549,-8.014,30,-7.719,-7.949,-4.544,-4.571,-4.567,-4.906,4.347,8.324,32,-1.267,1.184,4.888,7.885,-7.683,-7.514,-1.465,1.161,190.3,196.8,181.6,189.1,204.2,198.9,193.0,201.9,214.1,189.3,3,norm,1.933,1.977,-1.591,-1.872,-4.697,-4.821,-1.357,-1.566,-1.225,-2.07,1.637,-1.739,209.5,180.7,-4.978,-8.306,2.06,-1.694,7.763,5.292,-5.164,-7.625,10,4.864,4.473,4.973,4.991,1.916,1.48,1.858,1.686,10,5.292,4.764,-60,217.364084669,norm,0,36,36,36,303.647,303.656,303.662857203,303.663,303.665,303.667,up,0,3.55195916556,-10,001,008,1920_1080,Intel(R) Core(TM) i5-3570 CPU @ 3.40GHz,orientation_search,LEPPC096,Intel(R) HD Graphics 2500,2018_Oct_23_1409,testMonitor,
199.0,176.0,205.0,203.2,36,30,189.9,182.5,196.8,199.8,7.633,8.435,7.636,8.309,8.347,8.013,8.059,4.507,-4.594,-7.872,1.805,-1.155,8.419,4.447,-5.019,-8.249,190.6,208.1,-7.991,207.8,190.2,184.5,,199.6,36,200.4,5,5,prime,10,0,115,norm,36,-4.884,down,norm,194.105707259,188.9,183.4,174.1,209.3,2,202.3,203.7,188.1,10,6,8.031,4.433,1.226,-1.572,-4.586,-8.269,213.0,6,309.1,-8.301,-8.125,30,-8.359,-7.928,-4.845,-5.053,-4.615,-4.54,5.235,8.071,32,-1.37,1.224,4.427,7.501,-8.484,-8.283,-1.217,1.705,193.1,185.4,193.6,195.1,192.8,188.5,187.4,204.4,200.5,176.7,4,norm,1.932,1.508,-2.093,-1.645,-4.37,-4.618,-1.362,-1.853,-1.643,-1.302,1.647,-1.137,208.5,214.1,-4.681,-8.09,1.97,-1.795,7.519,5.252,-4.419,-7.746,10,4.487,5.008,4.406,4.527,1.624,1.809,1.533,1.306,10,5.061,4.888,-60,217.364084669,norm,0,37,37,37,308.286,308.296,308.310671347,308.311,308.313,308.315,down,1,1.02820649041,8.97179350959,001,008,1920_1080,Intel(R) Core(TM) i5-3570 CPU @ 3.40GHz,orientation_search,LEPPC096,Intel(R) HD Graphics 2500,2018_Oct_23_1409,testMonitor,
196.8,178.2,190.0,186.3,36,30,206.4,,213.3,188.4,8.298,8.175,8.435,7.801,7.771,7.873,8.154,4.92,-4.563,-7.635,1.388,-1.413,7.713,4.686,-4.375,-7.625,206.5,205.6,-8.259,187.6,195.6,199.5,192.0,202.4,36,181.7,4,5,prime,10,0,76,norm,36,-4.354,down,norm,194.105707259,202.8,190.4,188.6,175.6,1,194.4,198.4,187.6,10,6,7.521,4.55,1.619,-2.019,-4.757,-8.457,205.1,6,270.1,-8.345,-7.534,30,-7.841,-7.742,-4.423,-4.901,-4.932,-4.74,4.673,7.651,25,-1.268,1.457,4.346,7.777,-8.156,-8.386,-1.573,1.167,179.0,194.0,208.1,198.5,196.4,174.1,191.3,191.7,203.3,199.4,5,norm,1.514,1.529,-1.716,-1.778,-5.042,-5.146,-2.032,-1.682,-1.266,-1.205,1.471,-1.125,210.4,192.3,-5.087,-8.247,1.947,-1.676,7.829,5.152,-4.745,-7.522,10,4.354,4.343,4.82,4.773,1.79,1.865,1.113,1.947,10,5.001,4.572,-60,217.364084669,norm,0,38,38,38,309.376,309.385,309.402409377,309.403,309.404,309.407,up,0,1.70599808626,-10,001,008,1920_1080,Intel(R) Core(TM) i5-3570 CPU @ 3.40GHz,orientation_search,LEPPC096,Intel(R) HD Graphics 2500,2018_Oct_23_1409,testMonitor,
327.9,323.1,330.1,326.2,36,0,329.1,,328.4,323.4,8.267,7.605,8.424,7.863,8.477,8.119,7.793,5.06,-4.308,-7.899,1.296,-1.344,8.284,4.361,-4.4,-7.557,327.6,323.4,-7.541,331.5,336.2,320.8,334.5,325.7,36,323.3,4,5,probe,5,0,101,norm,36,-5.189,down,norm,326.187760235,328.8,323.8,330.9,326.7,1,325.7,324.0,321.4,10,6,7.617,5.132,1.11,-2.021,-5.209,-7.673,317.7,1,225.2,-7.533,-8.035,30,-8.423,-7.749,-4.456,-4.831,-5.047,-5.264,5.19,8.106,25,-1.36,1.108,5.244,7.995,-7.812,-7.828,-1.598,1.448,329.6,328.3,316.2,317.8,332.6,318.4,326.1,331.8,329.4,324.9,0,norm,1.724,1.397,-1.122,-1.864,-5.249,-4.574,-1.822,-2.098,-1.885,-1.183,2.098,-1.593,320.0,324.1,-4.521,-8.405,1.952,-1.117,7.957,4.951,-4.642,-8.36,11,4.588,5.154,5.033,4.308,1.142,1.856,2.044,1.716,11,5.288,4.402,30,194.105707259,norm,0,39,39,39,312.184,312.193,312.210602223,312.211,312.213,312.215,down,1,1.68568983576,8.31431016424,001,008,1920_1080,Intel(R) Core(TM) i5-3570 CPU @ 3.40GHz,orientation_search,LEPPC096,Intel(R) HD Graphics 2500,2018_Oct_23_1409,testMonitor,
94.2,,86.5,118.0,36,40,78.0,100.6,106.1,88.9,7.693,7.926,8.393,8.405,8.34,8.292,7.765,5.216,-4.584,-8.2,1.269,-1.651,7.612,4.377,-5.144,-7.895,82.0,109.6,-8.49,114.0,94.2,100.6,107.9,93.4,36,114.0,3,5,prime,10,0,110,norm,36,-4.832,up,norm,97.9750993857,109.8,82.8,104.6,98.9,5,96.2,96.7,83.1,10,6,7.682,5.227,2.086,-1.371,-4.785,-8.279,104.5,6,208.0,-8.437,-7.641,40,-7.545,-7.924,-5.271,-4.965,-4.808,-4.896,4.443,7.68,23,-1.66,1.352,4.315,7.813,-7.681,-8.007,-1.981,2.04,99.8,112.7,89.5,106.8,114.5,91.6,114.4,95.2,93.6,97.6,0,norm,1.85,1.425,-1.251,-1.852,-4.511,-5.089,-1.989,-1.882,-1.758,-1.512,1.507,-1.318,100.7,112.5,-4.936,-7.635,2.009,-1.907,8.085,4.859,-5.175,-7.799,12,4.729,4.555,4.441,5.082,1.804,1.177,2.049,1.347,12,4.92,5.041,0,194.105707259,norm,0,40,40,40,313.942,313.952,313.958737235,313.959,313.961,313.963,up,1,1.29586524153,8.70413475847,001,008,1920_1080,Intel(R) Core(TM) i5-3570 CPU @ 3.40GHz,orientation_search,LEPPC096,Intel(R) HD Graphics 2500,2018_Oct_23_1409,testMonitor,
97.3,98.8,80.9,89.2,36,40,100.1,103.2,,95.1,8.174,8.155,8.395,7.804,7.752,7.512,8.378,4.996,-5.133,-8.066,1.747,-1.859,7.652,5.057,-4.898,-8.31,92.8,96.8,-8.095,102.3,78.0,89.2,84.9,80.0,36,99.4,4,5,prime,10,0,86,norm,36,-4.676,up,norm,97.9750993857,102.5,99.5,118.0,101.4,4,97.2,102.6,106.6,10,6,8.36,4.474,1.175,-1.804,-5.089,-7.668,97.1,6,184.0,-8.475,-8.305,40,-7.921,-7.565,-4.524,-5.04,-5.19,-5.039,4.554,8.155,28,-1.107,1.398,4.679,7.76,-7.874,-8.472,-1.486,1.951,94.5,94.3,96.6,114.5,91.1,106.1,116.4,89.3,100.2,109.6,1,norm,1.865,1.155,-1.166,-1.66,-4.575,-4.395,-1.624,-1.857,-1.225,-1.619,2.072,-2.036,97.2,102.4,-4.838,-8.206,1.516,-1.868,7.934,5.097,-4.88,-8.048,12,4.379,4.59,4.751,4.708,1.272,1.814,1.368,1.514,12,4.981,4.649,0,194.105707259,norm,0,41,41,41,315.3,315.323,315.332498815,315.333,315.334,315.337,down,0,0.97676439604,-10,001,008,1920_1080,Intel(R) Core(TM) i5-3570 CPU @ 3.40GHz,orientation_search,LEPPC096,Intel(R) HD Graphics 2500,2018_Oct_23_1409,testMonitor,
104.3,95.8,94.5,99.8,36,40,110.7,100.6,87.8,91.6,8.365,8.111,7.631,7.717,7.567,7.807,7.616,4.619,-4.44,-8.382,1.165,-1.413,7.547,4.813,-5.112,-7.624,,93.2,-8.467,81.6,84.3,91.2,102.5,95.7,36,92.2,5,5,prime,10,0,91,norm,36,-4.368,up,norm,97.9750993857,118.0,104.7,91.4,108.8,5,111.6,89.4,93.1,10,6,8.459,4.902,1.615,-1.814,-5.163,-7.561,94.5,6,189.0,-8.074,-8.35,40,-7.786,-8.301,-4.828,-4.735,-4.408,-4.359,4.967,7.659,35,-1.309,1.499,5.175,7.571,-8.209,-8.256,-1.55,1.639,82.0,104.0,109.1,90.8,95.8,106.8,78.0,92.7,82.7,95.4,2,norm,1.952,1.555,-1.478,-1.595,-5.154,-4.539,-1.448,-2.081,-1.86,-2.058,1.951,-2.069,90.9,81.0,-4.307,-8.38,1.214,-1.834,7.548,5.205,-4.633,-8.141,12,4.557,4.939,4.479,4.831,1.837,1.207,1.555,1.523,12,4.509,5.193,0,194.105707259,norm,0,42,42,42,317.364,317.373,317.389583113,317.39,317.391,317.394,up,1,0.770366960571,9.22963303943,001,008,1920_1080,Intel(R) Core(TM) i5-3570 CPU @ 3.40GHz,orientation_search,LEPPC096,Intel(R) HD Graphics 2500,2018_Oct_23_1409,testMonitor,
88.4,93.3,93.5,118.0,36,40,94.8,100.6,89.3,91.1,7.592,8.316,7.656,8.496,8.223,7.792,8.259,4.381,-4.473,-7.624,1.511,-2.077,8.374,4.992,-4.548,-7.693,78.0,102.2,-8.319,88.7,102.8,83.8,96.1,93.1,36,80.4,1,5,prime,10,0,60,norm,36,-4.783,down,norm,97.9750993857,98.4,103.8,92.7,81.4,2,91.4,103.6,100.1,10,6,7.86,4.368,1.446,-1.625,-4.318,-8.245,106.8,6,158.0,-8.156,-8.024,40,-8.383,-7.634,-5.005,-4.358,-5.059,-4.722,4.482,8.217,8,-2.043,1.668,4.885,7.529,-8.026,-7.859,-1.935,1.41,100.9,,93.7,93.8,96.4,110.9,96.2,97.6,102.0,110.1,3,norm,1.375,1.38,-1.23,-1.765,-5.286,-4.845,-1.273,-1.864,-1.767,-1.966,1.689,-1.936,85.0,97.6,-4.855,-7.908,2.068,-1.977,8.123,4.836,-5.1,-8.396,12,4.858,4.909,4.407,4.598,1.778,1.848,1.905,2.077,12,4.966,4.384,0,194.105707259,norm,0,43,43,43,318.197,318.207,318.216287894,318.217,318.218,318.221,up,0,1.94109916115,-10,001,008,1920_1080,Intel(R) Core(TM) i5-3570 CPU @ 3.40GHz,orientation_search,LEPPC096,Intel(R) HD Graphics 2500,2018_Oct_23_1409,testMonitor,
100.1,106.9,89.6,97.9,36,40,106.1,90.8,,103.1,7.973,8.078,7.951,8.417,8.038,8.239,8.105,4.885,-4.497,-7.779,1.469,-1.228,7.819,4.56,-5.21,-8.252,113.8,98.0,-7.763,92.5,92.8,116.2,82.7,85.0,36,103.0,4,5,prime,10,0,116,norm,36,-5.294,up,norm,97.9750993857,93.7,113.1,98.2,78.0,4,98.9,97.4,91.1,10,6,7.804,4.515,1.184,-1.26,-4.873,-8.414,96.0,6,214.0,-8.375,-8.096,40,-7.598,-8.179,-4.344,-5.196,-4.868,-4.984,5.216,8.343,28,-1.744,1.965,4.635,8.213,-8.238,-8.493,-1.269,1.634,93.6,91.9,104.3,91.0,96.2,94.1,100.8,94.0,96.9,99.7,4,norm,1.112,1.776,-1.222,-2.01,-4.526,-5.077,-1.693,-1.875,-1.143,-1.804,2.04,-1.894,104.1,118.0,-5.239,-7.721,2.012,-1.347,7.676,4.519,-4.319,-8.118,12,5.262,4.511,4.82,5.081,1.89,1.607,1.271,1.318,12,4.444,4.303,0,194.105707259,norm,0,44,44,44,321.216,321.226,321.242648262,321.243,321.245,321.247,up,1,1.1273860587,8.8726139413,001,008,1920_1080,Intel(R) Core(TM) i5-3570 CPU @ 3.40GHz,orientation_search,LEPPC096,Intel(R) HD Graphics 2500,2018_Oct_23_1409,testMonitor,
104.0,94.3,88.5,91.1,36,40,90.6,106.2,112.9,102.9,8.328,8.048,8.196,8.444,8.336,7.921,8.432,4.888,-4.785,-8.46,1.562,-1.258,7.549,5.206,-5.267,-8.25,99.0,86.6,-8.484,95.0,91.1,96.6,118.0,95.6,36,104.9,0,5,prime,10,0,115,norm,36,-4.802,up,norm,97.9750993857,117.4,94.6,99.7,81.1,4,105.4,93.4,94.5,10,6,8.213,5.254,1.706,-1.317,-4.691,-7.523,96.2,6,213.0,-7.702,-8.15,40,-8.27,-8.004,-4.524,-4.495,-4.392,-4.709,4.341,7.699,4,-1.896,1.687,4.991,8.491,-7.791,-7.926,-1.279,1.731,95.0,95.6,93.0,84.3,104.9,99.5,102.1,86.3,111.4,,5,norm,1.223,1.89,-1.29,-1.419,-5.145,-4.64,-1.725,-1.719,-1.387,-1.992,1.164,-1.977,89.0,112.2,-4.539,-7.722,2.019,-1.353,8.316,4.557,-4.754,-7.761,12,4.558,5.292,4.88,4.575,1.641,1.228,1.347,1.76,12,4.673,4.612,0,194.105707259,norm,0,45,45,45,322.407,322.417,322.428043189,322.428,322.43,322.432,up,1,2.45141070183,7.54858929817,001,008,1920_1080,Intel(R) Core(TM) i5-3570 CPU @ 3.40GHz,orientation_search,LEPPC096,Intel(R) HD Graphics 2500,2018_Oct_23_1409,testMonitor,
221.7,217.0,221.2,218.0,36,60,224.8,222.2,227.2,216.4,7.871,8.209,7.856,7.758,8.05,8.31,8.03,5.126,-5.095,-8.286,1.531,-1.801,8.109,4.408,-4.534,-8.206,225.6,216.5,-7.598,219.5,221.9,216.4,223.6,222.6,36,217.7,0,5,probe,5,0,77,norm,36,-4.504,up,norm,220.362982799,211.2,216.3,215.6,223.3,3,225.9,224.4,219.7,10,6,7.703,4.936,1.633,-1.989,-4.769,-7.604,220.5,2,143.4,-8.356,-8.063,40,-8.328,-7.771,-4.852,-5.296,-4.648,-5.027,4.423,7.647,3,-1.228,1.402,4.436,8.281,-7.985,-7.785,-1.743,1.34,228.8,221.8,,218.3,223.1,212.9,215.6,210.4,223.1,220.6,0,norm,1.512,1.978,-1.361,-1.643,-4.64,-4.461,-1.519,-1.295,-1.863,-2.043,1.347,-1.568,219.6,230.4,-5.191,-7.622,1.268,-1.663,7.959,4.545,-5.043,-8.043,13,4.565,4.313,5.189,4.752,2.007,1.348,1.915,1.905,13,4.469,4.878,40,97.9750993857,norm,0,46,46,46,324.925,324.934,324.94071581,324.941,324.943,324.945,up,1,1.92982652608,8.07017347392,001,008,1920_1080,Intel(R) Core(TM) i5-3570 CPU @ 3.40GHz,orientation_search,LEPPC096,Intel(R) HD Graphics 2500,2018_Oct_23_1409,testMonitor,
252.2,246.1,241.7,245.9,36,60,244.7,240.6,239.3,245.8,7.558,8.19,7.903,7.738,7.533,7.619,8.135,4.722,-4.376,-8.432,2.088,-2.092,7.519,4.323,-4.687,-8.191,248.3,247.8,-8.221,253.4,246.7,251.2,244.9,242.0,36,235.4,1,5,probe,5,0,102,norm,36,-5.071,up,norm,245.362982799,244.9,243.6,246.1,241.7,3,255.4,248.6,245.6,10,6,8.249,4.371,1.324,-1.247,-4.871,-8.008,237.7,2,143.4,-8.307,-7.549,40,-7.828,-8.311,-5.247,-5.163,-4.484,-4.57,4.733,8.248,9,-1.903,1.145,4.956,7.988,-7.616,-8.214,-1.59,1.421,,245.6,250.4,239.2,239.2,242.1,244.4,245.0,251.9,242.0,1,norm,2.014,1.33,-1.904,-1.933,-4.976,-4.87,-1.972,-1.88,-1.623,-2.063,1.584,-1.769,244.1,247.3,-4.531,-7.773,1.304,-1.71,8.024,5.209,-4.361,-8.275,13,4.565,5.227,4.805,5.27,1.424,1.349,1.241,1.699,13,5.27,4.993,40,97.9750993857,norm,0,47,47,47,326.908,326.923,326.940692568,326.941,326.943,326.947,up,1,1.02864206176,8.97135793824,001,008,1920_1080,Intel(R) Core(TM) i5-3570 CPU @ 3.40GHz,orientation_search,LEPPC096,Intel(R) HD Graphics 2500,2018_Oct_23_1409,testMonitor,
330.0,336.5,296.5,316.6,36,30,308.1,311.5,313.2,312.8,8.143,8.163,8.064,7.834,8.368,7.766,8.151,5.034,-4.743,-7.817,1.109,-1.389,7.588,5.185,-4.505,-8.38,319.2,,-8.477,317.5,308.0,313.5,323.3,315.8,36,298.6,5,5,prime,10,0,108,norm,36,-4.572,up,norm,316.480309811,304.0,298.1,327.2,306.6,4,326.0,318.7,308.4,10,5,8.489,4.307,1.818,-1.441,-4.526,-8.397,311.5,5,424.5,-8.323,-8.394,30,-8.057,-7.807,-5.157,-4.934,-5.011,-5.178,4.495,7.698,34,-1.824,1.105,5.251,7.899,-7.85,-8.096,-1.62,1.484,320.2,327.5,332.8,322.0,318.3,297.0,316.4,313.8,310.3,332.4,0,norm,1.218,1.472,-2.031,-1.523,-4.717,-5.123,-1.677,-1.201,-1.191,-1.795,1.923,-1.916,310.0,314.9,-4.807,-8.453,1.669,-1.848,7.824,4.485,-5.188,-8.026,14,5.208,4.801,4.723,5.241,1.635,1.305,1.572,1.409,14,4.361,4.914,60,97.9750993857,norm,0,48,48,48,328.013,328.023,328.029315794,328.03,328.031,328.034,up,1,1.14439779166,8.85560220834,001,008,1920_1080,Intel(R) Core(TM) i5-3570 CPU @ 3.40GHz,orientation_search,LEPPC096,Intel(R) HD Graphics 2500,2018_Oct_23_1409,testMonitor,
328.8,314.6,316.6,311.8,36,30,320.7,302.5,317.6,336.5,8.156,8.407,7.954,8.409,8.137,7.771,7.549,5.164,-5.162,-7.558,2.065,-1.561,7.781,5.218,-4.301,-8.315,311.1,300.4,-8.212,317.6,306.3,323.3,307.8,310.7,36,316.5,2,5,prime,10,0,87,norm,36,-4.951,down,norm,316.480309811,318.4,297.5,321.1,301.5,1,314.1,,296.5,10,5,7.562,4.813,1.436,-1.763,-4.598,-7.553,320.6,5,403.5,-7.523,-7.506,30,-7.982,-7.819,-5.011,-4.97,-4.63,-4.955,4.869,7.672,13,-1.674,1.844,4.69,7.742,-8.031,-8.026,-1.756,1.511,313.8,310.7,312.2,329.3,311.9,309.1,327.2,311.4,317.5,309.4,1,norm,1.533,1.511,-1.586,-1.307,-5.15,-5.288,-1.258,-1.605,-1.749,-1.467,1.157,-1.193,305.6,312.3,-4.419,-7.758,1.853,-1.455,8.244,4.409,-4.881,-7.811,14,4.727,5.075,4.984,4.668,1.183,2.062,1.188,1.663,14,4.319,4.506,60,97.9750993857,norm,0,49,49,49,329.214,329.224,329.230487278,329.231,329.232,329.235,down,1,0.893818991877,9.10618100812,001,008,1920_1080,Intel(R) Core(TM) i5-3570 CPU @ 3.40GHz,orientation_search,LEPPC096,Intel(R) HD Graphics 2500,2018_Oct_23_1409,testMonitor,
311.7,308.8,318.7,323.7,36,30,311.5,307.3,311.5,326.0,8.141,8.349,7.936,8.247,8.321,7.819,8.192,4.939,-4.707,-8.116,1.894,-1.72,8.108,5.163,-5.267,-8.456,321.0,319.7,-8.078,317.9,306.7,336.5,296.5,318.6,36,323.5,0,5,prime,10,0,79,norm,36,-4.804,up,norm,316.480309811,330.4,304.2,308.6,320.7,4,300.5,312.2,311.1,10,5,8.122,4.434,1.456,-1.276,-5.105,-8.028,313.1,5,395.5,-7.924,-8.29,30,-8.464,-7.963,-5.149,-5.245,-4.94,-4.536,4.537,7.821,4,-1.714,1.93,4.855,8.354,-7.586,-7.529,-2.057,1.81,317.5,323.2,316.7,327.1,326.5,317.3,320.3,331.3,315.4,,2,norm,1.197,1.462,-1.26,-1.851,-4.976,-4.478,-2.001,-2.084,-2.031,-1.667,1.939,-2.096,311.1,331.4,-5.108,-7.945,1.473,-1.351,7.566,5.002,-4.529,-8.477,14,4.529,5.092,4.538,5.178,1.349,1.432,1.728,1.421,14,4.485,4.891,60,97.9750993857,norm,0,50,50,50,330.166,330.176,330.182087543,330.182,330.184,330.187,up,1,0.638685860382,9.36131413962,001,008,1920_1080,Intel(R) Core(TM) i5-3570 CPU @ 3.40GHz,orientation_search,LEPPC096,Intel(R) HD Graphics 2500,2018_Oct_23_1409,testMonitor,
322.3,320.2,306.5,328.2,36,30,310.1,317.1,309.2,329.4,8.01,8.269,8.168,8.131,7.685,7.563,8.195,5.227,-4.823,-7.518,1.868,-1.764,8.152,5.258,-4.764,-7.765,311.6,307.7,-8.437,310.7,310.1,321.5,305.9,296.5,36,336.5,1,5,prime,10,0,93,norm,36,-4.657,down,norm,316.480309811,327.9,320.0,326.7,326.5,1,317.9,324.8,333.6,10,5,7.938,4.702,1.158,-1.969,-4.622,-7.996,311.6,5,409.5,-8.44,-8.372,30,-8.492,-8.064,-4.832,-4.688,-4.995,-4.543,4.656,8.091,7,-1.613,1.74,4.628,8.017,-8.426,-8.099,-1.596,1.908,331.3,300.2,302.6,323.1,320.9,313.9,,307.6,315.4,321.3,3,norm,1.675,1.522,-1.44,-1.221,-5.293,-4.391,-1.886,-1.304,-1.824,-1.994,1.102,-1.428,311.6,320.2,-4.935,-7.718,1.591,-1.639,8.377,5.204,-5.276,-7.896,14,4.584,4.652,5.1,4.432,1.419,1.78,2.082,1.725,14,4.895,4.796,60,97.9750993857,norm,0,51,51,51,330.868,330.878,330.884474281,330.885,330.886,330.889,down,1,0.622668123602,9.3773318764,001,008,1920_1080,Intel(R) Core(TM) i5-3570 CPU @ 3.40GHz,orientation_search,LEPPC096,Intel(R) HD Graphics 2500,2018_Oct_23_1409,testMonitor,
310.2,327.8,336.2,308.9,36,30,319.7,321.8,334.5,319.6,8.365,8.453,7.872,7.908,8.39,8.167,8.072,4.568,-5.298,-7.598,1.817,-1.355,8.353,4.49,-4.54,-8.354,326.3,326.7,-8.19,314.8,336.5,313.6,,314.7,36,317.3,5,5,prime,10,0,112,norm,36,-4.758,down,norm,316.480309811,317.4,314.8,319.6,311.2,2,316.7,320.7,309.7,10,5,8.271,4.509,1.84,-1.24,-4.911,-7.995,312.9,5,428.5,-8.299,-7.509,30,-7.946,-8.283,-4.859,-4.873,-4.631,-4.678,5.21,8.023,32,-2.054,2.025,4.621,8.443,-8.126,-8.138,-1.566,1.441,325.7,296.5,310.4,315.1,315.0,296.6,306.7,327.9,326.3,311.6,4,norm,1.895,1.163,-2.071,-1.423,-4.722,-4.776,-1.871,-1.607,-1.152,-1.903,1.781,-1.392,303.4,312.3,-5.18,-7.57,1.225,-2.031,7.682,4.553,-4.377,-8.316,14,4.611,4.436,4.918,4.744,1.964,1.714,1.315,1.478,14,5.262,4.334,60,97.9750993857,norm,0,52,52,52,331.554,331.564,331.571438231,331.572,331.573,331.576,down,1,1.28171234179,8.71828765821,001,008,1920_1080,Intel(R) Core(TM) i5-3570 CPU @ 3.40GHz,orientation_search,LEPPC096,Intel(R) HD Graphics 2500,2018_Oct_23_1409,testMonitor,
413.8,414.9,406.3,416.7,36,-30,,419.0,424.1,417.0,7.863,8.036,8.1,8.087,7.762,7.906,7.946,4.729,-4.502,-7.51,1.66,-1.149,7.515,5.299,-4.62,-7.73,419.2,419.6,-8.204,415.3,422.4,426.3,422.1,419.3,36,423.0,4,5,probe,5,0,68,norm,36,-4.656,down,norm,416.257732593,422.2,414.5,414.7,409.4,0,410.8,417.3,413.1,10,5,8.37,4.427,1.281,-1.79,-4.678,-7.636,421.5,2,348.3,-7.785,-7.604,30,-7.864,-8.231,-5.064,-4.866,-4.437,-4.459,4.923,8.234,24,-1.528,1.707,4.531,8.474,-7.828,-8.058,-1.867,1.387,408.0,420.6,417.8,411.9,412.2,414.0,411.7,410.6,410.7,422.6,0,norm,1.909,1.555,-2.019,-1.191,-4.35,-4.578,-1.844,-1.938,-1.58,-2.092,1.821,-1.113,416.5,411.6,-4.962,-8.261,1.698,-1.817,7.613,4.789,-5.036,-8.139,15,4.501,4.773,4.324,5.179,2.034,1.156,1.513,1.957,15,4.432,4.977,30,316.480309811,norm,0,53,53,53,332.896,332.906,332.912106348,332.912,332.914,332.916,down,1,1.16147049857,8.83852950143,001,008,1920_1080,Intel(R) Core(TM) i5-3570 CPU @ 3.40GHz,orientation_search,LEPPC096,Intel(R) HD Graphics 2500,2018_Oct_23_1409,testMonitor,
463.3,443.3,446.1,452.3,36,-30,452.5,445.3,452.6,460.3,7.626,8.197,8.49,8.048,7.803,8.143,8.192,4.93,-4.86,-7.902,1.256,-1.772,7.548,5.181,-4.604,-8.332,456.6,449.0,-8.132,460.5,,448.8,446.4,454.3,36,448.2,5,5,probe,5,0,105,norm,36,-5.211,down,norm,453.257732593,454.0,447.4,461.0,450.8,0,455.2,446.7,450.3,10,5,7.743,5.265,1.309,-1.33,-4.393,-8.126,460.2,2,348.3,-7.579,-8.198,30,-8.376,-7.598,-5.095,-5.078,-5.22,-5.209,5.021,7.918,30,-1.305,1.317,5.023,8.425,-7.532,-7.526,-1.619,1.487,457.3,444.5,453.0,454.8,454.0,447.6,459.0,457.8,454.8,450.9,1,norm,1.327,1.819,-1.168,-2.032,-4.932,-5.162,-1.86,-2.0,-1.722,-1.492,1.753,-1.387,450.8,456.7,-4.594,-7.962,1.929,-1.425,8.474,4.735,-4.948,-8.477,15,5.024,4.666,4.739,5.172,1.707,1.738,1.579,1.31,15,4.394,4.995,30,316.480309811,norm,0,54,54,54,334.097,334.107,334.113170072,334.113,334.115,334.118,down,1,2.82359480695,7.17640519305,001,008,1920_1080,Intel(R) Core(TM) i5-3570 CPU @ 3.40GHz,orientation_search,LEPPC096,Intel(R) HD Graphics 2500,2018_Oct_23_1409,testMonitor,
20.1,26.9,38.4,39.3,36,-10,35.7,45.9,12.2,,7.561,7.598,7.763,7.806,8.283,8.072,7.553,4.36,-4.949,-8.323,1.629,-1.252,8.257,4.961,-5.004,-7.768,32.2,26.9,-7.808,21.6,14.8,32.5,24.5,15.3,36,23.8,4,5,prime,10,0,87,norm,36,-5.193,up,norm,26.5276543782,16.0,25.6,15.7,33.7,5,42.6,41.7,24.0,10,5,8.088,4.885,1.237,-1.342,-4.805,-7.989,28.4,5,113.5,-8.169,-8.093,-10,-8.069,-7.996,-5.123,-4.547,-4.753,-5.272,5.003,7.789,29,-1.203,1.653,4.657,8.29,-8.444,-8.178,-1.388,1.201,12.8,39.0,46.5,37.8,24.8,27.4,23.6,15.7,28.7,38.8,0,norm,1.177,1.5,-1.879,-2.088,-4.724,-4.841,-1.852,-1.646,-1.83,-1.381,1.797,-1.515,19.0,17.4,-4.729,-8.24,1.854,-2.072,7.529,5.237,-4.707,-7.69,16,4.44,5.26,4.839,4.927,1.742,2.045,2.079,1.845,16,5.21,5.27,-30,316.480309811,norm,0,55,55,55,336.974,336.983,336.998097733,336.998,337.0,337.003,up,1,0.721416950157,9.27858304984,001,008,1920_1080,Intel(R) Core(TM) i5-3570 CPU @ 3.40GHz,orientation_search,LEPPC096,Intel(R) HD Graphics 2500,2018_Oct_23_1409,testMonitor,
33.4,37.2,37.6,17.2,36,-10,29.4,31.6,36.1,26.8,8.029,7.563,7.502,8.29,8.033,8.15,8.059,4.48,-4.921,-7.6,1.301,-1.3,8.443,4.448,-4.856,-7.619,31.2,10.9,-7.892,27.9,45.5,33.1,23.4,6.9,36,7.5,0,5,prime,10,0,63,norm,36,-4.309,up,norm,26.5276543782,16.4,17.5,16.0,18.7,5,24.3,46.5,23.6,10,5,7.895,4.694,1.498,-1.597,-4.516,-7.587,31.1,5,89.5,-8.212,-8.252,-10,-8.24,-7.903,-4.999,-4.628,-4.929,-4.39,4.801,7.778,5,-2.099,1.744,5.205,8.255,-7.81,-7.519,-1.355,1.872,36.1,14.7,33.8,34.5,22.6,6.5,38.1,44.2,,16.6,1,norm,1.508,1.375,-1.825,-1.568,-4.811,-4.339,-1.532,-1.406,-2.011,-1.184,1.172,-1.636,19.6,19.4,-4.323,-7.826,1.726,-1.472,7.815,5.159,-5.2,-8.232,16,4.528,4.45,4.478,4.363,1.689,1.792,1.611,1.443,16,5.229,4.579,-30,316.480309811,norm,0,56,56,56,337.757,337.767,337.778065073,337.778,337.78,337.782,down,0,2.01152920864,-10,001,008,1920_1080,Intel(R) Core(TM) i5-3570 CPU @ 3.40GHz,orientation_search,LEPPC096,Intel(R) HD Graphics 2500,2018_Oct_23_1409,testMonitor,
25.2,45.1,46.5,21.6,36,-10,42.4,17.7,19.9,22.3,7.853,7.85,7.838,8.234,7.977,7.904,8.205,4.397,-4.569,-8.389,1.971,-1.901,8.319,4.316,-4.735,-8.475,28.8,41.4,-8.242,23.3,45.5,20.3,30.1,33.0,36,35.3,1,5,prime,10,0,90,norm,36,-5.279,up,norm,26.5276543782,14.5,24.1,36.7,10.3,3,16.8,41.4,28.9,10,5,8.225,5.029,1.131,-1.979,-4.749,-8.471,18.8,5,116.5,-7.839,-7.958,-10,-8.221,-7.573,-5.037,-4.356,-4.635,-5.12,4.653,8.083,9,-1.624,1.122,4.818,7.886,-7.528,-8.467,-1.321,1.265,,32.3,6.5,31.9,21.5,33.8,30.2,23.9,21.5,21.9,2,norm,1.906,1.501,-1.43,-1.422,-4.309,-4.391,-1.795,-1.624,-1.946,-1.663,1.672,-1.218,28.7,27.4,-4.535,-7.73,2.022,-1.361,8.259,4.49,-4.415,-7.73,16,5.141,4.88,5.291,4.396,1.308,1.18,1.461,1.72,16,5.126,5.262,-30,316.480309811,norm,0,57,57,57,340.86,340.87,340.882493533,340.883,340.884,340.887,up,1,0.997357594124,9.00264240588,001,008,1920_1080,Intel(R) Core(TM) i5-3570 CPU @ 3.40GHz,orientation_search,LEPPC096,Intel(R) HD Graphics 2500,2018_Oct_23_1409,testMonitor,
40.7,16.3,20.8,33.2,36,-10,37.2,37.2,15.9,26.3,7.62,8.203,8.131,8.164,7.685,7.981,7.921,4.473,-4.564,-8.492,1.922,-1.374,8.081,5.275,-5.153,-8.445,25.5,10.0,-8.0,44.2,18.0,29.8,30.8,20.0,36,22.3,2,5,prime,10,0,104,norm,36,-4.382,down,norm,26.5276543782,45.3,30.5,45.2,,2,27.7,19.8,26.0,10,5,8.238,4.559,1.874,-1.877,-4.385,-8.108,33.5,5,130.5,-7.871,-8.318,-10,-7.611,-8.043,-4.569,-4.885,-4.838,-4.444,4.579,7.633,14,-1.167,1.882,5.151,8.5,-7.878,-8.204,-1.897,1.615,17.5,45.9,27.4,6.5,13.2,27.6,39.8,25.8,34.5,28.6,3,norm,1.235,1.613,-1.425,-1.725,-4.638,-4.565,-1.852,-1.273,-1.794,-1.584,1.456,-2.019,8.4,46.5,-4.473,-8.176,1.475,-1.673,8.491,5.277,-4.408,-7.58,16,4.961,4.975,4.938,4.666,1.557,1.679,1.979,1.266,16,4.664,5.018,-30,316.480309811,norm,0,58,58,58,341.917,341.927,341.943258605,341.943,341.945,341.948,down,1,0.653074807797,9.3469251922,001,008,1920_1080,Intel(R) Core(TM) i5-3570 CPU @ 3.40GHz,orientation_search,LEPPC096,Intel(R) HD Graphics 2500,2018_Oct_23_1409,testMonitor,
25.6,22.9,,31.4,36,-10,19.7,30.4,12.3,14.9,8.144,7.834,7.836,8.409,7.755,8.047,8.436,4.341,-5.122,-7.723,1.63,-1.317,8.331,4.593,-5.027,-7.939,13.0,32.9,-8.491,35.0,23.8,10.1,26.7,27.2,36,36.2,3,5,prime,10,0,60,norm,36,-5.026,down,norm,26.5276543782,36.4,33.5,20.1,27.6,2,40.1,32.6,24.2,10,5,8.39,4.354,1.501,-1.731,-4.829,-8.437,18.5,5,86.5,-8.126,-8.329,-10,-7.619,-8.411,-4.639,-4.952,-4.324,-4.472,5.195,8.11,20,-1.518,1.609,5.059,8.457,-8.301,-7.627,-1.283,1.292,46.5,29.5,33.6,22.2,22.4,23.1,29.5,6.6,43.7,6.5,4,norm,1.78,1.196,-2.1,-1.859,-5.031,-4.507,-1.733,-1.943,-1.975,-1.379,1.597,-1.285,20.8,44.7,-4.581,-7.547,1.235,-1.694,7.695,4.82,-4.302,-8.27,16,5.024,4.386,4.368,4.391,1.672,1.709,1.421,1.242,16,5.296,4.983,-30,316.480309811,norm,0,59,59,59,342.633,342.643,342.660775033,342.661,342.663,342.665,up,0,1.14565047436,-10,001,008,1920_1080,Intel(R) Core(TM) i5-3570 CPU @ 3.40GHz,orientation_search,LEPPC096,Intel(R) HD Graphics 2500,2018_Oct_23_1409,testMonitor,
107.3,101.1,112.4,102.6,36,-40,104.7,104.1,103.7,104.8,7.967,7.716,7.934,7.79,7.689,7.646,7.913,5.173,-5.196,-8.106,1.505,-1.514,7.788,5.071,-5.242,-8.133,115.9,100.3,-7.565,104.1,106.5,110.8,109.1,107.1,36,112.2,1,5,probe,5,0,94,norm,36,-5.235,down,norm,106.719832978,98.7,113.0,102.3,99.2,1,96.7,102.7,104.9,10,5,8.126,5.091,1.141,-1.355,-4.987,-8.098,108.9,1,12.7,-7.679,-8.473,-10,-7.704,-7.937,-5.141,-5.121,-4.533,-4.603,5.199,7.788,7,-1.511,2.027,4.932,7.553,-7.761,-7.892,-1.965,1.555,105.1,103.2,100.5,105.9,113.3,104.6,,111.6,107.7,102.1,0,norm,1.777,1.176,-2.036,-1.657,-4.464,-5.161,-1.185,-1.607,-1.328,-1.429,2.005,-1.504,116.7,105.9,-4.673,-7.694,1.252,-1.121,8.025,4.379,-4.487,-7.897,17,4.964,5.16,4.404,4.379,1.228,1.949,1.13,1.901,17,4.959,4.348,-10,26.5276543782,norm,0,60,60,60,344.879,344.889,344.907218471,344.907,344.909,344.912,down,1,1.11301552421,8.88698447579,001,008,1920_1080,Intel(R) Core(TM) i5-3570 CPU @ 3.40GHz,orientation_search,LEPPC096,Intel(R) HD Graphics 2500,2018_Oct_23_1409,testMonitor,
4.1,1.4,5.1,3.1,36,-60,-3.0,20.1,6.5,8.6,8.381,8.35,7.888,8.11,7.724,8.264,8.436,5.234,-4.355,-7.507,2.033,-1.787,8.415,4.604,-4.371,-7.928,1.1,,-7.682,24.7,10.9,8.8,-5.2,-15.3,36,-15.0,5,5,prime,10,0,84,norm,36,-4.441,up,norm,4.71834765978,5.3,8.5,-0.3,18.3,4,1.8,-1.1,-7.6,10,6,8.278,5.057,1.645,-1.231,-5.21,-7.711,6.4,6,88.7,-8.396,-8.309,-60,-8.004,-7.813,-4.642,-4.518,-5.283,-4.502,4.881,8.397,34,-1.431,1.474,4.866,8.319,-8.137,-8.366,-1.906,1.939,3.3,-1.4,-1.1,15.4,-3.2,8.7,-6.0,12.1,21.0,-3.2,0,norm,1.457,1.316,-2.068,-1.338,-4.972,-5.056,-1.934,-1.769,-2.011,-1.24,1.284,-1.808,1.9,8.8,-4.711,-7.602,1.618,-1.502,8.023,4.305,-4.897,-7.513,18,4.402,5.131,4.864,5.254,1.399,2.029,1.482,1.22,18,4.902,4.381,-40,26.5276543782,norm,0,61,61,61,346.057,378.233,378.243392023,378.244,378.245,378.248,up,1,2.70097377215,7.29902622785,001,008,1920_1080,Intel(R) Core(TM) i5-3570 CPU @ 3.40GHz,orientation_search,LEPPC096,Intel(R) HD Graphics 2500,2018_Oct_23_1409,testMonitor,
18.9,15.3,-1.9,-4.0,36,-60,8.1,1.6,-12.3,20.0,7.524,7.646,8.322,8.303,8.009,7.568,7.764,4.505,-4.869,-8.234,1.74,-1.933,8.123,4.456,-4.371,-8.419,11.4,7.7,-8.006,10.1,0.2,-4.2,-15.3,-9.0,36,-5.2,2,5,prime,10,0,111,norm,36,-4.326,up,norm,4.71834765978,-6.1,19.2,,-6.4,3,-3.2,2.0,-9.0,10,6,8.015,4.57,1.317,-1.281,-4.576,-7.725,12.4,6,115.7,-8.325,-7.584,-60,-8.224,-7.831,-4.879,-5.059,-4.619,-4.908,4.867,8.305,15,-1.302,1.887,4.573,8.271,-8.393,-8.133,-1.269,1.982,3.3,3.6,21.5,14.2,24.7,2.5,22.1,9.3,21.8,12.4,1,norm,2.067,1.904,-1.111,-1.88,-4.865,-4.312,-1.254,-1.22,-1.818,-1.112,1.405,-1.358,15.1,1.7,-4.53,-8.067,1.885,-1.233,7.8,4.714,-4.613,-8.418,18,5.091,4.721,4.984,4.469,1.332,1.364,1.83,1.855,18,5.054,4.686,-40,26.5276543782,norm,0,62,62,62,380.989,380.998,381.005561609,381.006,381.008,381.01,up,1,0.943382364039,9.05661763596,001,008,1920_1080,Intel(R) Core(TM) i5-3570 CPU @ 3.40GHz,orientation_search,LEPPC096,Intel(R) HD Graphics 2500,2018_Oct_23_1409,testMonitor,
7.5,1.5,10.1,-7.6,36,-60,5.3,7.6,2.8,9.6,8.187,7.57,8.004,8.226,7.837,7.52,8.295,5.268,-5.003,-8.349,1.813,-1.826,8.163,5.0,-4.477,-7.6,7.3,10.3,-8.364,17.7,10.9,-7.7,8.6,10.9,36,-8.3,1,5,prime,10,0,96,norm,36,-4.736,down,norm,4.71834765978,-2.2,0.6,16.9,-15.3,0,14.5,19.0,6.5,10,6,8.073,5.221,1.889,-1.17,-4.682,-8.194,5.4,6,100.7,-7.828,-7.509,-60,-7.835,-7.795,-4.908,-5.25,-4.333,-4.724,4.877,8.438,6,-1.113,2.036,5.277,7.512,-7.798,-7.776,-1.611,1.355,12.6,18.5,22.7,17.5,6.7,9.6,12.7,,24.7,-4.3,2,norm,1.729,1.607,-1.109,-2.01,-4.551,-4.93,-1.548,-1.364,-1.995,-1.581,1.915,-1.85,2.8,16.2,-4.656,-7.994,1.165,-1.277,7.863,4.548,-5.074,-8.306,18,4.592,4.714,5.139,4.975,1.57,1.225,2.024,1.152,18,5.227,4.915,-40,26.5276543782,norm,0,63,63,63,381.97,381.979,381.987179774,381.987,381.989,381.992,down,1,0.771103175777,9.22889682422,001,008,1920_1080,Intel(R) Core(TM) i5-3570 CPU @ 3.40GHz,orientation_search,LEPPC096,Intel(R) HD Graphics 2500,2018_Oct_23_1409,testMonitor,
14.2,1.3,5.4,-7.1,36,-60,-14.0,9.8,-8.2,4.7,8.231,8.182,7.895,7.696,7.826,7.647,7.913,5.204,-4.83,-7.593,1.579,-1.867,8.39,5.034,-4.887,-8.149,-1.3,24.7,-7.869,2.0,10.1,13.2,8.9,-10.3,36,-10.2,1,5,prime,10,0,81,norm,36,-4.41,down,norm,4.71834765978,19.1,8.3,20.6,0.0,0,-4.4,-10.7,-1.3,10,6,8.359,4.557,1.322,-2.069,-4.375,-8.462,17.2,6,85.7,-8.138,-7.684,-60,-7.718,-7.987,-4.666,-4.787,-4.464,-5.126,4.802,8.431,6,-1.703,1.619,5.159,8.015,-8.116,-7.729,-1.116,1.715,-0.4,-8.6,6.5,-15.3,16.0,10.7,-7.7,,-12.6,16.5,3,norm,1.809,1.597,-1.79,-2.054,-5.034,-4.904,-2.035,-1.231,-2.004,-1.169,2.081,-2.066,3.5,0.6,-5.25,-7.782,1.56,-1.64,7.75,5.018,-5.089,-8.017,18,5.273,4.688,5.125,5.098,1.597,2.053,1.373,1.928,18,4.749,4.766,-40,26.5276543782,norm,0,64,64,64,382.783,382.792,382.801361047,382.802,382.803,382.806,up,0,1.0258212618,-10,001,008,1920_1080,Intel(R) Core(TM) i5-3570 CPU @ 3.40GHz,orientation_search,LEPPC096,Intel(R) HD Graphics 2500,2018_Oct_23_1409,testMonitor,
17.2,-15.3,5.2,15.9,36,-60,0.3,-5.9,13.4,18.0,8.133,8.488,7.643,7.767,8.445,7.542,7.87,4.955,-4.576,-8.39,1.358,-1.652,8.329,5.255,-4.405,-7.934,7.8,15.2,-8.231,3.8,10.1,-2.1,5.2,-10.3,36,7.4,0,5,prime,10,0,118,norm,36,-4.602,down,norm,4.71834765978,0.0,22.9,-1.9,10.8,2,21.7,6.6,2.1,10,6,8.355,4.695,1.643,-1.664,-5.036,-7.684,11.8,6,122.7,-7.943,-8.2,-60,-8.32,-8.487,-5.29,-5.143,-4.764,-4.75,5.068,7.838,2,-1.505,1.913,4.741,7.802,-8.424,-7.549,-1.484,1.764,3.3,15.9,11.9,,3.0,16.2,0.1,-9.3,24.7,-8.7,4,norm,1.911,1.277,-1.669,-1.49,-4.67,-4.784,-1.672,-1.26,-1.182,-1.1,1.813,-2.014,-8.4,16.8,-5.254,-7.902,1.631,-1.657,8.193,4.938,-5.007,-7.616,18,4.783,5.016,4.487,4.748,1.639,1.68,1.304,1.948,18,4.761,4.47,-40,26.5276543782,norm,0,65,65,65,384.897,384.907,384.920002777,384.92,384.922,384.924,down,1,0.654151209368,9.34584879063,001,008,1920_1080,Intel(R) Core(TM) i5-3570 CPU @ 3.40GHz,orientation_search,LEPPC096,Intel(R) HD Graphics 2500,2018_Oct_23_1409,testMonitor,
1.2,-15.3,-3.0,9.9,36,-60,-7.3,5.7,8.6,16.7,7.502,8.073,7.562,8.331,7.949,7.562,7.581,5.281,-4.787,-8.054,1.437,-2.082,8.474,4.341,-4.64,-7.956,-5.8,1.7,-8.137,9.4,15.2,18.4,11.6,-3.0,36,10.3,3,5,prime,10,0,86,norm,36,-4.777,down,norm,4.71834765978,16.8,-14.3,24.7,24.5,0,-0.3,8.8,2.5,10,6,8.064,4.604,2.031,-1.448,-4.509,-8.042,-2.1,6,90.7,-8.299,-7.719,-60,-7.614,-8.05,-5.278,-5.119,-4.819,-4.444,4.456,8.405,18,-1.194,1.742,4.57,8.082,-8.483,-8.456,-1.364,1.187,11.4,9.5,-9.4,2.9,8.6,16.6,20.4,12.4,-1.7,-13.1,5,norm,1.923,1.123,-1.239,-2.012,-4.901,-4.958,-1.635,-1.448,-2.019,-1.799,1.814,-1.389,18.6,,-5.28,-8.023,1.69,-1.362,7.553,4.547,-5.242,-8.013,18,4.954,4.471,5.165,5.223,1.533,1.873,1.26,1.784,18,4.925,4.688,-40,26.5276543782,norm,0,66,66,66,385.612,385.624,385.643894907,385.644,385.646,385.648,up,0,1.57700557519,-10,001,008,1920_1080,Intel(R) Core(TM) i5-3570 CPU @ 3.40GHz,orientation_search,LEPPC096,Intel(R) HD Graphics 2500,2018_Oct_23_1409,testMonitor,
21.7,23.5,24.5,27.8,36,80,21.4,26.0,28.7,19.6,8.337,7.58,8.165,7.992,8.139,7.781,8.055,4.98,-4.323,-7.8,1.555,-1.676,7.859,4.746,-4.579,-8.012,13.4,20.6,-7.767,19.4,19.9,25.2,19.6,29.9,36,18.9,2,5,probe,5,0,83,norm,36,-4.892,up,norm,23.3971871923,15.7,15.1,,15.1,3,22.3,18.4,17.5,10,6,8.103,4.527,1.628,-1.698,-4.375,-7.862,27.6,1,-59.6,-8.312,-8.206,-60,-7.976,-7.788,-4.762,-4.944,-4.885,-4.863,4.476,7.771,15,-1.587,1.517,4.71,8.006,-8.052,-7.575,-1.627,1.232,20.7,26.2,23.8,30.1,21.7,33.4,18.2,23.7,23.0,20.3,0,norm,2.006,1.863,-1.967,-2.028,-5.017,-5.086,-1.4,-1.631,-1.369,-1.514,1.317,-1.582,27.5,21.0,-4.564,-7.564,1.306,-1.405,8.09,4.458,-4.326,-7.78,19,5.077,4.307,4.888,4.834,1.465,1.791,1.715,1.809,19,4.769,5.182,-60,4.71834765978,norm,0,67,67,67,388.293,388.302,388.320765555,388.321,388.323,388.325,up,1,0.720847054989,9.27915294501,001,008,1920_1080,Intel(R) Core(TM) i5-3570 CPU @ 3.40GHz,orientation_search,LEPPC096,Intel(R) HD Graphics 2500,2018_Oct_23_1409,testMonitor,
27.4,30.7,24.3,38.4,36,20,51.4,36.6,46.1,53.1,8.355,8.453,7.849,7.785,8.025,8.129,8.342,5.264,-4.367,-8.464,1.764,-1.904,7.993,5.295,-4.549,-7.756,34.5,41.1,-8.385,50.2,48.8,45.0,51.4,36.4,36,38.6,0,5,prime,10,0,69,norm,36,-4.34,down,norm,40.4381147037,32.3,55.6,43.9,41.9,0,24.2,28.8,38.3,10,6,7.853,4.344,1.54,-1.155,-4.841,-8.375,42.9,6,109.4,-8.053,-7.978,20,-8.097,-8.187,-4.937,-4.368,-4.618,-4.358,4.73,7.926,0,-1.83,2.071,4.603,7.985,-7.923,-8.127,-1.657,1.191,38.9,28.9,36.9,27.1,20.4,,46.8,41.1,54.3,26.7,0,norm,1.392,1.393,-1.677,-1.343,-4.787,-4.636,-1.442,-1.444,-1.693,-1.503,1.43,-2.045,43.8,54.8,-4.66,-7.639,1.308,-1.114,8.453,4.805,-4.306,-8.343,20,4.887,4.598,4.893,4.711,1.111,1.986,1.946,1.741,20,4.848,5.229,80,4.71834765978,norm,0,68,68,68,389.086,389.095,389.102978668,389.103,389.105,389.107,down,1,0.620774610688,9.37922538931,001,008,1920_1080,Intel(R) Core(TM) i5-3570 CPU @ 3.40GHz,orientation_search,LEPPC096,Intel(R) HD Graphics 2500,2018_Oct_23_1409,testMonitor,
35.3,48.9,35.8,24.6,36,20,34.5,39.8,39.8,51.7,7.678,8.117,7.848,7.538,7.866,8.154,7.562,4.5,-5.008,-8.399,1.138,-2.099,7.89,4.689,-4.468,-8.12,,23.8,-8.445,24.7,48.5,40.5,38.1,26.1,36,39.4,5,5,prime,10,0,61,norm,36,-4.785,up,norm,40.4381147037,37.7,26.4,60.4,36.1,5,47.7,39.9,21.4,10,6,8.355,4.523,1.44,-2.039,-4.99,-7.856,41.1,6,101.4,-8.297,-7.75,20,-8.279,-8.358,-4.81,-4.632,-5.164,-4.533,5.238,8.44,35,-1.361,1.252,4.722,7.77,-7.654,-7.718,-1.64,1.971,44.7,34.7,40.8,39.4,35.7,28.6,42.7,27.3,33.5,36.9,1,norm,1.942,1.625,-2.047,-1.641,-5.29,-4.567,-1.668,-1.134,-1.734,-1.897,1.788,-1.8,38.4,39.8,-5.16,-7.941,1.204,-1.118,8.336,4.58,-4.603,-7.794,20,4.606,4.512,5.258,4.395,1.765,1.856,1.555,1.851,20,4.961,5.179,80,4.71834765978,norm,0,69,69,69,389.761,389.774,389.793385533,389.794,389.795,389.798,up,1,0.593579623834,9.40642037617,001,008,1920_1080,Intel(R) Core(TM) i5-3570 CPU @ 3.40GHz,orientation_search,LEPPC096,Intel(R) HD Graphics 2500,2018_Oct_23_1409,testMonitor,
29.8,59.1,30.2,,36,20,37.1,20.6,44.1,50.5,8.416,7.979,7.57,7.896,7.52,8.058,8.038,4.411,-5.072,-7.578,1.864,-1.458,8.399,4.777,-4.344,-8.396,42.5,51.1,-8.158,46.7,43.1,49.6,39.5,38.3,36,34.2,3,5,prime,10,0,89,norm,36,-4.845,up,norm,40.4381147037,37.9,32.6,20.4,53.4,3,41.5,38.5,46.8,10,6,7.763,5.226,1.905,-2.033,-4.58,-7.596,47.8,6,129.4,-7.774,-8.283,20,-8.464,-7.632,-4.951,-4.787,-4.639,-4.928,4.582,7.959,21,-1.77,2.032,5.157,7.542,-7.804,-8.353,-1.321,1.5,29.5,47.5,37.8,55.2,29.6,52.2,60.4,54.1,38.0,45.0,2,norm,1.662,1.537,-1.268,-2.098,-5.161,-4.9,-1.446,-1.398,-2.08,-1.823,1.687,-1.606,47.5,51.6,-4.593,-8.364,1.681,-2.002,8.219,5.153,-5.231,-8.037,20,4.425,4.875,4.585,5.231,1.989,1.466,2.032,1.133,20,5.187,4.474,80,4.71834765978,norm,0,70,70,70,390.411,390.421,390.427520383,390.428,390.429,390.432,up,1,0.624270048205,9.37572995179,001,008,1920_1080,Intel(R) Core(TM) i5-3570 CPU @ 3.40GHz,orientation_search,LEPPC096,Intel(R) HD Graphics 2500,2018_Oct_23_1409,testMonitor,
44.1,26.8,45.9,41.3,36,20,37.4,32.7,50.2,27.5,8.452,8.077,7.722,7.522,7.795,7.5,8.454,5.239,-4.356,-7.545,1.119,-1.469,7.894,4.645,-5.169,-8.091,43.7,51.0,-8.305,35.2,39.1,37.6,40.8,,36,36.4,4,5,prime,10,0,102,norm,36,-4.326,down,norm,40.4381147037,26.0,33.9,43.4,30.0,2,23.5,36.5,43.7,10,6,7.973,5.194,2.016,-1.456,-4.982,-8.361,41.0,6,142.4,-7.884,-8.456,20,-8.4,-8.176,-4.976,-5.192,-4.312,-4.721,4.306,8.401,26,-1.838,1.715,5.212,8.114,-7.511,-7.656,-1.642,1.572,24.3,37.1,56.5,48.8,57.4,50.7,40.8,51.8,46.7,20.4,3,norm,2.099,1.964,-1.921,-1.418,-4.74,-4.574,-1.961,-2.093,-1.448,-1.899,1.678,-1.505,40.2,60.4,-4.455,-8.108,1.6,-1.536,8.293,4.582,-4.777,-7.826,20,4.817,4.869,4.777,4.866,1.2,1.882,1.653,1.158,20,4.513,4.648,80,4.71834765978,norm,0,71,71,71,391.098,391.107,391.113991711,391.114,391.116,391.118,down,1,0.625078405863,9.37492159414,001,008,1920_1080,Intel(R) Core(TM) i5-3570 CPU @ 3.40GHz,orientation_search,LEPPC096,Intel(R) HD Graphics 2500,2018_Oct_23_1409,testMonitor,
59.5,32.9,28.2,20.4,36,20,33.9,34.3,39.7,38.7,7.567,7.56,7.84,8.315,7.757,7.979,8.258,4.34,-4.344,-7.888,1.579,-1.815,7.617,4.624,-4.781,-7.714,44.7,50.9,-7.851,48.8,42.7,27.5,38.0,39.6,36,28.0,0,5,prime,10,0,65,norm,36,-4.885,up,norm,40.4381147037,44.1,36.2,40.0,37.4,5,43.2,22.8,29.9,10,6,7.638,5.074,1.248,-1.892,-5.147,-8.282,54.0,6,105.4,-7.893,-8.127,20,-8.399,-7.747,-4.617,-4.832,-4.844,-5.187,4.716,8.444,5,-1.359,1.952,4.595,8.436,-7.733,-7.99,-1.505,1.611,60.4,35.3,38.1,49.1,52.8,49.5,33.1,51.6,,27.8,4,norm,1.242,1.393,-1.165,-1.68,-4.666,-5.253,-1.726,-1.382,-1.21,-1.309,1.801,-1.115,46.7,44.9,-4.911,-7.99,1.233,-2.086,7.981,5.169,-5.196,-7.858,20,4.477,5.219,4.454,5.094,1.974,1.483,1.963,1.695,20,4.302,4.579,80,4.71834765978,norm,0,72,72,72,391.784,391.794,391.802180573,391.802,391.804,391.807,up,1,0.638001865442,9.36199813456,001,008,1920_1080,Intel(R) Core(TM) i5-3570 CPU @ 3.40GHz,orientation_search,LEPPC096,Intel(R) HD Graphics 2500,2018_Oct_23_1409,testMonitor,
27.8,49.8,40.3,60.4,36,20,44.5,41.9,49.2,30.8,7.935,8.224,7.58,7.711,7.57,8.167,8.457,5.196,-5.264,-8.209,1.99,-1.694,7.542,4.324,-5.273,-7.959,29.5,44.5,-8.089,57.5,29.2,49.5,,45.5,36,24.7,5,5,prime,10,0,92,norm,36,-4.927,down,norm,40.4381147037,43.1,40.1,48.0,29.4,2,49.2,34.8,47.2,10,6,8.179,4.323,2.056,-1.246,-4.951,-7.821,38.3,6,132.4,-7.752,-8.405,20,-8.294,-7.72,-4.313,-4.307,-4.592,-4.726,4.82,7.641,32,-1.906,1.702,5.213,7.727,-7.728,-8.336,-1.772,1.381,39.8,34.7,35.5,49.9,43.7,31.4,22.3,20.4,50.9,34.7,5,norm,1.445,1.478,-1.33,-1.911,-5.083,-4.657,-1.367,-1.31,-1.237,-1.567,1.922,-1.956,53.0,47.1,-4.909,-8.085,1.269,-1.192,7.683,4.479,-4.753,-7.703,20,4.545,5.198,4.981,4.87,1.112,1.593,1.128,1.439,20,4.48,5.192,80,4.71834765978,norm,0,73,73,73,392.486,392.496,392.502460691,392.503,392.504,392.507,down,1,0.63745974059,9.36254025941,001,008,1920_1080,Intel(R) Core(TM) i5-3570 CPU @ 3.40GHz,orientation_search,LEPPC096,Intel(R) HD Graphics 2500,2018_Oct_23_1409,testMonitor,
178.1,174.9,175.9,179.6,36,-20,181.0,180.7,185.6,182.6,7.696,8.202,7.541,7.526,7.799,8.225,7.591,5.101,-4.334,-8.354,1.895,-1.542,8.277,5.09,-4.656,-8.479,173.8,171.3,-7.81,180.9,178.3,186.9,178.5,,36,180.7,4,5,probe,5,0,113,norm,36,-4.917,down,norm,177.464051646,174.9,179.1,179.5,183.0,2,175.6,180.0,187.2,10,6,7.987,5.059,2.051,-1.518,-5.031,-7.554,179.9,2,64.5,-7.585,-7.576,20,-7.927,-7.926,-4.561,-4.96,-4.854,-4.869,4.305,8.367,26,-1.294,2.008,4.441,8.097,-7.564,-8.158,-1.919,1.254,175.6,178.5,187.5,174.1,184.1,167.5,169.2,172.9,181.6,177.3,0,norm,1.531,1.971,-1.371,-1.239,-5.29,-4.614,-1.343,-1.114,-1.562,-1.24,2.06,-1.417,177.9,180.2,-5.11,-7.546,1.158,-1.958,8.137,4.821,-5.3,-7.886,21,4.989,5.185,4.412,5.161,1.426,2.057,1.644,1.709,21,4.665,5.22,20,40.4381147037,norm,0,74,74,74,393.177,393.19,393.209676144,393.21,393.212,393.214,up,0,0.632222017633,-10,001,008,1920_1080,Intel(R) Core(TM) i5-3570 CPU @ 3.40GHz,orientation_search,LEPPC096,Intel(R) HD Graphics 2500,2018_Oct_23_1409,testMonitor,
159.1,164.3,176.0,160.7,36,-20,172.6,167.4,169.1,174.6,7.95,7.825,7.926,7.7,7.661,7.893,7.979,4.872,-4.375,-8.377,1.433,-1.801,7.605,4.771,-4.492,-8.449,166.0,174.0,-7.976,163.3,159.8,169.0,168.0,162.2,36,158.5,2,5,probe,5,0,104,norm,36,-4.431,up,norm,168.464051646,170.0,173.4,,175.3,3,163.8,169.7,170.4,10,6,7.876,4.662,1.349,-1.869,-4.758,-8.229,171.6,2,64.5,-8.289,-7.52,20,-8.005,-8.36,-4.994,-5.038,-4.564,-5.146,4.829,7.943,15,-1.943,1.217,4.569,8.149,-8.226,-8.307,-1.977,1.814,166.1,173.9,167.3,170.2,167.7,167.1,174.4,171.0,165.4,178.5,1,norm,2.08,1.76,-1.397,-1.474,-4.692,-4.533,-1.783,-1.271,-1.787,-1.933,1.189,-1.79,163.8,165.0,-4.64,-8.44,1.181,-2.032,8.392,4.398,-4.467,-7.711,21,4.574,4.331,5.137,4.91,1.685,1.881,1.665,1.516,21,4.765,4.701,20,40.4381147037,norm,0,75,75,75,394.912,394.922,394.934868951,394.935,394.937,394.939,up,1,0.655322694083,9.34467730592,001,008,1920_1080,Intel(R) Core(TM) i5-3570 CPU @ 3.40GHz,orientation_search,LEPPC096,Intel(R) HD Graphics 2500,2018_Oct_23_1409,testMonitor,
187.5,187.1,188.7,184.5,36,10,176.1,195.1,185.2,182.8,7.766,8.397,8.111,8.268,7.999,8.373,8.194,4.742,-4.702,-7.595,1.812,-1.711,7.71,4.652,-5.097,-7.888,184.8,175.8,-8.266,178.3,191.0,,163.6,173.6,36,176.7,5,5,prime,10,0,107,norm,36,-4.917,up,norm,183.574032106,196.8,187.2,173.4,190.3,3,203.6,196.3,183.8,10,5,8.244,4.359,1.147,-1.533,-4.808,-8.393,183.2,5,290.6,-8.113,-7.522,10,-8.45,-8.39,-4.771,-5.181,-5.129,-4.548,5.275,7.934,33,-1.359,2.033,4.92,7.789,-7.849,-8.324,-1.653,1.85,182.8,174.2,201.1,191.2,185.6,187.4,172.2,168.7,195.8,184.8,0,norm,1.502,1.277,-1.603,-1.26,-5.083,-4.566,-1.296,-1.442,-1.795,-1.546,1.37,-1.551,176.5,187.0,-4.575,-8.173,1.508,-2.026,8.127,5.087,-5.009,-7.525,22,4.857,4.827,5.026,5.167,1.804,1.612,1.894,2.09,22,4.732,5.186,-20,40.4381147037,norm,0,76,76,76,395.638,395.66,395.670178002,395.67,395.672,395.675,up,1,1.21417040711,8.78582959289,001,008,1920_1080,Intel(R) Core(TM) i5-3570 CPU @ 3.40GHz,orientation_search,LEPPC096,Intel(R) HD Graphics 2500,2018_Oct_23_1409,testMonitor,
175.1,196.4,180.3,179.9,36,10,188.0,163.6,177.8,166.8,7.548,7.848,7.676,7.545,8.01,7.66,8.166,5.119,-4.831,-7.823,1.609,-1.162,8.388,4.436,-5.031,-7.857,169.5,184.9,-8.155,172.9,185.0,195.6,173.1,176.7,36,172.0,0,5,prime,10,0,70,norm,36,-4.786,up,norm,183.574032106,198.7,198.8,182.8,194.8,5,189.2,203.6,174.0,10,5,7.547,4.369,1.916,-1.966,-4.71,-7.684,179.2,5,253.6,-7.943,-8.086,10,-8.016,-8.08,-4.364,-4.802,-4.921,-5.112,4.357,7.954,5,-1.56,1.115,5.108,8.447,-8.317,-7.638,-1.793,1.485,181.1,172.0,195.4,176.6,171.7,177.9,170.5,176.1,,170.7,1,norm,1.581,2.088,-1.74,-2.08,-4.353,-4.844,-1.447,-1.682,-1.648,-1.755,1.712,-1.967,183.5,167.8,-4.986,-8.076,1.481,-1.884,8.471,4.48,-5.235,-7.979,22,4.828,4.96,5.131,5.104,1.771,1.511,2.016,1.435,22,5.224,4.601,-20,40.4381147037,norm,0,77,77,77,396.922,396.935,396.954562934,396.955,396.957,396.959,up,1,2.77698927523,7.22301072477,001,008,1920_1080,Intel(R) Core(TM) i5-3570 CPU @ 3.40GHz,orientation_search,LEPPC096,Intel(R) HD Graphics 2500,2018_Oct_23_1409,testMonitor,
203.6,170.6,202.1,168.9,36,10,185.0,173.4,181.9,185.1,7.874,7.712,8.307,8.032,7.954,7.612,7.525,5.176,-5.032,-7.631,1.952,-1.777,7.625,4.841,-5.172,-8.092,190.1,196.9,-8.269,199.6,176.4,170.2,176.8,184.7,36,196.3,0,5,prime,10,0,66,norm,36,-4.894,up,norm,183.574032106,193.5,188.3,180.1,192.4,5,177.1,187.2,186.7,10,5,8.23,5.132,1.361,-1.871,-5.053,-7.606,163.6,5,249.6,-7.754,-8.498,10,-7.981,-8.345,-4.626,-4.489,-4.53,-4.768,4.837,8.219,5,-1.471,1.2,4.563,7.947,-8.278,-8.198,-1.314,1.424,187.3,188.9,183.6,184.0,172.5,180.1,171.3,175.9,,194.1,2,norm,1.776,2.084,-1.986,-1.466,-4.566,-4.499,-2.038,-1.107,-1.361,-1.896,1.46,-1.807,179.5,182.8,-5.133,-7.981,1.567,-1.869,8.439,5.134,-4.63,-8.08,22,4.77,4.531,4.516,5.242,2.086,1.461,1.856,1.236,22,4.913,5.119,-20,40.4381147037,norm,0,78,78,78,399.768,399.778,399.786168572,399.786,399.788,399.791,up,1,3.31520424765,6.68479575235,001,008,1920_1080,Intel(R) Core(TM) i5-3570 CPU @ 3.40GHz,orientation_search,LEPPC096,Intel(R) HD Graphics 2500,2018_Oct_23_1409,testMonitor,
187.2,192.8,185.7,188.4,36,10,174.6,188.2,178.5,184.3,7.785,7.805,8.015,7.785,7.783,8.008,7.745,5.298,-4.814,-7.773,1.834,-1.265,8.086,4.486,-5.173,-8.34,199.0,176.6,-7.825,187.1,185.3,193.3,179.5,191.8,36,170.2,1,5,prime,10,0,65,norm,36,-5.198,down,norm,183.574032106,183.0,192.9,188.0,169.6,0,196.6,183.3,203.6,10,5,7.948,5.102,1.144,-1.808,-5.155,-7.587,193.4,5,248.6,-8.131,-8.49,10,-7.567,-8.41,-4.353,-4.785,-4.39,-4.441,4.535,8.211,6,-1.633,1.256,4.731,8.02,-8.478,-8.291,-2.067,1.263,196.9,194.2,163.6,194.4,182.2,168.4,195.3,,175.1,183.8,3,norm,1.897,2.034,-2.025,-1.738,-4.688,-4.464,-1.621,-1.92,-1.881,-2.092,1.869,-1.128,181.0,178.5,-4.788,-7.854,1.836,-1.307,8.006,4.76,-4.656,-8.472,22,4.821,4.913,5.179,4.588,1.253,1.261,1.996,2.012,22,5.256,5.088,-20,40.4381147037,norm,0,79,79,79,403.125,403.135,403.141144439,403.141,403.143,403.146,down,1,1.79426784469,8.20573215531,001,008,1920_1080,Intel(R) Core(TM) i5-3570 CPU @ 3.40GHz,orientation_search,LEPPC096,Intel(R) HD Graphics 2500,2018_Oct_23_1409,testMonitor,
181.5,187.3,165.7,194.8,36,10,185.9,174.2,193.6,172.4,8.481,8.052,8.493,7.651,8.029,8.22,8.042,4.882,-4.933,-7.925,1.926,-1.679,8.327,4.561,-4.835,-7.671,180.0,164.1,-8.406,203.0,173.8,188.7,187.5,173.5,36,181.2,2,5,prime,10,0,100,norm,36,-4.899,up,norm,183.574032106,172.9,,163.6,186.8,4,181.7,203.6,186.4,10,5,7.816,4.799,1.277,-1.266,-4.829,-7.646,178.8,5,283.6,-8.496,-7.514,10,-7.794,-7.948,-4.946,-4.593,-4.767,-4.566,5.232,8.409,16,-1.969,1.463,4.827,7.823,-7.963,-8.065,-1.885,1.693,179.4,177.4,179.4,167.7,191.0,189.9,182.4,176.5,183.1,189.0,4,norm,1.818,1.214,-1.13,-1.127,-4.439,-4.453,-1.87,-1.89,-1.65,-1.446,1.829,-1.366,201.2,175.3,-4.678,-7.582,1.636,-1.445,8.016,5.151,-4.94,-7.581,22,4.45,5.273,4.339,4.762,1.812,2.054,2.014,1.46,22,5.209,4.696,-20,40.4381147037,norm,0,80,80,80,404.982,404.998,405.014228664,405.014,405.016,405.019,up,1,1.34546634509,8.65453365491,001,008,1920_1080,Intel(R) Core(TM) i5-3570 CPU @ 3.40GHz,orientation_search,LEPPC096,Intel(R) HD Graphics 2500,2018_Oct_23_1409,testMonitor,
287.2,286.0,298.9,300.0,36,-80,292.0,280.0,287.0,293.0,8.467,7.908,8.31,7.72,8.416,7.509,7.783,4.963,-5.105,-8.331,1.966,-1.416,8.09,5.248,-4.755,-8.469,294.9,291.5,-7.524,292.4,285.5,283.2,292.8,286.4,36,295.7,2,5,probe,5,0,100,norm,36,-4.519,up,norm,289.995589156,,294.4,290.2,294.0,5,284.1,285.0,281.7,10,5,8.397,5.063,1.941,-1.976,-5.258,-7.734,294.0,1,190.0,-8.207,-7.69,10,-8.358,-8.239,-5.069,-5.123,-5.04,-4.632,5.219,7.877,17,-1.402,1.573,4.71,8.023,-7.982,-7.746,-1.45,1.293,290.8,285.8,294.5,281.4,296.9,295.1,294.3,290.5,281.5,289.7,0,norm,1.64,1.718,-1.512,-1.429,-4.426,-4.352,-1.494,-1.25,-1.195,-1.493,1.917,-1.918,291.9,284.4,-4.489,-8.027,1.307,-1.874,8.099,4.589,-4.874,-8.344,23,5.066,5.266,5.114,5.159,1.506,1.53,1.22,1.915,23,5.065,4.962,10,183.574032106,norm,0,81,81,81,406.397,406.407,406.416135761,406.416,406.418,406.42,up,1,1.40201757378,8.59798242622,001,008,1920_1080,Intel(R) Core(TM) i5-3570 CPU @ 3.40GHz,orientation_search,LEPPC096,Intel(R) HD Graphics 2500,2018_Oct_23_1409,testMonitor,
261.3,278.2,272.0,272.4,36,-40,,249.9,264.5,257.8,7.7,8.13,7.785,8.098,7.665,8.347,8.238,5.158,-5.271,-8.292,1.916,-1.638,8.444,4.888,-4.715,-7.822,274.0,276.5,-8.333,266.0,266.3,272.9,271.9,273.8,36,281.8,4,5,prime,10,0,92,norm,36,-4.879,down,norm,269.889059065,262.9,267.9,259.4,254.5,0,273.7,286.6,281.3,10,5,7.67,5.217,1.124,-1.758,-4.308,-8.389,277.9,5,361.9,-8.256,-8.476,-40,-7.556,-8.034,-4.64,-5.068,-5.105,-5.062,4.303,8.253,24,-1.108,1.489,4.401,7.667,-8.123,-7.539,-1.106,1.959,269.3,256.5,289.9,269.9,280.7,269.7,268.3,274.0,270.5,284.6,0,norm,2.048,1.596,-1.629,-1.165,-5.268,-4.78,-1.108,-1.858,-1.695,-1.724,1.63,-1.983,260.4,268.6,-4.922,-8.474,1.784,-1.419,8.392,5.164,-5.101,-7.736,24,4.508,4.543,4.321,4.523,1.874,1.242,1.816,1.178,24,5.057,4.756,-80,183.574032106,norm,0,82,82,82,407.855,407.864,407.882524925,407.883,407.885,407.887,up,0,1.82301223403,-10,001,008,1920_1080,Intel(R) Core(TM) i5-3570 CPU @ 3.40GHz,orientation_search,LEPPC096,Intel(R) HD Graphics 2500,2018_Oct_23_1409,testMonitor,
289.9,273.9,252.9,270.7,36,-40,,284.0,279.5,249.9,8.396,7.854,8.405,7.773,7.504,8.451,8.123,4.883,-4.809,-8.335,1.498,-1.489,7.675,4.349,-4.86,-8.271,279.8,255.6,-7.501,271.9,279.3,260.3,268.4,264.6,36,255.4,4,5,prime,10,0,64,norm,36,-4.99,down,norm,269.889059065,270.9,274.2,272.6,263.7,0,268.6,283.8,253.2,10,5,7.875,5.016,1.129,-2.095,-4.665,-8.489,252.7,5,333.9,-7.706,-8.481,-40,-7.993,-7.847,-4.917,-5.057,-4.503,-5.0,4.656,8.25,24,-1.317,2.078,5.297,8.47,-7.812,-8.059,-2.032,1.329,271.4,268.5,272.7,271.7,278.2,275.1,264.4,264.3,266.3,261.9,1,norm,1.334,1.344,-1.367,-1.289,-4.627,-5.241,-1.908,-1.255,-1.419,-1.498,1.219,-1.218,265.0,262.2,-5.133,-8.09,1.62,-1.569,7.51,5.038,-4.986,-7.584,24,5.002,5.044,4.696,4.997,2.063,1.212,1.167,1.288,24,4.464,4.571,-80,183.574032106,norm,0,83,83,83,410.776,410.786,410.799645928,410.8,410.802,410.804,down,1,1.33820652059,8.66179347941,001,008,1920_1080,Intel(R) Core(TM) i5-3570 CPU @ 3.40GHz,orientation_search,LEPPC096,Intel(R) HD Graphics 2500,2018_Oct_23_1409,testMonitor,
253.6,249.9,289.9,268.0,36,-40,278.8,257.0,251.5,271.7,7.619,7.951,8.105,8.228,7.677,8.111,7.938,4.558,-4.54,-8.496,1.49,-2.092,8.16,4.447,-4.45,-7.948,273.1,257.1,-8.457,268.3,255.5,260.5,279.0,284.8,36,269.9,2,5,prime,10,0,105,norm,36,-5.121,down,norm,269.889059065,276.1,265.2,266.6,275.7,1,262.0,,272.5,10,5,7.756,5.228,1.179,-2.013,-4.674,-7.59,275.2,5,374.9,-8.163,-8.403,-40,-8.327,-8.41,-4.52,-5.114,-5.162,-4.501,4.338,8.246,13,-1.406,1.966,4.883,8.467,-7.559,-8.104,-1.777,1.445,253.9,265.3,259.6,266.7,274.1,268.0,262.6,280.5,267.0,264.9,2,norm,1.429,1.714,-1.567,-2.02,-4.446,-4.903,-2.092,-1.172,-1.76,-1.14,1.758,-1.425,268.3,269.4,-5.006,-8.209,1.944,-1.472,7.712,4.547,-5.1,-7.563,24,4.954,4.326,4.683,5.117,1.141,1.527,1.421,1.477,24,5.184,5.22,-80,183.574032106,norm,0,84,84,84,412.175,412.186,412.203550374,412.204,412.206,412.209,up,0,0.873100827373,-10,001,008,1920_1080,Intel(R) Core(TM) i5-3570 CPU @ 3.40GHz,orientation_search,LEPPC096,Intel(R) HD Graphics 2500,2018_Oct_23_1409,testMonitor,
282.5,277.2,284.7,261.2,36,-40,285.6,269.8,266.0,249.9,8.125,8.047,7.903,8.47,7.55,8.12,8.136,5.064,-4.329,-7.649,1.991,-1.35,7.544,4.868,-4.451,-7.92,262.0,280.2,-8.219,262.2,254.9,274.5,250.4,269.4,36,268.2,1,5,prime,10,0,70,norm,36,-5.096,down,norm,269.889059065,289.9,268.9,270.8,276.5,0,276.7,266.7,252.9,10,5,8.22,5.139,1.235,-1.374,-4.365,-8.295,271.9,5,339.9,-7.964,-7.556,-40,-8.122,-7.761,-5.024,-4.442,-4.427,-5.166,4.757,8.094,6,-1.117,1.605,4.564,8.289,-8.18,-8.282,-2.018,2.092,255.8,287.7,289.0,272.9,277.2,273.6,279.6,,269.0,265.1,3,norm,1.967,1.747,-1.259,-1.102,-4.775,-4.361,-1.309,-1.852,-1.964,-1.827,1.395,-1.845,260.2,278.5,-4.753,-7.905,1.947,-1.271,8.129,4.653,-4.391,-8.351,24,5.263,5.097,4.955,5.214,2.093,1.956,1.162,1.491,24,4.506,4.588,-80,183.574032106,norm,0,85,85,85,414.158,414.167,414.184736288,414.185,414.187,414.189,up,0,0.600523108222,-10,001,008,1920_1080,Intel(R) Core(TM) i5-3570 CPU @ 3.40GHz,orientation_search,LEPPC096,Intel(R) HD Graphics 2500,2018_Oct_23_1409,testMonitor,
257.6,260.1,265.9,249.9,36,-40,264.8,258.3,272.0,267.7,7.76,7.734,8.094,7.919,7.642,7.542,8.424,4.822,-5.005,-8.367,1.236,-1.87,8.238,5.273,-4.724,-7.558,253.2,267.5,-7.688,251.6,286.6,276.0,283.9,282.2,36,264.6,1,5,prime,10,0,94,norm,36,-5.032,up,norm,269.889059065,289.9,269.8,270.8,280.4,4,260.6,286.2,269.1,10,5,8.473,4.864,1.842,-1.466,-5.004,-8.169,,5,363.9,-7.596,-7.563,-40,-7.717,-7.83,-4.961,-4.815,-4.854,-4.888,5.168,8.132,10,-1.237,1.654,4.712,8.491,-7.797,-7.857,-2.003,1.776,266.2,264.5,262.9,268.8,268.1,254.9,268.1,277.6,272.6,284.6,4,norm,1.515,1.893,-1.789,-1.291,-4.534,-5.229,-1.808,-1.697,-1.525,-1.553,1.756,-1.372,278.2,266.4,-4.55,-7.942,1.873,-1.391,7.747,4.308,-4.661,-7.735,24,4.5,4.786,5.157,4.756,1.435,1.42,1.758,1.872,24,5.233,5.06,-80,183.574032106,norm,0,86,86,86,415.843,415.853,415.869479518,415.87,415.871,415.874,down,0,0.770931724264,-10,001,008,1920_1080,Intel(R) Core(TM) i5-3570 CPU @ 3.40GHz,orientation_search,LEPPC096,Intel(R) HD Graphics 2500,2018_Oct_23_1409,testMonitor,
341.2,339.9,332.8,338.8,36,10,338.1,345.2,342.9,348.0,8.474,7.665,7.585,7.849,7.514,7.691,7.946,4.838,-4.842,-8.433,1.856,-1.424,8.435,4.874,-4.387,-8.144,341.8,339.6,-8.365,338.8,344.6,337.3,334.7,334.7,36,336.6,0,5,probe,5,0,114,norm,36,-5.071,up,norm,340.739331495,339.6,341.8,338.7,339.5,5,335.2,337.2,346.6,10,5,7.518,4.481,1.182,-1.237,-5.294,-8.187,335.8,2,226.7,-7.696,-7.844,-40,-8.253,-8.009,-5.115,-4.635,-4.942,-5.289,5.013,7.812,5,-1.244,1.883,5.207,7.676,-7.758,-7.986,-1.344,1.545,338.6,339.1,340.5,344.2,330.7,350.7,337.0,340.2,,339.0,0,norm,1.855,1.368,-1.137,-2.003,-5.191,-4.314,-1.883,-1.208,-1.587,-1.488,1.307,-1.605,338.8,347.9,-4.792,-7.629,1.76,-1.959,7.506,4.411,-4.546,-8.407,25,4.394,4.375,4.851,5.027,1.374,1.397,1.196,1.527,25,5.047,5.125,-40,269.889059065,norm,0,87,87,87,417.711,417.721,417.726758208,417.727,417.729,417.731,up,1,0.146219463973,9.85378053603,001,008,1920_1080,Intel(R) Core(TM) i5-3570 CPU @ 3.40GHz,orientation_search,LEPPC096,Intel(R) HD Graphics 2500,2018_Oct_23_1409,testMonitor,
320.4,321.5,312.6,323.9,36,10,315.5,326.9,317.3,328.7,8.379,8.272,7.572,7.793,8.292,7.905,7.823,4.772,-4.737,-8.398,1.232,-1.755,7.772,5.131,-5.138,-7.613,314.6,308.7,-8.307,325.5,328.3,324.8,324.5,318.2,36,318.3,3,5,probe,5,0,92,norm,36,-5.285,down,norm,318.739331495,319.5,316.3,327.0,320.3,1,322.1,319.1,320.7,10,5,8.199,4.985,1.903,-1.753,-4.549,-8.249,314.8,2,226.7,-8.136,-8.074,-40,-8.455,-7.858,-5.006,-4.461,-4.403,-4.61,5.21,7.753,19,-1.711,1.475,4.32,7.891,-7.563,-8.491,-1.106,1.639,316.1,311.6,321.0,310.7,315.0,318.0,323.9,319.4,319.8,322.3,1,norm,1.209,1.386,-1.302,-1.102,-5.083,-4.456,-2.047,-1.154,-1.168,-2.085,1.611,-1.926,,323.2,-5.032,-7.716,1.887,-1.613,8.357,5.03,-5.27,-8.407,25,4.494,4.936,4.759,4.75,1.365,1.835,1.208,1.536,25,5.123,4.589,-40,269.889059065,norm,0,88,88,88,417.898,417.907,417.914116074,417.914,417.916,417.919,down,1,0.774786062924,9.22521393708,001,008,1920_1080,Intel(R) Core(TM) i5-3570 CPU @ 3.40GHz,orientation_search,LEPPC096,Intel(R) HD Graphics 2500,2018_Oct_23_1409,testMonitor,
120.0,111.7,142.3,134.3,36,10,135.6,126.4,122.9,109.0,8.42,7.626,7.954,7.664,7.83,7.527,8.211,4.328,-5.272,-8.08,1.497,-1.136,8.431,5.228,-5.009,-8.266,122.9,135.0,-7.909,123.8,117.3,127.5,126.4,112.7,36,109.0,2,5,prime,10,0,83,norm,36,-5.243,up,norm,122.269389688,122.6,135.0,,125.8,3,135.0,122.7,134.5,10,6,7.933,4.957,1.424,-2.082,-4.888,-8.392,103.7,6,205.3,-8.457,-8.263,10,-7.78,-7.938,-4.999,-4.394,-5.132,-4.803,5.254,8.144,15,-1.669,2.089,4.55,8.24,-7.512,-8.45,-1.942,2.096,136.0,130.4,132.9,133.9,121.7,134.4,102.3,115.6,121.7,140.6,0,norm,1.262,2.035,-1.987,-1.774,-4.98,-5.045,-1.31,-1.935,-1.735,-2.069,1.367,-1.344,124.7,138.6,-4.564,-8.18,1.959,-1.297,8.347,5.14,-5.251,-7.762,26,4.365,5.282,4.681,5.279,1.318,2.02,1.391,2.027,26,4.594,4.983,10,269.889059065,norm,0,89,89,89,418.71,418.72,418.739781882,418.74,418.742,418.744,up,1,0.754246594362,9.24575340564,001,008,1920_1080,Intel(R) Core(TM) i5-3570 CPU @ 3.40GHz,orientation_search,LEPPC096,Intel(R) HD Graphics 2500,2018_Oct_23_1409,testMonitor,
128.0,118.8,129.7,118.4,36,10,115.6,108.9,120.6,133.5,8.446,8.353,7.96,7.886,7.747,8.332,8.072,4.973,-4.762,-8.247,1.96,-1.89,8.006,4.498,-5.216,-7.912,121.6,116.2,-8.259,114.8,116.1,123.7,134.1,119.3,36,123.9,1,5,prime,10,0,70,norm,36,-4.769,down,norm,122.269389688,112.7,115.5,111.5,132.1,0,124.0,122.0,136.8,10,6,7.551,4.41,1.392,-1.237,-4.774,-8.206,102.3,6,192.3,-8.005,-8.259,10,-7.725,-7.528,-4.314,-4.876,-4.571,-4.42,5.279,8.231,6,-1.978,1.208,4.463,8.09,-8.443,-7.602,-1.843,1.344,125.1,142.3,123.6,130.5,122.9,124.7,107.6,,127.2,121.2,1,norm,1.217,1.543,-1.57,-1.238,-4.571,-4.759,-1.456,-1.378,-1.715,-1.411,1.778,-1.576,107.0,115.2,-4.673,-8.133,1.323,-2.054,8.425,4.593,-4.443,-8.303,26,4.779,4.888,4.893,4.54,1.425,1.741,1.129,1.226,26,5.03,4.603,10,269.889059065,norm,0,90,90,90,419.536,419.545,419.551910568,419.552,419.554,419.557,down,1,0.705144752768,9.29485524723,001,008,1920_1080,Intel(R) Core(TM) i5-3570 CPU @ 3.40GHz,orientation_search,LEPPC096,Intel(R) HD Graphics 2500,2018_Oct_23_1409,testMonitor,
129.5,118.1,122.9,139.3,36,10,124.0,119.1,133.2,135.7,7.886,7.994,7.772,7.84,8.437,7.556,7.788,5.158,-4.54,-8.436,1.197,-1.14,8.461,4.37,-4.459,-8.203,111.6,116.3,-7.955,121.1,111.0,,121.0,129.8,36,142.3,5,5,prime,10,0,109,norm,36,-5.177,up,norm,122.269389688,117.7,112.7,125.3,130.8,3,122.1,121.4,136.2,10,6,8.275,4.874,1.123,-1.426,-4.962,-7.737,111.6,6,231.3,-8.004,-7.773,10,-8.244,-7.948,-4.75,-5.008,-5.196,-4.312,4.587,7.898,33,-1.384,1.146,4.386,7.521,-8.488,-7.683,-1.27,1.954,111.4,102.3,127.7,105.8,107.2,108.8,130.7,123.2,133.0,123.3,2,norm,1.248,2.077,-1.204,-1.721,-4.884,-5.199,-1.977,-1.524,-1.979,-1.843,1.531,-1.257,137.8,124.5,-4.457,-7.544,1.479,-1.838,8.233,5.211,-5.146,-7.596,26,4.743,4.369,5.107,4.865,1.197,1.145,1.187,1.183,26,5.225,5.269,10,269.889059065,norm,0,91,91,91,420.294,420.305,420.315241677,420.315,420.317,420.32,up,1,0.657466139835,9.34253386016,001,008,1920_1080,Intel(R) Core(TM) i5-3570 CPU @ 3.40GHz,orientation_search,LEPPC096,Intel(R) HD Graphics 2500,2018_Oct_23_1409,testMonitor,
,124.9,140.6,117.4,36,10,136.8,126.6,123.4,132.3,7.636,7.864,8.133,7.788,7.649,8.056,8.18,4.347,-4.917,-7.84,2.008,-1.419,7.709,4.599,-4.739,-8.456,120.9,102.3,-7.692,119.9,115.8,120.2,111.3,131.7,36,115.0,3,5,prime,10,0,119,norm,36,-5.048,up,norm,122.269389688,123.3,127.9,121.9,122.5,4,133.1,121.0,108.5,10,6,8.391,4.431,1.42,-1.774,-4.81,-8.304,131.6,6,241.3,-8.299,-7.563,10,-8.485,-8.078,-5.207,-4.781,-5.229,-5.268,4.432,7.679,22,-1.101,1.424,4.47,8.202,-8.073,-7.712,-1.369,1.142,106.9,121.4,122.1,132.2,115.5,125.6,115.2,120.7,142.3,123.1,3,norm,2.048,1.58,-1.927,-1.507,-5.07,-4.398,-1.433,-2.01,-1.846,-1.904,1.669,-1.677,112.4,135.7,-4.465,-8.205,1.313,-1.518,7.721,4.362,-4.808,-8.363,26,4.794,4.435,4.459,4.817,1.308,1.877,1.452,1.436,26,4.836,4.995,10,269.889059065,norm,0,92,92,92,421.01,421.02,421.032862546,421.033,421.035,421.037,up,1,0.707494664779,9.29250533522,001,008,1920_1080,Intel(R) Core(TM) i5-3570 CPU @ 3.40GHz,orientation_search,LEPPC096,Intel(R) HD Graphics 2500,2018_Oct_23_1409,testMonitor,
125.8,124.1,133.8,113.9,36,10,114.1,123.9,129.6,115.6,8.367,8.037,7.771,7.733,7.619,7.998,8.006,4.735,-4.922,-8.001,1.406,-1.896,7.63,4.327,-4.558,-7.806,123.6,135.6,-8.133,110.8,119.8,114.6,122.0,113.6,36,126.7,1,5,prime,10,0,87,norm,36,-5.175,up,norm,122.269389688,129.6,115.2,123.5,122.9,3,115.1,117.8,133.8,10,6,8.027,4.947,1.743,-1.126,-4.89,-8.273,113.2,6,209.3,-8.418,-8.014,10,-8.066,-8.058,-4.979,-4.799,-4.728,-4.937,5.148,7.766,9,-1.587,1.126,4.935,8.184,-8.27,-7.69,-1.616,1.856,,127.0,114.5,118.3,120.3,142.3,114.5,121.3,102.3,103.5,4,norm,1.894,1.927,-1.766,-1.382,-4.777,-4.459,-1.742,-1.124,-2.037,-1.826,1.439,-1.329,113.3,128.1,-4.711,-7.896,1.837,-1.844,7.554,4.31,-4.993,-8.252,26,4.525,4.833,5.153,4.782,2.052,1.306,1.518,2.092,26,4.875,4.842,10,269.889059065,norm,0,93,93,93,421.777,421.787,421.797218441,421.797,421.799,421.802,up,1,0.673059171901,9.3269408281,001,008,1920_1080,Intel(R) Core(TM) i5-3570 CPU @ 3.40GHz,orientation_search,LEPPC096,Intel(R) HD Graphics 2500,2018_Oct_23_1409,testMonitor,
132.7,116.3,115.4,142.3,36,10,130.3,111.2,112.7,122.7,7.595,8.4,8.084,7.735,8.236,7.962,8.407,4.855,-4.809,-7.578,1.319,-2.016,7.873,4.693,-4.51,-8.344,,116.7,-7.729,127.8,121.9,118.3,116.4,118.5,36,121.2,5,5,prime,10,0,63,norm,36,-5.078,up,norm,122.269389688,123.8,121.1,119.4,123.0,5,106.5,114.4,117.3,10,6,7.822,4.873,1.605,-1.207,-4.8,-8.431,132.0,6,185.3,-8.032,-7.701,10,-7.727,-8.217,-5.192,-4.677,-5.046,-4.752,4.593,8.436,35,-1.97,1.961,5.207,7.938,-8.477,-8.144,-1.906,1.865,131.5,130.9,124.9,132.2,102.3,127.2,123.6,128.2,129.1,123.1,5,norm,1.163,1.643,-2.04,-1.601,-5.233,-4.384,-1.149,-1.983,-1.958,-1.611,1.637,-1.866,118.6,125.6,-5.047,-7.646,1.893,-1.876,8.112,4.501,-5.031,-7.952,26,4.985,4.36,4.473,4.361,1.191,1.855,1.472,1.409,26,4.921,4.378,10,269.889059065,norm,0,94,94,94,422.516,422.525,422.533355167,422.534,422.535,422.538,up,1,0.688992088479,9.31100791152,001,008,1920_1080,Intel(R) Core(TM) i5-3570 CPU @ 3.40GHz,orientation_search,LEPPC096,Intel(R) HD Graphics 2500,2018_Oct_23_1409,testMonitor,
218.9,223.1,228.0,215.0,36,-40,221.8,219.3,212.8,213.7,8.082,8.336,8.088,7.742,8.146,8.1,7.69,4.508,-4.308,-7.528,1.26,-1.662,8.471,5.042,-4.486,-8.0,213.9,223.7,-8.136,225.0,227.4,212.3,216.2,222.3,36,217.6,3,5,probe,5,0,83,norm,36,-4.344,down,norm,218.025564096,219.4,216.6,212.4,218.6,0,218.4,212.6,213.8,10,6,8.418,4.398,2.043,-1.857,-4.842,-7.835,225.6,1,135.0,-8.097,-7.669,10,-8.083,-8.123,-4.953,-4.63,-4.738,-5.198,4.924,8.072,18,-1.528,1.819,5.167,7.867,-7.567,-7.507,-1.465,1.867,222.2,223.0,214.5,214.3,224.8,224.5,216.7,220.9,217.7,220.4,0,norm,1.229,1.51,-1.966,-1.209,-5.159,-4.917,-1.923,-1.318,-1.882,-1.742,1.327,-1.322,211.7,,-4.428,-8.098,1.34,-1.868,7.607,4.679,-4.322,-8.396,27,4.581,5.103,4.718,4.479,1.894,2.053,1.304,2.022,27,4.986,4.511,10,122.269389688,norm,0,95,95,95,423.264,423.274,423.280144828,423.28,423.282,423.285,down,1,0.993381609411,9.00661839059,001,008,1920_1080,Intel(R) Core(TM) i5-3570 CPU @ 3.40GHz,orientation_search,LEPPC096,Intel(R) HD Graphics 2500,2018_Oct_23_1409,testMonitor,
148.6,158.7,177.2,164.6,36,-80,163.1,175.8,158.1,164.6,7.983,7.541,7.632,8.38,7.777,7.57,8.269,4.739,-4.827,-8.3,1.706,-1.351,7.592,5.22,-4.964,-8.128,176.8,166.2,-8.042,153.1,172.9,169.2,173.0,164.2,36,162.0,1,5,prime,10,0,109,norm,36,-4.91,down,norm,168.614054658,165.3,163.1,153.4,161.3,1,167.0,166.6,162.9,10,5,7.739,4.465,2.044,-1.11,-4.998,-8.338,188.6,5,277.6,-8.367,-8.061,-80,-7.558,-7.596,-4.9,-4.482,-4.92,-5.014,4.993,8.474,7,-2.046,1.788,4.647,8.248,-8.294,-8.319,-1.714,1.413,172.3,172.7,173.6,168.2,157.9,167.4,,166.7,182.2,151.3,0,norm,1.946,1.879,-1.85,-1.92,-4.601,-5.279,-1.518,-1.752,-1.653,-1.179,1.949,-1.572,155.7,162.6,-5.027,-8.229,1.734,-1.814,8.107,5.088,-4.394,-8.206,28,4.625,4.959,4.312,4.612,1.646,1.397,1.311,1.986,28,4.37,4.506,-40,122.269389688,norm,0,96,96,96,424.295,424.304,424.310749527,424.311,424.313,424.315,down,1,1.80992577478,8.19007422522,001,008,1920_1080,Intel(R) Core(TM) i5-3570 CPU @ 3.40GHz,orientation_search,LEPPC096,Intel(R) HD Graphics 2500,2018_Oct_23_1409,testMonitor,
