d_ori_22,d_ori_23,d_ori_20,d_ori_21,set_size,ctpd,d_ori_24,d_ori_25,d_ori_28,d_ori_29,stim_pos_x_30,stim_pos_x_31,stim_pos_x_32,stim_pos_x_33,stim_pos_x_34,stim_pos_x_35,stim_pos_y_11,stim_pos_y_10,stim_pos_y_13,stim_pos_y_12,stim_pos_y_15,stim_pos_y_14,stim_pos_y_17,stim_pos_y_16,stim_pos_y_19,stim_pos_y_18,d_ori_35,d_ori_34,stim_pos_x_3,d_ori_31,d_ori_30,d_ori_33,d_ori_32,d_ori_26,test_set_size,d_ori_27,targetCol,dsd_test,seq_type,dsd,blockRepN,targetDist,dtype_test,prime_set_size,stim_pos_y_25,correctResponse,dtype,distrMean,d_ori_17,d_ori_16,d_ori_15,d_ori_14,targetRow,d_ori_11,d_ori_13,d_ori_12,dsd_prime,streak_length_prime,stim_pos_y_35,stim_pos_y_34,stim_pos_y_33,stim_pos_y_32,stim_pos_y_31,stim_pos_y_30,d_ori_10,nextProbe,targetOri,stim_pos_x_1,stim_pos_x_2,ctpd_prime,stim_pos_x_4,stim_pos_x_5,stim_pos_x_6,stim_pos_x_7,stim_pos_x_8,stim_pos_x_9,stim_pos_y_28,stim_pos_y_29,targetPos,stim_pos_y_20,stim_pos_y_21,stim_pos_y_22,stim_pos_y_23,stim_pos_y_24,stim_pos_x_0,stim_pos_y_26,stim_pos_y_27,d_ori_9,d_ori_8,d_ori_3,d_ori_2,d_ori_1,d_ori_0,d_ori_7,d_ori_6,d_ori_5,d_ori_4,trialN,dtype_prime,stim_pos_x_18,stim_pos_x_19,stim_pos_x_12,stim_pos_x_13,stim_pos_x_10,stim_pos_x_11,stim_pos_x_16,stim_pos_x_17,stim_pos_x_14,stim_pos_x_15,stim_pos_y_9,stim_pos_y_8,d_ori_19,d_ori_18,stim_pos_y_1,stim_pos_y_0,stim_pos_y_3,stim_pos_y_2,stim_pos_y_5,stim_pos_y_4,stim_pos_y_7,stim_pos_y_6,totBlockN,stim_pos_x_27,stim_pos_x_26,stim_pos_x_25,stim_pos_x_24,stim_pos_x_23,stim_pos_x_22,stim_pos_x_21,stim_pos_x_20,blockN,stim_pos_x_29,stim_pos_x_28,prevDistrCTPD,prevDistrMean,prevDistrType,trials.thisRepN,trials.thisTrialN,trials.thisN,trials.thisIndex,timeStart,timeBeforeDraw,timeDraw,timeAfterSaving,timeAfterWritingToTemp,timeAfterPreparingNext,answer,correct,rt,trialScore,session,participant,resolution,cpu_info,expName,pc_name,graphic_card,date,monitorName,
297.5,302.2,299.0,303.1,36,20,291.7,299.5,300.1,309.3,7.828,7.685,8.26,8.489,8.015,8.496,7.607,4.86,-4.526,-8.236,1.818,-1.479,8.496,5.234,-4.933,-8.144,293.8,293.2,-7.679,304.3,284.9,296.7,284.4,291.6,36,301.7,1,5,prime,10,0,71,norm,36,-5.278,down,norm,299.176947994,291.6,286.1,294.0,292.8,1,311.0,285.0,293.1,10,5,7.679,4.628,1.46,-1.212,-4.419,-8.403,304.7,5,370.2,-7.687,-7.903,20,-7.997,-7.691,-4.842,-4.492,-4.4,-5.06,4.607,8.363,7,-1.4,1.545,4.548,7.862,-7.719,-7.561,-1.279,1.313,302.6,310.5,319.2,310.5,279.2,303.4,,289.0,294.8,292.4,0,norm,1.688,1.613,-2.069,-1.201,-4.588,-4.781,-1.113,-1.669,-1.787,-1.874,1.256,-1.734,301.8,318.9,-4.582,-7.694,1.449,-1.414,7.698,5.295,-4.533,-7.744,0,5.182,4.843,4.932,4.721,1.555,1.124,1.116,1.731,0,5.114,4.784,,,,0,0,0,0,1558.057,1558.079,1558.10331574,1558.104,1558.104,1558.107,down,1,3.25952232947,6.74047767053,001,318,1366_768,Intel(R) Core(TM) i5-4200U CPU @ 1.60GHz,orientation_search,PPW53677,Intel(R) HD Graphics 4400,2018_nov_08_1346,testMonitor,
298.0,293.0,283.8,,36,20,300.0,308.4,306.5,290.6,7.744,7.748,8.103,7.923,7.733,7.648,8.175,4.509,-4.962,-8.208,1.871,-1.457,7.509,4.356,-4.891,-8.424,279.2,311.3,-7.816,293.7,303.2,289.1,294.0,306.1,36,306.8,3,5,prime,10,0,115,norm,36,-4.366,up,norm,299.176947994,301.8,304.5,306.5,293.8,3,308.3,297.0,308.9,10,5,7.99,4.525,1.614,-1.692,-5.015,-7.532,304.5,5,414.2,-8.017,-7.722,20,-7.681,-7.705,-5.028,-4.614,-4.875,-5.009,4.73,8.197,21,-1.459,1.825,4.566,7.646,-8.438,-8.296,-2.013,1.565,304.2,288.5,319.2,296.6,305.9,282.7,295.9,296.3,293.7,307.5,1,norm,1.861,1.344,-1.765,-2.033,-5.276,-4.681,-1.675,-1.748,-1.3,-1.753,1.189,-1.473,295.5,303.3,-5.08,-8.091,1.518,-1.612,8.031,4.996,-4.829,-8.085,0,4.389,5.089,4.701,4.339,1.589,1.304,1.101,1.896,0,4.316,4.738,,,,0,1,1,1,1561.415,1561.435,1561.44684029,1561.447,1561.449,1561.452,up,1,1.53263507751,8.46736492249,001,318,1366_768,Intel(R) Core(TM) i5-4200U CPU @ 1.60GHz,orientation_search,PPW53677,Intel(R) HD Graphics 4400,2018_nov_08_1346,testMonitor,
299.9,310.8,294.2,298.3,36,20,308.4,279.2,286.0,303.1,7.759,8.304,7.868,7.831,7.908,8.479,8.111,4.394,-4.725,-7.846,1.379,-1.205,7.592,4.311,-4.408,-7.985,300.9,296.2,-7.519,281.3,290.4,301.6,290.0,310.5,36,286.8,0,5,prime,10,0,111,norm,36,-4.72,up,norm,299.176947994,307.1,301.0,287.3,310.7,5,303.0,297.7,295.7,10,5,8.305,5.208,1.311,-2.071,-4.668,-7.73,294.5,5,410.2,-8.278,-7.996,20,-7.979,-8.426,-5.227,-4.499,-4.824,-4.366,4.336,7.524,5,-1.286,2.0,4.487,8.143,-8.021,-7.927,-1.801,1.87,318.8,280.4,301.3,306.2,295.9,305.7,319.2,310.7,,284.1,2,norm,1.779,1.648,-1.529,-1.593,-4.948,-4.43,-1.564,-2.042,-1.986,-1.477,1.492,-1.372,299.6,307.4,-4.803,-7.629,1.345,-1.934,7.798,5.201,-4.593,-7.619,0,4.938,5.108,4.452,4.374,1.845,1.242,1.176,1.52,0,4.463,4.4,,,,0,2,2,2,1563.033,1563.052,1563.06477973,1563.065,1563.067,1563.07,up,1,1.41443614378,8.58556385622,001,318,1366_768,Intel(R) Core(TM) i5-4200U CPU @ 1.60GHz,orientation_search,PPW53677,Intel(R) HD Graphics 4400,2018_nov_08_1346,testMonitor,
310.8,302.8,292.0,308.3,36,20,304.9,,308.4,312.7,7.923,8.279,7.588,7.537,8.383,8.072,8.054,5.277,-4.552,-8.337,1.86,-1.225,8.37,5.23,-5.029,-7.733,279.2,288.2,-8.156,302.5,305.7,289.0,297.8,311.6,36,292.9,4,5,prime,10,0,81,norm,36,-5.025,down,norm,299.176947994,311.7,304.8,290.6,305.6,1,281.6,306.0,319.2,10,5,8.428,4.637,1.806,-1.914,-4.458,-8.294,281.4,5,380.2,-8.393,-7.508,20,-8.368,-7.993,-4.797,-4.357,-4.853,-5.106,4.65,7.779,25,-1.767,1.143,5.017,8.337,-8.211,-8.045,-1.3,1.114,297.2,298.2,305.3,299.9,291.8,289.5,291.0,314.8,310.1,303.3,3,norm,1.265,1.729,-1.207,-2.072,-5.281,-4.719,-1.249,-1.608,-1.195,-1.445,1.29,-1.637,300.9,301.7,-4.42,-7.566,1.589,-1.568,7.559,4.594,-4.448,-7.573,0,4.309,5.289,4.768,4.768,1.338,1.507,1.297,1.187,0,4.335,4.483,,,,0,3,3,3,1564.533,1564.553,1564.56478129,1564.565,1564.567,1564.57,down,1,1.37428918608,8.62571081392,001,318,1366_768,Intel(R) Core(TM) i5-4200U CPU @ 1.60GHz,orientation_search,PPW53677,Intel(R) HD Graphics 4400,2018_nov_08_1346,testMonitor,
319.2,300.0,300.5,290.4,36,20,296.8,305.1,301.8,300.2,7.821,8.205,8.078,7.898,7.87,7.625,8.168,5.007,-4.647,-8.366,2.003,-1.264,7.673,4.344,-5.07,-8.203,298.0,311.0,-7.624,293.9,293.1,297.6,316.3,300.9,36,299.9,0,5,prime,10,0,118,norm,36,-4.8,up,norm,299.176947994,284.0,300.1,292.2,297.3,4,299.1,304.5,294.3,10,5,8.186,4.827,1.917,-1.51,-4.825,-7.624,303.2,5,417.2,-7.944,-8.255,20,-7.588,-7.632,-5.058,-4.326,-4.591,-4.492,4.396,8.078,4,-1.366,1.132,4.456,8.251,-8.184,-8.344,-1.154,1.917,282.3,298.0,299.3,310.6,295.5,279.2,296.3,312.8,305.5,,4,norm,1.157,1.44,-1.192,-1.282,-5.15,-5.23,-1.836,-1.611,-1.147,-1.555,1.444,-1.814,301.9,291.9,-4.775,-8.117,1.805,-1.794,7.944,4.563,-4.533,-7.74,0,5.11,4.735,4.373,4.924,1.675,1.441,1.879,1.142,0,4.395,5.114,,,,0,4,4,4,1565.992,1566.006,1566.02481261,1566.025,1566.028,1566.032,up,1,0.947799940826,9.05220005917,001,318,1366_768,Intel(R) Core(TM) i5-4200U CPU @ 1.60GHz,orientation_search,PPW53677,Intel(R) HD Graphics 4400,2018_nov_08_1346,testMonitor,
418.7,417.1,423.2,418.6,36,-40,409.7,416.4,,419.7,8.057,7.663,8.452,7.871,7.886,8.01,7.992,5.219,-4.646,-8.42,2.007,-1.413,7.511,4.927,-4.739,-8.268,416.4,426.5,-8.071,416.4,417.8,424.9,422.6,418.7,36,408.4,4,5,probe,5,0,100,norm,36,-5.15,up,norm,416.453188095,419.4,418.4,412.9,416.2,4,422.5,410.6,407.4,10,5,7.926,5.12,1.889,-1.879,-5.246,-7.744,419.2,2,316.5,-8.327,-8.252,20,-7.816,-8.084,-5.234,-4.317,-4.803,-5.291,4.828,7.653,28,-1.432,1.627,5.291,8.138,-8.208,-8.092,-1.857,1.604,412.9,417.8,417.5,418.1,413.9,420.0,406.5,417.6,411.1,414.9,0,norm,2.082,1.764,-1.898,-1.117,-4.797,-4.416,-1.875,-1.346,-1.638,-2.035,2.078,-1.917,411.8,414.6,-5.069,-8.314,1.204,-1.303,8.012,5.089,-4.825,-7.667,1,4.387,4.775,4.524,4.312,1.51,1.875,1.515,1.121,1,5.193,4.658,20,299.176947994,norm,0,5,5,5,1567.012,1567.024,1567.03128005,1567.032,1567.034,1567.037,up,1,1.20672563955,8.79327436045,001,318,1366_768,Intel(R) Core(TM) i5-4200U CPU @ 1.60GHz,orientation_search,PPW53677,Intel(R) HD Graphics 4400,2018_nov_08_1346,testMonitor,
427.1,413.0,425.3,417.4,36,-40,414.6,415.3,421.2,412.4,7.648,8.46,8.346,8.177,8.492,8.484,7.951,5.172,-4.696,-7.781,1.536,-1.746,7.915,4.946,-4.343,-8.468,420.7,419.2,-8.468,419.1,417.9,416.7,422.1,421.1,36,418.1,0,5,probe,5,0,102,norm,36,-4.789,up,norm,418.453188095,417.7,420.9,416.2,424.0,3,415.1,428.5,419.5,10,5,8.215,4.47,1.188,-1.832,-4.788,-7.529,425.4,2,316.5,-7.576,-7.651,20,-7.577,-7.599,-4.796,-4.932,-5.081,-4.429,4.585,7.927,3,-1.9,1.568,4.601,7.764,-8.363,-7.555,-1.497,1.545,423.6,420.0,,420.2,418.7,411.5,416.0,408.5,415.6,414.2,1,norm,1.565,1.783,-1.778,-1.15,-5.269,-5.007,-1.874,-1.91,-1.131,-1.719,1.861,-1.895,427.2,409.1,-4.993,-8.332,1.673,-1.194,8.406,4.92,-5.121,-8.093,1,5.061,4.447,5.175,5.122,1.252,2.041,1.946,1.567,1,4.939,5.174,20,299.176947994,norm,0,6,6,6,1568.293,1568.315,1568.32487816,1568.325,1568.329,1568.332,up,1,0.931814966818,9.06818503318,001,318,1366_768,Intel(R) Core(TM) i5-4200U CPU @ 1.60GHz,orientation_search,PPW53677,Intel(R) HD Graphics 4400,2018_nov_08_1346,testMonitor,
352.5,345.6,327.8,325.9,36,30,333.8,352.8,345.2,353.8,8.052,8.252,7.659,7.599,7.67,7.715,8.353,5.214,-4.372,-7.827,2.028,-1.126,8.099,4.851,-4.939,-8.368,327.9,351.9,-7.515,354.7,343.0,330.4,,329.9,36,350.0,5,5,prime,10,0,113,norm,36,-5.181,down,norm,345.911364395,365.9,341.1,345.0,346.9,2,361.5,340.9,337.4,10,5,8.312,4.314,1.584,-1.127,-4.898,-8.306,350.5,5,458.9,-8.088,-7.878,30,-7.96,-8.357,-5.119,-4.787,-5.095,-4.648,4.66,7.948,32,-1.764,2.026,4.466,7.988,-8.149,-8.38,-1.462,1.483,337.1,361.9,344.1,352.3,330.1,361.4,353.5,345.3,354.8,335.4,0,norm,1.282,1.174,-1.736,-1.528,-4.527,-5.034,-1.576,-2.097,-1.564,-1.134,1.207,-1.765,339.7,341.4,-4.93,-7.906,1.633,-1.929,8.441,5.051,-4.464,-8.054,2,4.975,4.861,4.924,5.028,1.331,1.15,1.679,1.593,2,4.31,5.265,-40,299.176947994,norm,0,7,7,7,1569.312,1569.334,1569.34502617,1569.346,1569.351,1569.355,down,1,2.88889280594,7.11110719406,001,318,1366_768,Intel(R) Core(TM) i5-4200U CPU @ 1.60GHz,orientation_search,PPW53677,Intel(R) HD Graphics 4400,2018_nov_08_1346,testMonitor,
365.9,357.4,348.0,,36,30,364.5,364.0,345.3,345.7,8.389,8.017,8.26,7.677,7.686,7.731,8.459,4.459,-4.697,-7.922,1.94,-1.159,8.465,4.615,-5.068,-8.425,355.6,344.1,-8.406,345.0,347.0,362.6,348.6,335.8,36,344.0,3,5,prime,10,0,90,norm,36,-4.433,up,norm,345.911364395,339.1,350.1,343.2,356.6,3,336.4,330.1,338.7,10,5,7.699,5.212,2.022,-2.093,-4.706,-7.693,355.4,5,435.9,-7.878,-8.021,30,-7.968,-8.31,-4.462,-4.567,-4.595,-4.432,5.204,8.22,21,-1.612,1.698,4.902,7.659,-8.343,-7.644,-1.94,1.877,333.1,350.4,341.2,330.8,342.2,334.5,346.7,325.9,343.3,341.2,1,norm,1.666,1.766,-1.138,-1.232,-4.716,-4.529,-1.418,-1.977,-1.74,-1.875,1.243,-1.427,336.0,345.7,-5.006,-7.51,1.322,-1.789,8.253,4.711,-4.405,-8.397,2,4.751,5.266,5.226,4.672,1.27,2.023,1.206,1.83,2,5.209,4.403,-40,299.176947994,norm,0,8,8,8,1572.294,1572.322,1572.34143121,1572.342,1572.344,1572.347,up,1,3.50661269471,6.49338730529,001,318,1366_768,Intel(R) Core(TM) i5-4200U CPU @ 1.60GHz,orientation_search,PPW53677,Intel(R) HD Graphics 4400,2018_nov_08_1346,testMonitor,
339.3,338.6,352.6,340.0,36,30,346.3,359.8,342.7,350.5,7.968,8.182,7.821,8.406,7.576,7.814,7.937,5.168,-4.838,-8.032,1.91,-1.784,8.256,4.996,-5.232,-7.897,340.7,349.4,-7.883,359.5,341.0,338.0,360.7,340.2,36,351.9,0,5,prime,10,0,88,norm,36,-4.844,down,norm,345.911364395,352.5,365.9,338.7,337.8,1,350.4,325.9,341.4,10,5,7.855,4.735,1.881,-1.952,-4.727,-7.67,350.4,5,433.9,-7.505,-8.499,30,-8.492,-7.92,-4.578,-5.084,-4.953,-4.947,4.423,7.559,1,-2.069,1.1,4.453,7.597,-7.54,-8.307,-1.945,1.198,350.7,355.8,343.9,327.9,,359.1,330.0,336.9,342.0,336.6,2,norm,1.376,1.304,-1.833,-1.149,-4.814,-4.354,-1.656,-1.73,-1.787,-1.527,1.228,-2.045,332.9,351.1,-4.544,-7.685,1.241,-1.745,7.722,5.271,-4.423,-7.522,2,4.636,5.243,5.153,4.85,2.0,1.605,1.435,2.018,2,4.654,5.292,-40,299.176947994,norm,0,9,9,9,1575.902,1575.917,1575.93469772,1575.935,1575.937,1575.94,down,1,1.61385406064,8.38614593936,001,318,1366_768,Intel(R) Core(TM) i5-4200U CPU @ 1.60GHz,orientation_search,PPW53677,Intel(R) HD Graphics 4400,2018_nov_08_1346,testMonitor,
336.1,348.2,326.5,342.0,36,30,347.4,344.2,345.2,365.9,8.322,8.305,8.007,7.772,7.729,7.678,8.386,4.511,-4.321,-8.37,1.406,-1.404,7.79,4.714,-4.524,-7.768,347.6,346.5,-7.92,360.7,348.7,346.7,335.7,334.7,36,350.4,1,5,prime,10,0,96,norm,36,-5.236,up,norm,345.911364395,348.8,340.2,338.3,346.9,5,,337.4,335.4,10,5,8.166,4.521,1.144,-2.028,-4.649,-7.836,352.7,5,441.9,-8.311,-8.309,30,-8.386,-8.391,-4.857,-4.7,-4.922,-4.451,5.083,8.464,11,-1.282,1.163,4.486,7.801,-8.36,-7.558,-1.131,1.516,351.5,339.8,350.3,329.4,339.5,352.3,345.3,344.4,325.9,345.0,3,norm,1.61,1.723,-1.483,-2.068,-4.462,-5.096,-1.825,-1.872,-1.188,-1.143,2.023,-1.755,331.6,336.6,-4.413,-7.636,1.582,-1.127,8.184,5.181,-5.19,-8.37,2,5.208,4.992,5.294,4.345,2.033,1.982,1.249,2.073,2,5.265,5.019,-40,299.176947994,norm,0,10,10,10,1577.593,1577.608,1577.62471479,1577.625,1577.627,1577.63,up,1,1.09440867288,8.90559132712,001,318,1366_768,Intel(R) Core(TM) i5-4200U CPU @ 1.60GHz,orientation_search,PPW53677,Intel(R) HD Graphics 4400,2018_nov_08_1346,testMonitor,
336.9,349.0,342.7,332.9,36,30,349.3,357.1,348.5,329.9,7.605,8.282,7.812,7.549,8.481,8.201,8.087,4.802,-4.972,-7.807,1.916,-1.3,8.384,5.087,-4.699,-8.138,350.6,365.9,-8.306,358.7,336.7,344.8,347.9,341.5,36,338.2,3,5,prime,10,0,86,norm,36,-4.964,down,norm,345.911364395,333.3,355.1,352.0,350.0,0,340.5,351.1,349.6,10,5,8.157,4.916,2.057,-1.559,-4.728,-7.55,350.9,5,431.9,-8.043,-8.333,30,-8.217,-7.927,-5.158,-5.269,-4.587,-5.25,4.463,8.357,18,-1.469,1.701,4.418,7.595,-8.467,-7.699,-1.774,1.69,342.8,352.8,353.9,353.0,342.2,354.6,331.9,325.9,328.5,341.7,4,norm,1.927,1.537,-1.309,-1.716,-4.888,-4.387,-1.842,-1.772,-1.507,-1.802,1.666,-1.804,348.6,,-5.044,-8.008,1.555,-1.988,8.114,5.22,-4.577,-8.404,2,4.762,4.774,4.691,4.386,1.863,2.036,1.296,1.821,2,4.571,5.016,-40,299.176947994,norm,0,11,11,11,1578.763,1578.778,1578.79477553,1578.795,1578.797,1578.8,down,1,0.914098558762,9.08590144124,001,318,1366_768,Intel(R) Core(TM) i5-4200U CPU @ 1.60GHz,orientation_search,PPW53677,Intel(R) HD Graphics 4400,2018_nov_08_1346,testMonitor,
475.3,490.2,486.4,485.9,36,-30,479.8,488.4,492.3,483.2,8.424,7.762,8.377,7.76,7.614,8.13,7.9,4.695,-4.833,-7.562,1.396,-1.79,7.987,4.714,-5.272,-8.054,477.4,480.2,-8.058,477.8,472.3,486.7,481.9,490.9,36,484.5,1,5,probe,5,0,108,norm,36,-4.887,up,norm,482.338274132,491.0,474.7,481.6,488.4,5,,481.4,483.3,10,5,7.719,5.007,1.177,-1.168,-4.76,-8.383,478.9,2,374.3,-7.695,-8.152,30,-8.138,-8.251,-4.956,-4.843,-5.048,-5.047,4.935,7.694,11,-1.939,1.991,5.255,7.743,-7.979,-8.349,-1.439,2.053,481.1,486.2,478.1,479.4,485.4,484.5,476.0,490.5,491.2,488.5,0,norm,1.672,1.374,-1.924,-1.41,-4.929,-4.512,-1.505,-1.482,-1.403,-1.588,1.476,-1.34,481.4,480.2,-4.459,-8.376,1.371,-1.377,8.499,4.75,-4.533,-7.847,3,4.997,4.939,4.393,4.925,1.519,1.18,2.054,1.787,3,5.276,4.993,30,345.911364395,norm,0,12,12,12,1579.753,1579.768,1579.78470599,1579.785,1579.787,1579.79,up,1,0.674775549473,9.32522445053,001,318,1366_768,Intel(R) Core(TM) i5-4200U CPU @ 1.60GHz,orientation_search,PPW53677,Intel(R) HD Graphics 4400,2018_nov_08_1346,testMonitor,
499.8,496.4,491.8,488.3,36,-30,487.4,482.3,496.2,497.2,8.183,8.443,8.111,8.134,7.672,8.081,7.754,4.94,-4.637,-7.847,1.811,-1.155,8.394,4.902,-4.462,-7.768,498.6,490.3,-8.192,494.3,491.1,490.8,489.6,485.1,36,493.3,2,5,probe,5,0,118,norm,36,-5.196,down,norm,492.338274132,496.6,483.9,502.3,,2,487.3,502.0,489.1,10,5,8.413,4.653,1.926,-1.78,-4.577,-8.281,493.7,2,374.3,-7.544,-8.109,30,-8.237,-8.238,-4.993,-4.911,-4.73,-4.596,4.808,7.989,14,-1.727,1.22,4.879,7.752,-8.131,-7.669,-1.67,1.431,500.2,489.2,496.6,489.3,485.9,493.0,492.1,486.4,496.7,497.9,1,norm,1.113,1.97,-1.376,-1.865,-4.748,-5.252,-1.162,-2.046,-1.745,-1.671,1.982,-2.025,491.3,498.0,-4.923,-8.001,1.172,-1.134,7.919,5.218,-5.245,-7.957,3,4.721,5.122,4.381,4.397,1.797,1.25,1.765,1.885,3,4.338,5.208,30,345.911364395,norm,0,13,13,13,1580.517,1580.545,1580.56152281,1580.562,1580.565,1580.569,down,1,0.958341161229,9.04165883877,001,318,1366_768,Intel(R) Core(TM) i5-4200U CPU @ 1.60GHz,orientation_search,PPW53677,Intel(R) HD Graphics 4400,2018_nov_08_1346,testMonitor,
301.7,287.7,,280.4,36,10,285.0,273.3,273.9,283.0,8.087,8.071,7.94,7.574,7.525,7.916,7.826,5.105,-4.431,-7.972,1.764,-1.68,7.78,4.355,-4.956,-8.087,286.0,282.3,-8.184,281.7,271.2,279.4,264.9,265.1,36,274.2,3,5,prime,10,0,97,norm,36,-4.484,down,norm,281.721382732,261.7,280.3,291.5,263.1,2,273.7,276.6,262.3,10,5,8.22,5.189,2.065,-2.009,-5.132,-7.524,281.5,5,378.7,-7.532,-8.336,10,-8.387,-7.983,-5.143,-4.673,-4.881,-4.944,4.868,8.033,20,-1.274,1.671,5.192,8.117,-8.447,-8.398,-1.251,1.25,294.7,278.0,293.0,296.4,268.1,271.7,293.1,281.2,281.8,277.3,0,norm,2.016,1.99,-1.733,-1.262,-4.302,-4.51,-1.919,-1.29,-1.341,-1.136,1.146,-2.032,281.6,291.7,-5.23,-7.624,1.425,-1.598,7.659,4.575,-4.801,-7.99,4,4.877,5.241,5.144,4.792,1.39,2.018,1.429,2.067,4,4.971,4.959,-30,345.911364395,norm,0,14,14,14,1581.573,1581.592,1581.60474083,1581.605,1581.607,1581.61,down,1,3.47319423254,6.52680576746,001,318,1366_768,Intel(R) Core(TM) i5-4200U CPU @ 1.60GHz,orientation_search,PPW53677,Intel(R) HD Graphics 4400,2018_nov_08_1346,testMonitor,
282.6,279.1,292.6,280.1,36,10,276.5,277.7,280.0,284.2,7.773,7.713,8.245,8.038,8.083,8.207,7.59,5.063,-4.554,-7.642,1.545,-1.995,7.691,5.252,-5.161,-8.372,278.8,263.1,-8.2,283.8,284.9,269.1,301.7,284.2,36,270.6,2,5,prime,10,0,75,norm,36,-5.21,up,norm,281.721382732,278.7,,274.1,261.7,4,280.6,275.8,277.3,10,5,7.925,4.384,1.702,-1.895,-4.698,-7.959,284.1,5,356.7,-7.635,-7.507,10,-8.131,-7.842,-4.405,-5.282,-5.283,-5.108,5.285,8.468,16,-1.527,1.363,4.599,7.557,-7.648,-8.302,-1.303,2.071,285.3,280.3,277.2,271.7,267.4,298.4,295.1,273.2,281.2,276.0,1,norm,1.565,2.055,-1.715,-1.925,-4.966,-5.262,-1.427,-1.889,-1.345,-1.563,1.474,-1.226,269.9,288.3,-5.282,-8.078,2.079,-1.236,7.525,4.86,-4.838,-7.715,4,4.41,4.659,5.033,4.606,1.214,1.993,1.554,1.445,4,4.481,4.971,-30,345.911364395,norm,0,15,15,15,1585.115,1585.135,1585.14707238,1585.147,1585.15,1585.154,up,1,0.968767250193,9.03123274981,001,318,1366_768,Intel(R) Core(TM) i5-4200U CPU @ 1.60GHz,orientation_search,PPW53677,Intel(R) HD Graphics 4400,2018_nov_08_1346,testMonitor,
293.1,269.3,295.8,301.7,36,10,261.7,,269.1,293.0,8.487,7.674,7.808,7.683,8.387,8.288,8.45,4.724,-4.758,-7.871,1.775,-1.164,8.003,4.492,-5.289,-7.858,299.7,275.9,-8.229,279.9,282.6,279.1,295.2,297.4,36,283.3,4,5,prime,10,0,85,norm,36,-4.494,down,norm,281.721382732,283.6,292.8,301.2,263.9,1,265.8,292.0,283.9,10,5,8.382,4.848,1.737,-1.568,-4.952,-8.208,283.5,5,366.7,-7.916,-7.69,10,-8.449,-8.27,-4.979,-4.93,-4.898,-5.104,5.048,8.006,25,-1.871,1.332,4.535,7.704,-7.8,-7.53,-1.957,1.805,300.4,273.9,278.9,285.3,297.1,288.9,267.6,289.2,281.5,273.3,2,norm,1.906,1.825,-1.579,-1.237,-4.738,-4.736,-2.039,-2.061,-1.211,-1.22,1.253,-1.249,273.0,289.4,-4.88,-7.755,1.42,-1.539,7.777,5.146,-4.474,-7.506,4,4.427,4.755,4.734,5.066,1.512,1.679,1.272,1.906,4,4.771,4.71,-30,345.911364395,norm,0,16,16,16,1586.171,1586.185,1586.2038594,1586.204,1586.207,1586.21,down,1,1.50489732551,8.49510267449,001,318,1366_768,Intel(R) Core(TM) i5-4200U CPU @ 1.60GHz,orientation_search,PPW53677,Intel(R) HD Graphics 4400,2018_nov_08_1346,testMonitor,
276.5,289.6,266.0,301.7,36,10,275.6,293.0,278.8,284.4,7.732,8.199,8.008,8.242,8.218,8.46,8.008,4.972,-5.132,-7.874,1.689,-1.66,8.451,5.247,-5.072,-7.526,272.4,269.4,-8.213,283.0,284.5,269.0,287.2,,36,300.4,4,5,prime,10,0,91,norm,36,-4.949,down,norm,281.721382732,283.3,283.2,281.5,274.3,2,288.2,292.0,286.4,10,5,8.256,4.484,1.716,-2.067,-4.543,-7.547,270.5,5,372.7,-8.157,-8.44,10,-7.947,-8.171,-4.69,-4.806,-4.375,-4.678,4.366,7.587,26,-1.726,1.384,5.005,8.028,-7.827,-7.806,-1.986,1.429,261.7,298.3,283.2,263.8,284.9,263.2,282.4,288.1,283.2,279.1,3,norm,1.129,1.231,-1.341,-1.451,-4.39,-4.655,-1.978,-2.047,-2.058,-1.784,1.216,-1.189,283.2,276.2,-4.742,-7.95,1.386,-1.305,7.555,5.291,-5.07,-7.608,4,4.551,4.607,4.555,5.143,1.937,2.077,1.949,1.886,4,4.303,5.237,-30,345.911364395,norm,0,17,17,17,1587.763,1587.777,1587.79570952,1587.796,1587.799,1587.802,down,1,3.2928595749,6.7071404251,001,318,1366_768,Intel(R) Core(TM) i5-4200U CPU @ 1.60GHz,orientation_search,PPW53677,Intel(R) HD Graphics 4400,2018_nov_08_1346,testMonitor,
287.1,270.4,275.9,293.9,36,10,292.4,280.0,280.8,290.0,8.057,8.269,8.292,8.147,8.282,8.05,7.855,4.427,-4.681,-7.916,1.606,-1.368,8.305,4.964,-4.872,-8.081,271.4,275.5,-8.312,284.1,290.8,261.7,279.6,273.9,36,265.5,1,5,prime,10,0,110,norm,36,-4.712,up,norm,281.721382732,280.7,278.7,276.7,283.6,5,,279.2,301.7,10,5,7.726,5.199,1.275,-1.63,-5.208,-8.442,292.9,5,391.7,-7.975,-8.091,10,-7.787,-8.038,-4.862,-4.919,-5.285,-4.867,5.139,8.228,11,-1.192,1.382,4.384,8.054,-8.285,-8.043,-1.779,1.778,269.8,281.0,286.2,271.5,278.7,278.3,289.5,291.0,275.4,288.1,4,norm,1.757,1.575,-1.565,-1.522,-4.753,-4.995,-1.782,-1.992,-1.768,-1.224,1.279,-1.646,275.8,280.4,-5.145,-7.685,1.222,-1.416,7.651,4.509,-5.255,-8.024,4,4.885,4.475,5.022,4.625,1.479,1.14,1.658,1.768,4,5.176,5.198,-30,345.911364395,norm,0,18,18,18,1591.144,1591.162,1591.17570753,1591.176,1591.179,1591.183,up,1,1.23139143485,8.76860856515,001,318,1366_768,Intel(R) Core(TM) i5-4200U CPU @ 1.60GHz,orientation_search,PPW53677,Intel(R) HD Graphics 4400,2018_nov_08_1346,testMonitor,
388.2,402.0,401.1,398.8,36,-80,402.3,401.9,396.2,396.8,8.129,7.638,8.439,8.5,7.845,7.753,7.97,4.327,-4.883,-7.632,1.911,-1.779,8.01,4.49,-5.163,-7.923,400.5,407.6,-7.977,392.1,392.3,394.5,396.4,399.7,36,394.6,0,5,probe,5,0,111,norm,36,-4.572,down,norm,398.214247658,402.7,402.0,402.8,408.1,2,402.1,399.8,390.8,10,5,8.177,5.123,1.997,-1.777,-4.904,-8.134,402.5,2,287.2,-8.249,-8.415,10,-8.244,-7.761,-4.641,-5.053,-5.262,-5.12,5.215,7.84,2,-1.365,1.484,4.65,7.999,-7.701,-7.87,-1.613,1.674,392.7,396.8,394.7,,392.9,397.2,398.3,404.8,408.2,399.7,0,norm,1.985,1.402,-1.383,-1.979,-4.662,-4.978,-1.516,-1.618,-1.366,-1.856,2.09,-1.86,399.7,396.1,-5.259,-8.089,1.956,-1.244,7.824,4.331,-4.41,-8.296,5,5.038,4.337,4.42,4.529,2.021,1.456,1.321,1.516,5,5.033,4.884,10,281.721382732,norm,0,19,19,19,1592.462,1592.476,1592.4947198,1592.495,1592.499,1592.504,down,1,1.96904883135,8.03095116865,001,318,1366_768,Intel(R) Core(TM) i5-4200U CPU @ 1.60GHz,orientation_search,PPW53677,Intel(R) HD Graphics 4400,2018_nov_08_1346,testMonitor,
365.0,356.3,372.9,362.6,36,-80,368.7,363.7,357.8,369.4,8.32,7.69,8.142,8.448,8.177,8.275,7.769,5.087,-4.788,-8.322,1.406,-1.846,7.843,5.138,-5.097,-7.579,363.9,370.8,-7.93,367.3,,366.1,359.8,369.7,36,359.7,5,5,probe,5,0,78,norm,36,-4.507,down,norm,365.214247658,361.6,372.3,368.9,355.2,0,356.9,366.3,362.7,10,5,8.113,4.779,1.483,-1.348,-4.438,-7.56,375.2,2,287.2,-7.516,-8.114,10,-8.473,-8.066,-4.699,-5.226,-4.54,-4.345,5.109,7.685,30,-1.796,2.035,5.171,7.571,-8.172,-8.39,-1.449,1.732,360.0,361.0,361.5,365.8,369.9,361.0,371.6,370.8,367.7,361.2,1,norm,1.421,1.179,-1.932,-1.483,-4.368,-4.736,-1.714,-1.599,-1.675,-1.808,1.805,-1.568,367.7,361.9,-4.946,-7.595,1.565,-1.76,8.207,5.25,-4.77,-8.432,5,4.915,5.239,5.211,4.319,1.31,1.406,1.683,1.199,5,4.41,5.041,10,281.721382732,norm,0,20,20,20,1594.506,1594.524,1594.54132884,1594.542,1594.544,1594.546,up,0,1.52779420211,-10,001,318,1366_768,Intel(R) Core(TM) i5-4200U CPU @ 1.60GHz,orientation_search,PPW53677,Intel(R) HD Graphics 4400,2018_nov_08_1346,testMonitor,
269.5,288.3,281.6,303.6,36,0,290.2,276.2,303.7,287.8,8.02,7.611,7.763,8.226,8.374,8.36,7.99,4.522,-4.453,-7.888,1.315,-1.999,8.192,5.218,-4.409,-7.532,287.4,288.3,-8.153,293.0,,287.7,288.8,287.6,36,286.7,5,5,prime,10,0,80,norm,36,-4.753,down,norm,283.676718948,300.0,290.0,291.3,281.7,0,286.8,272.2,274.6,10,6,7.895,4.971,1.38,-2.064,-5.241,-8.203,287.9,6,363.7,-7.572,-7.82,0,-7.944,-7.727,-5.009,-4.473,-4.479,-5.013,4.637,8.312,30,-1.688,1.683,4.641,7.825,-7.901,-7.791,-1.225,1.335,291.1,293.0,297.6,263.7,289.7,278.2,285.2,276.9,295.5,285.8,0,norm,1.276,1.31,-1.32,-1.174,-5.211,-4.723,-1.194,-1.817,-1.653,-1.802,2.038,-1.234,273.6,278.9,-4.371,-7.642,1.583,-1.582,8.03,4.761,-5.072,-7.77,6,4.681,4.664,4.591,4.719,1.78,2.053,1.929,1.809,6,5.028,4.393,-80,281.721382732,norm,0,21,21,21,1597.162,1597.175,1597.17784371,1597.178,1597.18,1597.183,down,1,1.09265715776,8.90734284224,001,318,1366_768,Intel(R) Core(TM) i5-4200U CPU @ 1.60GHz,orientation_search,PPW53677,Intel(R) HD Graphics 4400,2018_nov_08_1346,testMonitor,
303.7,298.0,286.0,279.9,36,0,273.9,288.0,282.6,292.7,7.765,7.569,7.578,7.987,8.023,7.677,8.45,4.515,-4.781,-8.366,1.442,-2.052,8.477,4.415,-4.987,-8.383,278.5,299.1,-7.747,290.7,277.9,293.8,300.4,277.3,36,290.8,1,5,prime,10,0,84,norm,36,-5.228,up,norm,283.676718948,301.0,294.7,284.9,270.4,5,,280.1,293.8,10,6,7.905,4.84,1.746,-1.326,-4.617,-8.277,279.8,6,367.7,-7.866,-8.331,0,-7.975,-7.766,-5.2,-4.439,-4.469,-5.05,4.572,7.875,11,-1.477,1.202,4.734,8.17,-7.675,-7.533,-1.646,1.26,294.1,278.5,272.2,280.7,286.5,263.7,276.8,291.7,265.9,301.2,1,norm,1.411,1.75,-1.339,-2.018,-4.472,-4.426,-2.077,-1.72,-1.416,-1.368,1.566,-1.946,265.3,279.0,-4.684,-8.067,1.79,-1.638,7.891,4.731,-4.956,-7.634,6,5.143,4.623,4.892,4.877,1.984,2.034,1.532,2.001,6,5.065,4.865,-80,281.721382732,norm,0,22,22,22,1598.324,1598.339,1598.35673298,1598.357,1598.36,1598.363,up,1,1.59308131448,8.40691868552,001,318,1366_768,Intel(R) Core(TM) i5-4200U CPU @ 1.60GHz,orientation_search,PPW53677,Intel(R) HD Graphics 4400,2018_nov_08_1346,testMonitor,
289.0,292.8,291.6,287.5,36,0,294.9,302.5,263.7,,7.677,7.81,7.759,7.561,7.551,7.721,7.724,5.111,-4.538,-8.349,1.653,-1.475,7.603,4.842,-4.889,-7.526,274.5,280.2,-8.252,285.4,288.3,284.1,267.5,287.4,36,287.1,4,5,prime,10,0,93,norm,36,-5.125,up,norm,283.676718948,289.9,297.2,295.0,288.3,5,287.0,282.6,287.2,10,6,7.517,4.455,1.706,-1.859,-5.154,-7.81,290.8,6,376.7,-7.831,-7.655,0,-7.524,-8.19,-4.848,-5.113,-4.376,-5.13,4.579,8.165,29,-1.822,1.508,4.518,8.382,-8.263,-7.556,-1.627,1.713,278.2,284.3,294.0,288.2,274.5,277.5,284.3,294.0,299.7,276.6,2,norm,1.225,1.936,-1.773,-1.799,-4.437,-5.177,-2.043,-2.029,-1.468,-1.805,1.973,-1.166,303.7,294.6,-4.308,-7.691,1.147,-1.716,8.394,5.235,-5.041,-8.447,6,4.787,5.227,5.293,5.204,1.59,1.495,1.991,1.619,6,5.288,4.471,-80,281.721382732,norm,0,23,23,23,1600.004,1600.018,1600.03663233,1600.037,1600.04,1600.043,up,1,1.7130955765,8.2869044235,001,318,1366_768,Intel(R) Core(TM) i5-4200U CPU @ 1.60GHz,orientation_search,PPW53677,Intel(R) HD Graphics 4400,2018_nov_08_1346,testMonitor,
283.7,289.0,275.9,274.1,36,0,275.6,286.6,276.1,,7.826,7.903,7.759,8.446,7.771,7.776,8.157,4.964,-4.518,-8.429,1.978,-1.522,7.637,4.872,-4.899,-8.437,284.6,271.3,-7.972,284.1,272.2,294.9,294.9,280.8,36,282.6,4,5,prime,10,0,67,norm,36,-4.584,up,norm,283.676718948,282.5,291.1,263.7,293.1,5,292.9,278.2,283.6,10,6,8.312,4.396,2.047,-1.68,-4.56,-8.034,271.8,6,350.7,-7.54,-8.106,0,-7.548,-8.464,-4.907,-4.606,-5.161,-5.084,4.887,8.231,29,-1.724,1.841,4.842,8.227,-8.075,-7.529,-1.235,1.549,286.6,277.3,280.6,280.6,292.7,296.0,280.3,278.0,282.3,289.1,3,norm,2.038,1.494,-2.089,-1.621,-5.188,-4.881,-1.124,-1.866,-1.145,-2.045,2.043,-1.922,285.9,303.7,-4.679,-7.72,1.902,-1.23,8.302,4.958,-4.624,-8.176,6,5.289,5.03,4.62,4.633,1.558,1.861,1.745,1.451,6,4.636,5.246,-80,281.721382732,norm,0,24,24,24,1601.806,1601.821,1601.84331102,1601.844,1601.847,1601.851,up,1,1.08058174399,8.91941825601,001,318,1366_768,Intel(R) Core(TM) i5-4200U CPU @ 1.60GHz,orientation_search,PPW53677,Intel(R) HD Graphics 4400,2018_nov_08_1346,testMonitor,
289.0,285.4,283.0,291.3,36,0,301.2,284.4,281.6,269.6,8.437,7.707,8.259,7.566,8.481,7.658,7.661,5.187,-4.502,-8.007,1.346,-1.23,7.864,4.97,-4.718,-7.835,284.5,284.9,-7.611,291.1,296.5,273.3,278.2,,36,279.1,4,5,prime,10,0,96,norm,36,-4.983,down,norm,283.676718948,282.4,294.1,276.2,285.8,2,284.8,286.2,303.7,10,6,8.489,5.231,1.975,-1.189,-4.829,-7.795,274.0,6,379.7,-7.699,-8.222,0,-7.846,-8.032,-4.768,-4.338,-4.889,-4.387,4.478,7.628,26,-1.232,1.206,4.96,8.246,-7.65,-7.943,-1.793,1.426,288.1,274.5,276.7,280.3,283.8,267.1,280.1,263.7,276.4,282.4,4,norm,1.626,1.493,-1.598,-1.508,-4.407,-5.092,-1.309,-1.167,-1.546,-1.57,2.009,-1.489,296.5,277.9,-4.66,-8.031,1.104,-1.243,7.72,4.601,-4.875,-7.829,6,4.541,4.548,5.044,4.961,1.122,1.199,2.026,1.807,6,4.635,4.783,-80,281.721382732,norm,0,25,25,25,1602.98,1603.0,1603.01169164,1603.012,1603.014,1603.017,down,1,1.51446483739,8.48553516261,001,318,1366_768,Intel(R) Core(TM) i5-4200U CPU @ 1.60GHz,orientation_search,PPW53677,Intel(R) HD Graphics 4400,2018_nov_08_1346,testMonitor,
289.0,303.7,274.0,289.0,36,0,263.7,298.3,285.1,293.4,8.358,7.67,7.688,8.109,7.951,8.363,8.341,4.569,-4.374,-7.993,1.843,-1.542,7.852,4.829,-5.113,-7.829,276.9,,-7.927,270.8,273.7,282.2,281.4,274.0,36,276.0,5,5,prime,10,0,95,norm,36,-4.778,up,norm,283.676718948,291.4,287.6,294.8,270.9,4,302.5,282.8,280.5,10,6,8.048,4.856,1.832,-1.369,-5.273,-8.138,276.3,6,378.7,-8.287,-8.213,0,-7.773,-7.946,-4.537,-5.297,-5.184,-4.762,4.416,8.166,34,-1.121,1.576,5.287,7.636,-8.114,-8.27,-1.524,1.823,289.6,275.3,283.7,300.2,276.0,283.2,295.4,299.1,278.9,278.3,5,norm,1.578,1.369,-1.768,-1.59,-4.999,-5.188,-1.254,-1.455,-1.135,-1.969,1.579,-1.552,289.6,274.9,-4.574,-7.576,1.225,-2.024,8.362,4.311,-5.068,-7.977,6,4.516,5.225,4.442,4.545,1.16,1.482,1.484,1.767,6,4.87,4.972,-80,281.721382732,norm,0,26,26,26,1604.579,1604.593,1604.61168263,1604.612,1604.614,1604.617,up,1,1.11430186839,8.88569813161,001,318,1366_768,Intel(R) Core(TM) i5-4200U CPU @ 1.60GHz,orientation_search,PPW53677,Intel(R) HD Graphics 4400,2018_nov_08_1346,testMonitor,
355.5,351.1,351.7,351.2,36,80,349.8,350.3,356.3,349.3,7.922,7.531,7.819,8.295,7.85,7.988,8.452,4.895,-5.204,-7.679,1.395,-1.462,8.139,4.345,-4.328,-8.176,349.2,361.2,-8.271,344.5,349.2,355.1,362.2,354.2,36,349.9,1,5,probe,5,0,68,norm,36,-4.799,down,norm,352.171981013,352.5,360.5,348.9,353.2,0,350.5,356.7,354.1,10,6,7.892,4.529,1.589,-1.977,-5.1,-7.742,344.4,1,284.2,-7.807,-7.96,0,-8.485,-7.63,-4.738,-5.155,-4.302,-4.461,5.117,7.888,6,-1.799,1.64,5.251,8.479,-7.988,-7.71,-1.772,1.725,352.8,354.7,351.4,350.1,343.3,347.1,342.2,,360.8,350.4,0,norm,1.785,1.835,-1.962,-1.304,-4.478,-4.445,-1.558,-1.305,-1.269,-1.233,1.143,-1.425,359.4,352.8,-4.657,-8.477,1.341,-1.851,7.661,4.639,-5.064,-8.199,7,5.273,4.595,4.962,4.879,1.331,1.749,1.785,1.368,7,4.963,4.611,0,283.676718948,norm,0,27,27,27,1605.78,1605.797,1605.8182802,1605.819,1605.821,1605.823,down,1,1.96376260254,8.03623739746,001,318,1366_768,Intel(R) Core(TM) i5-4200U CPU @ 1.60GHz,orientation_search,PPW53677,Intel(R) HD Graphics 4400,2018_nov_08_1346,testMonitor,
298.8,,302.8,276.9,36,30,295.8,301.1,294.3,314.4,8.163,8.152,7.515,8.472,7.608,7.632,8.463,4.647,-4.889,-7.81,1.528,-1.214,7.711,4.739,-5.244,-8.298,279.0,310.3,-7.844,297.8,294.9,282.2,284.8,314.1,36,295.0,3,5,prime,10,0,117,norm,36,-4.592,up,norm,294.448857557,283.3,301.3,290.3,285.0,5,302.2,288.3,298.1,10,6,8.279,4.468,1.154,-1.7,-5.201,-8.394,301.8,6,411.4,-7.62,-8.079,30,-8.362,-8.12,-5.24,-5.275,-5.183,-4.944,4.8,8.145,23,-1.76,1.925,4.335,8.244,-7.555,-8.456,-1.559,1.438,294.5,308.2,274.4,299.1,286.5,298.8,303.7,295.4,309.5,286.6,0,norm,1.401,1.126,-1.966,-1.527,-5.219,-5.065,-1.625,-1.183,-1.69,-1.98,1.276,-1.785,309.0,306.7,-4.645,-8.185,1.961,-1.554,8.022,4.95,-5.242,-7.645,8,5.14,5.254,5.258,4.873,1.665,1.256,1.618,1.981,8,4.69,5.031,80,283.676718948,norm,0,28,28,28,1607.836,1607.858,1607.86776529,1607.868,1607.872,1607.876,up,1,2.31148320085,7.68851679915,001,318,1366_768,Intel(R) Core(TM) i5-4200U CPU @ 1.60GHz,orientation_search,PPW53677,Intel(R) HD Graphics 4400,2018_nov_08_1346,testMonitor,
302.1,303.6,299.4,289.8,36,30,284.0,,289.5,287.6,7.972,8.097,7.564,7.788,8.317,7.525,7.515,4.504,-4.316,-8.284,2.075,-1.468,8.016,4.819,-4.987,-7.598,282.4,296.7,-7.992,281.1,283.7,304.9,284.2,301.9,36,288.0,4,5,prime,10,0,91,norm,36,-4.384,down,norm,294.448857557,312.8,311.8,294.5,290.9,1,274.4,296.5,300.0,10,6,8.008,4.468,1.473,-1.261,-4.672,-8.291,293.3,6,385.4,-8.412,-8.218,30,-8.46,-8.235,-5.273,-4.764,-4.786,-4.965,5.295,7.781,25,-1.822,1.756,4.694,8.08,-7.838,-8.093,-1.537,1.157,291.5,297.3,292.6,314.4,279.5,301.8,287.9,303.5,281.5,299.1,1,norm,1.367,1.297,-1.625,-1.183,-5.173,-4.311,-1.663,-1.157,-1.833,-1.714,1.528,-2.09,287.1,307.3,-5.241,-7.738,1.281,-1.916,7.72,4.958,-4.646,-7.938,8,4.424,4.329,4.903,4.556,1.656,1.993,1.421,1.733,8,5.072,4.729,80,283.676718948,norm,0,29,29,29,1610.236,1610.258,1610.26775155,1610.268,1610.272,1610.276,down,1,2.39036742548,7.60963257452,001,318,1366_768,Intel(R) Core(TM) i5-4200U CPU @ 1.60GHz,orientation_search,PPW53677,Intel(R) HD Graphics 4400,2018_nov_08_1346,testMonitor,
302.1,314.4,283.3,283.4,36,30,284.9,300.5,291.6,287.4,8.07,8.211,7.757,7.983,8.257,7.53,7.516,4.688,-5.169,-8.275,1.471,-2.051,8.178,5.141,-5.261,-7.962,312.3,276.5,-7.779,305.2,303.5,286.3,283.3,308.7,36,289.2,1,5,prime,10,0,102,norm,36,-4.66,down,norm,294.448857557,274.4,304.5,300.1,279.6,1,285.0,312.7,298.3,10,6,8.029,4.748,1.288,-1.913,-4.601,-8.289,301.0,6,396.4,-7.999,-8.05,30,-7.545,-8.5,-5.242,-4.645,-5.134,-4.674,5.009,7.642,7,-2.03,1.223,5.066,7.822,-8.188,-7.601,-1.38,1.312,298.5,296.1,312.0,289.5,286.5,280.5,,299.6,307.4,309.6,2,norm,1.797,1.291,-1.165,-1.83,-5.024,-5.19,-1.966,-1.245,-1.735,-1.729,1.625,-1.218,304.7,286.6,-4.741,-8.498,1.665,-1.659,8.077,4.576,-5.051,-8.23,8,5.284,4.756,4.325,5.007,1.545,1.651,1.559,1.668,8,5.24,4.836,80,283.676718948,norm,0,30,30,30,1612.714,1612.728,1612.74664925,1612.747,1612.75,1612.753,down,1,4.69064137583,5.30935862417,001,318,1366_768,Intel(R) Core(TM) i5-4200U CPU @ 1.60GHz,orientation_search,PPW53677,Intel(R) HD Graphics 4400,2018_nov_08_1346,testMonitor,
298.9,298.6,296.5,288.5,36,30,295.5,293.4,301.2,298.8,7.769,7.672,8.25,7.804,8.17,7.581,8.214,5.27,-5.023,-7.566,1.564,-1.599,7.619,4.339,-4.796,-7.597,283.5,274.4,-8.102,303.2,298.1,292.2,287.6,296.4,36,296.5,2,5,prime,10,0,82,norm,36,-4.758,up,norm,294.448857557,277.5,,293.9,293.5,4,302.6,303.4,291.6,10,6,7.565,4.548,1.718,-1.565,-4.917,-7.532,308.3,6,376.4,-7.926,-7.549,30,-7.727,-8.295,-4.624,-4.508,-4.949,-4.94,4.561,8.467,16,-1.581,1.693,5.107,8.491,-8.085,-7.572,-1.91,1.922,280.3,276.6,286.4,289.8,284.2,291.3,305.5,300.4,314.4,302.9,3,norm,1.918,2.023,-1.113,-1.7,-4.87,-4.815,-1.867,-1.671,-1.863,-1.759,1.482,-1.42,276.3,290.8,-4.884,-7.56,1.354,-1.766,8.181,4.628,-4.314,-8.266,8,4.476,4.375,5.058,4.414,1.533,1.399,1.262,1.949,8,5.11,5.077,80,283.676718948,norm,0,31,31,31,1617.493,1617.511,1617.5246977,1617.525,1617.529,1617.533,up,1,2.49085664485,7.50914335515,001,318,1366_768,Intel(R) Core(TM) i5-4200U CPU @ 1.60GHz,orientation_search,PPW53677,Intel(R) HD Graphics 4400,2018_nov_08_1346,testMonitor,
296.3,300.6,306.3,313.4,36,30,284.3,281.3,284.8,304.3,7.689,7.705,7.818,8.29,8.334,8.225,7.564,4.57,-5.07,-8.499,1.903,-1.874,7.691,4.803,-4.937,-7.738,301.4,290.1,-8.267,296.8,298.1,299.3,293.5,298.7,36,287.9,0,5,prime,10,0,84,norm,36,-4.536,down,norm,294.448857557,305.5,289.2,277.6,297.6,2,274.4,295.5,293.8,10,6,7.996,5.222,2.094,-1.134,-4.325,-7.663,288.9,6,378.4,-7.679,-7.936,30,-7.585,-8.306,-4.891,-5.047,-4.879,-4.607,4.953,8.433,2,-1.103,1.59,4.31,7.825,-7.9,-7.958,-1.491,1.912,295.6,293.8,293.0,,288.1,303.3,293.2,314.4,291.6,296.6,4,norm,1.249,1.95,-1.673,-2.047,-4.823,-4.707,-1.146,-2.036,-1.723,-1.355,1.76,-1.269,283.6,291.0,-4.784,-8.136,1.442,-2.003,8.438,5.12,-5.085,-7.519,8,4.445,4.402,4.718,4.779,1.207,1.278,1.427,1.968,8,5.247,5.219,80,283.676718948,norm,0,32,32,32,1620.072,1620.086,1620.10460852,1620.105,1620.108,1620.111,down,1,2.2704254553,7.7295745447,001,318,1366_768,Intel(R) Core(TM) i5-4200U CPU @ 1.60GHz,orientation_search,PPW53677,Intel(R) HD Graphics 4400,2018_nov_08_1346,testMonitor,
290.0,298.2,309.5,304.0,36,30,,312.8,292.7,311.6,8.304,8.236,7.934,7.691,7.812,8.399,8.077,4.669,-5.187,-8.052,1.189,-1.233,8.216,5.15,-4.557,-8.244,297.5,310.1,-8.322,302.5,278.0,279.3,274.4,302.3,36,292.0,4,5,prime,10,0,61,norm,36,-4.932,down,norm,294.448857557,289.5,302.1,286.2,305.1,0,293.7,291.5,288.8,10,6,8.175,4.421,1.435,-1.47,-4.761,-8.28,282.5,6,355.4,-8.471,-7.568,30,-7.945,-7.575,-4.858,-4.866,-4.318,-4.533,4.639,8.048,24,-1.756,1.105,4.928,7.565,-7.812,-8.473,-1.897,1.669,288.4,296.8,314.4,294.7,297.1,296.1,305.3,290.9,291.2,310.8,5,norm,1.309,1.495,-1.459,-2.025,-5.123,-4.9,-1.536,-1.253,-1.478,-1.378,1.896,-1.298,291.8,283.0,-4.823,-7.511,1.828,-1.466,8.464,4.423,-5.161,-8.074,8,5.296,5.089,5.088,4.428,1.899,1.299,1.728,1.473,8,4.462,4.935,80,283.676718948,norm,0,33,33,33,1622.412,1622.426,1622.44454837,1622.445,1622.448,1622.451,down,1,1.1918741301,8.8081258699,001,318,1366_768,Intel(R) Core(TM) i5-4200U CPU @ 1.60GHz,orientation_search,PPW53677,Intel(R) HD Graphics 4400,2018_nov_08_1346,testMonitor,
403.0,406.2,394.2,406.4,36,-80,394.2,398.4,403.4,406.1,8.235,8.255,8.172,8.139,7.803,8.245,8.347,4.343,-4.98,-7.82,1.796,-1.849,8.025,5.092,-4.448,-7.9,392.2,392.2,-8.397,404.5,403.0,394.7,396.6,399.4,36,402.8,1,5,probe,5,0,77,norm,36,-4.337,up,norm,400.199058676,397.4,408.0,403.5,401.7,3,395.4,398.0,400.4,10,6,7.65,4.753,1.257,-1.246,-4.657,-8.181,396.7,2,323.2,-8.046,-7.87,30,-7.904,-7.591,-5.248,-5.086,-4.782,-4.591,4.488,8.294,9,-1.64,1.741,4.586,8.226,-8.204,-8.27,-1.282,2.007,,399.8,396.3,400.7,400.5,407.8,408.0,397.9,390.2,410.2,0,norm,1.79,1.199,-1.834,-1.462,-4.93,-4.576,-1.651,-1.589,-1.432,-2.091,1.979,-2.075,399.2,400.3,-4.616,-8.476,1.876,-2.043,8.096,5.271,-4.571,-8.068,9,4.356,4.972,4.559,5.058,1.401,1.851,1.727,1.477,9,4.765,5.131,30,294.448857557,norm,0,34,34,34,1623.691,1623.705,1623.72357254,1623.724,1623.727,1623.73,down,0,0.892967477153,-10,001,318,1366_768,Intel(R) Core(TM) i5-4200U CPU @ 1.60GHz,orientation_search,PPW53677,Intel(R) HD Graphics 4400,2018_nov_08_1346,testMonitor,
386.6,384.5,385.6,379.9,36,-80,383.3,387.4,381.4,384.7,8.201,8.214,8.46,7.643,8.015,8.459,7.768,5.039,-4.391,-7.575,1.485,-1.97,8.134,5.0,-5.275,-8.387,383.6,390.7,-7.84,,393.5,394.5,389.1,392.0,36,391.1,5,5,probe,5,0,65,norm,36,-4.367,down,norm,388.199058676,385.2,392.2,389.2,387.0,1,390.2,380.0,394.5,10,6,7.773,5.16,1.802,-1.427,-5.161,-7.898,383.3,2,323.2,-8.423,-7.675,30,-7.982,-7.591,-4.929,-4.981,-4.595,-4.987,4.497,7.919,31,-1.375,1.482,4.704,7.76,-8.437,-8.328,-1.826,1.473,386.7,378.2,388.9,386.7,390.5,391.0,393.9,384.3,398.2,390.0,1,norm,1.538,1.174,-2.065,-1.559,-5.06,-4.303,-1.665,-2.009,-1.352,-2.038,1.399,-1.917,381.3,388.8,-5.059,-8.025,1.629,-1.918,8.185,4.48,-4.982,-7.69,9,5.118,5.048,4.776,4.654,2.051,1.905,2.06,2.086,9,5.133,4.671,30,294.448857557,norm,0,35,35,35,1625.711,1625.722,1625.73018903,1625.73,1625.733,1625.735,down,1,1.20780019965,8.79219980035,001,318,1366_768,Intel(R) Core(TM) i5-4200U CPU @ 1.60GHz,orientation_search,PPW53677,Intel(R) HD Graphics 4400,2018_nov_08_1346,testMonitor,
84.9,89.8,84.6,84.7,36,60,104.8,106.0,80.2,82.2,7.684,8.194,7.818,7.586,7.951,7.663,8.051,4.816,-4.941,-8.102,1.888,-1.129,7.82,4.589,-4.73,-8.291,83.9,66.8,-8.182,89.7,92.3,88.0,90.1,105.3,36,92.5,0,5,prime,10,0,81,norm,36,-5.211,down,norm,85.9504577664,88.8,89.0,90.0,93.1,1,92.2,88.3,67.8,10,6,8.495,4.975,2.087,-1.89,-4.602,-8.475,84.8,6,167.0,-8.106,-8.049,60,-7.836,-8.084,-4.81,-4.587,-4.808,-5.094,4.922,7.567,1,-1.92,1.817,5.096,7.681,-8.145,-8.188,-1.454,1.288,91.3,75.0,104.1,71.8,,75.0,89.1,90.5,90.0,78.7,0,norm,1.847,1.51,-1.129,-1.37,-4.406,-4.852,-1.71,-1.918,-1.58,-1.105,1.966,-1.55,96.9,66.0,-5.222,-7.675,2.089,-2.094,7.649,4.748,-4.976,-8.488,10,4.467,4.875,4.543,4.603,1.768,1.496,1.465,1.821,10,5.221,4.545,-80,294.448857557,norm,0,36,36,36,1626.991,1627.005,1627.02345781,1627.024,1627.027,1627.03,down,1,2.11249858875,7.88750141125,001,318,1366_768,Intel(R) Core(TM) i5-4200U CPU @ 1.60GHz,orientation_search,PPW53677,Intel(R) HD Graphics 4400,2018_nov_08_1346,testMonitor,
81.3,94.9,97.4,66.0,36,60,88.6,90.4,90.2,106.0,7.629,8.456,7.965,8.332,7.527,7.842,8.036,4.553,-4.571,-7.923,1.877,-1.783,7.803,4.454,-4.572,-8.219,94.9,99.1,-8.486,83.6,77.2,90.7,73.4,,36,75.0,4,5,prime,10,0,75,norm,36,-5.069,down,norm,85.9504577664,91.4,73.7,95.6,95.3,2,83.1,92.7,91.9,10,6,7.92,4.454,1.514,-1.81,-4.915,-7.805,75.5,6,161.0,-7.816,-8.486,60,-7.984,-8.431,-5.095,-4.723,-4.758,-4.779,5.234,7.85,26,-2.077,1.839,4.596,7.862,-7.999,-7.997,-1.925,1.432,80.6,90.3,83.5,83.6,93.8,98.7,78.7,78.3,79.9,89.4,1,norm,1.585,1.251,-1.635,-1.795,-5.257,-4.94,-1.122,-1.861,-1.382,-1.457,2.027,-1.496,72.9,99.7,-4.644,-8.014,1.905,-1.108,7.556,4.666,-4.362,-8.156,10,4.411,5.046,5.154,4.611,1.641,1.454,1.549,1.761,10,5.228,5.174,-80,294.448857557,norm,0,37,37,37,1629.192,1629.206,1629.2235741,1629.224,1629.226,1629.229,down,1,1.39418238159,8.60581761841,001,318,1366_768,Intel(R) Core(TM) i5-4200U CPU @ 1.60GHz,orientation_search,PPW53677,Intel(R) HD Graphics 4400,2018_nov_08_1346,testMonitor,
87.1,,87.8,87.1,36,60,99.0,86.9,91.9,66.0,8.062,8.24,7.827,8.027,8.239,7.502,8.352,4.611,-4.905,-8.106,1.943,-1.763,7.821,4.683,-4.528,-8.438,84.2,103.5,-8.298,91.4,85.2,74.2,87.9,80.5,36,99.0,3,5,prime,10,0,70,norm,36,-5.013,up,norm,85.9504577664,83.3,67.5,75.4,82.8,5,80.3,106.0,79.1,10,6,7.529,4.961,1.272,-1.303,-4.703,-8.042,78.9,6,156.0,-7.785,-7.556,60,-7.845,-7.633,-5.292,-4.576,-5.017,-4.447,4.97,8.068,23,-1.478,1.916,4.794,8.172,-7.694,-7.977,-1.583,1.935,77.4,83.6,75.4,79.7,91.2,82.6,98.6,73.1,85.8,90.4,2,norm,1.746,1.853,-1.505,-1.581,-4.342,-4.716,-2.031,-2.022,-1.289,-1.184,1.304,-2.018,92.9,90.5,-5.227,-8.139,1.208,-1.511,7.54,4.525,-4.69,-7.824,10,4.943,4.56,4.801,4.702,1.9,1.441,1.417,1.189,10,4.862,4.853,-80,294.448857557,norm,0,38,38,38,1630.655,1630.745,1630.75345762,1630.754,1630.756,1630.759,up,1,1.09391557117,8.90608442883,001,318,1366_768,Intel(R) Core(TM) i5-4200U CPU @ 1.60GHz,orientation_search,PPW53677,Intel(R) HD Graphics 4400,2018_nov_08_1346,testMonitor,
74.2,86.8,75.4,84.7,36,60,105.5,76.3,91.5,86.9,8.128,7.797,8.246,8.462,8.332,8.07,7.585,4.483,-4.46,-8.269,2.036,-1.527,8.494,4.83,-4.778,-8.094,105.1,79.8,-8.463,96.8,86.6,106.0,94.9,90.3,36,68.1,1,5,prime,10,0,95,norm,36,-4.561,down,norm,85.9504577664,88.5,81.5,103.6,66.0,0,79.6,103.2,79.9,10,6,7.549,4.409,1.194,-1.312,-5.293,-8.21,81.3,6,181.0,-7.966,-8.247,60,-8.46,-8.163,-4.669,-4.96,-5.053,-5.074,5.184,8.075,6,-1.483,1.797,4.351,7.639,-8.464,-8.461,-1.606,1.742,84.7,101.4,80.6,83.8,80.2,90.6,89.5,,99.4,92.9,3,norm,1.786,1.985,-1.481,-1.571,-4.544,-4.412,-1.799,-1.794,-1.54,-1.642,1.26,-1.915,87.9,80.4,-4.579,-8.24,1.295,-1.851,8.023,4.552,-4.669,-8.37,10,4.477,5.189,4.641,5.267,1.51,1.387,1.78,1.804,10,5.064,4.676,-80,294.448857557,norm,0,39,39,39,1631.903,1631.932,1631.95020164,1631.951,1631.953,1631.956,down,1,1.54741831134,8.45258168866,001,318,1366_768,Intel(R) Core(TM) i5-4200U CPU @ 1.60GHz,orientation_search,PPW53677,Intel(R) HD Graphics 4400,2018_nov_08_1346,testMonitor,
79.1,94.6,90.8,89.6,36,60,76.2,87.1,82.6,105.2,7.655,8.011,7.945,8.399,8.42,7.658,7.597,4.955,-5.232,-8.089,1.814,-1.751,8.38,5.214,-5.127,-8.163,67.2,83.5,-8.412,83.2,82.7,79.9,89.3,92.8,36,69.3,1,5,prime,10,0,62,norm,36,-4.873,up,norm,85.9504577664,98.2,66.0,90.3,87.1,5,,106.0,66.7,10,6,8.27,5.161,1.375,-2.058,-4.759,-7.914,76.8,6,148.0,-8.019,-7.606,60,-7.89,-7.656,-4.556,-4.335,-4.861,-4.309,5.277,8.485,11,-1.671,1.228,4.311,7.775,-8.173,-7.561,-1.93,1.762,89.2,93.8,78.4,83.4,93.3,97.7,98.8,102.4,90.7,84.6,4,norm,1.454,1.204,-1.415,-1.407,-5.155,-5.213,-1.513,-1.362,-1.132,-1.655,2.037,-1.875,67.2,82.9,-4.365,-8.243,1.566,-1.793,7.503,5.085,-4.668,-8.455,10,4.426,5.278,4.547,4.496,1.123,1.76,1.933,1.399,10,5.192,4.601,-80,294.448857557,norm,0,40,40,40,1633.536,1633.554,1633.56793848,1633.568,1633.57,1633.573,up,1,1.27072176256,8.72927823744,001,318,1366_768,Intel(R) Core(TM) i5-4200U CPU @ 1.60GHz,orientation_search,PPW53677,Intel(R) HD Graphics 4400,2018_nov_08_1346,testMonitor,
,97.8,78.7,87.8,36,60,106.0,78.7,72.5,80.9,7.977,7.656,8.419,7.621,7.911,7.597,8.302,4.905,-4.889,-7.951,1.93,-1.516,7.998,4.813,-4.741,-7.503,72.1,99.3,-7.512,95.0,83.6,78.7,95.9,97.9,36,94.6,3,5,prime,10,0,80,norm,36,-5.131,up,norm,85.9504577664,66.0,72.3,82.3,86.4,4,88.4,91.3,99.6,10,6,8.148,4.465,1.197,-1.472,-4.343,-7.81,89.8,6,166.0,-8.216,-8.291,60,-7.772,-8.155,-4.552,-5.292,-5.014,-4.598,5.166,7.535,22,-1.538,1.116,4.564,7.846,-8.099,-7.813,-1.846,1.119,82.7,71.8,101.2,101.2,72.7,88.8,88.4,91.0,77.1,91.4,5,norm,1.949,1.715,-1.849,-1.402,-4.79,-4.48,-1.662,-1.539,-1.61,-1.82,1.446,-1.508,79.0,89.2,-4.427,-7.874,1.539,-1.655,7.705,4.843,-5.011,-8.093,10,4.624,4.427,5.225,4.451,1.29,1.582,1.149,1.175,10,4.819,5.131,-80,294.448857557,norm,0,41,41,41,1634.893,1634.913,1634.92464737,1634.925,1634.929,1634.934,up,1,4.06906012137,5.93093987863,001,318,1366_768,Intel(R) Core(TM) i5-4200U CPU @ 1.60GHz,orientation_search,PPW53677,Intel(R) HD Graphics 4400,2018_nov_08_1346,testMonitor,
235.1,221.1,223.2,237.0,36,-10,226.5,231.4,230.7,224.3,8.315,8.378,8.055,8.339,8.218,8.124,8.121,4.454,-4.409,-7.541,1.974,-1.458,7.694,4.501,-5.195,-7.555,218.6,230.1,-8.331,225.2,235.4,228.9,217.0,228.8,36,219.6,0,5,probe,5,0,84,norm,36,-5.236,down,norm,226.983862993,223.8,225.5,220.5,220.9,1,219.0,227.2,236.9,10,6,7.91,4.776,1.877,-1.835,-5.209,-7.959,227.2,1,143.0,-7.561,-8.473,60,-8.428,-7.972,-4.503,-4.431,-4.623,-4.976,4.617,8.265,1,-1.459,1.723,4.879,7.528,-7.922,-8.261,-1.524,1.369,234.3,227.8,223.3,232.6,,231.1,231.6,225.3,228.4,226.5,0,norm,1.66,1.361,-1.305,-1.66,-4.66,-5.246,-1.261,-1.204,-1.587,-1.623,1.146,-1.343,221.2,222.5,-4.843,-7.997,1.16,-1.749,8.091,5.137,-4.578,-8.064,11,4.552,4.611,4.406,5.132,1.212,1.776,1.97,1.425,11,5.152,4.365,60,85.9504577664,norm,0,42,42,42,1639.051,1639.066,1639.08355731,1639.084,1639.086,1639.09,down,1,1.45277937558,8.54722062442,001,318,1366_768,Intel(R) Core(TM) i5-4200U CPU @ 1.60GHz,orientation_search,PPW53677,Intel(R) HD Graphics 4400,2018_nov_08_1346,testMonitor,
227.4,220.2,211.7,209.1,36,-10,230.0,221.6,208.7,215.3,8.068,8.397,7.669,8.014,7.715,8.321,8.019,4.396,-4.747,-7.826,2.003,-1.285,7.56,5.266,-4.958,-8.272,225.7,229.7,-7.696,208.7,229.6,213.0,224.0,221.0,36,202.6,1,5,prime,10,0,60,norm,36,-4.609,down,norm,219.540445932,207.5,215.2,232.5,212.3,1,224.9,233.6,214.3,10,5,7.88,4.41,1.796,-1.752,-4.757,-7.753,210.8,5,279.5,-7.977,-7.891,-10,-7.588,-8.02,-4.775,-4.341,-4.977,-5.033,4.408,7.79,7,-2.061,1.341,4.944,8.082,-7.76,-8.379,-1.925,2.079,199.5,212.6,239.5,219.8,225.6,229.6,,222.5,224.4,234.2,0,norm,1.743,1.218,-1.912,-1.622,-4.493,-4.89,-2.025,-1.104,-1.911,-1.462,1.621,-1.146,226.4,205.5,-4.411,-8.197,1.931,-1.869,8.454,4.916,-5.248,-7.872,12,4.62,4.877,4.546,4.892,1.709,1.658,1.341,1.982,12,5.081,5.011,-10,85.9504577664,norm,0,43,43,43,1640.592,1640.612,1640.62361971,1640.624,1640.628,1640.633,down,1,1.26990736381,8.73009263619,001,318,1366_768,Intel(R) Core(TM) i5-4200U CPU @ 1.60GHz,orientation_search,PPW53677,Intel(R) HD Graphics 4400,2018_nov_08_1346,testMonitor,
221.5,210.6,223.5,213.5,36,-10,218.9,227.1,228.6,217.9,7.672,7.527,8.025,7.981,8.047,7.719,7.966,4.959,-4.595,-7.619,1.521,-1.463,8.271,5.155,-4.543,-7.683,228.4,223.5,-8.466,220.3,237.6,209.4,226.0,219.7,36,217.6,1,5,prime,10,0,115,norm,36,-4.927,up,norm,219.540445932,216.1,214.0,216.1,228.0,4,209.0,228.1,213.6,10,5,8.228,5.151,1.29,-1.551,-5.199,-8.369,,5,334.5,-7.861,-7.79,-10,-8.251,-8.293,-4.846,-4.613,-4.71,-4.48,4.807,8.122,10,-1.469,1.801,4.305,8.288,-7.765,-7.869,-1.31,1.771,207.8,236.2,233.0,222.6,214.4,208.9,199.5,212.2,239.5,213.2,1,norm,1.699,1.164,-1.969,-1.857,-4.731,-4.455,-1.533,-1.284,-1.14,-1.168,1.327,-1.164,224.5,218.7,-4.422,-8.286,2.009,-1.525,8.256,5.035,-4.439,-8.215,12,4.475,4.905,4.809,4.946,1.994,1.967,1.887,1.214,12,5.231,5.217,-10,85.9504577664,norm,0,44,44,44,1641.942,1641.956,1641.97358983,1641.974,1641.976,1641.979,up,1,1.13546284847,8.86453715153,001,318,1366_768,Intel(R) Core(TM) i5-4200U CPU @ 1.60GHz,orientation_search,PPW53677,Intel(R) HD Graphics 4400,2018_nov_08_1346,testMonitor,
221.3,213.4,213.4,229.5,36,-10,216.8,216.1,239.5,220.4,7.569,7.753,7.615,7.598,8.437,7.714,7.767,5.231,-4.789,-7.925,1.785,-1.814,7.536,4.758,-4.764,-8.165,223.9,237.9,-7.833,213.5,,231.9,233.4,210.4,36,215.1,5,5,prime,10,0,114,norm,36,-5.049,down,norm,219.540445932,220.1,225.4,223.6,219.2,0,210.2,199.5,219.5,10,5,8.302,4.634,1.597,-1.757,-4.806,-8.322,205.3,5,333.5,-8.458,-7.87,-10,-8.048,-7.846,-4.749,-5.205,-4.96,-4.319,4.47,7.779,30,-1.343,1.173,4.466,7.669,-8.045,-8.014,-2.02,1.156,229.0,228.8,218.6,225.7,217.4,218.7,221.8,225.1,221.4,208.5,2,norm,1.836,1.785,-1.72,-1.36,-4.592,-4.857,-1.44,-1.374,-1.64,-1.653,1.481,-1.611,213.6,224.7,-4.542,-7.883,1.474,-1.786,7.594,4.961,-5.19,-7.656,12,4.94,4.47,4.965,4.963,1.919,1.117,1.535,1.315,12,4.537,4.437,-10,85.9504577664,norm,0,45,45,45,1643.162,1643.176,1643.19455964,1643.195,1643.197,1643.201,down,1,1.59282427685,8.40717572315,001,318,1366_768,Intel(R) Core(TM) i5-4200U CPU @ 1.60GHz,orientation_search,PPW53677,Intel(R) HD Graphics 4400,2018_nov_08_1346,testMonitor,
208.7,206.8,212.3,213.1,36,-10,229.1,239.5,231.9,210.1,8.489,8.238,8.3,7.972,7.974,7.722,8.213,5.08,-4.764,-7.959,1.302,-1.301,7.685,4.532,-4.693,-7.697,212.3,215.8,-8.065,221.9,229.9,210.2,217.5,,36,231.7,4,5,prime,10,0,111,norm,36,-4.364,down,norm,219.540445932,220.3,234.9,228.2,229.2,2,216.3,223.5,218.0,10,5,7.557,4.574,1.25,-1.914,-4.722,-7.507,206.8,5,330.5,-7.72,-8.174,-10,-8.041,-8.205,-4.722,-4.48,-4.583,-5.047,4.475,7.786,26,-1.43,2.021,4.477,8.322,-8.041,-7.814,-1.389,1.438,212.6,206.4,221.5,214.5,219.0,223.7,199.5,216.1,207.3,212.4,3,norm,1.61,1.213,-1.872,-2.017,-5.017,-4.65,-2.098,-1.567,-1.369,-1.239,1.26,-1.383,214.8,211.0,-5.04,-8.477,1.103,-2.09,8.496,5.099,-4.458,-7.638,12,4.846,5.046,4.88,4.552,1.735,1.143,1.769,2.017,12,5.255,4.328,-10,85.9504577664,norm,0,46,46,46,1644.842,1644.857,1644.87452413,1644.875,1644.877,1644.881,down,1,4.2528098988,5.7471901012,001,318,1366_768,Intel(R) Core(TM) i5-4200U CPU @ 1.60GHz,orientation_search,PPW53677,Intel(R) HD Graphics 4400,2018_nov_08_1346,testMonitor,
239.5,226.9,227.4,220.4,36,-10,235.8,237.6,210.6,217.2,7.89,7.989,7.655,7.93,8.372,8.398,7.964,5.157,-4.893,-8.356,1.522,-1.493,7.919,4.727,-4.961,-8.038,213.5,229.5,-7.897,223.3,220.0,199.5,218.4,222.8,36,239.3,0,5,prime,10,0,101,norm,36,-4.495,up,norm,219.540445932,210.4,232.6,218.4,223.1,5,207.8,227.5,221.6,10,5,7.923,4.78,1.791,-1.539,-4.394,-8.205,220.3,5,320.5,-7.537,-8.117,-10,-8.186,-7.625,-4.414,-4.913,-5.285,-4.311,4.68,8.247,5,-1.287,2.047,4.568,7.91,-8.461,-7.982,-1.662,1.968,214.7,235.7,208.4,238.3,225.9,224.0,215.9,220.1,,229.0,4,norm,1.929,1.431,-1.212,-1.489,-4.916,-4.778,-1.451,-1.606,-1.949,-1.255,1.538,-1.364,215.9,223.4,-4.613,-7.988,1.984,-1.694,8.179,4.945,-4.437,-8.37,12,4.698,4.45,4.519,4.302,1.477,1.489,1.167,1.855,12,5.3,4.646,-10,85.9504577664,norm,0,47,47,47,1649.166,1649.186,1649.19792879,1649.198,1649.202,1649.207,up,1,1.04732437658,8.95267562342,001,318,1366_768,Intel(R) Core(TM) i5-4200U CPU @ 1.60GHz,orientation_search,PPW53677,Intel(R) HD Graphics 4400,2018_nov_08_1346,testMonitor,
307.1,297.2,308.8,297.5,36,0,298.6,292.5,302.9,299.4,8.375,7.989,7.731,7.649,8.252,7.658,8.254,4.772,-5.219,-8.059,1.705,-1.356,7.9,4.5,-4.801,-7.714,304.7,311.4,-7.9,306.2,305.5,297.5,308.7,303.4,36,296.6,1,5,probe,5,0,93,norm,36,-5.014,down,norm,302.471859244,307.3,296.3,304.5,297.9,0,302.0,303.9,296.6,10,5,7.646,4.861,1.2,-1.369,-4.659,-7.804,302.3,2,209.5,-8.191,-8.181,-10,-7.65,-7.986,-5.286,-4.405,-5.26,-5.275,5.116,8.407,6,-1.764,1.832,4.382,7.67,-7.616,-7.754,-1.173,1.935,300.7,312.5,296.1,297.8,297.0,300.3,303.1,,301.6,298.4,0,norm,1.597,2.082,-1.841,-1.398,-5.188,-5.033,-1.283,-1.154,-1.341,-1.82,1.415,-1.605,302.2,301.7,-4.417,-8.245,1.753,-1.833,8.304,5.136,-5.27,-7.905,13,4.905,4.654,5.237,4.453,1.258,1.909,1.845,1.295,13,4.578,5.006,-10,219.540445932,norm,0,48,48,48,1650.302,1650.318,1650.33485131,1650.335,1650.337,1650.34,down,1,1.07379836023,8.92620163977,001,318,1366_768,Intel(R) Core(TM) i5-4200U CPU @ 1.60GHz,orientation_search,PPW53677,Intel(R) HD Graphics 4400,2018_nov_08_1346,testMonitor,
296.2,298.7,300.3,296.8,36,0,300.7,298.2,303.3,294.5,8.248,7.754,8.453,8.04,8.298,7.851,8.337,4.833,-4.421,-8.345,1.809,-2.078,8.265,4.961,-5.131,-8.121,305.1,292.4,-7.616,291.4,291.3,292.7,298.2,297.2,36,287.5,1,5,probe,5,0,88,norm,36,-4.955,down,norm,297.471859244,293.8,297.3,292.5,295.2,1,297.8,298.1,301.2,10,5,7.796,4.975,2.047,-1.556,-5.199,-7.838,301.1,2,209.5,-7.798,-7.842,-10,-8.029,-7.962,-5.158,-5.017,-5.231,-4.331,4.609,8.221,7,-1.302,1.52,5.178,7.967,-8.363,-8.082,-2.074,1.527,292.9,297.4,307.5,298.4,299.2,301.3,,290.7,296.7,305.3,1,norm,2.093,2.058,-1.332,-1.221,-4.623,-4.488,-1.4,-1.766,-1.91,-1.957,1.889,-1.101,294.1,288.9,-4.622,-7.761,2.085,-1.272,8.339,5.085,-4.961,-7.894,13,4.71,4.579,5.098,4.481,1.89,1.102,1.967,1.269,13,4.727,4.691,-10,219.540445932,norm,0,49,49,49,1651.446,1651.463,1651.4810852,1651.481,1651.484,1651.487,down,1,1.10727304938,8.89272695062,001,318,1366_768,Intel(R) Core(TM) i5-4200U CPU @ 1.60GHz,orientation_search,PPW53677,Intel(R) HD Graphics 4400,2018_nov_08_1346,testMonitor,
197.0,207.6,199.4,216.6,36,-60,195.6,208.7,,195.4,7.855,7.538,8.12,8.386,8.327,7.666,7.981,4.697,-5.156,-7.958,1.204,-1.44,8.05,5.251,-4.399,-7.972,205.4,199.2,-8.488,193.9,207.7,209.7,204.2,189.8,36,179.2,4,5,prime,10,0,60,norm,36,-4.454,up,norm,196.567575494,194.3,193.2,200.3,192.2,4,183.4,200.7,211.5,10,6,7.637,4.469,1.719,-1.681,-4.958,-7.933,189.7,6,256.6,-8.22,-8.192,-60,-7.62,-7.509,-4.461,-4.799,-4.6,-4.807,5.151,7.912,28,-2.05,1.147,5.224,7.988,-8.023,-7.726,-1.812,1.547,197.8,199.2,193.7,191.4,209.9,176.6,179.6,203.0,187.3,189.9,0,norm,1.214,1.982,-1.529,-1.871,-4.487,-5.082,-1.676,-1.151,-1.166,-1.827,2.085,-2.039,195.4,192.8,-5.283,-7.619,1.746,-1.246,8.469,4.823,-4.879,-8.366,14,4.762,4.802,5.295,5.104,1.652,1.356,1.331,1.965,14,4.47,4.803,0,219.540445932,norm,0,50,50,50,1652.642,1652.656,1652.67441364,1652.675,1652.677,1652.68,up,1,3.69492399763,6.30507600237,001,318,1366_768,Intel(R) Core(TM) i5-4200U CPU @ 1.60GHz,orientation_search,PPW53677,Intel(R) HD Graphics 4400,2018_nov_08_1346,testMonitor,
197.2,202.7,181.5,195.8,36,-60,197.0,190.4,198.5,209.2,7.83,8.258,8.482,7.874,8.416,7.775,7.863,4.471,-4.514,-8.367,1.756,-1.742,8.121,4.491,-4.357,-8.012,189.7,192.3,-7.949,181.4,193.2,179.1,205.3,195.1,36,198.7,2,5,prime,10,0,81,norm,36,-4.909,down,norm,196.567575494,188.3,180.6,210.9,192.4,0,192.7,195.7,,10,6,7.668,4.814,1.584,-2.085,-4.558,-7.565,181.5,6,277.6,-8.465,-8.04,-60,-8.396,-8.072,-4.615,-5.24,-4.586,-5.084,4.717,7.909,12,-1.106,2.046,5.196,8.498,-7.631,-7.956,-1.453,1.833,187.3,216.6,194.2,179.4,192.9,206.9,189.3,197.8,200.4,176.6,1,norm,1.311,1.628,-1.632,-1.752,-5.067,-5.01,-1.657,-1.324,-1.885,-1.54,1.196,-2.099,189.6,205.0,-5.258,-8.167,1.557,-2.076,8.372,4.617,-4.301,-8.257,14,4.332,4.664,5.169,4.628,1.621,2.001,1.375,1.183,14,4.415,4.396,0,219.540445932,norm,0,51,51,51,1656.423,1656.438,1656.45549791,1656.456,1656.458,1656.461,down,1,1.62434931771,8.37565068229,001,318,1366_768,Intel(R) Core(TM) i5-4200U CPU @ 1.60GHz,orientation_search,PPW53677,Intel(R) HD Graphics 4400,2018_nov_08_1346,testMonitor,
196.2,199.8,202.5,196.5,36,-60,196.1,202.5,189.6,197.5,8.18,8.264,7.697,7.82,8.063,7.611,8.415,5.198,-4.674,-7.572,1.245,-1.972,8.232,5.266,-4.402,-8.33,204.8,199.3,-8.448,204.2,195.3,206.2,194.0,185.2,36,209.7,2,5,prime,10,0,99,norm,36,-4.466,up,norm,196.567575494,,191.4,196.9,199.8,5,188.8,191.0,196.5,10,6,8.02,4.681,1.159,-1.894,-5.235,-7.552,194.8,6,295.6,-8.026,-8.069,-60,-8.46,-7.544,-4.828,-4.942,-4.613,-5.027,4.981,7.732,17,-2.056,1.747,4.996,7.587,-7.869,-8.078,-1.749,1.491,176.6,213.3,190.3,192.1,185.3,192.7,189.0,193.2,216.6,191.2,2,norm,1.901,1.123,-1.31,-2.069,-4.418,-4.815,-1.206,-1.444,-1.356,-1.754,2.07,-1.706,198.7,215.7,-5.19,-7.717,2.056,-2.07,8.401,4.314,-4.992,-8.035,14,4.42,4.502,4.77,4.544,2.012,1.332,1.255,1.739,14,4.975,4.97,0,219.540445932,norm,0,52,52,52,1658.133,1658.153,1658.16549787,1658.166,1658.168,1658.171,up,1,1.79397005779,8.20602994221,001,318,1366_768,Intel(R) Core(TM) i5-4200U CPU @ 1.60GHz,orientation_search,PPW53677,Intel(R) HD Graphics 4400,2018_nov_08_1346,testMonitor,
204.1,194.7,199.7,184.6,36,-60,203.3,211.6,199.3,208.8,7.607,8.457,8.392,7.949,8.003,8.414,8.395,4.907,-4.494,-7.595,1.819,-1.421,8.092,4.854,-4.494,-7.542,190.8,201.0,-8.062,210.1,176.6,193.2,206.2,192.5,36,186.9,2,5,prime,10,0,70,norm,36,-4.458,down,norm,196.567575494,199.9,199.3,177.0,189.8,0,202.5,190.9,,10,6,7.671,4.474,1.73,-1.686,-5.265,-7.826,198.3,6,266.6,-8.401,-7.802,-60,-7.623,-7.871,-4.798,-4.301,-4.668,-4.655,5.291,8.355,12,-1.819,1.972,5.287,7.751,-8.105,-7.766,-1.805,1.421,193.5,206.8,184.6,204.3,202.3,214.4,182.4,216.6,196.4,198.0,3,norm,1.464,1.888,-1.87,-1.119,-4.634,-4.873,-1.717,-1.581,-1.554,-1.336,1.747,-1.694,177.9,190.4,-4.979,-8.199,1.324,-1.948,7.567,5.136,-4.965,-7.85,14,5.009,4.925,5.251,4.866,2.098,1.469,1.873,1.116,14,5.256,5.07,0,219.540445932,norm,0,53,53,53,1660.004,1660.018,1660.03548101,1660.036,1660.038,1660.041,down,1,1.5341996156,8.4658003844,001,318,1366_768,Intel(R) Core(TM) i5-4200U CPU @ 1.60GHz,orientation_search,PPW53677,Intel(R) HD Graphics 4400,2018_nov_08_1346,testMonitor,
176.6,201.4,183.6,188.5,36,-60,190.0,193.6,201.4,180.9,8.011,8.263,7.818,8.116,7.737,8.374,7.533,4.84,-4.765,-8.073,1.248,-1.661,7.78,4.42,-4.339,-8.239,190.2,183.1,-7.746,187.6,198.3,193.9,210.9,190.5,36,213.2,0,5,prime,10,0,81,norm,36,-4.775,down,norm,196.567575494,202.3,216.6,204.9,206.2,0,184.7,189.8,183.6,10,6,7.724,4.579,1.647,-1.817,-4.92,-7.648,186.8,6,277.6,-8.022,-7.599,-60,-8.324,-8.39,-4.397,-5.247,-5.155,-4.567,4.963,8.487,0,-1.871,1.5,4.778,8.209,-7.995,-8.114,-1.212,2.001,207.0,186.7,193.0,187.1,201.8,,198.6,205.5,201.5,201.5,4,norm,1.987,1.957,-1.926,-1.994,-5.291,-5.29,-1.239,-1.362,-1.473,-1.658,1.147,-1.697,198.3,206.1,-4.861,-8.105,2.078,-1.208,8.237,4.655,-5.15,-7.594,14,4.597,4.313,4.632,4.923,1.401,1.776,1.905,2.023,14,4.404,4.533,0,219.540445932,norm,0,54,54,54,1661.625,1661.64,1661.66236947,1661.663,1661.665,1661.669,up,0,0.986378790469,-10,001,318,1366_768,Intel(R) Core(TM) i5-4200U CPU @ 1.60GHz,orientation_search,PPW53677,Intel(R) HD Graphics 4400,2018_nov_08_1346,testMonitor,
188.7,192.4,184.5,192.1,36,-60,200.8,190.7,199.5,190.6,7.673,8.496,7.585,7.844,7.976,8.068,7.726,4.723,-5.035,-8.359,2.031,-1.989,7.684,4.739,-4.958,-8.252,201.2,216.6,-8.116,212.1,189.3,194.5,199.6,209.9,36,178.6,0,5,prime,10,0,108,norm,36,-4.304,down,norm,196.567575494,186.7,199.9,186.2,189.1,1,195.8,194.7,205.9,10,6,7.591,5.082,1.184,-1.975,-4.669,-8.08,213.0,6,304.6,-7.573,-7.958,-60,-7.703,-7.688,-4.781,-4.551,-5.022,-4.402,4.314,7.522,1,-1.583,1.186,4.844,8.061,-7.989,-8.403,-1.559,1.144,176.6,213.5,182.7,186.1,,184.0,176.9,198.1,194.7,208.2,5,norm,1.404,1.529,-2.039,-1.968,-4.955,-5.025,-1.327,-1.477,-1.38,-1.485,1.14,-1.424,207.5,195.4,-4.397,-8.152,2.082,-1.555,7.85,5.0,-4.728,-7.944,14,4.345,4.619,4.543,4.395,1.229,1.694,1.802,1.698,14,5.286,4.615,0,219.540445932,norm,0,55,55,55,1663.745,1663.756,1663.76400242,1663.764,1663.766,1663.769,down,1,3.06743712507,6.93256287493,001,318,1366_768,Intel(R) Core(TM) i5-4200U CPU @ 1.60GHz,orientation_search,PPW53677,Intel(R) HD Graphics 4400,2018_nov_08_1346,testMonitor,
218.6,210.2,218.1,217.2,36,10,215.8,218.3,217.4,217.7,7.622,8.178,8.209,7.787,8.166,7.72,8.484,5.299,-5.242,-8.01,1.713,-1.223,8.442,4.471,-5.091,-7.59,221.6,216.4,-7.515,217.8,214.3,215.0,220.0,212.5,36,212.4,3,5,probe,5,0,76,norm,36,-4.59,down,norm,215.719067477,211.5,218.7,223.2,208.8,1,214.8,212.4,214.4,10,6,8.094,4.941,1.119,-1.354,-4.341,-7.866,219.7,2,139.7,-7.785,-7.554,-60,-8.481,-7.949,-4.645,-5.249,-4.752,-4.424,4.725,7.833,19,-1.418,1.977,4.69,7.708,-7.622,-8.481,-1.48,2.049,225.7,205.7,219.6,220.0,221.9,213.8,214.0,222.4,212.9,211.8,0,norm,1.715,1.56,-1.441,-1.886,-5.138,-4.686,-1.8,-1.694,-1.326,-1.387,1.141,-1.441,,224.1,-4.529,-7.912,1.443,-1.89,8.442,4.535,-4.889,-7.934,15,5.186,4.596,4.324,5.07,1.883,1.233,2.038,1.726,15,4.81,4.624,-60,196.567575494,norm,0,56,56,56,1666.876,1666.896,1666.90796,1666.908,1666.912,1666.916,down,1,1.36856697504,8.63143302496,001,318,1366_768,Intel(R) Core(TM) i5-4200U CPU @ 1.60GHz,orientation_search,PPW53677,Intel(R) HD Graphics 4400,2018_nov_08_1346,testMonitor,
196.2,203.9,205.8,205.1,36,10,195.3,208.1,196.3,205.3,8.418,7.507,7.75,8.373,8.237,8.493,7.68,4.95,-4.415,-7.972,1.166,-2.049,7.979,5.285,-5.018,-7.565,202.6,201.8,-8.217,206.7,203.5,212.9,204.8,208.0,36,195.1,3,5,probe,5,0,64,norm,36,-4.558,down,norm,203.719067477,204.8,202.6,193.7,206.1,0,206.8,205.9,210.4,10,6,8.5,5.07,1.898,-1.42,-4.871,-7.92,201.5,2,139.7,-7.508,-8.108,-60,-8.099,-7.502,-4.7,-4.544,-4.866,-4.383,4.934,8.013,18,-1.192,1.894,4.503,7.831,-7.778,-7.63,-1.529,1.351,207.1,204.8,213.7,208.6,204.5,202.0,196.9,203.8,205.7,207.6,1,norm,1.874,1.355,-1.534,-1.882,-4.761,-4.947,-1.739,-1.159,-1.775,-1.923,2.086,-1.378,206.3,,-4.797,-8.206,2.075,-1.66,7.882,5.143,-5.272,-7.622,15,4.456,5.256,5.015,4.473,1.335,1.997,1.616,1.948,15,4.37,4.995,-60,196.567575494,norm,0,57,57,57,1668.333,1668.348,1668.3654736,1668.366,1668.368,1668.37,down,1,1.07438695855,8.92561304145,001,318,1366_768,Intel(R) Core(TM) i5-4200U CPU @ 1.60GHz,orientation_search,PPW53677,Intel(R) HD Graphics 4400,2018_nov_08_1346,testMonitor,
223.6,241.4,234.1,219.5,36,-30,236.7,228.0,219.2,239.1,7.527,8.074,8.432,8.277,7.979,7.787,8.384,4.41,-4.494,-7.692,1.545,-1.403,7.928,4.821,-4.481,-7.943,239.5,237.8,-8.116,231.5,250.5,241.6,237.3,237.9,36,228.6,0,5,prime,10,0,116,norm,36,-4.471,down,norm,239.152648488,242.3,244.1,259.2,221.6,1,226.5,241.9,219.9,10,6,7.916,4.647,1.393,-1.653,-5.06,-7.999,241.4,6,355.2,-7.765,-8.492,-30,-7.677,-7.678,-4.84,-4.979,-5.124,-4.413,4.58,7.716,1,-1.379,1.196,4.517,8.19,-8.327,-8.388,-1.437,1.878,228.9,236.5,252.7,228.6,,238.5,253.2,241.3,239.8,253.7,0,norm,1.674,1.347,-2.026,-1.986,-4.354,-4.95,-1.989,-1.483,-1.132,-1.538,1.454,-1.709,242.4,253.6,-5.128,-8.443,1.32,-1.811,7.778,4.597,-4.706,-7.955,16,5.24,4.854,5.141,4.943,1.268,1.276,1.19,1.775,16,4.637,4.463,10,196.567575494,norm,0,58,58,58,1669.494,1669.514,1669.52566963,1669.526,1669.53,1669.535,down,1,1.94956707455,8.05043292545,001,318,1366_768,Intel(R) Core(TM) i5-4200U CPU @ 1.60GHz,orientation_search,PPW53677,Intel(R) HD Graphics 4400,2018_nov_08_1346,testMonitor,
240.1,234.0,222.0,238.1,36,-30,250.9,248.6,251.3,240.8,8.281,7.673,7.745,8.001,8.167,7.859,8.05,5.281,-4.34,-8.14,1.466,-1.111,8.269,4.421,-4.519,-8.34,226.1,248.5,-7.592,239.9,238.5,239.0,238.5,242.6,36,232.8,0,5,prime,10,0,81,norm,36,-5.017,down,norm,239.152648488,225.7,219.2,237.8,228.5,1,241.5,240.2,240.2,10,6,8.082,4.504,1.6,-1.628,-4.518,-8.406,259.2,6,320.2,-7.744,-7.672,-30,-8.45,-7.91,-5.147,-4.692,-5.053,-4.88,4.748,7.847,1,-1.573,1.241,4.329,8.369,-7.754,-7.768,-1.671,1.429,253.0,234.7,240.3,224.4,,249.6,237.5,252.3,248.5,252.5,1,norm,1.922,2.005,-1.755,-1.767,-4.664,-4.555,-1.591,-1.809,-1.231,-1.625,1.766,-1.947,231.8,244.9,-5.147,-7.589,1.423,-1.161,8.151,5.112,-4.722,-7.804,16,5.167,4.361,4.605,4.555,2.069,1.402,1.768,1.589,16,4.402,5.132,10,196.567575494,norm,0,59,59,59,1671.517,1671.536,1671.54877222,1671.549,1671.553,1671.558,down,1,1.54675875992,8.45324124008,001,318,1366_768,Intel(R) Core(TM) i5-4200U CPU @ 1.60GHz,orientation_search,PPW53677,Intel(R) HD Graphics 4400,2018_nov_08_1346,testMonitor,
239.2,240.5,242.6,224.7,36,-30,225.3,252.6,258.6,259.2,8.374,8.197,8.043,7.893,7.748,7.743,8.006,5.198,-4.403,-7.537,1.612,-1.457,7.992,4.352,-4.837,-8.481,248.7,228.6,-7.584,229.1,230.3,234.3,228.6,257.6,36,248.3,3,5,prime,10,0,93,norm,36,-4.688,down,norm,239.152648488,241.8,230.1,234.4,234.2,1,232.1,233.4,219.2,10,6,8.386,5.055,1.114,-2.058,-4.45,-8.286,231.6,6,332.2,-8.189,-8.155,-30,-8.481,-8.444,-4.654,-5.072,-4.753,-4.767,4.455,8.472,19,-1.619,1.302,5.279,8.148,-8.04,-8.115,-1.927,1.48,240.1,226.8,241.7,243.2,237.6,236.5,242.9,231.5,232.7,248.6,2,norm,1.656,1.29,-2.006,-1.248,-4.963,-4.343,-1.18,-1.289,-1.252,-1.919,2.059,-2.025,,241.8,-4.477,-7.997,1.847,-1.182,8.213,4.951,-4.314,-7.913,16,4.772,4.695,4.742,5.089,1.977,1.489,1.765,1.88,16,4.934,4.314,10,196.567575494,norm,0,60,60,60,1673.153,1673.167,1673.18537679,1673.186,1673.188,1673.192,down,1,1.77319909662,8.22680090338,001,318,1366_768,Intel(R) Core(TM) i5-4200U CPU @ 1.60GHz,orientation_search,PPW53677,Intel(R) HD Graphics 4400,2018_nov_08_1346,testMonitor,
239.6,258.4,258.1,245.2,36,-30,233.6,248.6,239.1,249.2,8.364,7.746,8.148,8.005,8.025,8.113,8.324,4.598,-4.711,-7.674,1.315,-1.85,8.309,4.592,-4.984,-8.22,254.2,245.3,-7.677,231.8,245.8,239.8,221.8,241.2,36,239.0,2,5,prime,10,0,115,norm,36,-5.251,up,norm,239.152648488,233.2,,226.9,237.9,4,251.0,230.7,224.5,10,6,8.138,4.641,1.72,-1.921,-5.186,-8.331,231.2,6,354.2,-7.585,-7.669,-30,-8.001,-8.011,-4.766,-4.571,-4.588,-5.179,5.17,8.042,16,-1.735,1.551,4.592,7.612,-8.229,-8.385,-1.554,2.052,255.8,225.6,242.8,259.2,246.0,228.4,244.1,231.5,253.6,241.2,3,norm,1.988,1.352,-1.86,-1.775,-5.298,-4.817,-1.713,-1.148,-1.86,-1.2,2.064,-1.365,219.2,223.9,-5.192,-8.085,1.694,-1.787,7.96,4.438,-4.556,-8.027,16,4.432,5.293,5.028,4.674,2.014,1.438,1.349,1.745,16,4.724,4.553,10,196.567575494,norm,0,61,61,61,1675.013,1675.032,1675.04543988,1675.046,1675.048,1675.051,up,1,3.13852186404,6.86147813596,001,318,1366_768,Intel(R) Core(TM) i5-4200U CPU @ 1.60GHz,orientation_search,PPW53677,Intel(R) HD Graphics 4400,2018_nov_08_1346,testMonitor,
258.9,248.7,233.4,255.6,36,-30,243.3,259.2,252.3,251.3,8.422,7.889,8.252,8.143,7.933,7.518,8.352,4.914,-4.716,-7.795,1.583,-1.345,7.994,4.504,-4.811,-7.63,238.5,230.3,-7.861,232.7,230.8,242.0,233.2,244.1,36,235.2,1,5,prime,10,0,111,norm,36,-4.365,up,norm,239.152648488,226.4,248.9,234.7,219.2,4,246.8,249.5,234.8,10,6,8.386,4.469,1.899,-1.952,-4.748,-7.891,,6,350.2,-7.851,-7.501,-30,-7.904,-7.905,-5.025,-4.925,-5.214,-4.689,4.694,8.186,10,-1.613,1.615,4.682,8.275,-8.129,-8.334,-1.698,2.077,224.7,241.5,229.5,236.0,233.6,253.4,235.6,232.2,232.4,256.2,4,norm,1.997,1.199,-1.331,-1.904,-5.076,-4.394,-1.49,-1.729,-1.401,-1.34,1.597,-1.838,238.7,238.8,-4.716,-7.661,1.415,-1.466,8.232,5.237,-5.149,-7.515,16,4.464,5.175,4.517,5.223,1.847,1.432,1.802,1.41,16,5.272,4.886,10,196.567575494,norm,0,62,62,62,1678.238,1678.257,1678.27049195,1678.271,1678.274,1678.278,up,1,1.59199158202,8.40800841798,001,318,1366_768,Intel(R) Core(TM) i5-4200U CPU @ 1.60GHz,orientation_search,PPW53677,Intel(R) HD Graphics 4400,2018_nov_08_1346,testMonitor,
229.2,258.9,243.7,246.1,36,-30,235.6,241.8,242.0,231.4,7.925,8.476,7.53,8.061,8.126,8.441,8.153,5.092,-5.053,-7.999,1.332,-1.999,7.699,4.378,-5.067,-8.181,232.5,228.6,-7.547,240.4,242.2,240.7,243.7,259.2,36,222.1,3,5,prime,10,0,81,norm,36,-5.111,down,norm,239.152648488,232.7,232.1,235.8,235.2,1,219.2,244.5,243.8,10,6,8.236,4.698,2.078,-1.276,-5.18,-7.554,232.5,6,320.2,-8.071,-8.006,-30,-7.913,-7.581,-4.641,-5.004,-5.119,-4.346,4.396,8.36,19,-2.086,1.543,5.274,8.078,-7.784,-7.821,-2.034,1.48,237.5,243.0,245.2,250.6,235.0,237.6,220.1,253.6,246.5,254.8,5,norm,1.635,1.414,-1.641,-1.359,-4.37,-5.2,-1.175,-1.608,-1.595,-2.03,1.421,-1.387,,242.4,-4.378,-7.937,1.843,-1.262,7.882,4.524,-4.503,-7.697,16,4.982,5.249,4.318,4.55,1.252,1.582,1.919,1.426,16,4.622,4.682,10,196.567575494,norm,0,63,63,63,1679.918,1679.932,1679.95043279,1679.951,1679.953,1679.957,down,1,1.71314734102,8.28685265898,001,318,1366_768,Intel(R) Core(TM) i5-4200U CPU @ 1.60GHz,orientation_search,PPW53677,Intel(R) HD Graphics 4400,2018_nov_08_1346,testMonitor,
293.9,288.2,287.7,292.2,36,-20,284.4,289.1,295.5,278.3,7.599,7.839,8.131,7.552,7.853,8.194,7.828,4.898,-5.177,-7.624,1.699,-1.478,8.096,5.21,-4.708,-8.231,291.4,282.7,-7.822,285.3,277.3,286.9,297.3,280.9,36,287.8,0,5,probe,5,0,83,norm,36,-4.355,up,norm,287.312171038,282.8,290.9,295.7,292.6,4,287.2,292.3,280.0,10,6,7.881,4.545,1.29,-2.024,-4.853,-8.454,286.2,1,204.3,-8.444,-7.906,-30,-7.946,-7.526,-4.413,-5.138,-5.3,-4.895,5.103,8.31,4,-1.553,1.712,4.675,8.249,-7.593,-7.708,-1.334,1.291,283.3,291.4,292.8,291.0,284.9,291.5,279.3,296.7,283.2,,0,norm,1.685,1.451,-1.775,-1.403,-5.186,-4.655,-1.766,-1.909,-1.863,-1.481,1.662,-1.597,289.9,287.6,-4.742,-8.404,1.899,-1.671,8.317,4.306,-5.274,-8.021,17,4.397,4.572,4.417,5.186,1.508,2.007,1.805,1.857,17,4.407,4.303,-30,239.152648488,norm,0,64,64,64,1681.718,1681.732,1681.75103942,1681.751,1681.754,1681.758,up,1,1.70819178042,8.29180821958,001,318,1366_768,Intel(R) Core(TM) i5-4200U CPU @ 1.60GHz,orientation_search,PPW53677,Intel(R) HD Graphics 4400,2018_nov_08_1346,testMonitor,
240.4,240.1,259.5,252.9,36,40,,238.5,246.4,245.7,7.606,8.021,8.016,7.614,8.164,8.187,8.481,4.412,-5.17,-7.879,2.014,-1.231,8.049,4.411,-4.414,-7.884,253.8,259.0,-8.356,263.5,254.2,254.1,267.8,264.1,36,260.1,4,5,prime,10,0,103,norm,36,-4.745,down,norm,258.508150235,250.6,253.6,241.6,251.5,0,269.3,278.5,273.3,10,5,7.622,4.497,1.411,-1.249,-4.493,-7.871,263.8,5,361.5,-8.425,-8.236,40,-7.706,-8.088,-4.566,-4.564,-5.052,-5.212,5.186,8.376,24,-1.192,1.261,5.06,8.419,-7.88,-8.18,-1.762,1.625,253.6,242.0,269.0,274.6,271.6,254.2,272.8,258.0,241.3,257.3,0,norm,1.344,1.186,-1.209,-1.142,-5.248,-5.206,-1.202,-1.366,-2.073,-1.172,1.669,-1.681,260.8,260.6,-5.094,-8.219,1.735,-2.07,7.891,5.106,-4.693,-7.613,18,5.274,4.841,4.468,4.385,1.963,1.843,1.709,1.607,18,4.536,5.057,-20,239.152648488,norm,0,65,65,65,1683.514,1691.208,1691.21390127,1691.214,1691.216,1691.22,down,1,2.20093158292,7.79906841708,001,318,1366_768,Intel(R) Core(TM) i5-4200U CPU @ 1.60GHz,orientation_search,PPW53677,Intel(R) HD Graphics 4400,2018_nov_08_1346,testMonitor,
261.4,238.5,258.5,248.5,36,40,268.1,258.2,269.6,266.8,8.386,7.769,8.112,8.315,8.481,7.778,7.522,4.559,-4.82,-8.074,1.149,-1.825,7.633,4.429,-5.162,-7.539,266.3,257.9,-7.957,264.5,260.6,260.4,266.6,,36,255.0,4,5,prime,10,0,104,norm,36,-5.211,down,norm,258.508150235,247.8,263.2,259.8,248.3,2,263.2,253.9,247.6,10,5,7.825,5.065,1.515,-1.32,-4.429,-8.099,263.4,5,362.5,-8.166,-7.833,40,-8.002,-7.968,-4.526,-4.729,-5.088,-4.557,4.502,8.313,26,-2.033,1.109,4.63,8.047,-8.487,-8.183,-1.925,1.65,262.2,265.5,259.1,241.3,241.5,272.1,252.3,254.1,255.1,255.2,1,norm,1.525,1.176,-1.947,-1.936,-4.688,-5.249,-1.51,-1.267,-1.528,-1.164,1.205,-2.087,277.7,278.5,-4.617,-8.024,1.458,-2.024,8.294,4.529,-5.179,-8.147,18,5.062,4.425,4.852,4.67,1.945,1.427,1.252,1.341,18,4.542,4.839,-20,239.152648488,norm,0,66,66,66,1693.469,1693.487,1693.50793224,1693.508,1693.51,1693.513,down,1,1.26786400389,8.73213599611,001,318,1366_768,Intel(R) Core(TM) i5-4200U CPU @ 1.60GHz,orientation_search,PPW53677,Intel(R) HD Graphics 4400,2018_nov_08_1346,testMonitor,
,262.3,243.4,264.0,36,40,268.5,256.5,261.9,257.8,8.335,7.833,7.59,8.262,8.436,8.333,8.104,5.146,-5.047,-7.809,1.714,-1.16,8.295,4.577,-4.689,-8.095,244.5,255.1,-8.057,266.6,268.1,256.4,265.2,263.2,36,238.5,3,5,prime,10,0,68,norm,36,-4.558,up,norm,258.508150235,260.3,241.4,250.1,273.6,4,259.2,243.1,257.7,10,5,7.639,4.596,2.058,-1.179,-4.342,-7.53,261.8,5,326.5,-7.795,-7.757,40,-8.4,-8.015,-4.871,-4.652,-5.259,-4.851,4.869,7.929,22,-1.512,1.917,4.337,8.413,-7.517,-7.982,-1.387,1.696,243.5,254.9,255.9,262.6,247.6,244.2,264.3,243.4,250.5,242.7,2,norm,1.493,1.172,-1.96,-1.817,-4.842,-4.964,-1.893,-1.383,-1.274,-1.888,1.984,-1.925,265.4,267.9,-5.235,-8.217,1.189,-1.929,8.373,4.917,-4.461,-8.415,18,5.216,4.425,5.142,5.006,1.456,1.749,1.298,1.608,18,4.639,5.136,-20,239.152648488,norm,0,67,67,67,1694.829,1694.851,1694.8619342,1694.862,1694.866,1694.87,up,1,1.33051469555,8.66948530445,001,318,1366_768,Intel(R) Core(TM) i5-4200U CPU @ 1.60GHz,orientation_search,PPW53677,Intel(R) HD Graphics 4400,2018_nov_08_1346,testMonitor,
238.5,256.4,254.1,254.1,36,40,248.8,257.3,259.3,247.7,7.989,8.469,8.434,8.078,8.385,7.55,7.643,5.2,-4.903,-8.147,1.956,-1.902,7.558,4.568,-5.182,-8.43,263.9,273.2,-7.879,278.5,256.6,253.6,263.9,268.9,36,256.4,1,5,prime,10,0,77,norm,36,-4.428,up,norm,258.508150235,263.4,258.4,253.8,249.7,3,271.1,257.6,247.9,10,5,7.819,5.195,1.977,-1.732,-5.021,-8.345,247.5,5,335.5,-7.56,-8.312,40,-8.106,-8.248,-4.451,-4.45,-4.317,-5.161,4.905,8.311,9,-1.483,1.4,4.433,8.078,-7.746,-8.118,-1.865,2.095,,242.2,276.1,251.6,259.2,258.1,253.3,253.4,251.9,260.1,3,norm,1.156,1.7,-1.551,-1.212,-4.941,-4.336,-2.071,-1.486,-1.847,-1.116,1.505,-1.892,252.1,255.6,-5.289,-8.166,1.417,-2.033,8.148,4.495,-5.012,-8.398,18,4.56,5.116,5.185,4.939,1.613,1.215,1.424,1.365,18,5.189,5.078,-20,239.152648488,norm,0,68,68,68,1696.239,1696.254,1696.27132286,1696.272,1696.274,1696.276,up,1,1.21432833077,8.78567166923,001,318,1366_768,Intel(R) Core(TM) i5-4200U CPU @ 1.60GHz,orientation_search,PPW53677,Intel(R) HD Graphics 4400,2018_nov_08_1346,testMonitor,
251.5,267.7,255.4,,36,40,253.0,258.5,278.5,261.6,8.448,7.59,7.521,8.088,8.05,7.89,8.261,4.641,-4.718,-7.996,1.733,-1.458,8.204,4.499,-4.706,-7.699,238.5,258.8,-8.196,248.2,240.9,259.1,254.0,241.3,36,254.2,3,5,prime,10,0,76,norm,36,-4.881,up,norm,258.508150235,256.2,250.6,273.9,260.5,3,260.3,256.2,264.5,10,5,8.369,4.65,1.439,-1.515,-4.638,-8.34,266.0,5,334.5,-7.711,-7.578,40,-7.834,-7.774,-4.573,-4.571,-4.472,-4.771,4.439,8.348,21,-1.519,1.49,4.711,8.188,-8.374,-7.976,-1.74,2.07,258.4,258.3,270.8,257.4,271.8,250.5,273.3,251.1,260.7,240.4,4,norm,1.195,1.398,-1.142,-1.239,-4.326,-4.779,-1.673,-1.312,-1.44,-1.228,1.709,-1.359,257.8,256.8,-4.463,-8.301,1.104,-2.07,7.6,4.361,-4.737,-7.534,18,4.513,4.637,4.642,5.146,1.365,1.1,1.338,2.018,18,4.763,4.852,-20,239.152648488,norm,0,69,69,69,1697.539,1697.56,1697.57145981,1697.572,1697.576,1697.581,up,1,1.28810794867,8.71189205133,001,318,1366_768,Intel(R) Core(TM) i5-4200U CPU @ 1.60GHz,orientation_search,PPW53677,Intel(R) HD Graphics 4400,2018_nov_08_1346,testMonitor,
380.0,379.3,377.5,371.6,36,60,365.8,379.4,370.0,378.9,8.174,7.656,8.434,8.392,7.793,8.383,7.921,4.337,-5.136,-8.439,1.117,-2.022,7.82,4.781,-4.879,-7.717,379.7,372.8,-8.032,382.1,379.6,370.6,375.1,373.5,36,382.3,2,5,probe,5,0,71,norm,36,-4.533,down,norm,375.833228416,385.6,382.1,371.2,376.4,0,379.1,373.9,,10,5,8.442,4.917,1.754,-1.754,-5.185,-8.463,368.5,2,304.8,-7.709,-8.043,40,-8.007,-8.442,-4.399,-5.202,-4.987,-4.607,4.976,8.275,12,-1.598,2.011,4.714,7.652,-7.517,-7.532,-1.2,2.047,369.9,370.9,379.1,373.7,374.6,370.9,375.4,378.9,385.8,371.8,0,norm,1.892,1.283,-1.842,-1.159,-4.966,-4.421,-1.945,-1.194,-2.082,-1.216,1.706,-2.091,373.1,372.4,-4.939,-8.223,1.825,-1.512,8.295,5.254,-4.324,-8.271,19,4.632,5.136,4.704,5.037,1.577,1.768,1.279,1.389,19,4.983,4.515,40,258.508150235,norm,0,70,70,70,1698.917,1698.936,1698.94943275,1698.95,1698.953,1698.958,down,1,1.23074884077,8.76925115923,001,318,1366_768,Intel(R) Core(TM) i5-4200U CPU @ 1.60GHz,orientation_search,PPW53677,Intel(R) HD Graphics 4400,2018_nov_08_1346,testMonitor,
384.0,377.6,386.8,390.5,36,60,372.8,380.7,384.8,385.5,8.057,8.085,8.079,7.781,8.454,7.941,8.361,4.659,-4.53,-7.994,1.932,-1.161,7.903,5.045,-5.062,-7.725,385.0,385.6,-7.63,386.8,388.4,375.9,383.8,373.0,36,381.0,2,5,probe,5,0,78,norm,36,-5.031,down,norm,382.833228416,388.1,377.1,381.3,386.6,1,384.6,,379.8,10,5,7.971,5.248,1.267,-1.101,-4.801,-7.974,392.5,2,304.8,-7.958,-8.337,40,-7.753,-7.573,-5.096,-5.234,-4.987,-4.453,4.824,7.716,13,-1.564,2.098,4.992,7.807,-7.98,-8.121,-1.992,1.564,379.8,385.6,377.8,381.3,384.2,392.8,375.3,379.5,383.6,384.3,1,norm,1.554,1.923,-1.104,-1.401,-4.684,-5.176,-1.695,-1.65,-1.686,-1.352,1.889,-1.834,375.4,385.0,-4.963,-7.734,2.024,-1.966,8.215,4.867,-4.967,-7.87,19,5.052,5.181,4.998,4.628,1.922,1.164,1.763,1.962,19,5.124,4.73,40,258.508150235,norm,0,71,71,71,1700.238,1700.264,1700.27597318,1700.276,1700.278,1700.281,down,1,0.847803376921,9.15219662308,001,318,1366_768,Intel(R) Core(TM) i5-4200U CPU @ 1.60GHz,orientation_search,PPW53677,Intel(R) HD Graphics 4400,2018_nov_08_1346,testMonitor,
15.3,0.1,15.1,0.7,36,80,2.3,0.3,22.1,18.0,7.664,8.451,8.074,7.823,8.342,8.02,8.002,5.217,-4.545,-8.336,1.528,-2.091,8.15,4.862,-4.54,-7.802,,5.9,-8.076,-4.0,25.2,-10.5,15.3,7.1,36,0.8,5,5,prime,10,0,60,norm,36,-4.548,up,norm,5.16262591195,7.9,5.0,-8.2,11.3,5,20.5,4.1,14.3,10,6,8.446,4.614,1.228,-1.456,-4.591,-8.204,-1.5,6,65.2,-8.48,-7.967,80,-7.856,-8.08,-4.736,-5.036,-5.208,-5.176,5.18,7.737,35,-1.726,1.169,4.528,8.363,-8.413,-7.683,-1.901,1.268,-5.7,2.3,11.1,-14.8,5.5,12.0,8.3,-14.8,14.2,-2.1,0,norm,1.283,1.478,-2.079,-1.809,-5.133,-4.678,-2.095,-1.142,-1.243,-1.631,1.761,-1.234,1.6,19.4,-5.153,-7.815,1.969,-1.26,7.908,5.299,-4.364,-8.36,20,4.404,5.133,4.997,5.203,1.336,1.265,1.66,1.646,20,5.166,5.149,60,258.508150235,norm,0,72,72,72,1701.179,1701.2,1701.20948835,1701.21,1701.214,1701.219,up,1,1.77058007949,8.22941992051,001,318,1366_768,Intel(R) Core(TM) i5-4200U CPU @ 1.60GHz,orientation_search,PPW53677,Intel(R) HD Graphics 4400,2018_nov_08_1346,testMonitor,
-12.6,8.3,10.5,-6.6,36,80,-14.8,-1.4,3.4,18.0,8.416,7.944,7.987,7.927,7.777,7.584,7.591,4.832,-4.577,-7.593,2.088,-1.435,7.92,4.569,-5.232,-7.957,3.7,25.2,-7.696,11.9,0.1,5.7,-2.3,12.8,36,9.0,3,5,prime,10,0,91,norm,36,-4.856,down,norm,5.16262591195,3.8,-1.1,11.8,-6.2,0,6.7,9.5,1.4,10,6,8.328,4.41,2.036,-1.685,-5.185,-8.103,0.4,6,96.2,-8.025,-8.359,80,-8.08,-8.033,-4.481,-5.142,-5.026,-4.421,4.688,8.011,18,-1.998,1.418,4.662,7.933,-7.533,-7.782,-1.945,1.563,21.2,12.1,3.3,3.9,3.2,2.2,-1.4,8.9,-3.5,6.1,1,norm,1.742,1.91,-1.539,-1.749,-5.148,-5.157,-1.976,-2.04,-1.646,-1.306,1.763,-2.093,-2.8,,-5.071,-7.75,2.078,-1.519,8.425,4.382,-4.936,-7.695,20,4.805,5.145,4.71,5.271,1.498,1.687,1.138,1.974,20,4.804,4.492,60,258.508150235,norm,0,73,73,73,1703.02,1703.034,1703.05272395,1703.053,1703.056,1703.059,down,1,2.22621542877,7.77378457123,001,318,1366_768,Intel(R) Core(TM) i5-4200U CPU @ 1.60GHz,orientation_search,PPW53677,Intel(R) HD Graphics 4400,2018_nov_08_1346,testMonitor,
8.5,9.8,3.9,,36,80,2.3,-6.5,13.6,18.2,7.934,7.645,8.168,8.313,8.337,8.313,7.553,5.035,-4.477,-8.301,1.427,-1.359,7.707,4.772,-4.89,-7.522,10.3,-14.8,-7.598,-4.9,4.0,-6.7,5.1,-8.4,36,1.2,3,5,prime,10,0,81,norm,36,-4.339,up,norm,5.16262591195,11.1,4.8,9.8,0.1,3,-4.0,17.7,-10.2,10,6,7.569,4.672,1.715,-2.016,-4.718,-8.066,11.3,6,86.2,-8.311,-8.192,80,-7.652,-8.422,-5.16,-4.61,-4.876,-5.136,4.732,7.793,21,-1.748,1.465,4.582,7.884,-8.412,-8.05,-1.349,2.069,25.2,-9.3,7.3,16.2,2.4,15.5,-3.9,-1.9,8.2,23.9,2,norm,1.762,1.843,-1.642,-1.742,-4.698,-5.242,-2.054,-1.673,-2.085,-1.737,1.431,-1.263,19.0,22.9,-5.275,-8.464,1.561,-1.287,7.593,5.261,-5.164,-8.443,20,4.836,5.276,4.683,4.621,1.196,1.214,2.094,1.58,20,4.421,4.528,60,258.508150235,norm,0,74,74,74,1705.333,1705.347,1705.36531697,1705.366,1705.368,1705.372,up,1,1.67330070681,8.32669929319,001,318,1366_768,Intel(R) Core(TM) i5-4200U CPU @ 1.60GHz,orientation_search,PPW53677,Intel(R) HD Graphics 4400,2018_nov_08_1346,testMonitor,
12.5,,-3.3,12.9,36,80,-5.5,-2.3,25.2,-5.0,7.517,8.399,8.003,8.061,8.034,8.024,8.486,5.002,-4.833,-8.086,1.576,-1.168,8.286,4.379,-5.292,-7.836,-2.9,14.5,-8.111,-2.9,-5.5,9.5,-7.3,-2.7,36,12.0,3,5,prime,10,0,84,norm,36,-4.458,up,norm,5.16262591195,-5.8,-1.9,8.1,-6.3,5,9.3,7.2,-1.3,10,6,7.609,4.936,1.818,-1.902,-5.06,-8.125,0.5,6,89.2,-8.13,-8.346,80,-7.98,-7.939,-4.44,-5.143,-5.145,-4.765,4.933,7.984,23,-1.157,1.365,5.262,7.771,-7.549,-7.752,-1.328,1.454,4.4,6.4,6.1,11.0,11.4,19.1,3.4,-0.1,-2.5,-14.8,3,norm,1.852,1.443,-1.873,-1.677,-5.158,-4.552,-1.545,-1.994,-1.346,-1.492,1.755,-1.738,5.4,-2.2,-5.035,-8.361,1.346,-1.715,8.007,5.126,-5.244,-7.944,20,4.882,4.82,4.557,4.794,1.839,1.785,1.751,1.312,20,4.694,4.553,60,258.508150235,norm,0,75,75,75,1707.093,1707.107,1707.12530585,1707.126,1707.128,1707.132,up,1,1.59422147273,8.40577852727,001,318,1366_768,Intel(R) Core(TM) i5-4200U CPU @ 1.60GHz,orientation_search,PPW53677,Intel(R) HD Graphics 4400,2018_nov_08_1346,testMonitor,
-12.1,-3.7,11.8,23.0,36,80,6.3,1.4,3.3,-14.8,7.761,7.813,8.283,8.142,8.426,7.871,7.927,5.204,-4.329,-7.706,1.564,-1.842,8.213,4.698,-4.558,-8.458,5.4,14.2,-7.627,13.3,-0.2,4.7,24.3,-6.3,36,7.8,2,5,prime,10,0,84,norm,36,-4.639,down,norm,5.16262591195,14.8,5.0,16.2,19.8,0,6.7,20.6,,10,6,7.681,4.651,1.166,-1.132,-5.068,-8.115,4.3,6,89.2,-7.808,-7.86,80,-8.074,-7.742,-5.146,-4.952,-4.509,-5.003,4.393,8.478,12,-1.774,1.121,4.459,8.317,-8.479,-8.245,-2.065,1.369,17.7,9.2,2.9,-6.8,8.9,-6.2,-4.7,-2.7,25.2,-1.2,4,norm,1.965,1.227,-1.328,-1.731,-4.871,-4.968,-2.023,-1.292,-1.468,-1.107,1.831,-1.598,17.6,16.0,-4.491,-8.289,1.871,-1.502,7.554,4.663,-4.851,-8.079,20,5.118,5.193,4.846,4.446,1.321,2.015,1.753,1.542,20,4.732,5.171,60,258.508150235,norm,0,76,76,76,1708.774,1708.788,1708.80629983,1708.807,1708.809,1708.813,down,1,1.29317462449,8.70682537551,001,318,1366_768,Intel(R) Core(TM) i5-4200U CPU @ 1.60GHz,orientation_search,PPW53677,Intel(R) HD Graphics 4400,2018_nov_08_1346,testMonitor,
1.0,-0.7,-14.3,13.5,36,80,4.0,8.5,13.4,-0.7,8.203,7.736,8.334,7.768,8.352,7.664,7.809,4.886,-4.619,-7.572,2.01,-1.875,8.397,4.349,-4.6,-7.516,18.4,24.7,-8.278,7.5,1.2,-14.8,14.2,18.6,36,8.2,2,5,prime,10,0,118,norm,36,-4.444,up,norm,5.16262591195,14.4,,16.7,-3.4,4,-9.8,12.2,-10.5,10,6,8.263,4.876,1.622,-1.865,-4.503,-8.195,11.9,6,123.2,-7.643,-8.264,80,-7.694,-7.526,-4.912,-4.861,-4.499,-5.149,4.342,8.491,16,-1.646,1.268,4.85,8.171,-8.077,-7.613,-1.714,1.555,0.6,13.4,10.2,6.2,6.3,20.1,7.8,-6.6,-3.1,0.3,5,norm,2.068,2.01,-1.53,-1.205,-5.03,-4.805,-1.2,-2.005,-1.273,-1.69,2.095,-1.271,4.9,8.5,-5.157,-7.739,1.187,-1.727,8.087,4.678,-5.229,-8.316,20,5.012,4.665,5.237,4.902,1.158,1.449,1.147,1.625,20,5.247,4.745,60,258.508150235,norm,0,77,77,77,1710.154,1710.169,1710.18622064,1710.186,1710.189,1710.191,up,1,1.01443962449,8.98556037551,001,318,1366_768,Intel(R) Core(TM) i5-4200U CPU @ 1.60GHz,orientation_search,PPW53677,Intel(R) HD Graphics 4400,2018_nov_08_1346,testMonitor,
160.9,157.6,164.1,151.1,36,-40,151.2,149.6,154.7,153.3,8.465,8.122,7.772,8.147,8.48,8.204,7.515,4.954,-5.205,-8.476,2.027,-1.157,7.628,5.293,-4.753,-8.018,152.6,159.1,-7.752,154.0,152.0,161.9,153.9,153.4,36,147.9,0,5,probe,5,0,77,norm,36,-4.583,down,norm,154.059169255,161.1,158.5,151.1,156.4,2,150.3,152.8,150.9,10,6,8.162,4.82,2.054,-1.156,-5.178,-7.852,156.9,1,77.1,-8.453,-8.291,80,-8.307,-7.643,-4.841,-4.425,-5.248,-4.929,5.262,7.621,2,-1.205,2.072,4.565,7.583,-7.74,-8.351,-1.534,1.819,156.7,159.8,150.4,,156.2,144.1,154.8,148.9,156.4,151.2,0,norm,1.461,1.152,-1.733,-1.164,-4.968,-4.736,-1.441,-1.135,-2.093,-1.758,1.177,-1.925,158.8,149.5,-5.188,-8.072,1.16,-1.946,8.155,4.469,-4.863,-7.814,21,4.574,4.696,4.549,4.452,1.303,1.185,1.456,1.608,21,4.708,5.219,80,5.16262591195,norm,0,78,78,78,1711.255,1711.277,1711.28641088,1711.287,1711.289,1711.291,down,1,0.97415031436,9.02584968564,001,318,1366_768,Intel(R) Core(TM) i5-4200U CPU @ 1.60GHz,orientation_search,PPW53677,Intel(R) HD Graphics 4400,2018_nov_08_1346,testMonitor,
118.9,134.7,114.7,138.9,36,40,124.2,118.1,108.1,129.8,8.352,7.712,7.692,8.387,8.123,7.877,7.785,4.854,-4.961,-7.791,1.719,-1.501,7.966,5.226,-5.129,-7.942,116.3,118.3,-7.609,126.4,126.6,113.7,,129.8,36,123.9,5,5,prime,10,0,84,norm,36,-4.42,down,norm,122.635050634,137.0,125.8,113.6,131.0,2,105.0,112.9,102.6,10,6,8.34,4.821,1.572,-1.578,-5.18,-8.441,125.5,6,206.6,-7.649,-8.024,40,-8.371,-7.638,-4.927,-4.547,-4.355,-4.319,5.215,8.319,32,-2.035,1.896,4.93,8.152,-7.834,-7.541,-1.638,1.666,112.9,113.2,114.1,111.4,128.7,115.0,139.5,123.7,104.7,123.6,0,norm,2.076,2.078,-1.67,-1.82,-4.335,-4.453,-1.427,-1.473,-1.203,-1.192,1.404,-2.017,108.1,142.6,-4.82,-8.304,1.471,-1.384,8.396,4.963,-4.469,-7.823,22,4.579,4.811,5.241,4.45,1.184,1.205,1.926,1.651,22,4.413,4.608,-40,5.16262591195,norm,0,79,79,79,1712.314,1712.329,1712.34626004,1712.347,1712.349,1712.353,down,1,1.25581625736,8.74418374264,001,318,1366_768,Intel(R) Core(TM) i5-4200U CPU @ 1.60GHz,orientation_search,PPW53677,Intel(R) HD Graphics 4400,2018_nov_08_1346,testMonitor,
126.1,135.7,121.6,120.6,36,40,128.0,142.6,,124.5,7.831,7.773,8.068,7.847,7.941,7.503,7.701,4.627,-5.29,-7.868,1.725,-1.522,7.762,4.994,-5.289,-8.403,120.2,118.2,-7.882,116.8,127.9,120.5,111.2,136.4,36,107.5,4,5,prime,10,0,86,norm,36,-5.019,up,norm,122.635050634,102.6,122.4,132.8,111.7,4,122.9,126.5,118.7,10,6,7.556,4.493,1.392,-1.961,-4.663,-8.373,125.1,6,208.6,-8.435,-8.148,40,-7.946,-8.124,-4.617,-4.978,-4.372,-4.902,4.658,7.627,28,-1.206,1.123,4.381,7.779,-7.532,-7.717,-2.044,1.555,122.9,127.2,136.5,112.1,133.6,139.3,126.7,117.9,120.3,120.7,1,norm,2.036,1.422,-1.658,-1.156,-4.395,-4.748,-1.929,-1.874,-1.305,-1.416,1.788,-1.773,127.6,118.1,-4.948,-8.006,1.48,-1.637,7.962,4.582,-4.793,-7.515,22,5.034,4.468,5.08,4.429,1.208,1.573,1.119,1.757,22,5.21,4.787,-40,5.16262591195,norm,0,80,80,80,1713.657,1713.676,1713.68930175,1713.69,1713.692,1713.694,up,1,1.13422406988,8.86577593012,001,318,1366_768,Intel(R) Core(TM) i5-4200U CPU @ 1.60GHz,orientation_search,PPW53677,Intel(R) HD Graphics 4400,2018_nov_08_1346,testMonitor,
117.5,134.3,120.6,116.2,36,40,126.4,114.8,142.6,112.2,7.567,7.501,8.091,8.341,8.348,7.995,8.041,4.913,-5.234,-7.863,1.163,-1.321,7.548,4.647,-4.944,-7.727,113.4,121.0,-8.442,120.4,123.7,126.4,123.6,134.4,36,114.4,2,5,prime,10,0,87,norm,36,-5.207,up,norm,122.635050634,133.6,,126.0,109.7,4,107.3,123.4,131.2,10,6,7.917,5.135,1.449,-1.704,-5.044,-7.887,131.6,6,209.6,-7.748,-7.835,40,-7.747,-7.579,-5.035,-4.885,-4.97,-4.808,4.654,8.454,16,-1.802,1.33,4.81,7.878,-7.968,-8.365,-1.949,1.907,132.9,111.4,132.6,127.5,109.7,116.7,119.8,128.9,106.6,122.5,2,norm,1.481,1.279,-2.098,-1.362,-5.077,-4.554,-1.424,-1.592,-1.774,-1.924,1.957,-1.647,103.9,102.6,-4.844,-7.99,1.457,-1.578,8.015,5.01,-4.811,-8.031,22,4.311,4.308,4.993,4.755,1.737,2.057,1.365,1.37,22,5.149,5.143,-40,5.16262591195,norm,0,81,81,81,1714.877,1714.897,1714.90928535,1714.91,1714.912,1714.914,up,1,1.1942673468,8.8057326532,001,318,1366_768,Intel(R) Core(TM) i5-4200U CPU @ 1.60GHz,orientation_search,PPW53677,Intel(R) HD Graphics 4400,2018_nov_08_1346,testMonitor,
122.8,129.8,122.3,115.6,36,40,119.8,109.8,120.7,113.8,7.692,7.509,7.628,8.484,8.311,7.655,7.636,4.911,-4.911,-7.721,1.364,-2.06,8.103,4.766,-4.497,-8.062,116.8,,-8.264,131.3,119.6,118.4,134.2,107.5,36,133.9,5,5,prime,10,0,112,norm,36,-4.314,up,norm,122.635050634,102.6,120.3,125.3,113.3,4,114.6,142.6,110.6,10,6,8.169,4.691,1.391,-1.678,-5.197,-8.305,124.2,6,234.6,-7.576,-7.646,40,-7.508,-8.321,-4.425,-4.502,-4.36,-5.037,5.029,7.543,34,-1.533,2.063,4.919,8.288,-7.581,-7.951,-2.095,1.804,108.3,124.2,123.4,113.7,126.6,119.4,134.1,119.9,127.4,129.8,3,norm,2.041,1.891,-1.586,-1.117,-4.803,-5.154,-1.89,-1.682,-1.924,-2.082,1.614,-1.924,115.8,129.9,-4.395,-8.038,1.528,-1.85,8.151,4.688,-5.085,-7.861,22,4.454,4.748,4.364,4.316,1.265,1.15,1.216,2.016,22,4.374,5.104,-40,5.16262591195,norm,0,82,82,82,1716.157,1716.174,1716.19602689,1716.196,1716.199,1716.202,up,1,1.76659867367,8.23340132633,001,318,1366_768,Intel(R) Core(TM) i5-4200U CPU @ 1.60GHz,orientation_search,PPW53677,Intel(R) HD Graphics 4400,2018_nov_08_1346,testMonitor,
113.3,117.9,116.7,123.2,36,40,125.9,122.4,122.7,122.6,8.39,8.012,8.109,7.956,7.884,7.976,8.403,4.873,-4.685,-7.694,1.157,-1.978,8.042,4.341,-5.014,-8.28,109.0,140.2,-7.943,115.7,132.4,142.6,126.3,136.2,36,129.2,1,5,prime,10,0,91,norm,36,-4.451,up,norm,122.635050634,140.3,115.6,128.2,102.6,4,133.5,131.0,108.3,10,6,8.214,5.032,1.174,-1.762,-5.11,-8.16,,6,213.6,-7.932,-7.932,40,-7.77,-7.631,-5.128,-4.741,-4.98,-4.995,5.074,7.587,10,-1.975,1.894,5.057,8.122,-8.261,-7.528,-1.343,1.942,134.0,107.3,118.7,117.6,113.0,108.8,141.2,124.0,125.8,120.0,4,norm,2.028,1.484,-1.239,-1.895,-4.74,-4.961,-1.623,-1.436,-1.179,-1.427,1.739,-1.269,115.9,133.3,-4.774,-7.634,1.971,-1.478,8.366,4.881,-5.107,-7.664,22,5.226,4.392,5.222,4.421,1.29,1.996,1.966,2.046,22,4.538,4.812,-40,5.16262591195,norm,0,83,83,83,1718.017,1718.031,1718.04930392,1718.05,1718.052,1718.056,up,1,1.03480628689,8.96519371311,001,318,1366_768,Intel(R) Core(TM) i5-4200U CPU @ 1.60GHz,orientation_search,PPW53677,Intel(R) HD Graphics 4400,2018_nov_08_1346,testMonitor,
124.2,123.6,116.8,110.8,36,40,132.7,117.7,130.7,102.6,8.304,7.631,8.364,8.496,8.376,7.726,7.979,4.871,-4.724,-8.441,1.534,-1.16,8.456,4.989,-4.521,-8.04,112.9,,-7.522,133.8,124.4,123.1,110.5,120.2,36,124.6,5,5,prime,10,0,66,norm,36,-5.077,up,norm,122.635050634,129.5,140.5,118.7,116.5,4,134.7,118.6,111.3,10,6,7.701,5.187,1.959,-1.717,-5.22,-8.194,135.4,6,188.6,-7.525,-8.225,40,-8.492,-7.795,-4.978,-5.223,-4.329,-5.249,4.897,7.936,34,-1.438,1.941,4.58,8.219,-7.532,-8.279,-2.008,1.519,109.4,115.9,110.2,122.4,142.6,128.9,128.2,124.4,105.6,115.7,5,norm,1.419,1.398,-1.463,-2.065,-4.648,-4.403,-1.974,-1.408,-1.933,-1.7,1.683,-1.189,133.8,122.9,-4.901,-8.274,1.844,-1.601,7.673,4.655,-5.188,-8.318,22,4.39,4.592,5.267,4.639,1.425,1.425,1.854,2.017,22,5.269,5.132,-40,5.16262591195,norm,0,84,84,84,1719.123,1719.141,1719.15468891,1719.155,1719.159,1719.163,up,1,1.25752627161,8.74247372839,001,318,1366_768,Intel(R) Core(TM) i5-4200U CPU @ 1.60GHz,orientation_search,PPW53677,Intel(R) HD Graphics 4400,2018_nov_08_1346,testMonitor,
233.4,243.0,235.5,234.3,36,-60,235.6,233.6,232.5,238.7,8.039,7.773,8.068,7.806,8.06,8.096,8.166,4.904,-5.1,-8.116,1.754,-1.486,7.973,5.024,-4.492,-7.701,228.0,225.5,-7.603,229.1,236.1,225.6,230.6,226.9,36,237.7,3,5,probe,5,0,75,norm,36,-4.671,down,norm,233.0146368,238.1,234.2,240.5,234.1,0,235.2,226.9,234.5,10,6,8.381,5.084,1.981,-1.331,-4.371,-7.657,225.9,1,158.0,-7.809,-8.324,40,-7.751,-8.221,-5.213,-4.658,-4.397,-4.474,5.017,8.354,18,-1.538,1.633,4.712,7.702,-8.309,-7.561,-1.851,1.932,233.9,223.2,231.6,232.7,231.7,239.2,232.4,241.1,230.5,237.7,0,norm,1.609,1.555,-1.962,-1.8,-4.636,-4.349,-1.789,-1.713,-1.677,-1.173,1.625,-1.842,238.5,,-4.782,-7.702,1.194,-1.554,7.783,5.245,-5.01,-8.01,23,4.484,5.238,5.06,4.997,1.832,1.778,1.885,1.972,23,5.019,4.522,40,122.635050634,norm,0,85,85,85,1720.469,1720.485,1720.50789565,1720.508,1720.51,1720.513,down,1,1.22773355729,8.77226644271,001,318,1366_768,Intel(R) Core(TM) i5-4200U CPU @ 1.60GHz,orientation_search,PPW53677,Intel(R) HD Graphics 4400,2018_nov_08_1346,testMonitor,
275.5,268.1,267.7,264.8,36,20,261.1,278.3,275.2,263.3,7.726,8.349,8.279,7.915,7.545,7.984,7.96,5.008,-5.17,-8.294,1.485,-1.129,7.747,4.491,-4.647,-8.171,261.2,,-8.328,262.0,262.0,265.8,252.7,255.6,36,253.5,5,5,prime,10,0,116,norm,36,-4.828,up,norm,264.661508649,261.4,270.8,252.8,256.9,4,270.6,265.4,284.7,10,6,7.858,4.502,1.65,-1.178,-4.574,-7.683,244.7,6,380.7,-8.461,-7.863,20,-7.985,-7.591,-4.407,-5.034,-4.53,-5.005,4.596,7.617,34,-1.559,1.724,4.861,8.4,-8.183,-8.029,-1.975,1.297,264.3,277.1,259.2,261.2,262.3,268.7,277.9,245.6,272.7,257.2,0,norm,1.908,1.674,-1.41,-1.436,-4.943,-4.926,-1.272,-1.868,-1.759,-1.668,1.205,-1.106,272.8,249.9,-4.347,-7.815,1.586,-1.942,8.063,5.019,-5.207,-7.83,24,4.435,5.118,4.441,5.068,1.393,1.118,1.502,1.492,24,4.461,5.298,-60,122.635050634,norm,0,86,86,86,1721.789,1721.81,1721.82134858,1721.822,1721.825,1721.83,up,1,1.29026197757,8.70973802243,001,318,1366_768,Intel(R) Core(TM) i5-4200U CPU @ 1.60GHz,orientation_search,PPW53677,Intel(R) HD Graphics 4400,2018_nov_08_1346,testMonitor,
244.7,267.0,259.8,263.6,36,20,272.9,265.0,277.7,284.2,8.157,7.654,7.661,7.599,8.386,7.874,7.931,4.449,-4.747,-8.396,2.074,-1.217,8.204,4.386,-4.949,-8.363,272.6,265.4,-7.549,253.8,261.2,260.0,260.5,271.9,36,277.0,1,5,prime,10,0,111,norm,36,-5.185,up,norm,264.661508649,274.4,251.0,277.1,254.0,5,,258.4,272.3,10,6,8.407,5.141,1.575,-1.311,-5.078,-7.848,284.7,6,375.7,-7.873,-7.988,20,-7.734,-8.116,-5.073,-5.02,-4.927,-5.119,5.247,7.919,11,-1.66,1.48,4.468,7.69,-7.858,-7.747,-1.65,1.321,280.0,281.9,261.8,274.1,275.4,269.0,259.1,261.5,259.1,263.6,1,norm,1.791,1.837,-1.552,-2.095,-4.394,-4.357,-2.039,-1.793,-1.817,-1.458,1.645,-1.832,255.2,272.0,-5.153,-7.904,1.593,-1.264,7.914,4.695,-4.862,-7.904,24,4.892,5.065,5.216,5.053,1.35,1.759,1.146,1.115,24,5.18,5.147,-60,122.635050634,norm,0,87,87,87,1723.152,1723.166,1723.18457132,1723.185,1723.187,1723.19,up,1,1.6554156178,8.3445843822,001,318,1366_768,Intel(R) Core(TM) i5-4200U CPU @ 1.60GHz,orientation_search,PPW53677,Intel(R) HD Graphics 4400,2018_nov_08_1346,testMonitor,
284.7,268.6,265.3,275.7,36,20,260.1,263.9,257.7,267.9,7.685,7.726,7.554,7.931,7.913,7.675,8.437,4.665,-4.917,-8.385,1.892,-1.908,8.16,4.978,-5.069,-8.037,273.8,250.8,-7.573,252.0,265.8,265.3,275.1,257.9,36,,4,5,prime,10,0,99,norm,36,-5.028,up,norm,264.661508649,266.6,257.8,255.4,258.0,3,269.3,258.5,263.3,10,6,7.71,4.668,1.372,-1.146,-4.769,-7.963,262.6,6,363.7,-7.988,-7.607,20,-7.8,-7.725,-4.946,-5.107,-5.222,-4.993,4.794,7.993,27,-1.836,1.455,4.483,7.662,-8.201,-7.932,-1.12,2.045,247.5,244.7,272.0,260.8,272.0,278.7,261.9,260.2,257.4,274.8,2,norm,1.691,1.18,-1.724,-2.032,-4.797,-5.266,-1.138,-2.083,-1.228,-1.523,1.618,-1.519,284.6,260.1,-5.067,-8.11,1.14,-1.884,7.629,4.506,-4.788,-8.106,24,5.207,4.643,4.609,4.419,1.691,1.292,1.61,1.986,24,5.256,4.467,-60,122.635050634,norm,0,88,88,88,1724.894,1724.914,1724.92537341,1724.926,1724.93,1724.933,up,1,1.31158717614,8.68841282386,001,318,1366_768,Intel(R) Core(TM) i5-4200U CPU @ 1.60GHz,orientation_search,PPW53677,Intel(R) HD Graphics 4400,2018_nov_08_1346,testMonitor,
273.1,266.1,,250.9,36,20,273.1,280.6,264.8,269.9,7.653,7.643,7.908,7.994,7.696,8.137,8.402,4.364,-5.176,-7.712,1.565,-1.701,7.637,4.791,-4.542,-8.089,250.9,258.9,-8.223,267.7,253.2,274.0,261.2,284.7,36,269.6,3,5,prime,10,0,69,norm,36,-4.493,down,norm,264.661508649,258.9,272.5,271.8,263.2,2,250.8,270.9,261.1,10,6,8.171,4.534,1.3,-1.9,-4.57,-7.983,274.5,6,333.7,-8.331,-7.862,20,-7.549,-8.033,-4.992,-4.519,-5.14,-4.917,5.296,7.598,20,-1.623,1.138,4.516,7.707,-7.769,-7.812,-1.46,1.96,254.2,260.2,244.7,255.0,256.8,260.5,252.9,265.2,252.3,250.2,3,norm,1.72,1.595,-1.411,-1.849,-4.843,-5.287,-1.189,-1.742,-2.02,-2.057,1.727,-1.227,265.2,260.4,-4.662,-8.023,1.453,-1.407,8.207,4.962,-4.583,-7.808,24,4.536,4.453,4.717,5.016,1.94,2.084,1.656,1.191,24,4.424,4.863,-60,122.635050634,norm,0,89,89,89,1726.293,1726.307,1726.32525078,1726.326,1726.328,1726.332,up,0,0.873297404589,-10,001,318,1366_768,Intel(R) Core(TM) i5-4200U CPU @ 1.60GHz,orientation_search,PPW53677,Intel(R) HD Graphics 4400,2018_nov_08_1346,testMonitor,
248.2,258.6,255.4,274.4,36,20,248.3,262.8,264.9,256.5,7.768,7.939,7.594,7.886,8.493,7.542,8.278,5.144,-4.846,-8.462,1.299,-1.551,8.118,4.568,-4.947,-7.892,244.7,257.7,-7.593,266.9,258.5,260.9,261.6,,36,278.4,4,5,prime,10,0,94,norm,36,-5.296,down,norm,264.661508649,275.7,262.9,263.5,258.5,2,259.0,270.4,272.2,10,6,8.441,5.185,1.966,-1.42,-4.714,-8.037,267.3,6,358.7,-8.219,-8.386,20,-7.783,-7.719,-4.415,-4.576,-4.398,-5.048,4.393,8.475,26,-1.987,1.959,4.448,8.134,-7.832,-8.44,-1.293,1.763,256.9,252.4,253.8,273.4,254.5,272.8,269.0,284.7,271.7,255.1,4,norm,1.166,1.823,-1.958,-1.836,-4.651,-5.289,-1.133,-1.772,-1.159,-1.861,1.983,-1.103,269.5,276.9,-5.116,-7.529,1.46,-1.545,7.798,4.997,-4.619,-8.089,24,4.93,5.141,4.477,4.552,1.344,1.161,1.362,1.678,24,4.834,4.769,-60,122.635050634,norm,0,90,90,90,1728.289,1728.301,1728.31276259,1728.313,1728.315,1728.319,down,1,1.74701383407,8.25298616593,001,318,1366_768,Intel(R) Core(TM) i5-4200U CPU @ 1.60GHz,orientation_search,PPW53677,Intel(R) HD Graphics 4400,2018_nov_08_1346,testMonitor,
275.2,272.5,265.8,262.0,36,20,244.7,253.6,265.7,271.1,7.941,7.825,8.372,8.38,7.588,8.49,8.322,4.425,-4.982,-7.998,1.589,-1.871,7.768,4.691,-4.827,-7.85,263.2,264.1,-8.469,,266.7,264.0,280.1,261.3,36,267.9,5,5,prime,10,0,64,norm,36,-4.604,down,norm,264.661508649,262.0,278.0,284.7,273.5,1,266.9,272.7,274.7,10,6,7.947,4.464,1.31,-1.731,-4.314,-8.342,270.5,6,328.7,-8.44,-7.792,20,-7.721,-7.69,-4.461,-5.088,-4.921,-4.409,4.869,8.18,31,-2.036,1.71,4.73,8.352,-7.965,-7.854,-1.531,1.621,266.1,259.2,258.4,258.8,278.0,270.1,246.6,267.3,270.3,270.6,5,norm,1.323,1.675,-1.801,-1.838,-4.567,-4.795,-1.548,-1.588,-1.23,-1.553,1.291,-1.338,268.7,279.1,-4.763,-8.411,1.509,-1.842,8.106,5.008,-4.997,-8.181,24,4.87,4.819,4.747,4.648,1.187,1.295,1.409,1.11,24,4.623,5.007,-60,122.635050634,norm,0,91,91,91,1730.114,1730.128,1730.14628297,1730.147,1730.149,1730.153,down,1,1.65268816293,8.34731183707,001,318,1366_768,Intel(R) Core(TM) i5-4200U CPU @ 1.60GHz,orientation_search,PPW53677,Intel(R) HD Graphics 4400,2018_nov_08_1346,testMonitor,
395.0,391.8,392.8,400.8,36,-20,393.0,398.7,,389.0,8.413,8.04,8.121,8.113,8.361,8.455,8.187,4.907,-4.391,-7.631,1.313,-1.357,7.909,4.827,-5.052,-7.651,386.3,390.1,-7.511,387.2,399.3,400.3,386.8,393.0,36,386.6,4,5,probe,5,0,107,norm,36,-4.402,up,norm,393.416218913,385.7,384.9,392.4,390.6,4,392.0,390.9,392.2,10,6,7.578,4.851,1.804,-1.473,-5.27,-7.901,400.9,2,286.4,-7.772,-7.906,20,-8.476,-8.144,-4.904,-4.693,-4.977,-4.545,4.883,7.763,28,-1.246,1.353,4.766,7.939,-7.809,-7.783,-1.405,1.556,383.4,388.5,403.4,393.4,383.9,394.9,393.5,390.4,401.6,400.0,0,norm,1.866,1.263,-1.318,-1.152,-5.25,-4.645,-1.589,-1.564,-1.924,-2.054,1.514,-1.574,399.8,387.1,-4.624,-8.226,1.999,-1.907,7.893,4.808,-5.0,-7.556,25,4.964,4.344,5.251,5.256,1.529,1.306,1.174,1.139,25,4.39,5.145,20,264.661508649,norm,0,92,92,92,1731.854,1731.868,1731.88626442,1731.887,1731.889,1731.893,up,1,0.972986505076,9.02701349492,001,318,1366_768,Intel(R) Core(TM) i5-4200U CPU @ 1.60GHz,orientation_search,PPW53677,Intel(R) HD Graphics 4400,2018_nov_08_1346,testMonitor,
415.4,395.4,399.9,407.6,36,-20,405.0,412.6,405.1,403.6,8.113,8.48,8.112,8.364,8.401,7.713,7.916,4.388,-4.525,-8.333,1.293,-1.927,8.206,4.816,-4.771,-7.995,403.7,403.5,-8.215,411.5,400.5,409.5,411.8,413.6,36,401.7,2,5,probe,5,0,119,norm,36,-4.75,down,norm,405.416218913,410.0,405.5,414.2,,2,414.4,399.6,400.3,10,6,8.169,4.698,2.06,-1.801,-4.641,-7.749,411.2,2,286.4,-8.481,-7.636,20,-8.49,-8.082,-5.229,-4.357,-5.174,-5.031,4.65,7.911,14,-1.926,1.358,4.589,8.195,-7.974,-7.718,-1.349,1.721,396.0,404.6,411.4,409.7,398.5,405.6,403.9,409.6,403.5,398.3,1,norm,1.793,1.427,-1.489,-1.26,-5.143,-4.355,-1.441,-1.275,-1.619,-2.073,1.242,-1.19,414.8,410.9,-4.31,-7.683,1.47,-1.213,8.376,4.558,-4.836,-7.648,25,5.105,5.16,5.098,5.223,2.049,1.176,2.078,2.074,25,5.19,5.099,20,264.661508649,norm,0,93,93,93,1732.904,1732.925,1732.93630108,1732.937,1732.94,1732.944,down,1,1.0537056928,8.9462943072,001,318,1366_768,Intel(R) Core(TM) i5-4200U CPU @ 1.60GHz,orientation_search,PPW53677,Intel(R) HD Graphics 4400,2018_nov_08_1346,testMonitor,
82.7,83.2,69.1,70.9,36,-20,77.6,63.6,77.1,73.1,7.909,8.383,7.644,7.746,8.096,8.46,8.005,5.281,-5.251,-8.33,1.534,-1.968,8.225,5.069,-4.421,-7.974,67.4,,-8.32,69.2,74.7,90.6,72.5,72.3,36,81.8,5,5,prime,10,0,69,norm,36,-4.319,up,norm,70.6345500515,50.6,70.6,63.9,89.6,4,66.4,61.9,77.4,10,6,8.064,4.912,1.243,-1.375,-4.396,-7.992,74.8,6,139.6,-8.166,-7.981,-20,-7.913,-7.936,-4.853,-4.853,-4.886,-4.768,4.554,7.6,34,-1.664,1.571,4.418,7.86,-7.654,-7.699,-1.741,1.775,68.4,73.0,51.6,73.2,81.0,76.2,55.9,73.4,76.6,63.4,0,norm,1.91,2.09,-1.485,-2.044,-5.01,-4.491,-1.573,-1.983,-1.551,-1.519,1.839,-1.691,76.1,75.8,-4.523,-8.079,1.237,-1.386,8.404,4.399,-4.548,-8.335,26,5.007,4.908,4.619,5.072,1.712,1.736,1.384,1.352,26,5.148,4.309,-20,264.661508649,norm,0,94,94,94,1734.046,1734.066,1734.0783282,1734.079,1734.082,1734.086,up,1,0.951745200739,9.04825479926,001,318,1366_768,Intel(R) Core(TM) i5-4200U CPU @ 1.60GHz,orientation_search,PPW53677,Intel(R) HD Graphics 4400,2018_nov_08_1346,testMonitor,
