d_ori_22,d_ori_23,d_ori_20,d_ori_21,set_size,ctpd,d_ori_24,d_ori_25,d_ori_28,d_ori_29,stim_pos_x_30,stim_pos_x_31,stim_pos_x_32,stim_pos_x_33,stim_pos_x_34,stim_pos_x_35,stim_pos_y_11,stim_pos_y_10,stim_pos_y_13,stim_pos_y_12,stim_pos_y_15,stim_pos_y_14,stim_pos_y_17,stim_pos_y_16,stim_pos_y_19,stim_pos_y_18,d_ori_35,d_ori_34,stim_pos_x_3,d_ori_31,d_ori_30,d_ori_33,d_ori_32,d_ori_26,test_set_size,d_ori_27,targetCol,dsd_test,seq_type,dsd,blockRepN,targetDist,dtype_test,prime_set_size,stim_pos_y_25,correctResponse,dtype,distrMean,d_ori_17,d_ori_16,d_ori_15,d_ori_14,targetRow,d_ori_11,d_ori_13,d_ori_12,dsd_prime,streak_length_prime,stim_pos_y_35,stim_pos_y_34,stim_pos_y_33,stim_pos_y_32,stim_pos_y_31,stim_pos_y_30,d_ori_10,nextProbe,targetOri,stim_pos_x_1,stim_pos_x_2,ctpd_prime,stim_pos_x_4,stim_pos_x_5,stim_pos_x_6,stim_pos_x_7,stim_pos_x_8,stim_pos_x_9,stim_pos_y_28,stim_pos_y_29,targetPos,stim_pos_y_20,stim_pos_y_21,stim_pos_y_22,stim_pos_y_23,stim_pos_y_24,stim_pos_x_0,stim_pos_y_26,stim_pos_y_27,d_ori_9,d_ori_8,d_ori_3,d_ori_2,d_ori_1,d_ori_0,d_ori_7,d_ori_6,d_ori_5,d_ori_4,trialN,dtype_prime,stim_pos_x_18,stim_pos_x_19,stim_pos_x_12,stim_pos_x_13,stim_pos_x_10,stim_pos_x_11,stim_pos_x_16,stim_pos_x_17,stim_pos_x_14,stim_pos_x_15,stim_pos_y_9,stim_pos_y_8,d_ori_19,d_ori_18,stim_pos_y_1,stim_pos_y_0,stim_pos_y_3,stim_pos_y_2,stim_pos_y_5,stim_pos_y_4,stim_pos_y_7,stim_pos_y_6,totBlockN,stim_pos_x_27,stim_pos_x_26,stim_pos_x_25,stim_pos_x_24,stim_pos_x_23,stim_pos_x_22,stim_pos_x_21,stim_pos_x_20,blockN,stim_pos_x_29,stim_pos_x_28,prevDistrCTPD,prevDistrMean,prevDistrType,trials.thisRepN,trials.thisTrialN,trials.thisN,trials.thisIndex,timeStart,timeBeforeDraw,timeDraw,timeAfterSaving,timeAfterWritingToTemp,timeAfterPreparingNext,answer,correct,rt,trialScore,session,participant,resolution,cpu_info,expName,pc_name,graphic_card,date,monitorName,
81.0,97.5,101.4,81.4,36,-10,107.2,76.3,114.9,98.9,8.011,7.551,7.557,8.069,7.563,7.58,8.284,4.348,-4.334,-7.91,1.913,-1.193,8.315,4.735,-4.667,-7.626,95.6,94.8,-7.604,100.9,89.9,93.1,106.0,91.4,36,111.0,1,5,prime,10,0,62,norm,36,-5.089,down,norm,94.9155287886,92.3,92.7,94.6,102.9,1,97.2,86.2,94.9,10,5,8.271,5.103,1.6,-1.18,-4.62,-8.493,93.4,5,156.9,-7.577,-7.941,-10,-8.393,-8.459,-4.811,-5.144,-5.071,-4.419,4.768,8.14,7,-1.431,1.307,4.509,7.553,-7.756,-8.333,-1.609,1.44,89.6,81.1,102.4,84.3,74.9,100.1,,95.0,92.2,114.0,0,norm,1.611,1.827,-1.519,-1.544,-4.856,-5.138,-2.064,-1.511,-1.89,-1.859,1.828,-1.493,108.0,109.2,-5.12,-8.193,1.653,-2.073,7.719,4.764,-4.514,-7.609,0,4.487,4.841,4.683,4.641,1.747,1.463,1.138,1.746,0,4.593,5.026,,,,0,0,0,0,274.576,274.597,274.617935971,274.618,274.618,274.621,down,1,1.65172782151,8.34827217849,001,004,1920_1080,Intel(R) Core(TM) i5-3570 CPU @ 3.40GHz,orientation_search,LEPPC096,Intel(R) HD Graphics 2500,2018_Sep_28_1211,testMonitor,
99.7,90.3,85.3,94.2,36,-10,,86.9,74.9,94.2,7.936,8.022,7.684,7.82,8.211,8.227,8.174,4.686,-4.502,-8.335,2.048,-1.776,7.835,5.002,-5.17,-7.841,93.8,97.4,-7.885,91.2,109.8,78.7,96.7,93.3,36,85.5,4,5,prime,10,0,119,norm,36,-4.702,down,norm,94.9155287886,114.9,110.6,93.3,99.5,0,97.8,98.2,102.3,10,5,7.854,5.009,1.609,-1.828,-4.32,-7.632,96.4,5,213.9,-8.017,-7.718,-10,-8.218,-7.953,-5.219,-4.65,-4.916,-4.748,5.078,8.243,24,-1.853,1.927,4.369,7.525,-7.981,-8.417,-1.717,1.159,89.1,91.7,107.9,92.8,108.7,92.3,96.6,93.4,91.4,91.1,1,norm,1.395,1.895,-2.02,-1.121,-4.811,-4.48,-2.064,-1.52,-1.746,-1.705,2.017,-1.623,106.1,98.1,-4.643,-8.099,1.245,-1.982,8.099,4.946,-4.449,-7.72,0,5.226,4.776,4.381,4.41,1.109,1.293,1.288,1.164,0,4.852,4.724,,,,0,1,1,1,276.306,276.32,276.338155451,276.338,276.339,276.342,down,1,1.31230913793,8.68769086207,001,004,1920_1080,Intel(R) Core(TM) i5-3570 CPU @ 3.40GHz,orientation_search,LEPPC096,Intel(R) HD Graphics 2500,2018_Sep_28_1211,testMonitor,
89.1,102.5,84.4,104.4,36,-10,74.9,87.2,114.9,103.4,8.006,7.5,8.112,7.676,8.113,8.135,8.301,4.78,-4.833,-8.438,1.359,-1.825,7.639,5.238,-5.1,-7.882,90.2,92.1,-7.511,95.6,,94.1,90.5,97.9,36,90.7,5,5,prime,10,0,81,norm,36,-5.018,down,norm,94.9155287886,111.5,90.4,100.4,98.1,0,92.2,87.0,93.5,10,5,7.691,5.035,1.137,-1.488,-4.33,-8.095,93.7,5,175.9,-7.545,-8.44,-10,-8.009,-7.949,-5.134,-5.299,-4.416,-5.048,5.203,7.797,30,-1.875,1.893,5.255,8.177,-7.806,-8.267,-2.067,1.527,90.4,103.3,98.7,95.7,99.3,101.0,90.5,109.6,100.8,77.2,2,norm,1.97,1.612,-2.09,-1.404,-4.45,-5.003,-1.445,-2.085,-1.581,-1.681,1.904,-1.258,100.3,83.2,-4.791,-7.59,1.48,-1.419,7.602,4.779,-4.503,-7.616,0,4.908,4.915,4.701,4.67,1.857,1.643,1.966,1.115,0,4.853,4.395,,,,0,2,2,2,277.674,277.684,277.689803192,277.69,277.692,277.694,down,1,1.32825937411,8.67174062589,001,004,1920_1080,Intel(R) Core(TM) i5-3570 CPU @ 3.40GHz,orientation_search,LEPPC096,Intel(R) HD Graphics 2500,2018_Sep_28_1211,testMonitor,
109.5,114.9,94.0,,36,-10,90.0,99.0,92.0,98.0,8.318,8.409,7.802,7.922,7.662,7.636,7.579,5.174,-4.794,-8.356,1.542,-1.682,7.926,4.94,-5.044,-8.375,114.8,94.6,-7.742,95.7,93.7,90.0,105.5,100.3,36,93.7,3,5,prime,10,0,105,norm,36,-4.518,up,norm,94.9155287886,99.1,86.2,99.3,105.4,3,93.4,92.2,105.8,10,5,8.37,5.132,1.545,-1.136,-5.241,-8.126,101.0,5,199.9,-8.007,-8.432,-10,-8.234,-7.704,-4.79,-5.272,-5.256,-5.01,4.654,7.533,21,-1.76,1.134,5.262,8.099,-8.209,-7.996,-1.526,1.549,74.9,97.6,99.8,102.3,94.0,110.3,90.9,100.5,101.2,114.2,3,norm,1.47,1.885,-1.145,-1.484,-4.678,-4.877,-1.792,-1.595,-2.034,-1.757,1.926,-2.078,79.7,82.9,-4.847,-7.691,1.795,-1.929,7.574,4.454,-4.618,-7.546,0,5.06,4.52,4.793,4.42,1.315,1.19,1.434,1.157,0,4.658,4.667,,,,0,3,3,3,279.062,279.072,279.078182177,279.078,279.08,279.083,up,1,0.958422592214,9.04157740779,001,004,1920_1080,Intel(R) Core(TM) i5-3570 CPU @ 3.40GHz,orientation_search,LEPPC096,Intel(R) HD Graphics 2500,2018_Sep_28_1211,testMonitor,
95.1,80.4,97.8,93.8,36,-10,93.5,104.9,89.8,,8.353,7.728,7.523,7.632,7.662,7.918,8.419,4.874,-4.389,-7.548,1.392,-1.593,8.111,5.151,-5.088,-8.277,82.6,86.5,-7.901,101.9,100.3,96.7,95.8,97.1,36,96.9,4,5,prime,10,0,84,norm,36,-5.293,up,norm,94.9155287886,81.4,97.0,108.3,79.8,5,101.6,114.9,81.5,10,5,8.02,4.381,1.151,-2.0,-5.212,-8.007,105.8,5,178.9,-7.96,-7.879,-10,-8.44,-7.745,-5.266,-4.696,-4.852,-4.723,4.582,8.12,29,-1.599,1.691,5.181,8.432,-8.411,-7.585,-2.026,1.865,97.1,112.9,74.9,98.8,102.0,80.6,99.2,99.2,90.1,109.6,4,norm,1.677,1.726,-1.381,-1.284,-4.503,-4.412,-1.429,-1.975,-2.025,-1.971,1.201,-2.077,84.9,86.5,-4.727,-8.304,1.496,-1.782,8.167,4.745,-4.408,-8.231,0,4.765,5.189,4.879,4.94,1.835,2.076,1.529,1.227,0,4.573,5.151,,,,0,4,4,4,280.076,280.085,280.092214472,280.092,280.094,280.097,up,1,1.07739163743,8.92260836257,001,004,1920_1080,Intel(R) Core(TM) i5-3570 CPU @ 3.40GHz,orientation_search,LEPPC096,Intel(R) HD Graphics 2500,2018_Sep_28_1211,testMonitor,
184.5,189.8,198.2,192.8,36,-20,196.4,187.4,197.1,187.5,7.654,7.542,7.58,7.929,7.878,7.636,8.038,4.959,-5.008,-8.036,1.101,-1.827,7.803,4.53,-4.716,-8.154,178.4,186.9,-7.521,189.0,183.9,,189.0,197.2,36,188.5,5,5,probe,5,0,102,norm,36,-4.405,up,norm,188.16484225,190.0,185.7,186.3,182.7,3,189.3,191.1,183.6,10,5,7.975,4.803,1.753,-1.679,-4.465,-7.628,195.6,2,86.2,-8.402,-7.549,-10,-7.818,-7.844,-5.105,-4.966,-4.843,-4.428,4.886,8.397,33,-1.358,1.936,5.245,8.007,-7.574,-7.54,-1.682,1.911,185.1,183.5,196.9,194.3,184.9,179.1,187.9,181.8,180.9,191.9,0,norm,1.121,1.195,-1.336,-1.349,-4.753,-4.608,-1.193,-1.64,-1.606,-2.039,1.314,-1.503,178.2,179.2,-4.77,-7.899,2.045,-1.145,7.974,4.478,-5.083,-7.796,1,5.243,4.593,4.797,4.666,1.975,1.408,1.305,1.861,1,4.966,5.281,-10,94.9155287886,norm,0,5,5,5,281.215,281.225,281.232482797,281.233,281.234,281.237,down,0,1.21248146278,-10,001,004,1920_1080,Intel(R) Core(TM) i5-3570 CPU @ 3.40GHz,orientation_search,LEPPC096,Intel(R) HD Graphics 2500,2018_Sep_28_1211,testMonitor,
188.3,191.2,184.1,183.6,36,-20,181.1,181.6,177.9,178.7,8.068,7.851,7.651,8.33,8.37,8.227,7.962,5.223,-4.662,-8.249,1.781,-1.887,8.332,4.705,-4.612,-7.746,177.8,181.3,-7.657,182.2,177.8,177.7,178.6,181.1,36,,4,5,probe,5,0,95,norm,36,-4.448,up,norm,181.16484225,189.5,182.1,172.8,180.1,3,182.6,190.1,178.5,10,5,8.401,5.101,1.863,-1.274,-4.835,-7.764,186.2,2,86.2,-8.258,-7.662,-10,-8.435,-7.583,-5.044,-4.938,-4.652,-4.752,4.934,8.411,27,-1.341,1.312,4.605,7.559,-7.685,-7.817,-2.023,1.439,182.8,171.2,179.7,186.0,179.4,180.3,175.4,185.8,185.7,175.9,1,norm,1.21,1.385,-1.114,-1.931,-5.052,-4.589,-1.451,-1.684,-1.994,-1.145,1.83,-1.603,184.9,176.7,-4.348,-8.118,1.478,-1.559,8.079,4.581,-4.653,-8.49,1,5.111,4.664,4.304,5.084,1.267,1.566,1.925,1.832,1,4.403,5.113,-10,94.9155287886,norm,0,6,6,6,283.515,283.524,283.538709402,283.539,283.541,283.543,up,1,1.21364116164,8.78635883836,001,004,1920_1080,Intel(R) Core(TM) i5-3570 CPU @ 3.40GHz,orientation_search,LEPPC096,Intel(R) HD Graphics 2500,2018_Sep_28_1211,testMonitor,
2.1,8.8,14.0,29.2,36,40,25.9,18.4,,29.7,8.443,7.701,8.104,7.848,8.087,8.242,8.372,5.079,-4.377,-7.573,1.881,-1.317,7.956,4.814,-4.309,-8.346,22.4,26.9,-8.448,15.6,34.3,12.2,14.5,29.4,36,11.4,4,5,prime,10,0,78,norm,36,-4.456,up,norm,22.081121285,22.9,8.6,27.5,24.1,4,25.0,23.9,28.1,10,6,8.256,4.41,1.71,-1.246,-4.677,-8.009,22.8,6,100.1,-7.63,-8.201,40,-8.484,-7.718,-4.412,-4.878,-4.716,-5.278,5.145,8.309,28,-1.625,1.281,4.654,7.533,-7.714,-7.624,-1.866,1.932,14.8,28.8,28.0,23.3,16.8,26.4,29.4,11.2,42.1,36.5,0,norm,1.631,1.25,-1.995,-2.03,-4.844,-4.713,-1.301,-2.019,-1.138,-1.806,1.823,-1.575,16.4,32.4,-4.431,-7.691,1.386,-1.855,7.523,4.34,-4.698,-7.96,2,4.424,4.811,5.271,4.517,1.33,1.316,1.71,1.207,2,4.95,4.413,-20,94.9155287886,norm,0,7,7,7,284.774,284.783,284.802219426,284.802,284.804,284.807,up,1,1.23246378054,8.76753621946,001,004,1920_1080,Intel(R) Core(TM) i5-3570 CPU @ 3.40GHz,orientation_search,LEPPC096,Intel(R) HD Graphics 2500,2018_Sep_28_1211,testMonitor,
35.4,38.4,18.5,,36,40,16.2,26.4,14.1,31.3,8.101,8.131,7.558,8.161,7.952,7.553,7.669,4.311,-4.652,-8.018,1.337,-1.314,7.751,5.153,-4.858,-7.509,12.8,21.8,-7.511,36.2,42.1,30.3,26.5,2.1,36,23.4,3,5,prime,10,0,102,norm,36,-4.578,up,norm,22.081121285,26.3,18.9,14.6,17.9,3,7.1,36.2,15.6,10,6,8.181,4.609,1.339,-1.461,-5.29,-7.554,40.0,6,124.1,-8.46,-7.693,40,-7.987,-7.918,-4.742,-4.648,-4.336,-4.931,4.531,7.961,21,-1.497,2.044,4.744,8.156,-7.998,-8.344,-1.459,1.539,24.6,25.2,41.0,23.0,18.5,32.9,21.4,10.8,37.4,22.2,1,norm,1.93,1.914,-1.236,-1.871,-4.793,-4.463,-2.092,-1.314,-1.369,-1.692,2.099,-1.529,26.0,29.7,-4.77,-8.329,1.84,-1.943,8.405,5.241,-4.349,-8.281,2,4.741,4.801,4.925,4.455,1.546,1.334,1.635,1.689,2,5.121,4.95,-20,94.9155287886,norm,0,8,8,8,286.072,286.081,286.096943822,286.097,286.099,286.102,up,1,1.09708025738,8.90291974262,001,004,1920_1080,Intel(R) Core(TM) i5-3570 CPU @ 3.40GHz,orientation_search,LEPPC096,Intel(R) HD Graphics 2500,2018_Sep_28_1211,testMonitor,
30.5,26.5,,2.1,36,40,42.1,21.7,35.8,18.5,8.476,8.356,8.039,8.122,7.84,7.794,8.056,5.183,-5.194,-8.165,1.184,-1.461,7.591,4.757,-5.048,-7.744,18.0,27.3,-7.932,28.0,4.9,4.0,24.0,21.3,36,9.0,3,5,prime,10,0,68,norm,36,-4.622,down,norm,22.081121285,35.4,20.7,7.8,20.5,2,41.2,28.7,7.6,10,6,8.376,5.229,1.174,-1.909,-4.66,-8.483,37.9,6,90.1,-8.123,-7.717,40,-7.969,-8.342,-5.098,-4.483,-4.753,-4.345,4.427,7.653,20,-1.657,1.347,4.598,7.903,-8.478,-8.132,-1.282,1.541,18.0,6.3,10.5,25.4,4.4,16.9,7.5,29.6,32.2,9.7,2,norm,2.094,1.346,-2.054,-1.273,-5.227,-4.859,-1.474,-1.959,-1.613,-1.819,1.597,-2.057,24.1,24.6,-4.578,-7.896,1.68,-1.977,8.025,4.594,-5.009,-7.821,2,4.601,4.453,4.49,5.232,1.537,1.536,1.722,1.295,2,5.123,5.056,-20,94.9155287886,norm,0,9,9,9,287.236,287.25,287.26903112,287.269,287.272,287.276,down,1,1.83647068802,8.16352931198,001,004,1920_1080,Intel(R) Core(TM) i5-3570 CPU @ 3.40GHz,orientation_search,LEPPC096,Intel(R) HD Graphics 2500,2018_Sep_28_1211,testMonitor,
40.5,12.5,32.0,23.5,36,40,,18.8,11.7,10.4,8.481,8.199,8.251,8.494,8.195,7.958,8.341,4.827,-5.155,-7.751,1.511,-1.251,7.683,4.643,-4.945,-8.253,6.2,21.1,-7.898,18.4,14.2,26.5,28.1,18.8,36,15.5,4,5,prime,10,0,116,norm,36,-5.034,down,norm,22.081121285,33.6,21.5,33.1,18.2,0,33.0,36.2,34.9,10,6,8.055,4.8,1.1,-1.125,-4.732,-7.646,13.0,6,138.1,-8.282,-7.632,40,-7.849,-8.008,-4.687,-5.255,-4.732,-4.945,5.265,8.228,24,-2.089,1.591,5.153,8.33,-8.484,-7.632,-1.562,1.927,16.6,29.5,24.8,39.6,13.2,42.1,13.2,14.1,34.6,7.3,3,norm,1.522,2.089,-2.093,-1.252,-5.121,-4.992,-1.177,-1.622,-1.813,-1.334,1.142,-1.834,12.8,22.1,-4.705,-8.431,1.963,-1.284,8.238,4.691,-5.116,-7.825,2,5.299,4.663,4.985,4.46,2.074,1.978,2.033,1.95,2,4.995,4.74,-20,94.9155287886,norm,0,10,10,10,289.145,289.159,289.177345787,289.178,289.18,289.183,down,1,1.48786466598,8.51213533402,001,004,1920_1080,Intel(R) Core(TM) i5-3570 CPU @ 3.40GHz,orientation_search,LEPPC096,Intel(R) HD Graphics 2500,2018_Sep_28_1211,testMonitor,
42.1,26.2,12.6,17.7,36,40,22.2,33.3,18.3,27.4,8.287,8.194,8.162,8.298,8.036,7.771,7.537,4.34,-4.784,-7.86,1.483,-1.114,8.09,5.069,-5.096,-7.567,22.1,32.3,-8.343,13.3,30.3,25.5,18.2,24.5,36,26.2,0,5,prime,10,0,83,norm,36,-4.541,down,norm,22.081121285,7.6,22.3,22.7,20.9,2,30.5,2.1,26.9,10,6,8.275,5.254,1.597,-1.588,-5.011,-8.221,4.1,6,105.1,-8.462,-7.995,40,-8.085,-7.937,-4.635,-4.364,-5.007,-4.537,4.479,8.335,2,-1.365,1.565,4.302,7.974,-7.882,-7.637,-1.273,1.523,34.4,20.8,37.9,,5.9,34.4,20.8,28.1,23.5,13.7,4,norm,1.726,1.903,-1.52,-1.697,-4.998,-5.007,-1.212,-1.174,-1.848,-1.782,1.607,-1.655,25.6,6.5,-5.185,-7.968,1.115,-1.455,8.457,4.948,-4.953,-7.813,2,5.071,4.46,5.003,5.044,1.388,1.936,1.128,1.596,2,4.36,4.758,-20,94.9155287886,norm,0,11,11,11,290.704,290.717,290.736333015,290.737,290.738,290.741,down,1,1.09691756147,8.90308243853,001,004,1920_1080,Intel(R) Core(TM) i5-3570 CPU @ 3.40GHz,orientation_search,LEPPC096,Intel(R) HD Graphics 2500,2018_Sep_28_1211,testMonitor,
27.2,25.4,19.8,34.9,36,40,14.8,25.5,28.1,10.1,8.201,7.63,7.618,8.256,8.403,8.483,7.536,4.399,-4.576,-7.761,1.212,-2.033,8.414,4.322,-4.987,-8.343,24.2,16.7,-8.358,21.8,20.5,26.9,42.1,28.0,36,19.2,0,5,prime,10,0,100,norm,36,-5.177,down,norm,22.081121285,22.6,2.1,28.5,21.3,2,18.6,30.2,10.6,10,6,7.683,4.597,1.346,-1.721,-4.938,-7.643,18.3,6,122.1,-8.45,-8.169,40,-8.284,-7.66,-5.161,-4.371,-4.829,-4.689,4.37,7.831,2,-2.027,1.413,5.191,8.24,-7.89,-8.067,-1.272,1.528,22.8,18.6,20.6,,7.1,9.5,27.2,21.8,22.1,18.5,5,norm,1.748,1.68,-1.977,-1.424,-5.096,-4.894,-1.651,-1.886,-1.335,-1.898,1.185,-1.318,9.9,17.6,-5.115,-8.198,1.712,-1.225,8.171,4.59,-4.859,-7.972,2,4.693,4.969,5.295,4.688,1.463,1.267,1.265,1.46,2,4.967,4.979,-20,94.9155287886,norm,0,12,12,12,291.854,291.864,291.870600909,291.871,291.872,291.875,down,1,0.94098032285,9.05901967715,001,004,1920_1080,Intel(R) Core(TM) i5-3570 CPU @ 3.40GHz,orientation_search,LEPPC096,Intel(R) HD Graphics 2500,2018_Sep_28_1211,testMonitor,
134.1,132.7,130.1,137.9,36,30,143.1,127.7,128.4,131.1,8.089,7.852,7.872,8.162,7.733,7.972,7.859,4.323,-5.057,-7.786,2.075,-1.986,8.07,4.713,-4.793,-7.559,132.8,132.4,-7.628,134.5,129.7,129.2,126.2,126.5,36,131.8,2,5,probe,5,0,73,norm,36,-4.892,up,norm,133.109251846,138.2,136.6,,135.2,3,126.3,134.3,123.1,10,6,8.337,4.419,1.199,-1.179,-4.384,-8.127,134.8,1,60.1,-8.228,-8.392,40,-8.345,-8.371,-4.463,-4.994,-5.027,-4.732,4.647,8.159,15,-1.148,1.828,4.905,8.191,-8.333,-8.152,-1.502,1.915,136.7,134.0,131.4,135.8,137.5,132.4,138.4,137.4,125.8,135.0,0,norm,1.655,1.658,-1.313,-1.593,-4.77,-5.05,-1.913,-1.216,-1.759,-1.497,1.271,-1.933,139.2,128.0,-4.695,-8.154,2.061,-1.491,8.106,5.069,-4.505,-7.808,3,5.202,4.359,5.094,5.205,1.287,1.604,1.932,1.781,3,4.772,4.404,40,22.081121285,norm,0,13,13,13,292.836,292.846,292.852413378,292.853,292.854,292.857,up,1,1.24916803228,8.75083196772,001,004,1920_1080,Intel(R) Core(TM) i5-3570 CPU @ 3.40GHz,orientation_search,LEPPC096,Intel(R) HD Graphics 2500,2018_Sep_28_1211,testMonitor,
105.8,,117.7,107.8,36,-80,131.1,94.6,125.2,111.7,7.922,8.019,7.663,8.281,8.155,8.355,8.031,4.942,-4.347,-8.499,1.144,-1.493,8.158,4.371,-5.002,-7.688,128.7,107.9,-8.002,112.0,99.5,112.3,123.2,112.2,36,112.7,3,5,prime,10,0,105,norm,36,-4.544,up,norm,111.147381843,111.5,91.1,109.6,113.8,5,121.8,106.8,105.0,10,6,8.44,4.95,1.779,-1.543,-4.698,-8.317,110.0,6,216.1,-7.861,-8.043,-80,-8.386,-8.374,-4.493,-4.935,-4.356,-4.414,5.011,7.647,23,-1.579,2.087,5.235,7.714,-8.268,-7.871,-1.568,1.885,112.2,100.6,94.5,119.6,115.0,93.3,100.1,112.9,112.7,104.6,0,norm,1.995,1.486,-1.117,-1.825,-4.974,-4.728,-1.23,-2.049,-1.731,-1.191,1.567,-2.027,113.8,120.4,-4.546,-8.064,2.068,-1.622,8.117,4.994,-4.721,-8.086,4,5.111,4.466,4.63,4.621,1.176,1.685,1.285,1.692,4,4.439,4.939,30,22.081121285,norm,0,14,14,14,294.147,294.156,294.164787413,294.165,294.167,294.169,up,1,1.04220374176,8.95779625824,001,004,1920_1080,Intel(R) Core(TM) i5-3570 CPU @ 3.40GHz,orientation_search,LEPPC096,Intel(R) HD Graphics 2500,2018_Sep_28_1211,testMonitor,
118.1,112.6,104.3,116.6,36,-80,113.0,117.0,123.3,107.3,8.189,7.666,8.254,8.032,7.839,8.482,8.385,4.945,-5.095,-8.143,1.152,-1.397,7.713,4.474,-5.289,-8.279,108.0,109.0,-8.454,131.1,106.5,109.1,108.2,103.8,36,102.9,1,5,prime,10,0,100,norm,36,-5.058,down,norm,111.147381843,111.6,127.9,112.2,122.6,1,114.9,106.9,110.5,10,6,8.009,4.702,1.904,-1.969,-4.369,-8.104,111.3,6,211.1,-8.044,-7.515,-80,-8.454,-8.102,-5.259,-4.302,-5.283,-4.769,4.935,7.924,7,-1.542,1.262,5.233,7.727,-7.95,-8.494,-1.523,1.525,102.7,111.1,109.3,105.9,112.9,124.3,,116.2,114.0,104.5,1,norm,1.844,1.123,-1.229,-1.372,-5.014,-4.971,-1.158,-2.023,-1.275,-1.578,1.647,-1.544,97.1,91.1,-4.74,-8.335,1.435,-1.537,7.592,5.26,-4.955,-8.358,4,4.658,4.36,4.408,5.161,1.982,1.4,1.638,2.061,4,4.704,4.598,30,22.081121285,norm,0,15,15,15,295.254,295.264,295.270394566,295.271,295.272,295.275,up,0,1.21575560478,-10,001,004,1920_1080,Intel(R) Core(TM) i5-3570 CPU @ 3.40GHz,orientation_search,LEPPC096,Intel(R) HD Graphics 2500,2018_Sep_28_1211,testMonitor,
115.4,112.0,101.4,100.9,36,-80,115.8,111.9,109.3,109.6,8.144,7.623,8.181,8.208,7.891,8.176,7.794,4.667,-4.576,-8.189,1.64,-1.651,7.711,5.285,-5.276,-8.5,126.1,109.5,-8.116,111.1,127.6,106.3,114.4,113.2,36,113.1,0,5,prime,10,0,77,norm,36,-4.478,up,norm,111.147381843,120.9,111.0,102.1,122.1,3,115.4,97.4,114.0,10,6,8.381,4.355,1.806,-1.476,-4.612,-7.852,108.9,6,188.1,-7.609,-7.98,-80,-8.16,-8.202,-5.241,-4.55,-5.035,-4.81,4.352,7.597,3,-1.711,1.776,5.056,7.894,-8.186,-8.025,-1.536,1.547,105.9,104.2,,115.3,105.8,101.9,103.4,110.6,122.1,91.1,2,norm,1.984,1.739,-1.632,-1.988,-5.0,-4.521,-1.63,-1.579,-1.411,-2.093,2.02,-1.646,131.1,107.9,-5.058,-7.581,1.175,-1.387,8.305,4.797,-4.874,-8.379,4,4.651,4.408,4.724,4.39,1.585,1.839,2.014,1.226,4,4.558,5.093,30,22.081121285,norm,0,16,16,16,297.557,297.566,297.57811743,297.578,297.58,297.583,up,1,1.63894970282,8.36105029718,001,004,1920_1080,Intel(R) Core(TM) i5-3570 CPU @ 3.40GHz,orientation_search,LEPPC096,Intel(R) HD Graphics 2500,2018_Sep_28_1211,testMonitor,
107.2,107.6,118.9,119.6,36,-80,91.1,106.0,107.8,123.8,8.401,7.657,7.741,8.414,8.316,8.358,7.543,5.081,-4.765,-7.946,1.511,-1.293,7.577,4.334,-5.101,-7.919,116.6,131.1,-7.893,122.1,121.1,124.8,104.7,124.2,36,112.2,0,5,prime,10,0,83,norm,36,-5.11,up,norm,111.147381843,109.9,107.2,100.1,110.3,4,115.1,107.8,113.3,10,6,7.667,5.184,2.024,-1.843,-4.68,-8.013,97.0,6,194.1,-7.538,-8.317,-80,-7.998,-8.452,-4.493,-5.213,-4.537,-5.178,4.754,8.215,4,-1.36,1.206,4.842,7.791,-7.692,-8.23,-1.302,1.582,113.9,107.4,127.9,104.6,105.3,121.4,102.0,110.6,112.2,,3,norm,1.245,1.573,-1.913,-1.752,-5.034,-5.144,-1.407,-2.016,-1.969,-1.448,1.246,-1.939,105.5,119.0,-5.009,-8.144,1.848,-2.041,8.489,5.155,-4.528,-8.466,4,4.584,4.471,4.5,4.885,1.799,1.146,1.673,1.193,4,4.798,4.646,30,22.081121285,norm,0,17,17,17,299.265,299.286,299.296095992,299.296,299.298,299.301,up,1,0.947515929256,9.05248407074,001,004,1920_1080,Intel(R) Core(TM) i5-3570 CPU @ 3.40GHz,orientation_search,LEPPC096,Intel(R) HD Graphics 2500,2018_Sep_28_1211,testMonitor,
131.1,114.0,100.6,111.4,36,-80,115.8,100.0,111.5,114.9,8.301,7.771,7.586,8.196,8.336,7.906,8.409,5.114,-4.956,-7.575,1.929,-1.569,7.608,4.49,-4.783,-7.854,99.1,,-7.758,119.7,115.4,101.4,126.8,101.0,36,118.1,5,5,prime,10,0,109,norm,36,-4.646,up,norm,111.147381843,118.6,111.2,115.9,106.8,4,120.8,109.7,95.9,10,6,7.763,4.907,1.8,-1.848,-5.26,-7.572,96.1,6,220.1,-7.799,-8.461,-80,-8.226,-8.055,-4.747,-4.721,-5.015,-4.31,4.359,7.76,34,-2.05,1.738,4.525,7.763,-8.146,-7.905,-1.151,1.974,114.3,115.2,106.3,96.2,103.3,112.8,116.5,91.1,126.1,107.3,4,norm,1.5,1.787,-1.736,-1.947,-4.643,-4.916,-1.997,-1.627,-1.128,-1.361,1.594,-1.28,111.2,118.4,-5.282,-8.022,1.413,-1.568,7.942,4.392,-4.387,-7.923,4,5.261,4.559,4.916,4.702,1.584,1.854,1.679,2.041,4,5.022,5.222,30,22.081121285,norm,0,18,18,18,300.281,300.293,300.313212568,300.313,300.316,300.319,up,1,1.1289399803,8.8710600197,001,004,1920_1080,Intel(R) Core(TM) i5-3570 CPU @ 3.40GHz,orientation_search,LEPPC096,Intel(R) HD Graphics 2500,2018_Sep_28_1211,testMonitor,
124.9,91.1,129.4,116.9,36,-80,102.8,112.8,107.1,128.5,8.11,8.345,8.378,7.746,8.18,8.284,8.332,5.116,-4.549,-8.241,1.633,-1.336,7.934,5.227,-4.406,-7.835,104.0,123.7,-7.895,93.6,123.2,104.5,106.5,100.3,36,113.6,0,5,prime,10,0,109,norm,36,-4.305,down,norm,111.147381843,97.2,103.5,107.8,112.6,2,106.5,112.7,126.7,10,6,7.918,4.625,1.721,-1.216,-4.526,-8.198,104.7,6,220.1,-8.295,-8.482,-80,-8.051,-8.45,-5.286,-5.275,-4.521,-4.731,4.702,7.648,2,-1.772,1.125,5.018,7.998,-8.36,-8.236,-1.705,1.337,131.1,121.9,110.5,,106.4,120.7,124.6,107.1,99.6,104.4,5,norm,1.534,1.824,-2.051,-1.34,-4.483,-4.838,-1.732,-1.262,-1.883,-1.123,1.243,-1.563,100.3,113.5,-5.115,-7.995,1.381,-1.566,8.07,4.85,-4.957,-7.734,4,4.564,4.794,4.895,4.976,1.73,1.152,1.538,1.851,4,4.369,4.619,30,22.081121285,norm,0,19,19,19,301.481,301.491,301.497929476,301.498,301.5,301.503,down,1,1.23166841185,8.76833158815,001,004,1920_1080,Intel(R) Core(TM) i5-3570 CPU @ 3.40GHz,orientation_search,LEPPC096,Intel(R) HD Graphics 2500,2018_Sep_28_1211,testMonitor,
94.2,87.1,95.8,100.0,36,80,84.2,89.5,89.8,96.7,7.721,8.397,8.144,7.94,8.306,8.124,8.305,5.059,-5.103,-7.616,1.166,-1.895,7.995,4.971,-4.703,-8.472,101.9,99.0,-7.61,95.1,90.0,86.4,92.1,104.2,36,84.4,0,5,probe,5,0,73,norm,36,-4.415,up,norm,94.178477834,94.9,97.8,97.8,92.7,3,96.8,95.3,90.8,10,6,8.373,5.28,1.652,-1.418,-4.906,-8.12,96.7,2,21.2,-8.261,-8.454,-80,-8.051,-7.832,-4.815,-4.855,-4.837,-4.339,4.454,7.666,3,-1.388,1.236,4.906,8.11,-8.296,-8.39,-1.551,1.402,88.9,86.7,,94.8,93.5,99.8,89.3,94.3,90.4,92.4,0,norm,1.671,1.475,-1.473,-1.337,-5.294,-5.002,-1.161,-1.172,-1.915,-1.884,1.47,-1.58,94.3,90.6,-4.523,-8.159,2.085,-2.005,7.789,4.884,-5.004,-7.659,5,5.043,5.15,4.874,4.645,1.789,1.212,1.362,1.125,5,5.166,4.768,-80,111.147381843,norm,0,20,20,20,302.767,302.778,302.788188941,302.788,302.79,302.793,up,1,1.36402259149,8.63597740851,001,004,1920_1080,Intel(R) Core(TM) i5-3570 CPU @ 3.40GHz,orientation_search,LEPPC096,Intel(R) HD Graphics 2500,2018_Sep_28_1211,testMonitor,
136.7,132.6,131.5,138.2,36,80,134.7,139.2,134.8,139.1,7.723,7.946,7.52,7.747,8.017,7.971,8.021,4.484,-4.935,-8.143,1.635,-1.989,8.134,4.466,-4.844,-8.058,138.7,143.5,-8.353,139.0,131.4,134.0,138.0,141.0,36,138.1,1,5,probe,5,0,117,norm,36,-5.092,down,norm,138.178477834,131.8,141.1,148.2,137.0,2,137.2,131.6,138.7,10,6,7.688,4.576,1.785,-1.706,-4.862,-8.334,137.7,2,21.2,-7.772,-7.919,-80,-7.634,-8.209,-4.777,-4.755,-4.33,-5.074,4.863,8.415,8,-1.953,2.034,4.449,7.525,-8.39,-7.745,-1.698,1.907,143.3,,134.6,142.3,131.8,129.6,137.5,128.2,136.7,141.2,1,norm,2.04,1.809,-1.927,-1.881,-5.121,-4.56,-1.507,-1.229,-2.089,-1.934,1.912,-1.296,136.4,147.8,-4.901,-7.505,1.234,-1.515,7.897,4.611,-5.056,-7.883,5,4.63,4.627,4.815,4.512,1.572,1.365,1.404,1.759,5,5.128,4.987,-80,111.147381843,norm,0,21,21,21,304.19,304.2,304.207820331,304.208,304.21,304.212,down,1,1.19700754227,8.80299245773,001,004,1920_1080,Intel(R) Core(TM) i5-3570 CPU @ 3.40GHz,orientation_search,LEPPC096,Intel(R) HD Graphics 2500,2018_Sep_28_1211,testMonitor,
283.4,276.6,295.2,267.3,36,-40,290.6,282.9,269.4,270.7,8.007,7.972,7.991,7.754,7.768,8.04,7.755,5.25,-4.911,-8.314,1.614,-1.752,7.545,4.785,-5.068,-8.432,299.4,274.3,-8.139,280.6,293.2,276.6,287.3,300.3,36,284.8,2,5,prime,10,0,68,norm,36,-4.555,down,norm,280.286596502,279.7,291.1,282.5,,2,264.9,285.2,266.7,10,6,7.694,4.681,1.145,-1.302,-5.299,-7.659,294.1,6,348.3,-7.562,-8.349,-40,-8.128,-8.163,-4.436,-5.015,-5.257,-4.3,4.331,8.328,14,-1.684,1.784,4.713,8.104,-8.421,-7.925,-1.546,1.239,275.2,297.7,272.5,270.9,279.6,269.3,276.1,281.5,283.3,279.0,0,norm,1.656,1.311,-1.514,-1.654,-4.955,-4.891,-1.426,-1.495,-1.582,-1.842,1.59,-1.275,282.9,290.3,-4.729,-8.468,2.095,-1.943,8.089,4.99,-4.529,-8.101,6,4.941,4.493,4.717,4.387,1.31,1.148,1.271,1.916,6,5.247,4.82,80,111.147381843,norm,0,22,22,22,305.426,305.436,305.442222577,305.442,305.444,305.447,down,1,1.34617584621,8.65382415379,001,004,1920_1080,Intel(R) Core(TM) i5-3570 CPU @ 3.40GHz,orientation_search,LEPPC096,Intel(R) HD Graphics 2500,2018_Sep_28_1211,testMonitor,
286.9,273.2,283.7,260.3,36,-40,283.4,288.0,290.6,275.8,8.004,7.561,7.592,8.426,7.629,7.998,8.019,5.174,-4.794,-8.077,1.378,-1.73,8.006,4.34,-4.355,-8.257,281.0,286.4,-8.285,284.5,284.4,280.0,278.4,292.2,36,274.7,1,5,prime,10,0,105,norm,36,-5.202,down,norm,280.286596502,274.0,300.3,286.9,286.7,2,296.8,271.1,267.7,10,6,8.407,4.7,1.248,-1.153,-4.497,-7.781,266.0,6,385.3,-8.003,-8.146,-40,-8.07,-8.484,-4.823,-4.443,-5.1,-5.12,4.323,8.237,8,-1.518,1.44,4.919,7.82,-8.086,-7.573,-1.332,1.288,296.5,,284.3,284.8,277.7,286.5,287.5,284.1,287.7,279.8,1,norm,1.86,2.084,-1.133,-1.425,-4.679,-4.559,-1.687,-1.781,-1.78,-1.652,1.321,-1.836,285.9,285.6,-4.459,-7.727,1.64,-1.256,7.905,5.202,-5.021,-8.155,6,4.987,4.34,5.291,5.115,1.719,1.809,1.431,1.406,6,5.041,4.94,80,111.147381843,norm,0,23,23,23,306.813,306.823,306.830950195,306.831,306.833,306.836,up,0,1.7679111143,-10,001,004,1920_1080,Intel(R) Core(TM) i5-3570 CPU @ 3.40GHz,orientation_search,LEPPC096,Intel(R) HD Graphics 2500,2018_Sep_28_1211,testMonitor,
300.3,285.5,260.3,288.5,36,-40,290.1,283.5,295.2,297.8,7.785,8.125,8.305,8.436,7.926,8.058,7.743,5.043,-4.655,-8.098,1.348,-2.031,7.856,4.376,-4.68,-7.785,288.0,277.6,-7.603,291.4,279.6,,266.8,286.8,36,283.8,5,5,prime,10,0,84,norm,36,-4.603,up,norm,280.286596502,300.3,271.8,272.0,280.2,3,280.6,295.1,269.4,10,6,7.907,5.221,1.24,-1.511,-4.464,-7.86,267.6,6,364.3,-8.06,-7.81,-40,-8.408,-7.925,-5.08,-5.101,-5.122,-4.671,5.067,7.627,33,-1.639,1.973,4.871,8.082,-8.404,-7.916,-1.805,1.571,278.6,278.2,267.8,284.8,282.8,270.6,290.3,289.4,276.6,283.5,2,norm,1.291,1.175,-1.742,-1.195,-4.999,-5.025,-1.64,-1.612,-1.995,-1.945,1.308,-1.525,272.5,286.8,-4.672,-8.4,1.59,-2.049,7.631,5.081,-5.153,-7.829,6,5.08,4.531,5.257,4.495,1.594,1.32,1.153,1.457,6,5.01,4.816,80,111.147381843,norm,0,24,24,24,309.656,309.666,309.683232873,309.683,309.685,309.688,down,0,1.0061293194,-10,001,004,1920_1080,Intel(R) Core(TM) i5-3570 CPU @ 3.40GHz,orientation_search,LEPPC096,Intel(R) HD Graphics 2500,2018_Sep_28_1211,testMonitor,
296.5,293.5,276.7,279.6,36,-40,280.7,275.5,282.3,292.1,8.463,7.645,7.518,7.576,8.398,8.066,7.838,5.187,-5.045,-8.45,1.881,-1.792,8.17,4.505,-5.215,-7.794,299.6,294.3,-8.391,281.1,298.8,291.1,271.6,272.6,36,279.0,0,5,prime,10,0,113,norm,36,-5.296,up,norm,280.286596502,293.4,300.3,282.0,274.8,4,275.1,296.3,270.0,10,6,7.725,4.616,1.149,-2.059,-4.983,-8.442,294.3,6,393.3,-8.434,-7.748,-40,-7.709,-8.019,-4.323,-4.615,-4.685,-4.423,4.393,8.29,4,-1.197,1.343,5.064,7.767,-7.74,-8.231,-1.658,1.931,290.4,282.5,268.6,274.2,277.1,292.1,283.7,260.3,276.2,,3,norm,1.566,1.108,-1.888,-1.101,-4.999,-4.982,-1.787,-1.267,-1.797,-1.287,1.721,-1.802,282.2,272.6,-5.266,-8.447,1.112,-1.618,8.184,5.044,-4.529,-7.551,6,4.421,5.079,4.441,5.155,1.647,1.106,1.897,1.762,6,5.296,4.892,80,111.147381843,norm,0,25,25,25,311.747,311.756,311.773521558,311.774,311.775,311.778,up,1,1.38013069402,8.61986930598,001,004,1920_1080,Intel(R) Core(TM) i5-3570 CPU @ 3.40GHz,orientation_search,LEPPC096,Intel(R) HD Graphics 2500,2018_Sep_28_1211,testMonitor,
277.8,282.6,286.1,275.0,36,-40,273.4,267.5,281.2,266.7,7.526,7.794,7.762,8.324,8.234,8.462,8.308,4.467,-4.543,-8.254,1.154,-1.294,8.085,4.634,-4.636,-7.788,291.2,280.0,-7.577,270.5,268.9,290.2,273.3,280.6,36,280.8,0,5,prime,10,0,70,norm,36,-5.236,up,norm,280.286596502,277.9,274.5,265.1,283.7,3,270.8,272.3,300.3,10,6,7.675,4.408,1.279,-1.302,-4.338,-8.014,268.1,6,350.3,-8.313,-7.604,-40,-7.924,-7.895,-5.112,-4.363,-4.843,-5.299,5.023,7.764,3,-1.484,1.396,5.033,8.124,-8.492,-8.132,-1.755,1.411,297.6,283.6,,268.4,271.2,274.0,260.3,260.5,295.7,268.5,4,norm,1.482,1.134,-1.357,-1.96,-4.343,-4.537,-1.553,-1.335,-1.103,-2.074,1.975,-1.567,283.0,281.8,-4.387,-8.489,1.176,-1.424,8.224,4.794,-5.081,-7.932,6,4.749,5.215,4.621,4.581,1.975,1.759,1.279,1.579,6,5.181,5.218,80,111.147381843,norm,0,26,26,26,313.178,313.188,313.195903383,313.196,313.198,313.2,up,1,1.14106308949,8.85893691051,001,004,1920_1080,Intel(R) Core(TM) i5-3570 CPU @ 3.40GHz,orientation_search,LEPPC096,Intel(R) HD Graphics 2500,2018_Sep_28_1211,testMonitor,
264.9,292.5,278.2,285.0,36,-40,281.8,279.1,276.0,292.0,8.249,7.988,7.957,8.319,7.842,7.884,8.224,5.092,-4.341,-8.036,1.245,-1.31,7.505,4.85,-5.092,-8.031,281.2,270.9,-7.825,279.9,269.4,270.0,261.7,287.1,36,284.9,3,5,prime,10,0,111,norm,36,-4.782,down,norm,280.286596502,283.2,284.9,267.3,285.8,1,279.7,283.4,273.9,10,6,8.408,4.896,1.911,-1.776,-4.512,-8.353,273.3,6,391.3,-7.599,-8.366,-40,-8.082,-7.765,-4.768,-4.346,-4.969,-5.031,4.481,7.634,19,-1.596,1.25,4.545,7.845,-7.855,-8.14,-1.371,1.259,270.5,300.3,263.6,280.4,293.4,276.2,260.3,276.4,275.3,286.7,5,norm,1.76,1.386,-1.892,-2.014,-5.217,-4.674,-1.115,-2.067,-1.592,-1.742,2.008,-1.257,,288.8,-4.434,-7.921,1.152,-1.279,7.517,4.789,-5.136,-8.24,6,4.379,4.657,4.848,5.006,1.591,1.717,1.102,1.906,6,4.916,4.6,80,111.147381843,norm,0,27,27,27,314.374,314.384,314.394044666,314.394,314.396,314.399,up,0,1.95792424166,-10,001,004,1920_1080,Intel(R) Core(TM) i5-3570 CPU @ 3.40GHz,orientation_search,LEPPC096,Intel(R) HD Graphics 2500,2018_Sep_28_1211,testMonitor,
349.0,362.7,354.4,354.1,36,-80,357.0,356.0,365.7,345.8,7.663,7.625,7.975,7.818,8.411,7.996,7.923,4.814,-4.643,-8.043,1.729,-1.771,8.306,5.24,-4.973,-7.914,355.6,357.0,-7.801,359.0,362.6,355.5,356.2,354.8,36,359.1,0,5,probe,5,0,115,norm,36,-5.265,down,norm,355.700430544,357.3,346.0,350.3,345.7,2,357.1,361.2,351.2,10,6,8.141,4.977,1.633,-1.751,-5.193,-7.597,353.3,2,240.7,-8.38,-7.643,-40,-8.344,-8.166,-5.004,-4.583,-4.964,-4.836,5.23,7.505,2,-1.526,1.331,4.547,8.288,-8.475,-7.789,-1.898,2.086,355.6,359.9,352.2,,356.1,356.1,350.2,353.1,354.2,358.7,0,norm,1.408,1.437,-1.203,-2.086,-4.681,-5.286,-1.938,-1.125,-1.695,-1.794,1.334,-1.332,359.3,351.6,-4.887,-7.604,1.263,-1.26,8.025,4.744,-5.277,-8.212,7,4.405,4.884,5.002,4.338,1.851,2.035,1.552,1.982,7,4.976,4.386,-40,280.286596502,norm,0,28,28,28,317.409,317.419,317.436168418,317.437,317.44,317.447,down,1,1.25808219856,8.74191780144,001,004,1920_1080,Intel(R) Core(TM) i5-3570 CPU @ 3.40GHz,orientation_search,LEPPC096,Intel(R) HD Graphics 2500,2018_Sep_28_1211,testMonitor,
345.2,339.9,340.9,338.6,36,-80,346.4,342.5,346.3,355.7,8.247,7.935,7.806,8.227,7.953,8.037,7.687,5.041,-4.765,-8.491,1.748,-1.201,8.408,4.976,-4.342,-7.987,345.7,338.1,-7.84,343.0,346.5,352.3,355.5,336.5,36,349.6,1,5,probe,5,0,105,norm,36,-5.209,up,norm,345.700430544,346.9,352.0,354.6,335.7,5,,346.8,343.6,10,6,7.925,4.729,1.858,-2.028,-4.461,-8.133,350.7,2,240.7,-7.819,-8.237,-40,-8.441,-7.619,-5.159,-4.336,-4.425,-4.953,4.698,7.612,11,-1.909,1.744,5.051,7.655,-7.755,-7.541,-1.115,1.501,341.9,340.0,337.3,346.9,341.8,343.6,343.2,351.9,347.9,347.6,1,norm,1.6,1.369,-1.983,-2.082,-4.319,-5.122,-1.255,-1.472,-1.167,-1.274,2.013,-1.325,340.3,338.5,-4.72,-7.698,1.458,-1.232,8.194,5.134,-4.908,-8.234,7,4.573,4.708,4.375,4.677,1.58,1.581,1.421,1.544,7,4.617,4.719,-40,280.286596502,norm,0,29,29,29,318.747,318.758,318.763617633,318.764,318.766,318.769,up,1,1.49860712379,8.50139287621,001,004,1920_1080,Intel(R) Core(TM) i5-3570 CPU @ 3.40GHz,orientation_search,LEPPC096,Intel(R) HD Graphics 2500,2018_Sep_28_1211,testMonitor,
296.2,297.9,268.0,285.1,36,-20,265.7,278.7,261.5,283.7,7.637,8.355,8.427,8.41,7.506,8.428,8.289,4.659,-4.477,-8.058,1.84,-1.764,7.728,4.457,-4.46,-7.794,279.2,282.7,-7.745,,280.4,280.0,279.8,280.3,36,283.3,5,5,prime,10,0,101,norm,36,-4.99,down,norm,277.908178011,289.4,275.9,277.3,268.6,1,281.5,262.7,280.6,10,5,7.977,4.548,2.037,-1.22,-4.917,-8.159,273.7,5,378.9,-7.577,-7.671,-20,-7.831,-8.3,-4.982,-4.918,-4.925,-4.595,4.521,8.418,31,-1.651,1.478,4.71,8.158,-7.541,-8.223,-1.874,1.562,269.8,257.9,272.5,272.0,295.3,285.6,276.0,275.0,276.1,267.7,0,norm,2.031,1.493,-2.044,-1.305,-5.234,-4.943,-1.742,-1.724,-1.559,-1.875,1.207,-1.666,265.5,288.2,-4.627,-8.119,1.95,-1.653,7.642,4.665,-4.453,-8.425,8,4.588,4.507,4.593,4.662,1.618,1.145,1.126,1.863,8,4.813,4.811,-80,280.286596502,norm,0,30,30,30,320.307,320.317,320.32306699,320.323,320.325,320.328,down,1,1.97868230801,8.02131769199,001,004,1920_1080,Intel(R) Core(TM) i5-3570 CPU @ 3.40GHz,orientation_search,LEPPC096,Intel(R) HD Graphics 2500,2018_Sep_28_1211,testMonitor,
270.6,280.4,290.0,276.9,36,-20,295.7,,271.9,281.6,7.873,7.572,8.38,8.035,8.161,7.905,7.502,4.534,-5.136,-7.556,2.086,-1.181,7.623,4.871,-5.169,-7.938,297.9,284.9,-8.345,290.6,271.7,276.8,288.7,287.4,36,262.4,4,5,prime,10,0,68,norm,36,-4.911,down,norm,277.908178011,276.6,258.5,279.2,274.5,1,271.8,257.9,272.7,10,5,7.711,4.838,1.278,-1.349,-5.169,-7.7,276.1,5,345.9,-7.95,-7.588,-20,-7.961,-8.127,-5.288,-4.82,-5.018,-5.187,5.168,7.503,25,-1.883,1.744,5.101,8.008,-8.01,-8.116,-1.914,1.856,275.4,272.5,292.1,280.3,275.6,284.0,290.0,264.0,279.2,279.1,1,norm,1.75,1.572,-1.243,-1.689,-4.405,-4.75,-1.718,-1.131,-1.152,-1.247,1.388,-1.331,271.0,271.1,-4.335,-7.587,1.371,-1.892,7.873,5.116,-4.723,-8.398,8,5.049,4.345,4.847,4.93,1.164,2.014,1.808,1.469,8,5.208,4.304,-80,280.286596502,norm,0,31,31,31,322.339,322.349,322.365413808,322.366,322.367,322.37,down,1,1.70255414469,8.29744585531,001,004,1920_1080,Intel(R) Core(TM) i5-3570 CPU @ 3.40GHz,orientation_search,LEPPC096,Intel(R) HD Graphics 2500,2018_Sep_28_1211,testMonitor,
287.0,257.9,291.5,270.1,36,-20,280.3,282.3,287.3,284.4,8.371,7.533,8.095,7.776,8.138,8.236,7.676,4.947,-5.139,-7.538,1.789,-1.266,7.675,4.877,-4.874,-7.778,274.9,,-7.86,297.9,270.0,296.9,288.9,274.1,36,288.7,5,5,prime,10,0,81,norm,36,-5.195,up,norm,277.908178011,273.2,268.1,297.1,279.3,4,274.0,270.3,273.4,10,5,8.354,4.485,1.318,-1.175,-4.744,-8.076,279.9,5,358.9,-7.778,-7.672,-20,-8.07,-7.78,-4.867,-5.269,-5.281,-5.109,5.236,8.28,34,-2.03,1.685,5.286,7.591,-8.481,-7.653,-1.912,1.963,271.9,271.1,296.5,279.4,272.7,264.6,272.4,283.5,265.1,271.7,2,norm,1.427,1.929,-1.633,-2.056,-5.161,-4.611,-1.86,-1.31,-1.281,-1.627,1.169,-1.831,276.5,272.8,-5.14,-8.093,1.764,-1.471,7.733,4.772,-4.824,-8.093,8,4.632,4.48,4.822,4.541,1.694,1.348,1.606,1.759,8,4.392,4.702,-80,280.286596502,norm,0,32,32,32,324.113,324.124,324.130131675,324.13,324.132,324.135,up,1,1.09326037473,8.90673962527,001,004,1920_1080,Intel(R) Core(TM) i5-3570 CPU @ 3.40GHz,orientation_search,LEPPC096,Intel(R) HD Graphics 2500,2018_Sep_28_1211,testMonitor,
270.3,267.2,280.2,294.7,36,-20,296.0,267.6,288.1,277.7,7.631,8.003,8.394,7.993,7.946,7.841,8.302,5.087,-4.969,-8.046,1.318,-1.629,7.547,4.558,-4.888,-7.954,296.8,280.7,-7.67,268.7,270.6,274.1,281.2,257.9,36,282.5,3,5,prime,10,0,119,norm,36,-4.665,down,norm,277.908178011,282.6,275.4,271.8,274.8,0,297.9,272.5,285.4,10,5,8.022,4.726,1.757,-1.24,-5.133,-8.303,279.6,5,396.9,-7.803,-7.816,-20,-7.744,-8.017,-4.779,-5.178,-4.781,-5.223,4.516,8.039,18,-1.641,1.171,4.98,7.591,-7.761,-8.411,-1.188,1.882,272.2,282.8,296.9,284.4,270.1,271.5,269.3,277.0,275.0,263.0,3,norm,1.159,1.304,-1.877,-2.09,-5.125,-4.789,-1.43,-2.086,-1.903,-1.838,1.733,-1.406,271.8,,-5.193,-8.172,1.585,-1.389,8.415,5.242,-4.677,-7.955,8,5.2,4.655,4.667,5.1,1.482,1.302,1.766,1.523,8,4.726,4.793,-80,280.286596502,norm,0,33,33,33,325.26,325.27,325.282462437,325.283,325.284,325.287,down,1,2.09621576557,7.90378423443,001,004,1920_1080,Intel(R) Core(TM) i5-3570 CPU @ 3.40GHz,orientation_search,LEPPC096,Intel(R) HD Graphics 2500,2018_Sep_28_1211,testMonitor,
281.6,294.9,285.8,263.0,36,-20,262.3,275.6,283.2,297.9,7.968,7.873,7.884,7.563,8.402,8.328,8.045,4.799,-4.834,-7.911,1.872,-1.567,7.983,5.082,-4.356,-7.979,281.7,281.6,-8.285,267.4,264.7,273.1,276.0,276.2,36,277.7,1,5,prime,10,0,107,norm,36,-4.339,up,norm,277.908178011,277.0,294.1,275.0,267.4,5,,273.9,286.5,10,5,7.821,4.895,1.327,-1.646,-4.983,-8.389,289.2,5,384.9,-8.176,-7.639,-20,-8.184,-7.655,-4.647,-5.169,-4.764,-4.408,5.026,7.745,11,-1.456,1.691,5.094,8.383,-7.712,-8.181,-1.677,1.656,271.7,275.8,264.0,275.4,288.4,278.6,276.6,269.9,257.9,264.1,4,norm,2.091,1.812,-1.483,-1.514,-4.586,-4.823,-1.807,-1.695,-1.504,-1.746,1.453,-1.681,289.6,275.9,-5.257,-8.294,1.413,-1.217,7.689,4.686,-4.926,-7.966,8,4.661,4.932,4.846,4.799,2.028,1.774,1.495,1.636,8,4.415,4.43,-80,280.286596502,norm,0,34,34,34,327.416,327.426,327.435144852,327.435,327.437,327.44,up,1,1.29675402039,8.70324597961,001,004,1920_1080,Intel(R) Core(TM) i5-3570 CPU @ 3.40GHz,orientation_search,LEPPC096,Intel(R) HD Graphics 2500,2018_Sep_28_1211,testMonitor,
336.7,333.4,331.0,333.5,36,-60,341.3,338.0,339.8,339.6,7.655,7.599,7.581,7.983,8.02,8.089,8.104,5.239,-4.752,-8.295,1.258,-2.085,8.297,4.835,-4.536,-8.492,338.1,341.2,-8.496,344.9,341.7,337.1,,344.1,36,326.2,5,5,probe,5,0,74,norm,36,-4.687,down,norm,335.708507307,333.3,338.2,336.2,332.4,2,331.3,338.5,335.8,10,5,7.928,4.984,1.561,-1.216,-4.38,-8.034,331.6,2,261.7,-8.293,-7.883,-20,-7.817,-7.951,-4.354,-4.348,-4.888,-5.065,5.157,8.277,32,-1.797,1.357,4.723,7.894,-7.841,-8.181,-1.932,1.72,337.8,336.3,331.9,332.3,325.7,333.7,329.7,334.0,327.9,336.7,0,norm,1.632,1.873,-1.907,-1.922,-5.062,-4.389,-1.271,-1.532,-2.059,-2.067,1.328,-1.658,345.7,345.4,-5.063,-7.606,1.951,-1.591,7.735,5.03,-4.573,-7.837,9,4.744,4.347,5.022,5.061,1.522,1.473,1.116,1.344,9,4.649,4.52,-20,277.908178011,norm,0,35,35,35,328.769,328.779,328.792426883,328.793,328.794,328.797,down,1,1.3872805605,8.6127194395,001,004,1920_1080,Intel(R) Core(TM) i5-3570 CPU @ 3.40GHz,orientation_search,LEPPC096,Intel(R) HD Graphics 2500,2018_Sep_28_1211,testMonitor,
331.7,328.0,333.0,331.3,36,-60,329.5,324.5,330.6,328.3,8.062,8.004,8.419,8.011,8.486,7.95,8.003,4.63,-4.614,-8.311,1.471,-2.076,7.678,4.719,-4.506,-8.365,337.0,334.7,-7.605,323.7,337.1,338.5,334.0,330.8,36,,4,5,probe,5,0,72,norm,36,-4.6,up,norm,333.708507307,340.6,326.2,331.3,333.4,3,338.0,333.4,334.1,10,5,8.391,5.112,1.674,-1.757,-4.863,-8.346,325.7,2,261.7,-7.826,-8.024,-20,-8.416,-8.004,-4.664,-4.977,-4.919,-4.805,5.278,8.104,27,-1.427,2.054,4.752,8.064,-7.664,-8.192,-1.614,1.503,340.2,328.7,338.1,329.4,343.7,336.7,328.8,343.2,334.2,343.4,1,norm,1.626,1.197,-1.569,-1.45,-4.887,-4.43,-2.076,-2.008,-1.276,-1.434,1.596,-1.429,338.1,338.3,-4.614,-8.118,1.343,-1.767,8.131,5.119,-4.727,-7.996,9,5.118,4.362,4.705,5.284,1.252,1.703,1.329,1.128,9,4.987,4.809,-20,277.908178011,norm,0,36,36,36,330.217,330.23,330.24940287,330.25,330.251,330.254,up,1,1.12850863994,8.87149136006,001,004,1920_1080,Intel(R) Core(TM) i5-3570 CPU @ 3.40GHz,orientation_search,LEPPC096,Intel(R) HD Graphics 2500,2018_Sep_28_1211,testMonitor,
209.5,205.8,213.4,233.4,36,80,229.5,217.8,212.4,211.3,8.297,7.551,8.144,7.926,8.493,7.781,7.832,5.228,-4.786,-7.723,1.546,-1.686,7.872,4.485,-4.753,-8.246,206.7,206.6,-8.111,215.1,221.4,218.1,200.0,209.5,36,209.6,2,5,prime,10,0,96,norm,36,-5.186,down,norm,213.366336669,205.0,204.1,206.5,209.2,0,217.9,193.4,,10,5,7.565,4.742,1.169,-1.368,-4.868,-8.427,222.3,5,309.4,-7.659,-8.334,80,-7.903,-8.178,-4.331,-4.521,-4.619,-4.51,5.237,7.635,12,-1.86,2.081,4.476,8.487,-8.277,-7.507,-1.44,1.352,208.6,207.2,221.2,201.4,218.2,206.3,220.6,205.8,221.0,209.3,0,norm,1.368,1.729,-1.807,-1.641,-4.37,-4.601,-1.885,-1.566,-1.823,-1.355,1.55,-1.602,202.6,214.5,-5.184,-8.373,1.318,-1.995,7.984,4.767,-5.188,-8.092,10,4.977,4.335,4.536,4.553,1.808,2.084,1.785,2.045,10,4.663,4.319,-60,277.908178011,norm,0,37,37,37,331.399,331.409,331.428680784,331.429,331.431,331.433,down,1,1.28342563333,8.71657436667,001,004,1920_1080,Intel(R) Core(TM) i5-3570 CPU @ 3.40GHz,orientation_search,LEPPC096,Intel(R) HD Graphics 2500,2018_Sep_28_1211,testMonitor,
211.2,230.0,207.7,217.8,36,80,221.3,210.6,219.3,208.6,8.381,8.055,7.594,7.759,7.714,8.157,8.161,4.817,-5.169,-7.996,1.121,-1.731,7.762,4.366,-5.235,-8.257,195.1,208.7,-8.425,233.4,205.1,222.2,214.0,222.5,36,228.0,1,5,prime,10,0,115,norm,36,-4.548,down,norm,213.366336669,216.4,196.1,206.9,229.4,2,201.7,221.0,222.2,10,5,7.631,4.504,1.395,-1.94,-5.063,-8.39,224.8,5,328.4,-8.313,-8.338,80,-8.413,-7.688,-5.28,-4.324,-4.862,-5.039,4.733,7.824,8,-1.912,1.2,4.484,8.483,-8.018,-7.854,-1.811,2.011,206.1,,220.4,209.7,223.2,225.8,223.7,219.7,213.9,193.4,1,norm,2.094,1.45,-1.388,-1.816,-4.948,-5.237,-1.105,-1.424,-1.846,-2.022,1.579,-1.666,228.8,211.5,-4.578,-7.818,1.977,-1.737,8.41,4.688,-4.377,-7.507,10,5.068,5.053,4.598,5.093,1.413,1.95,2.073,1.728,10,5.156,4.697,-60,277.908178011,norm,0,38,38,38,332.755,332.765,332.771258303,332.771,332.773,332.776,down,1,0.942447906369,9.05755209363,001,004,1920_1080,Intel(R) Core(TM) i5-3570 CPU @ 3.40GHz,orientation_search,LEPPC096,Intel(R) HD Graphics 2500,2018_Sep_28_1211,testMonitor,
207.1,202.2,225.4,215.5,36,80,217.5,216.4,214.1,222.3,8.356,8.296,7.891,8.42,8.351,8.104,8.331,4.499,-4.765,-8.486,1.726,-1.159,8.274,5.043,-5.044,-8.193,221.0,218.9,-7.584,202.2,206.9,216.6,218.0,,36,193.4,4,5,prime,10,0,114,norm,36,-4.423,down,norm,213.366336669,200.8,214.5,196.6,200.0,2,224.7,216.0,219.9,10,5,7.761,4.952,1.282,-1.774,-4.946,-8.228,216.1,5,327.4,-8.328,-8.338,80,-8.379,-7.553,-4.857,-4.864,-4.335,-4.63,4.429,8.038,26,-1.827,1.659,5.251,8.425,-7.918,-7.939,-1.164,1.963,225.1,194.2,219.2,206.7,206.4,212.8,233.4,214.0,217.1,214.0,2,norm,1.487,1.213,-1.11,-1.608,-4.965,-4.805,-1.911,-1.21,-1.495,-1.675,1.457,-1.612,216.2,212.0,-4.856,-7.786,1.995,-2.034,8.2,4.618,-4.581,-7.88,10,5.05,4.994,4.807,5.179,1.711,1.878,1.203,1.62,10,4.617,4.386,-60,277.908178011,norm,0,39,39,39,333.735,333.747,333.751326092,333.752,333.754,333.757,down,1,1.36537818951,8.63462181049,001,004,1920_1080,Intel(R) Core(TM) i5-3570 CPU @ 3.40GHz,orientation_search,LEPPC096,Intel(R) HD Graphics 2500,2018_Sep_28_1211,testMonitor,
218.4,232.6,224.2,226.2,36,80,203.8,218.5,207.8,233.4,7.635,8.487,7.728,7.65,8.177,7.569,7.544,4.467,-4.729,-7.614,1.326,-1.322,7.754,5.272,-5.091,-7.598,215.8,,-8.375,218.2,220.2,218.8,233.0,226.3,36,219.7,5,5,prime,10,0,61,norm,36,-4.812,up,norm,213.366336669,195.4,211.7,201.3,225.6,4,207.3,225.1,223.3,10,5,7.625,5.1,1.126,-2.08,-4.854,-8.224,212.6,5,274.4,-7.633,-8.195,80,-8.121,-8.495,-4.715,-5.067,-4.645,-4.872,4.682,7.515,34,-1.482,1.267,4.556,7.668,-8.02,-8.179,-1.6,1.273,207.7,202.9,204.3,221.0,207.4,202.0,193.4,232.3,203.0,207.4,3,norm,1.581,1.915,-1.321,-1.668,-4.884,-4.965,-1.146,-1.885,-1.183,-1.894,1.812,-1.933,213.1,226.7,-4.548,-7.628,1.4,-1.393,8.237,4.337,-5.2,-7.507,10,5.138,4.367,4.824,5.166,1.807,1.498,1.876,1.314,10,4.685,4.946,-60,277.908178011,norm,0,40,40,40,335.142,335.152,335.157967164,335.158,335.16,335.163,up,1,1.72247850769,8.27752149231,001,004,1920_1080,Intel(R) Core(TM) i5-3570 CPU @ 3.40GHz,orientation_search,LEPPC096,Intel(R) HD Graphics 2500,2018_Sep_28_1211,testMonitor,
233.4,216.7,206.4,206.8,36,80,207.7,201.2,215.3,207.8,8.04,8.421,8.456,7.938,7.904,7.642,8.245,4.665,-5.012,-8.053,1.816,-1.624,7.711,4.582,-4.89,-8.38,218.9,218.7,-7.939,195.5,216.3,207.9,210.0,217.9,36,228.2,0,5,prime,10,0,107,norm,36,-4.399,up,norm,213.366336669,226.3,221.4,218.6,215.0,5,230.8,220.5,230.1,10,5,8.329,4.891,1.676,-1.292,-4.433,-8.139,193.4,5,320.4,-7.627,-8.376,80,-8.262,-7.892,-4.406,-4.409,-4.514,-4.413,4.945,7.505,5,-1.967,1.159,4.814,7.698,-7.714,-8.277,-1.562,1.276,213.6,227.9,229.9,211.4,216.9,225.6,207.1,220.3,,221.1,4,norm,1.988,1.136,-1.936,-1.148,-4.477,-4.834,-2.013,-1.466,-1.673,-1.709,1.663,-1.7,212.5,209.3,-4.333,-8.016,1.932,-1.541,8.362,4.513,-4.699,-8.481,10,5.148,4.332,4.691,4.54,2.057,1.201,1.982,1.833,10,4.374,4.622,-60,277.908178011,norm,0,41,41,41,336.905,336.914,336.920780675,336.921,336.923,336.926,up,1,0.957011152366,9.04298884763,001,004,1920_1080,Intel(R) Core(TM) i5-3570 CPU @ 3.40GHz,orientation_search,LEPPC096,Intel(R) HD Graphics 2500,2018_Sep_28_1211,testMonitor,
399.3,404.9,397.4,,36,10,397.8,405.3,405.5,398.4,7.984,8.094,7.837,8.025,7.548,8.321,8.368,4.896,-5.207,-8.17,2.04,-1.264,8.414,4.316,-4.748,-8.028,399.7,400.8,-8.166,404.5,397.3,413.2,405.3,408.3,36,403.0,3,5,probe,5,0,109,norm,36,-4.434,up,norm,403.236363649,398.4,397.5,398.9,398.1,3,401.9,394.0,411.0,10,5,8.329,4.447,1.498,-1.785,-4.877,-7.871,403.3,1,294.2,-8.36,-7.632,80,-7.706,-7.601,-4.658,-4.877,-5.24,-4.788,4.553,7.999,21,-2.068,1.591,5.205,7.936,-8.454,-8.234,-1.248,1.3,398.8,401.3,403.2,410.9,398.0,404.9,404.9,401.1,401.7,408.3,0,norm,1.531,1.216,-1.586,-1.691,-4.592,-5.159,-1.187,-1.605,-1.677,-1.28,2.02,-1.445,393.2,402.8,-5.15,-8.322,1.197,-1.318,7.892,4.415,-4.42,-8.155,11,4.598,5.092,5.035,4.635,1.675,1.424,1.103,1.663,11,4.796,5.208,80,213.366336669,norm,0,42,42,42,337.916,337.929,337.949256685,337.949,337.951,337.954,down,0,1.04505439145,-10,001,004,1920_1080,Intel(R) Core(TM) i5-3570 CPU @ 3.40GHz,orientation_search,LEPPC096,Intel(R) HD Graphics 2500,2018_Sep_28_1211,testMonitor,
172.5,166.4,149.4,169.3,36,60,183.2,161.8,164.2,169.3,8.197,7.989,8.432,8.482,7.845,7.834,7.536,4.803,-4.343,-8.188,1.775,-1.4,7.696,4.532,-4.616,-8.442,148.2,173.3,-7.518,154.6,172.8,181.7,,172.6,36,164.6,5,5,prime,10,0,78,norm,36,-4.977,down,norm,168.231760038,161.4,167.6,177.4,156.7,2,188.2,182.0,160.7,10,6,8.053,4.541,1.368,-1.474,-4.901,-7.756,170.2,6,246.2,-8.339,-8.298,60,-8.177,-8.168,-4.634,-4.935,-4.496,-4.382,4.835,7.602,32,-1.757,1.165,4.58,8.025,-7.705,-7.74,-1.751,2.015,179.0,166.4,169.2,170.1,162.1,171.9,174.7,175.5,166.0,176.4,0,norm,1.817,1.454,-1.47,-2.073,-4.74,-4.55,-1.949,-1.151,-1.779,-1.841,1.341,-1.372,172.3,158.2,-5.101,-8.384,1.917,-1.851,8.186,4.869,-4.327,-7.733,12,5.018,4.866,4.368,5.056,1.735,1.247,1.586,1.609,12,4.455,4.307,10,213.366336669,norm,0,43,43,43,340.065,340.074,340.080712566,340.081,340.083,340.085,down,1,1.84840484055,8.15159515945,001,004,1920_1080,Intel(R) Core(TM) i5-3570 CPU @ 3.40GHz,orientation_search,LEPPC096,Intel(R) HD Graphics 2500,2018_Sep_28_1211,testMonitor,
169.3,151.6,177.6,154.9,36,60,167.0,184.8,171.0,171.9,8.0,7.547,8.406,7.702,7.613,7.814,8.026,4.572,-4.929,-8.404,1.232,-1.258,7.783,4.747,-5.015,-7.714,167.3,161.3,-7.577,156.8,168.4,164.4,148.2,167.4,36,172.7,0,5,prime,10,0,106,norm,36,-4.727,up,norm,168.231760038,159.1,163.6,163.4,171.2,4,188.2,173.2,176.2,10,6,8.222,4.88,1.602,-1.873,-4.766,-7.839,156.1,6,274.2,-7.95,-8.307,60,-8.459,-8.247,-5.222,-4.806,-5.249,-4.328,4.48,7.549,4,-1.659,1.35,4.633,7.77,-8.432,-7.941,-1.94,1.396,178.1,177.3,172.0,148.3,166.0,171.2,159.8,161.4,158.7,,1,norm,2.034,1.915,-1.466,-1.238,-4.352,-4.762,-1.247,-1.583,-1.35,-1.577,1.197,-1.426,167.1,167.8,-4.345,-8.018,2.079,-2.03,8.026,4.355,-4.671,-8.048,12,4.546,4.902,5.064,4.471,2.068,2.095,2.072,2.047,12,5.267,5.161,10,213.366336669,norm,0,44,44,44,341.974,341.984,341.990478214,341.991,341.992,341.995,up,1,1.45208937469,8.54791062531,001,004,1920_1080,Intel(R) Core(TM) i5-3570 CPU @ 3.40GHz,orientation_search,LEPPC096,Intel(R) HD Graphics 2500,2018_Sep_28_1211,testMonitor,
158.6,183.2,179.3,149.8,36,60,173.9,178.2,167.0,175.6,8.164,7.607,7.744,8.319,8.316,7.581,8.312,4.707,-5.272,-7.54,1.126,-1.654,8.438,5.016,-4.716,-7.93,172.9,158.7,-8.425,169.1,154.2,148.2,164.7,174.1,36,188.2,1,5,prime,10,0,78,norm,36,-4.898,up,norm,168.231760038,168.9,175.2,175.6,182.4,5,,160.2,164.5,10,6,8.337,4.765,1.882,-1.796,-4.972,-7.889,178.5,6,246.2,-8.402,-8.399,60,-8.462,-7.951,-4.512,-5.183,-5.285,-5.149,4.745,7.529,11,-1.99,1.335,4.364,8.146,-8.207,-7.797,-1.78,1.363,179.0,170.8,162.9,159.3,152.3,165.6,176.0,180.0,153.4,170.9,2,norm,1.787,1.342,-1.492,-1.489,-4.644,-4.359,-1.673,-1.183,-2.038,-1.415,1.796,-1.168,161.8,167.2,-4.59,-7.861,2.06,-1.204,7.554,5.278,-4.503,-8.372,12,4.728,5.058,5.18,4.65,1.147,1.807,1.104,1.753,12,5.017,5.136,10,213.366336669,norm,0,45,45,45,343.488,343.507,343.520289448,343.52,343.522,343.526,up,1,1.21476011107,8.78523988893,001,004,1920_1080,Intel(R) Core(TM) i5-3570 CPU @ 3.40GHz,orientation_search,LEPPC096,Intel(R) HD Graphics 2500,2018_Sep_28_1211,testMonitor,
152.0,154.7,174.7,157.3,36,60,,167.9,188.2,151.6,7.743,7.665,8.172,7.81,8.079,8.229,8.053,5.025,-4.539,-8.256,1.368,-1.223,7.586,5.122,-4.713,-8.3,177.6,174.2,-7.625,185.4,160.9,160.4,164.6,173.1,36,157.0,4,5,prime,10,0,109,norm,36,-4.994,down,norm,168.231760038,171.7,184.3,175.8,162.4,0,166.8,172.1,184.7,10,6,7.867,5.17,1.471,-1.897,-4.677,-7.706,163.7,6,277.2,-8.304,-8.257,60,-8.307,-8.343,-4.924,-4.489,-5.077,-5.028,4.877,8.047,24,-2.025,1.297,4.91,8.255,-7.99,-7.79,-2.086,1.238,180.5,154.9,170.7,148.2,178.0,169.8,175.7,158.7,157.3,151.8,3,norm,2.087,1.61,-1.495,-1.727,-5.252,-5.021,-2.005,-1.762,-1.785,-1.38,1.262,-2.008,153.3,173.1,-5.149,-7.919,1.518,-1.439,7.809,4.366,-4.855,-8.069,12,5.068,5.08,4.979,5.247,1.337,1.655,1.21,1.611,12,4.951,5.126,10,213.366336669,norm,0,46,46,46,344.782,344.792,344.798084716,344.798,344.8,344.803,up,0,3.51498055044,-10,001,004,1920_1080,Intel(R) Core(TM) i5-3570 CPU @ 3.40GHz,orientation_search,LEPPC096,Intel(R) HD Graphics 2500,2018_Sep_28_1211,testMonitor,
177.4,171.2,162.7,184.1,36,60,161.1,160.0,160.1,171.0,7.818,7.843,8.312,7.606,7.675,7.523,7.646,5.282,-4.946,-8.314,2.095,-1.504,8.168,5.157,-5.179,-8.259,178.1,158.0,-7.925,172.6,161.6,171.7,162.7,188.2,36,169.6,0,5,prime,10,0,81,norm,36,-4.642,down,norm,168.231760038,158.3,165.5,164.7,155.6,0,176.1,169.9,175.1,10,6,8.045,4.807,1.687,-2.024,-4.8,-7.743,176.6,6,249.2,-8.368,-7.683,60,-8.193,-7.801,-4.732,-4.763,-4.973,-4.669,4.409,7.633,0,-1.35,1.837,4.342,8.335,-8.126,-8.168,-2.059,1.599,148.2,172.5,158.9,172.4,186.0,,159.9,175.1,176.6,180.7,4,norm,1.501,1.474,-1.321,-1.295,-5.116,-4.586,-1.668,-2.039,-1.272,-1.232,1.174,-1.445,158.3,172.4,-4.334,-8.405,1.112,-1.46,8.425,4.624,-4.752,-7.854,12,4.423,5.282,4.631,4.696,1.483,1.769,1.701,1.967,12,4.355,5.16,10,213.366336669,norm,0,47,47,47,349.384,349.394,349.400142593,349.4,349.402,349.405,down,1,1.16114863916,8.83885136084,001,004,1920_1080,Intel(R) Core(TM) i5-3570 CPU @ 3.40GHz,orientation_search,LEPPC096,Intel(R) HD Graphics 2500,2018_Sep_28_1211,testMonitor,
167.7,164.8,163.9,185.2,36,60,151.5,175.3,152.9,171.2,8.428,7.959,8.359,7.681,8.01,7.759,7.888,4.721,-4.901,-7.927,1.994,-1.159,8.432,5.021,-4.395,-7.769,162.7,170.8,-7.505,173.3,162.7,184.8,177.6,188.2,36,172.6,1,5,prime,10,0,110,norm,36,-5.254,down,norm,168.231760038,158.2,153.8,161.0,161.9,2,155.1,166.5,181.8,10,6,8.373,4.349,1.164,-2.039,-4.696,-8.069,168.4,6,278.2,-8.357,-8.165,60,-8.057,-8.165,-4.842,-5.074,-4.911,-4.682,4.796,8.049,8,-1.87,1.39,5.231,8.005,-8.437,-7.572,-1.775,1.585,161.7,,167.3,182.5,156.9,177.4,167.1,167.1,180.9,168.2,5,norm,2.027,1.191,-1.593,-1.543,-4.844,-5.137,-1.49,-1.377,-1.13,-1.463,1.203,-1.965,148.2,158.8,-4.854,-8.427,1.337,-1.817,8.249,4.72,-4.953,-8.472,12,4.902,5.291,4.722,4.65,1.282,1.775,1.197,1.934,12,5.027,4.939,10,213.366336669,norm,0,48,48,48,350.585,350.595,350.601225381,350.601,350.603,350.606,down,1,2.19558825438,7.80441174562,001,004,1920_1080,Intel(R) Core(TM) i5-3570 CPU @ 3.40GHz,orientation_search,LEPPC096,Intel(R) HD Graphics 2500,2018_Sep_28_1211,testMonitor,
298.4,296.3,296.2,291.8,36,0,295.4,296.9,292.2,299.2,7.669,8.432,8.183,8.406,8.293,8.322,7.86,5.158,-5.126,-7.952,1.625,-1.416,8.422,4.324,-4.613,-7.952,293.1,299.8,-8.225,285.5,298.1,298.7,302.5,291.6,36,296.5,1,5,probe,5,0,64,norm,36,-4.557,down,norm,295.538284366,305.5,293.7,296.6,297.0,2,294.8,295.3,299.6,10,6,7.602,4.307,1.423,-1.147,-4.432,-8.443,295.3,2,231.5,-7.534,-7.793,60,-7.827,-8.437,-4.338,-4.743,-4.408,-4.913,5.072,8.467,8,-1.892,1.281,5.288,7.723,-7.586,-7.685,-1.576,1.954,300.8,,301.2,298.9,296.7,288.4,295.5,292.4,296.2,297.8,0,norm,1.433,1.288,-1.955,-1.83,-4.461,-4.663,-1.147,-2.047,-1.59,-1.298,1.904,-1.611,286.0,300.1,-4.582,-7.515,1.867,-1.378,7.575,4.352,-4.707,-7.624,13,4.76,5.26,4.421,4.616,1.197,1.865,1.681,1.676,13,4.566,5.215,60,168.231760038,norm,0,49,49,49,352.832,352.841,352.847623055,352.848,352.849,352.852,down,1,1.01136396222,8.98863603778,001,004,1920_1080,Intel(R) Core(TM) i5-3570 CPU @ 3.40GHz,orientation_search,LEPPC096,Intel(R) HD Graphics 2500,2018_Sep_28_1211,testMonitor,
298.7,295.7,302.4,297.1,36,0,300.1,286.5,299.8,298.8,8.058,8.347,8.235,8.011,7.547,7.527,7.837,4.469,-4.476,-7.687,1.66,-1.585,8.38,4.664,-5.056,-7.925,305.4,304.9,-8.164,301.3,288.6,296.3,306.5,292.1,36,299.1,1,5,probe,5,0,65,norm,36,-5.006,up,norm,296.538284366,302.9,300.5,292.9,297.9,4,296.6,293.0,297.3,10,6,8.113,5.267,1.99,-2.09,-4.762,-8.179,,2,231.5,-8.297,-8.496,60,-7.801,-8.131,-4.351,-4.936,-4.92,-5.039,4.511,8.095,10,-1.102,1.927,4.932,8.477,-8.069,-7.78,-1.582,1.466,291.9,297.6,288.0,287.8,297.2,293.3,297.4,299.4,296.3,293.3,1,norm,1.347,1.18,-1.122,-1.198,-4.54,-5.137,-1.282,-1.434,-1.761,-1.368,1.287,-1.598,305.2,293.9,-4.893,-7.776,1.675,-1.53,8.424,4.561,-4.726,-7.59,13,4.935,4.718,5.293,5.087,1.775,1.453,1.93,1.843,13,5.096,4.897,60,168.231760038,norm,0,50,50,50,353.896,353.906,353.928256235,353.928,353.93,353.933,up,1,0.857362171057,9.14263782894,001,004,1920_1080,Intel(R) Core(TM) i5-3570 CPU @ 3.40GHz,orientation_search,LEPPC096,Intel(R) HD Graphics 2500,2018_Sep_28_1211,testMonitor,
345.8,336.0,333.4,345.5,36,40,360.5,353.0,330.3,358.2,7.529,8.4,8.354,7.888,8.137,8.047,8.155,4.639,-5.063,-7.984,2.097,-1.336,8.374,4.883,-4.678,-7.518,338.9,346.7,-8.42,356.7,323.1,345.5,350.5,329.7,36,342.4,0,5,prime,10,0,116,norm,36,-5.15,up,norm,341.094977843,331.9,337.0,342.0,356.3,3,330.7,325.8,345.4,10,5,7.977,5.268,1.702,-1.722,-4.988,-7.861,358.9,5,457.1,-8.293,-7.624,40,-7.747,-8.366,-4.544,-4.379,-4.875,-4.816,4.329,8.447,3,-1.677,1.311,4.739,7.846,-8.216,-7.939,-1.152,1.625,349.6,358.0,,334.3,321.1,350.3,361.1,344.1,338.3,359.6,0,norm,1.324,1.175,-1.574,-1.221,-4.491,-4.97,-1.515,-1.475,-1.961,-1.725,1.462,-1.52,341.3,335.2,-4.53,-8.009,1.113,-1.436,8.072,4.369,-5.175,-8.156,14,5.036,5.072,5.096,4.555,1.248,1.485,1.158,2.086,14,4.907,4.833,0,168.231760038,norm,0,51,51,51,354.823,354.834,354.843250791,354.843,354.845,354.848,up,1,2.17995254351,7.82004745649,001,004,1920_1080,Intel(R) Core(TM) i5-3570 CPU @ 3.40GHz,orientation_search,LEPPC096,Intel(R) HD Graphics 2500,2018_Sep_28_1211,testMonitor,
341.5,353.4,337.4,337.9,36,40,352.9,321.1,340.1,361.1,8.192,8.296,7.744,8.377,7.739,8.075,7.734,4.827,-5.014,-8.291,1.489,-1.615,8.435,4.717,-4.497,-8.466,352.5,332.7,-7.803,335.3,335.0,332.3,337.2,324.2,36,343.1,1,5,prime,10,0,81,norm,36,-4.596,down,norm,341.094977843,356.6,329.0,341.2,347.0,0,328.7,337.0,336.1,10,5,7.61,4.922,2.028,-1.468,-4.421,-7.778,340.1,5,422.1,-8.373,-8.287,40,-7.648,-8.236,-4.979,-4.594,-5.081,-4.587,4.542,7.898,6,-1.51,1.183,5.131,8.348,-7.504,-7.728,-1.265,1.527,352.1,350.6,349.0,338.8,345.2,347.1,335.2,,356.4,327.6,1,norm,1.497,1.773,-1.319,-1.661,-5.067,-5.21,-1.59,-1.221,-1.87,-1.411,1.246,-1.413,327.3,348.4,-4.934,-8.252,2.026,-1.552,7.909,4.642,-5.012,-7.507,14,4.912,5.125,5.17,5.196,1.756,1.693,1.827,1.867,14,4.63,4.334,0,168.231760038,norm,0,52,52,52,357.046,357.057,357.077177929,357.077,357.079,357.083,down,1,1.03045281079,8.96954718921,001,004,1920_1080,Intel(R) Core(TM) i5-3570 CPU @ 3.40GHz,orientation_search,LEPPC096,Intel(R) HD Graphics 2500,2018_Sep_28_1211,testMonitor,
,361.1,337.4,341.0,36,40,351.0,333.9,351.3,332.1,8.079,7.963,8.278,7.598,8.224,7.612,7.995,4.421,-4.878,-8.021,1.756,-1.793,7.794,4.976,-4.457,-7.799,329.7,356.3,-7.921,348.0,344.8,340.3,337.5,344.5,36,336.7,3,5,prime,10,0,62,norm,36,-4.358,up,norm,341.094977843,351.6,350.5,345.5,337.6,4,344.4,341.7,331.8,10,5,7.864,4.549,1.431,-1.611,-5.249,-8.248,332.1,5,403.1,-8.447,-8.301,40,-8.203,-7.952,-4.702,-4.507,-5.194,-4.515,4.828,8.025,22,-2.071,1.717,4.412,7.587,-7.634,-7.637,-1.536,1.177,335.9,321.1,336.8,347.9,337.8,353.7,335.9,325.1,340.3,356.3,2,norm,1.871,1.316,-1.209,-1.564,-4.71,-4.788,-1.949,-1.105,-1.554,-1.307,1.143,-1.818,333.9,348.5,-4.957,-7.838,2.057,-1.568,8.014,4.96,-4.758,-7.566,14,5.075,4.343,4.769,4.477,1.123,2.058,1.823,1.313,14,4.786,4.799,0,168.231760038,norm,0,53,53,53,358.151,358.164,358.183658931,358.184,358.186,358.19,up,1,0.975890518632,9.02410948137,001,004,1920_1080,Intel(R) Core(TM) i5-3570 CPU @ 3.40GHz,orientation_search,LEPPC096,Intel(R) HD Graphics 2500,2018_Sep_28_1211,testMonitor,
337.2,342.4,350.0,346.7,36,40,343.4,336.0,344.0,331.6,7.893,7.998,7.699,7.97,7.685,8.5,7.654,4.613,-4.707,-8.34,1.472,-1.453,8.071,4.349,-5.158,-8.052,337.5,349.3,-7.856,343.6,335.4,335.3,344.3,349.1,36,350.2,0,5,prime,10,0,103,norm,36,-5.277,up,norm,341.094977843,350.4,361.1,350.4,354.9,5,341.6,337.0,321.1,10,5,8.484,5.202,1.71,-1.772,-5.078,-7.632,337.0,5,444.1,-7.949,-8.088,40,-7.579,-8.013,-4.423,-5.042,-4.637,-4.528,4.579,7.635,5,-1.441,1.636,5.089,8.393,-7.774,-7.51,-1.122,1.392,339.8,335.1,343.9,349.3,349.2,336.9,350.7,340.8,,327.7,3,norm,1.666,1.982,-1.947,-1.322,-5.033,-4.6,-1.161,-1.389,-2.087,-1.298,1.818,-1.141,351.1,345.7,-5.243,-7.894,1.791,-1.618,8.194,4.951,-5.22,-7.558,14,4.612,4.809,4.955,4.791,1.774,1.522,1.97,1.885,14,4.796,4.51,0,168.231760038,norm,0,54,54,54,359.198,359.209,359.21426991,359.214,359.216,359.22,down,0,0.996675449427,-10,001,004,1920_1080,Intel(R) Core(TM) i5-3570 CPU @ 3.40GHz,orientation_search,LEPPC096,Intel(R) HD Graphics 2500,2018_Sep_28_1211,testMonitor,
,348.0,338.4,331.5,36,40,333.7,328.0,329.1,338.1,7.624,7.835,7.842,8.457,7.961,7.896,7.801,4.377,-5.226,-7.869,1.733,-1.444,7.596,5.203,-4.407,-7.857,330.1,349.7,-7.577,329.1,342.3,332.7,335.8,338.2,36,351.9,3,5,prime,10,0,71,norm,36,-5.157,up,norm,341.094977843,342.2,338.5,343.5,342.8,4,361.1,334.5,348.4,10,5,7.53,4.742,1.843,-1.17,-4.612,-7.661,335.1,5,412.1,-8.251,-8.146,40,-8.256,-8.196,-4.49,-4.715,-5.175,-4.766,5.211,7.701,22,-1.757,1.157,4.545,8.452,-8.404,-8.198,-1.758,1.869,340.4,338.6,334.6,336.8,325.8,340.3,344.4,337.3,360.9,321.1,4,norm,1.305,1.348,-1.261,-1.505,-5.213,-4.79,-1.367,-1.886,-2.081,-1.127,1.241,-1.463,359.6,348.2,-5.186,-8.052,1.102,-1.925,8.418,5.118,-4.83,-8.38,14,4.93,4.921,4.683,4.783,1.811,1.108,1.536,1.823,14,5.25,5.008,0,168.231760038,norm,0,55,55,55,361.29,361.3,361.317071389,361.317,361.319,361.322,up,1,0.786822476426,9.21317752357,001,004,1920_1080,Intel(R) Core(TM) i5-3570 CPU @ 3.40GHz,orientation_search,LEPPC096,Intel(R) HD Graphics 2500,2018_Sep_28_1211,testMonitor,
454.5,458.9,453.5,456.4,36,-10,453.8,447.8,461.9,457.8,7.978,8.125,7.576,7.597,8.468,8.054,8.201,4.929,-4.786,-7.741,1.141,-1.761,7.725,4.436,-4.844,-8.363,467.8,451.4,-8.469,462.2,,457.3,459.3,458.9,36,461.4,5,5,probe,5,0,78,norm,36,-5.186,down,norm,457.75962121,456.7,455.0,456.1,458.8,0,462.3,464.5,455.5,10,5,7.948,4.382,1.133,-1.802,-4.614,-7.851,452.6,2,379.8,-7.7,-7.681,40,-7.644,-8.219,-5.035,-5.079,-5.132,-4.462,4.767,8.142,30,-2.001,1.325,4.74,7.604,-8.052,-7.972,-1.453,1.798,453.4,451.5,456.1,461.8,458.2,459.6,463.6,454.3,450.0,447.8,0,norm,2.089,1.689,-1.789,-1.506,-4.967,-4.742,-2.08,-1.224,-1.713,-1.306,1.721,-1.26,464.4,463.0,-4.664,-7.875,2.087,-1.743,8.016,4.777,-5.111,-8.114,15,5.242,4.949,4.694,4.533,1.188,1.821,1.378,1.805,15,4.361,4.604,40,341.094977843,norm,0,56,56,56,362.129,362.138,362.14515222,362.145,362.147,362.15,down,1,2.15655813934,7.84344186066,001,004,1920_1080,Intel(R) Core(TM) i5-3570 CPU @ 3.40GHz,orientation_search,LEPPC096,Intel(R) HD Graphics 2500,2018_Sep_28_1211,testMonitor,
445.2,442.3,444.7,444.8,36,-10,446.8,448.8,442.8,450.3,8.223,7.557,8.253,8.273,7.709,8.256,8.422,4.767,-5.003,-7.975,1.919,-1.225,8.208,5.096,-5.042,-8.198,449.3,443.2,-7.862,443.4,447.4,447.3,444.9,448.4,36,439.0,2,5,probe,5,0,65,norm,36,-4.979,down,norm,444.75962121,443.0,443.7,446.3,446.3,1,449.1,,447.5,10,5,8.201,4.657,1.454,-1.643,-4.353,-8.254,451.8,2,379.8,-8.057,-8.35,40,-8.49,-8.196,-4.694,-4.377,-4.749,-4.767,4.903,8.368,13,-1.248,1.903,5.236,8.315,-8.226,-7.741,-1.979,1.73,442.2,446.9,436.9,451.3,450.3,441.2,449.9,454.8,441.1,439.1,1,norm,1.722,1.295,-1.585,-1.952,-4.952,-4.971,-1.365,-1.435,-2.098,-1.951,1.256,-1.539,442.8,434.8,-5.052,-8.099,1.527,-1.572,7.734,4.653,-5.088,-8.103,15,4.374,5.112,5.082,5.248,1.365,1.515,1.235,1.608,15,5.185,5.093,40,341.094977843,norm,0,57,57,57,364.344,364.354,364.361458395,364.362,364.363,364.366,down,1,1.07592556315,8.92407443685,001,004,1920_1080,Intel(R) Core(TM) i5-3570 CPU @ 3.40GHz,orientation_search,LEPPC096,Intel(R) HD Graphics 2500,2018_Sep_28_1211,testMonitor,
82.8,89.5,104.0,89.2,36,60,96.5,96.1,96.5,87.8,7.527,8.228,7.94,7.574,7.686,7.7,7.73,5.019,-4.714,-8.405,1.497,-1.381,7.848,4.302,-4.844,-7.969,91.0,95.2,-7.755,88.4,98.8,99.0,116.5,101.5,36,76.5,0,5,prime,10,0,94,norm,36,-4.738,down,norm,96.5010331132,101.5,105.1,108.7,108.0,0,103.0,87.2,94.3,10,5,8.195,4.648,1.615,-1.89,-4.643,-7.57,90.6,5,190.5,-7.854,-7.564,60,-7.603,-8.152,-4.335,-4.763,-4.558,-5.287,5.005,7.663,0,-1.253,1.836,4.559,7.552,-8.453,-7.534,-1.383,2.04,96.7,115.2,98.5,102.3,87.2,,94.6,101.3,98.3,96.1,0,norm,1.967,1.435,-1.498,-1.384,-5.273,-4.375,-1.269,-1.586,-1.517,-1.5,1.203,-1.349,96.4,92.1,-4.673,-8.255,1.953,-1.672,8.253,4.944,-4.728,-8.134,16,4.731,4.849,5.234,4.767,1.801,1.387,1.513,2.08,16,5.215,4.605,-10,341.094977843,norm,0,58,58,58,365.483,365.492,365.498589013,365.499,365.5,365.503,up,0,1.68812401352,-10,001,004,1920_1080,Intel(R) Core(TM) i5-3570 CPU @ 3.40GHz,orientation_search,LEPPC096,Intel(R) HD Graphics 2500,2018_Sep_28_1211,testMonitor,
98.4,93.7,76.5,102.6,36,60,81.5,85.5,90.8,102.5,7.916,8.334,7.766,7.688,8.278,7.82,7.884,4.509,-4.631,-7.805,1.864,-1.721,7.784,5.081,-4.973,-8.309,97.5,108.7,-8.44,99.1,91.9,,94.1,94.5,36,85.9,5,5,prime,10,0,86,norm,36,-5.149,up,norm,96.5010331132,96.6,90.7,93.6,88.3,3,101.2,104.1,91.5,10,5,8.236,5.068,1.973,-2.09,-5.178,-7.541,100.3,5,182.5,-7.681,-8.396,60,-8.215,-8.477,-5.299,-4.429,-4.344,-5.039,4.898,8.458,33,-1.987,1.483,4.575,7.862,-7.656,-8.362,-1.464,1.804,79.0,85.3,84.3,116.5,103.9,97.6,103.3,97.1,88.7,91.9,1,norm,1.366,2.09,-1.849,-1.509,-5.202,-4.698,-1.953,-2.017,-1.584,-1.824,1.597,-1.704,91.6,112.5,-5.132,-8.232,1.506,-1.699,8.36,4.608,-4.596,-7.511,16,5.082,4.533,4.779,4.563,1.244,1.802,2.088,1.286,16,4.627,5.194,-10,341.094977843,norm,0,59,59,59,368.263,368.273,368.279044012,368.279,368.281,368.284,down,0,2.822789441,-10,001,004,1920_1080,Intel(R) Core(TM) i5-3570 CPU @ 3.40GHz,orientation_search,LEPPC096,Intel(R) HD Graphics 2500,2018_Sep_28_1211,testMonitor,
114.3,107.4,103.7,102.7,36,60,116.0,106.1,81.4,97.8,8.417,8.21,7.67,7.588,7.797,8.017,8.15,4.376,-4.434,-7.615,1.57,-1.439,7.867,4.426,-4.444,-7.635,93.7,,-7.773,82.0,100.8,92.0,90.8,83.3,36,76.5,5,5,prime,10,0,103,norm,36,-4.941,up,norm,96.5010331132,100.2,87.3,92.7,83.9,4,109.9,95.4,103.1,10,5,7.539,4.33,1.374,-1.456,-4.348,-8.4,94.3,5,199.5,-8.449,-8.007,60,-8.458,-7.516,-4.827,-5.201,-4.408,-4.456,5.133,7.643,34,-1.69,1.416,4.746,7.69,-8.106,-7.662,-1.649,2.014,104.0,108.1,82.7,97.8,116.5,91.4,101.3,103.2,112.3,103.3,2,norm,1.718,1.328,-1.301,-1.69,-4.425,-4.933,-1.139,-1.234,-1.691,-2.033,1.376,-1.39,82.4,91.9,-5.04,-8.163,1.614,-1.321,8.319,4.584,-4.907,-8.124,16,4.508,4.783,4.931,4.438,1.539,2.007,1.366,1.915,16,4.367,5.103,-10,341.094977843,norm,0,60,60,60,372.175,372.185,372.19083687,372.191,372.193,372.197,up,1,2.3856714104,7.6143285896,001,004,1920_1080,Intel(R) Core(TM) i5-3570 CPU @ 3.40GHz,orientation_search,LEPPC096,Intel(R) HD Graphics 2500,2018_Sep_28_1211,testMonitor,
81.4,95.5,116.5,102.6,36,60,98.7,88.1,107.1,103.3,8.457,8.21,8.095,8.465,7.931,8.21,7.936,4.93,-5.123,-7.732,1.13,-1.592,7.587,5.136,-4.585,-8.179,113.4,105.9,-7.81,92.3,112.0,95.0,87.7,95.6,36,93.9,1,5,prime,10,0,97,norm,36,-5.157,up,norm,96.5010331132,110.1,87.6,102.5,76.5,4,96.6,113.6,107.0,10,5,8.103,4.315,1.163,-1.142,-4.59,-8.489,,5,193.5,-7.795,-8.477,60,-7.563,-7.617,-5.035,-5.099,-4.996,-5.115,4.598,7.872,10,-1.464,1.114,4.533,8.207,-8.313,-8.142,-1.892,2.03,103.8,104.6,103.9,109.5,106.3,94.4,110.5,88.5,116.3,85.2,3,norm,1.232,1.573,-1.967,-1.778,-5.251,-5.232,-2.003,-1.781,-1.872,-1.485,1.58,-1.375,109.1,81.1,-5.234,-7.902,1.765,-1.798,7.938,4.831,-4.448,-8.281,16,4.941,5.19,4.626,4.335,1.424,1.421,1.811,1.576,16,4.603,4.871,-10,341.094977843,norm,0,61,61,61,374.625,374.645,374.656542594,374.657,374.659,374.662,up,1,0.994510597722,9.00548940228,001,004,1920_1080,Intel(R) Core(TM) i5-3570 CPU @ 3.40GHz,orientation_search,LEPPC096,Intel(R) HD Graphics 2500,2018_Sep_28_1211,testMonitor,
88.7,98.5,101.7,88.4,36,60,101.7,116.5,103.6,91.4,8.354,8.47,8.123,7.8,8.025,7.64,7.903,4.814,-4.699,-8.009,1.171,-1.386,7.758,4.518,-5.167,-8.174,106.6,83.0,-7.964,102.7,89.3,98.9,107.3,97.5,36,98.1,1,5,prime,10,0,97,norm,36,-4.375,down,norm,96.5010331132,83.7,84.0,103.5,93.3,2,107.4,90.4,100.3,10,5,8.293,4.977,1.844,-1.668,-4.388,-7.557,102.9,5,193.5,-7.646,-7.698,60,-7.961,-8.225,-4.989,-5.26,-5.089,-4.342,5.058,7.907,8,-1.931,1.281,5.169,8.094,-8.102,-8.105,-2.021,1.878,100.9,,88.8,92.5,76.5,96.8,96.3,98.9,94.3,98.5,4,norm,1.349,1.496,-1.433,-1.915,-4.341,-4.373,-1.43,-1.863,-1.176,-1.906,1.362,-1.423,98.4,100.4,-5.13,-8.097,1.325,-1.693,8.255,4.491,-4.568,-8.054,16,4.934,5.017,4.789,4.386,1.136,1.27,1.902,1.147,16,4.345,4.665,-10,341.094977843,norm,0,62,62,62,375.689,375.703,375.721632127,375.722,375.724,375.726,down,1,2.43941026204,7.56058973796,001,004,1920_1080,Intel(R) Core(TM) i5-3570 CPU @ 3.40GHz,orientation_search,LEPPC096,Intel(R) HD Graphics 2500,2018_Sep_28_1211,testMonitor,
229.0,241.1,231.8,228.0,36,-60,227.8,227.8,228.5,226.9,8.093,8.422,8.043,8.172,8.096,8.119,7.957,4.844,-4.975,-8.496,1.915,-1.73,8.482,4.476,-4.508,-7.872,221.9,233.4,-7.769,232.0,228.1,230.8,232.7,221.1,36,239.6,2,5,probe,5,0,73,norm,36,-5.16,down,norm,231.114884554,235.9,234.8,226.2,232.4,0,237.2,237.9,,10,5,8.467,4.335,1.272,-1.251,-5.298,-8.045,237.5,2,158.1,-8.36,-8.495,60,-8.498,-7.835,-4.301,-4.556,-4.333,-4.724,4.754,7.631,12,-1.919,1.437,4.441,8.064,-8.072,-8.427,-1.731,1.4,228.3,229.5,232.0,237.2,222.4,231.1,231.6,239.6,222.9,231.3,0,norm,1.597,1.324,-1.746,-1.845,-4.44,-5.15,-1.861,-1.966,-1.513,-1.795,1.672,-1.478,228.1,224.6,-5.184,-7.68,1.116,-1.441,8.447,4.442,-5.03,-8.358,17,4.814,4.593,4.606,4.717,1.46,1.245,1.233,1.534,17,4.698,4.85,60,96.5010331132,norm,0,63,63,63,378.198,378.209,378.214207126,378.214,378.216,378.219,down,1,1.75947718771,8.24052281229,001,004,1920_1080,Intel(R) Core(TM) i5-3570 CPU @ 3.40GHz,orientation_search,LEPPC096,Intel(R) HD Graphics 2500,2018_Sep_28_1211,testMonitor,
256.3,245.1,249.0,239.7,36,-60,250.4,254.6,,248.7,8.152,8.168,7.506,7.973,8.071,7.97,8.286,4.815,-4.759,-8.466,1.237,-2.002,7.553,5.171,-4.575,-8.054,240.3,240.7,-8.164,248.7,250.3,253.3,252.4,238.1,36,243.7,4,5,probe,5,0,90,norm,36,-4.61,up,norm,248.114884554,250.4,248.9,242.5,242.6,4,244.5,247.6,254.8,10,5,8.291,5.279,1.132,-1.948,-5.089,-7.58,251.8,2,158.1,-7.874,-7.662,60,-8.366,-7.964,-4.716,-4.551,-4.72,-4.591,4.308,7.645,28,-1.207,1.983,5.037,8.293,-8.259,-8.481,-1.524,1.142,248.4,251.6,240.6,244.7,239.3,250.8,257.7,248.9,252.9,254.2,1,norm,2.033,1.425,-1.828,-1.79,-4.928,-5.299,-1.876,-2.089,-1.61,-1.578,1.644,-1.806,249.3,258.1,-5.1,-7.702,1.336,-1.342,7.589,5.004,-4.696,-7.798,17,5.176,5.015,4.309,4.471,1.46,1.681,1.703,1.405,17,4.367,4.678,60,96.5010331132,norm,0,64,64,64,380.022,380.045,380.053956182,380.054,380.056,380.059,up,1,1.09452270181,8.90547729819,001,004,1920_1080,Intel(R) Core(TM) i5-3570 CPU @ 3.40GHz,orientation_search,LEPPC096,Intel(R) HD Graphics 2500,2018_Sep_28_1211,testMonitor,
274.2,269.8,273.9,263.6,36,20,279.4,268.0,277.2,286.8,7.532,7.903,7.612,7.998,7.848,8.222,8.123,4.393,-4.328,-7.847,1.636,-1.956,8.386,4.849,-4.348,-8.122,257.3,279.5,-7.611,275.7,269.4,273.2,263.4,271.2,36,273.5,2,5,prime,10,0,90,norm,36,-4.605,up,norm,266.830259145,,254.9,265.4,261.5,5,262.6,262.0,262.0,10,6,8.14,4.688,1.845,-1.253,-4.663,-7.502,270.0,6,356.8,-8.069,-8.352,20,-8.392,-7.531,-4.536,-4.381,-5.273,-4.775,4.596,7.823,17,-1.727,1.775,4.392,7.653,-8.06,-8.028,-1.524,1.804,279.9,264.8,262.9,274.5,254.5,257.1,273.4,275.2,260.4,246.8,0,norm,1.622,1.774,-1.823,-1.899,-4.659,-5.215,-1.488,-1.936,-2.089,-1.671,1.711,-1.748,262.0,261.1,-4.836,-8.456,1.376,-1.72,7.518,5.095,-5.194,-7.628,18,4.882,4.953,5.143,5.035,1.812,1.901,1.444,1.785,18,4.581,4.347,-60,96.5010331132,norm,0,65,65,65,381.186,425.131,425.149827237,425.15,425.152,425.155,up,1,1.40111846647,8.59888153353,001,004,1920_1080,Intel(R) Core(TM) i5-3570 CPU @ 3.40GHz,orientation_search,LEPPC096,Intel(R) HD Graphics 2500,2018_Sep_28_1211,testMonitor,
255.0,262.9,248.0,273.9,36,20,,266.4,246.8,261.6,8.135,7.917,8.453,8.391,8.095,7.519,7.574,4.769,-5.165,-8.171,1.194,-1.443,7.941,4.326,-4.68,-8.136,259.5,263.6,-8.283,286.8,278.5,261.6,263.8,268.6,36,264.5,4,5,prime,10,0,91,norm,36,-5.034,down,norm,266.830259145,257.4,262.4,271.4,272.5,0,266.9,260.3,266.2,10,6,8.302,4.641,1.253,-2.01,-4.813,-7.58,273.6,6,357.8,-8.246,-8.182,20,-8.251,-8.432,-4.742,-5.188,-5.16,-4.317,5.25,7.509,24,-1.951,1.525,5.042,8.062,-7.712,-7.655,-1.538,1.64,251.6,263.6,267.8,251.9,274.1,271.3,261.2,262.6,263.1,278.7,1,norm,2.068,1.838,-1.339,-1.281,-4.833,-4.891,-1.492,-1.971,-1.233,-2.041,2.075,-1.669,273.9,270.5,-5.237,-8.091,1.32,-2.067,7.54,5.003,-4.42,-7.621,18,5.175,4.932,4.576,4.623,1.253,1.185,1.928,1.786,18,5.133,4.489,-60,96.5010331132,norm,0,66,66,66,426.588,426.598,426.615708939,426.616,426.618,426.62,down,1,0.99069252616,9.00930747384,001,004,1920_1080,Intel(R) Core(TM) i5-3570 CPU @ 3.40GHz,orientation_search,LEPPC096,Intel(R) HD Graphics 2500,2018_Sep_28_1211,testMonitor,
275.3,247.3,262.9,260.5,36,20,268.3,263.3,252.7,266.9,8.085,7.867,8.129,8.197,7.53,7.568,8.441,5.093,-4.457,-8.122,1.107,-1.855,8.455,5.113,-4.809,-7.746,278.5,258.5,-7.588,258.3,278.3,269.9,265.2,273.6,36,268.8,1,5,prime,10,0,103,norm,36,-4.546,down,norm,266.830259145,274.0,262.6,252.7,277.4,1,269.1,272.4,266.9,10,6,8.207,4.749,1.122,-1.396,-4.608,-8.227,276.6,6,369.8,-7.688,-7.993,20,-7.676,-8.326,-4.329,-4.413,-4.715,-4.794,4.606,7.547,7,-1.12,1.531,5.015,8.39,-7.592,-7.77,-1.157,1.872,275.1,257.7,253.4,257.0,271.2,267.3,,286.8,246.8,270.1,2,norm,1.936,1.343,-2.094,-1.176,-4.345,-4.823,-1.99,-1.982,-1.479,-1.477,2.092,-1.527,263.0,279.1,-5.271,-8.494,1.58,-1.56,8.456,4.333,-5.205,-7.559,18,4.399,4.521,4.55,5.209,2.055,1.563,1.85,1.901,18,4.601,4.346,-60,96.5010331132,norm,0,67,67,67,427.631,427.64,427.646466314,427.647,427.648,427.651,down,1,0.875366178992,9.12463382101,001,004,1920_1080,Intel(R) Core(TM) i5-3570 CPU @ 3.40GHz,orientation_search,LEPPC096,Intel(R) HD Graphics 2500,2018_Sep_28_1211,testMonitor,
265.3,279.7,279.0,264.8,36,20,270.0,274.3,257.1,259.1,8.149,7.871,7.878,7.763,7.921,7.877,8.126,4.607,-4.673,-7.626,1.477,-1.652,7.827,4.416,-4.529,-8.218,273.3,267.1,-8.291,258.2,,280.4,280.4,248.8,36,274.6,5,5,prime,10,0,81,norm,36,-4.455,down,norm,266.830259145,271.0,262.7,246.8,278.4,0,269.8,280.4,266.7,10,6,8.243,4.594,1.143,-2.044,-4.689,-8.256,259.5,6,347.8,-7.722,-8.172,20,-7.65,-8.081,-4.724,-5.005,-4.912,-4.602,5.224,8.269,30,-2.044,2.027,5.2,8.495,-7.534,-8.264,-1.954,1.495,257.6,255.0,268.6,261.9,262.9,259.6,259.2,255.7,259.5,261.4,3,norm,1.382,1.203,-1.333,-1.682,-4.371,-5.274,-1.865,-1.751,-1.345,-1.595,1.646,-1.509,279.4,286.8,-4.929,-7.562,1.6,-2.019,8.07,4.406,-4.36,-8.071,18,4.674,5.012,4.874,4.37,1.69,1.941,1.482,1.531,18,4.879,4.684,-60,96.5010331132,norm,0,68,68,68,428.567,428.583,428.599168893,428.599,428.601,428.604,up,0,0.859955948346,-10,001,004,1920_1080,Intel(R) Core(TM) i5-3570 CPU @ 3.40GHz,orientation_search,LEPPC096,Intel(R) HD Graphics 2500,2018_Sep_28_1211,testMonitor,
258.3,268.7,284.8,272.3,36,20,270.9,267.6,277.5,267.6,8.114,8.134,8.245,8.193,8.158,8.171,8.33,4.503,-4.963,-8.271,1.786,-1.234,7.645,5.041,-4.694,-7.539,285.2,260.6,-7.553,276.1,268.3,251.4,286.8,246.8,36,274.2,1,5,prime,10,0,66,norm,36,-5.194,down,norm,266.830259145,265.7,270.9,263.9,276.7,1,275.2,279.9,265.0,10,6,8.058,4.929,1.383,-1.846,-4.894,-7.76,284.4,6,332.8,-8.014,-7.988,20,-8.355,-8.131,-4.574,-4.763,-4.809,-4.661,5.247,8.166,7,-1.687,1.651,4.307,8.147,-8.09,-8.15,-1.722,1.254,275.0,266.7,268.4,271.7,273.4,273.9,,270.3,263.3,255.6,4,norm,1.154,1.3,-1.413,-1.444,-4.659,-5.168,-1.242,-1.746,-1.769,-2.084,1.778,-1.249,278.6,271.4,-4.859,-7.888,2.066,-1.98,7.501,5.069,-4.686,-8.114,18,4.749,4.797,4.944,4.36,1.319,1.728,1.814,1.89,18,5.045,5.057,-60,96.5010331132,norm,0,69,69,69,430.536,430.545,430.562639586,430.563,430.565,430.567,down,1,0.397597111196,9.6024028888,001,004,1920_1080,Intel(R) Core(TM) i5-3570 CPU @ 3.40GHz,orientation_search,LEPPC096,Intel(R) HD Graphics 2500,2018_Sep_28_1211,testMonitor,
259.6,269.6,261.1,270.0,36,20,271.9,252.8,262.8,252.7,7.648,8.278,7.788,8.489,7.501,8.39,8.069,5.201,-4.793,-7.697,1.605,-1.216,8.09,4.441,-5.068,-7.849,282.1,262.7,-7.832,253.2,260.4,264.0,258.8,275.2,36,278.8,0,5,prime,10,0,80,norm,36,-5.172,up,norm,266.830259145,253.3,275.2,259.5,266.7,5,275.4,270.9,266.3,10,6,7.985,5.152,2.058,-1.454,-4.354,-7.733,265.3,6,346.8,-8.383,-7.53,20,-7.914,-8.453,-4.721,-4.328,-4.412,-4.372,5.001,8.437,5,-1.462,1.27,4.575,7.99,-8.167,-8.37,-1.599,1.678,246.8,263.3,277.5,286.8,270.2,259.9,261.6,266.8,,280.6,5,norm,1.699,1.642,-1.367,-1.69,-5.283,-4.7,-1.535,-1.613,-1.617,-1.502,2.055,-1.391,266.1,260.0,-4.385,-7.735,1.476,-1.945,8.44,5.006,-4.749,-7.508,18,4.636,4.538,4.445,5.021,1.782,1.939,1.211,1.135,18,4.963,4.626,-60,96.5010331132,norm,0,70,70,70,430.984,430.994,431.000415946,431.001,431.002,431.005,up,1,1.43410559055,8.56589440945,001,004,1920_1080,Intel(R) Core(TM) i5-3570 CPU @ 3.40GHz,orientation_search,LEPPC096,Intel(R) HD Graphics 2500,2018_Sep_28_1211,testMonitor,
398.5,402.9,395.7,397.3,36,-40,410.7,393.7,390.7,,8.276,8.47,7.668,8.412,8.307,7.628,8.343,4.847,-4.459,-8.361,1.465,-1.913,7.727,4.826,-5.154,-7.701,401.8,397.6,-8.062,405.6,391.2,403.5,402.1,401.9,36,399.6,4,5,probe,5,0,110,norm,36,-4.637,up,norm,400.716953344,403.8,405.9,395.9,395.1,5,399.2,399.0,401.9,10,6,7.505,4.577,1.672,-1.914,-4.876,-7.57,403.1,2,290.7,-8.016,-8.415,20,-8.066,-7.936,-4.41,-4.521,-4.635,-4.954,4.781,8.045,29,-1.395,1.411,5.096,7.702,-8.329,-7.589,-1.695,1.256,400.9,403.9,398.4,397.0,399.3,407.5,394.8,395.9,397.0,400.9,0,norm,1.64,1.954,-1.642,-1.895,-4.321,-4.631,-1.423,-1.482,-2.043,-2.019,1.105,-1.682,398.0,392.5,-5.259,-8.045,1.998,-1.6,7.511,5.09,-4.455,-8.154,19,4.57,5.19,5.269,5.109,1.244,1.221,2.05,1.717,19,4.906,4.714,20,266.830259145,norm,0,71,71,71,432.483,432.505,432.514640066,432.515,432.517,432.52,up,1,0.792912857474,9.20708714253,001,004,1920_1080,Intel(R) Core(TM) i5-3570 CPU @ 3.40GHz,orientation_search,LEPPC096,Intel(R) HD Graphics 2500,2018_Sep_28_1211,testMonitor,
362.5,359.8,369.0,,36,-40,370.5,363.3,366.1,367.8,7.912,7.876,8.475,7.733,8.303,8.265,8.235,5.141,-4.778,-8.05,1.26,-1.582,7.729,5.201,-4.3,-8.294,369.0,372.6,-8.125,361.0,366.6,372.6,362.4,365.3,36,358.5,3,5,probe,5,0,75,norm,36,-4.552,up,norm,365.716953344,369.5,362.1,362.4,367.3,3,363.9,364.1,369.1,10,6,7.999,4.554,1.233,-1.142,-4.663,-7.611,363.3,2,290.7,-7.593,-8.276,20,-7.792,-8.067,-4.315,-4.836,-5.056,-4.55,5.21,8.03,21,-2.02,1.175,4.321,8.066,-8.283,-7.798,-1.29,1.993,359.4,375.7,365.7,366.5,356.8,368.3,355.7,369.8,361.8,367.4,1,norm,1.196,1.783,-1.355,-1.585,-4.904,-4.621,-2.042,-1.926,-2.026,-1.365,2.062,-1.55,360.3,368.9,-4.944,-8.49,1.792,-1.44,7.971,4.882,-4.556,-8.269,19,5.097,5.167,4.53,5.097,1.671,1.182,1.433,1.721,19,4.939,4.611,20,266.830259145,norm,0,72,72,72,433.356,433.378,433.388187009,433.388,433.39,433.393,up,1,1.13223253502,8.86776746498,001,004,1920_1080,Intel(R) Core(TM) i5-3570 CPU @ 3.40GHz,orientation_search,LEPPC096,Intel(R) HD Graphics 2500,2018_Sep_28_1211,testMonitor,
214.5,239.9,237.0,238.6,36,20,237.3,234.5,251.0,244.3,7.941,8.332,8.408,8.424,8.361,8.212,7.502,4.397,-4.36,-8.05,1.483,-1.581,7.608,4.711,-4.549,-7.508,223.4,222.9,-8.33,,222.5,237.5,227.7,223.5,36,222.3,5,5,prime,10,0,87,norm,36,-4.757,down,norm,234.521078688,248.5,244.7,226.5,239.3,1,233.7,229.8,237.3,10,5,7.607,4.866,2.043,-1.889,-4.705,-7.873,229.4,5,321.5,-8.166,-7.688,20,-7.726,-8.448,-5.137,-4.776,-4.704,-4.853,4.779,8.085,31,-1.235,1.582,4.647,7.794,-8.18,-7.537,-1.207,1.169,240.4,227.5,226.9,225.4,223.2,240.2,232.0,252.1,244.9,235.7,0,norm,1.336,1.909,-1.896,-1.649,-4.585,-4.465,-1.127,-1.621,-1.606,-1.208,1.163,-1.359,223.2,238.7,-4.923,-7.627,1.993,-1.766,7.978,4.995,-4.513,-8.472,20,4.747,5.252,4.355,5.151,1.397,1.9,1.866,1.76,20,5.086,4.383,-40,266.830259145,norm,0,73,73,73,434.572,434.585,434.604900377,434.605,434.607,434.611,down,1,0.741226872053,9.25877312795,001,004,1920_1080,Intel(R) Core(TM) i5-3570 CPU @ 3.40GHz,orientation_search,LEPPC096,Intel(R) HD Graphics 2500,2018_Sep_28_1211,testMonitor,
245.0,227.9,240.9,233.2,36,20,230.9,245.0,242.8,235.9,7.625,8.248,8.404,7.801,7.591,7.732,7.712,4.959,-5.111,-8.426,1.513,-1.994,7.802,4.886,-4.572,-8.163,239.1,237.9,-7.864,254.5,233.6,234.5,224.1,235.5,36,229.0,2,5,prime,10,0,80,norm,36,-4.602,up,norm,234.521078688,231.9,243.0,,230.8,3,221.6,242.4,223.5,10,5,8.445,5.128,1.506,-1.39,-4.722,-8.088,231.0,5,314.5,-8.038,-8.467,20,-7.647,-8.49,-4.494,-4.723,-4.844,-4.682,4.357,7.788,15,-1.341,1.219,5.262,8.292,-8.15,-7.664,-1.465,1.493,244.3,235.7,232.8,224.8,230.7,214.5,218.1,229.9,232.2,242.5,1,norm,1.308,1.608,-1.879,-2.022,-4.51,-5.177,-1.208,-1.788,-1.435,-1.674,1.296,-1.125,224.8,232.4,-4.36,-7.854,1.981,-1.682,8.176,5.103,-4.445,-8.298,20,4.635,4.382,4.798,4.698,2.006,1.759,1.44,1.699,20,5.165,4.351,-40,266.830259145,norm,0,74,74,74,435.369,435.379,435.398436248,435.399,435.4,435.403,up,1,0.842360642198,9.1576393578,001,004,1920_1080,Intel(R) Core(TM) i5-3570 CPU @ 3.40GHz,orientation_search,LEPPC096,Intel(R) HD Graphics 2500,2018_Sep_28_1211,testMonitor,
227.1,231.6,242.5,254.5,36,20,241.6,239.5,232.3,243.8,8.26,7.565,8.088,8.461,8.466,8.293,7.919,4.689,-4.591,-8.116,1.519,-1.398,7.789,4.913,-4.757,-8.147,226.8,252.9,-8.425,235.5,228.4,226.0,223.4,238.0,36,252.8,0,5,prime,10,0,100,norm,36,-5.275,down,norm,234.521078688,248.0,239.6,241.9,250.7,1,229.6,233.6,250.3,10,5,8.467,4.853,1.841,-1.367,-5.273,-8.115,248.9,5,334.5,-7.958,-8.226,20,-7.626,-8.028,-4.636,-4.432,-5.093,-5.14,4.524,8.212,1,-1.357,1.535,4.467,8.34,-8.113,-7.78,-1.952,1.542,235.7,233.2,214.5,216.0,,214.7,223.1,223.1,231.6,223.0,2,norm,1.963,1.466,-1.969,-1.998,-4.751,-4.732,-1.954,-2.06,-1.524,-1.306,1.201,-1.585,239.8,234.3,-5.278,-8.175,1.378,-1.107,8.095,4.97,-4.448,-7.748,20,4.629,4.494,4.59,4.818,1.336,1.375,1.735,1.822,20,4.448,5.21,-40,266.830259145,norm,0,75,75,75,436.288,436.298,436.304146271,436.304,436.306,436.309,down,1,0.973841274594,9.02615872541,001,004,1920_1080,Intel(R) Core(TM) i5-3570 CPU @ 3.40GHz,orientation_search,LEPPC096,Intel(R) HD Graphics 2500,2018_Sep_28_1211,testMonitor,
242.5,254.5,235.9,227.4,36,20,237.1,227.0,224.9,217.6,7.678,8.152,8.003,7.624,8.135,8.058,7.896,4.516,-4.952,-8.093,1.643,-1.892,8.328,4.851,-5.208,-8.424,225.0,219.5,-7.926,232.1,214.5,231.4,,215.5,36,223.5,5,5,prime,10,0,91,norm,36,-4.655,down,norm,234.521078688,225.5,231.7,241.6,233.5,2,248.3,243.9,231.1,10,5,7.53,4.881,1.425,-1.624,-5.064,-8.286,237.5,5,325.5,-7.595,-8.009,20,-8.374,-7.694,-5.141,-5.225,-4.527,-4.46,5.156,7.639,32,-1.526,1.318,4.834,7.544,-7.848,-8.077,-1.999,1.83,243.2,233.6,234.5,240.1,224.7,239.5,246.8,245.6,234.4,224.7,3,norm,1.966,2.078,-1.646,-1.801,-4.447,-4.773,-1.191,-1.26,-1.275,-1.387,2.078,-1.799,243.1,232.6,-4.442,-7.603,1.791,-1.929,8.429,5.054,-5.183,-8.245,20,4.397,5.182,4.337,4.507,1.406,1.514,1.781,1.791,20,4.612,5.086,-40,266.830259145,norm,0,76,76,76,437.302,437.312,437.318200299,437.318,437.32,437.323,down,1,0.841081109797,9.1589188902,001,004,1920_1080,Intel(R) Core(TM) i5-3570 CPU @ 3.40GHz,orientation_search,LEPPC096,Intel(R) HD Graphics 2500,2018_Sep_28_1211,testMonitor,
228.6,254.0,230.0,235.7,36,20,233.7,242.7,218.3,232.9,7.803,7.981,8.258,8.28,7.538,7.823,8.423,4.66,-4.48,-8.293,1.299,-1.68,7.985,4.591,-5.13,-8.131,238.5,233.5,-8.31,236.9,254.5,,237.5,230.8,36,248.8,5,5,prime,10,0,108,norm,36,-4.543,up,norm,234.521078688,221.5,222.0,238.1,231.5,3,227.8,231.2,222.2,10,5,7.98,4.677,1.766,-1.521,-4.536,-7.994,240.4,5,342.5,-8.399,-7.776,20,-7.746,-8.26,-5.221,-4.418,-5.091,-5.009,4.909,8.294,33,-1.277,1.216,4.305,7.552,-7.707,-7.54,-1.484,1.446,237.3,241.1,234.8,214.5,240.3,218.3,236.0,243.0,234.1,248.0,4,norm,1.785,1.443,-1.194,-1.554,-4.825,-5.095,-2.034,-1.692,-1.748,-1.891,1.693,-1.422,249.2,216.7,-5.217,-7.864,1.775,-1.572,7.816,5.183,-5.284,-7.621,20,5.11,4.343,4.709,5.043,1.432,1.736,1.131,1.717,20,4.672,4.644,-40,266.830259145,norm,0,77,77,77,438.207,438.216,438.224481116,438.225,438.226,438.229,up,1,0.753888779385,9.24611122061,001,004,1920_1080,Intel(R) Core(TM) i5-3570 CPU @ 3.40GHz,orientation_search,LEPPC096,Intel(R) HD Graphics 2500,2018_Sep_28_1211,testMonitor,
356.5,346.6,342.0,342.1,36,-30,,352.7,351.4,351.8,7.717,8.282,8.258,8.201,8.064,8.225,7.776,4.481,-4.308,-8.189,1.537,-1.937,7.883,4.8,-4.408,-8.477,350.9,350.5,-8.414,341.1,349.5,356.6,349.1,344.3,36,347.9,4,5,probe,5,0,91,norm,36,-4.658,down,norm,347.329822794,353.7,347.1,338.7,341.8,0,350.8,342.3,339.4,10,5,8.114,4.732,1.334,-1.135,-4.655,-7.734,342.3,1,256.3,-8.112,-8.235,20,-8.102,-8.096,-4.401,-4.982,-4.965,-4.798,4.419,7.86,24,-1.569,2.044,5.249,7.872,-7.805,-7.953,-1.181,1.749,343.9,352.3,350.9,348.1,347.6,342.5,337.3,353.7,343.3,345.8,0,norm,2.086,1.748,-1.223,-1.685,-4.455,-5.159,-1.563,-1.855,-1.69,-1.805,1.492,-1.253,357.3,346.1,-5.298,-7.502,1.628,-1.618,7.75,5.125,-4.465,-7.506,21,4.663,5.259,4.523,4.407,1.392,2.09,1.147,1.852,21,4.863,4.42,20,234.521078688,norm,0,78,78,78,439.002,439.012,439.018535864,439.019,439.021,439.023,down,1,0.840944674637,9.15905532536,001,004,1920_1080,Intel(R) Core(TM) i5-3570 CPU @ 3.40GHz,orientation_search,LEPPC096,Intel(R) HD Graphics 2500,2018_Sep_28_1211,testMonitor,
211.4,235.6,230.7,239.2,36,10,227.0,218.3,222.6,227.4,7.697,8.07,7.826,8.493,7.925,7.66,8.465,5.094,-4.509,-7.65,1.603,-1.294,7.98,4.55,-4.319,-7.989,,214.6,-8.026,238.4,222.1,218.3,225.9,251.4,36,239.6,5,5,prime,10,0,71,norm,36,-4.452,up,norm,231.424464949,236.1,245.6,225.9,233.0,5,242.4,244.8,226.3,10,6,7.888,5.161,1.551,-1.715,-5.012,-8.103,212.3,6,302.4,-8.166,-8.134,10,-8.048,-7.664,-4.555,-4.9,-4.395,-4.537,4.686,8.318,35,-1.744,1.606,4.967,8.18,-7.71,-7.807,-1.401,1.393,236.9,246.6,223.3,246.3,229.9,245.1,236.8,238.9,233.1,223.1,0,norm,1.79,1.264,-1.437,-1.368,-4.401,-4.39,-1.666,-2.019,-1.501,-1.611,1.795,-1.943,237.0,229.4,-4.938,-8.449,1.674,-1.39,8.119,5.164,-4.864,-7.585,22,4.963,4.955,4.373,5.065,1.591,1.146,1.828,1.454,22,4.385,4.52,-30,234.521078688,norm,0,79,79,79,439.897,439.907,439.922138386,439.922,439.924,439.927,up,1,0.810219597221,9.18978040278,001,004,1920_1080,Intel(R) Core(TM) i5-3570 CPU @ 3.40GHz,orientation_search,LEPPC096,Intel(R) HD Graphics 2500,2018_Sep_28_1211,testMonitor,
,230.9,214.9,241.9,36,10,223.8,229.3,234.7,216.5,8.151,8.248,8.136,7.911,8.384,7.847,8.431,4.416,-4.74,-8.407,1.412,-1.824,8.173,4.705,-5.102,-8.303,226.6,228.8,-8.376,224.0,220.5,223.1,235.7,245.1,36,218.7,3,5,prime,10,0,102,norm,36,-4.789,up,norm,231.424464949,232.2,242.6,233.4,229.4,4,234.4,222.4,228.6,10,6,8.21,4.519,1.575,-1.339,-5.195,-7.548,230.4,6,333.4,-8.253,-8.411,10,-8.154,-8.149,-4.725,-5.267,-5.154,-4.663,4.92,7.618,22,-1.456,1.648,5.16,7.779,-7.63,-7.727,-1.65,1.387,251.4,228.2,226.1,224.3,247.8,234.8,233.7,227.8,211.4,242.0,1,norm,1.118,1.601,-1.797,-1.702,-4.864,-4.413,-1.573,-1.127,-1.766,-1.267,1.67,-1.35,220.4,246.7,-5.078,-8.251,1.571,-1.283,8.122,4.946,-5.13,-8.494,22,4.625,4.655,5.124,5.041,1.641,1.485,1.916,1.21,22,4.678,4.867,-30,234.521078688,norm,0,80,80,80,440.769,440.779,440.795940692,440.796,440.798,440.801,up,1,0.740201797262,9.25979820274,001,004,1920_1080,Intel(R) Core(TM) i5-3570 CPU @ 3.40GHz,orientation_search,LEPPC096,Intel(R) HD Graphics 2500,2018_Sep_28_1211,testMonitor,
236.3,239.9,227.7,228.2,36,10,218.7,232.2,221.0,217.4,8.282,8.435,8.159,7.942,8.08,8.445,8.396,4.584,-4.362,-7.598,1.106,-1.324,8.408,5.168,-5.173,-7.718,220.7,211.4,-7.591,232.6,234.8,219.8,239.2,221.2,36,218.6,0,5,prime,10,0,102,norm,36,-4.823,up,norm,231.424464949,230.7,231.6,225.2,249.3,4,244.5,241.1,230.7,10,6,7.956,4.938,2.029,-1.71,-4.404,-7.846,238.1,6,333.4,-7.814,-7.583,10,-8.273,-8.384,-4.921,-4.61,-4.624,-5.257,4.425,7.9,4,-1.574,1.894,4.79,8.34,-7.538,-7.653,-1.858,1.111,245.4,241.1,221.0,237.2,221.1,234.3,251.4,212.1,219.0,,2,norm,1.144,1.977,-1.626,-1.493,-5.289,-4.941,-1.808,-1.221,-1.647,-1.6,1.5,-1.795,234.9,229.2,-4.741,-7.708,2.096,-1.28,8.393,4.613,-4.991,-7.71,22,4.713,4.889,4.542,4.378,1.364,2.02,1.13,1.312,22,4.855,4.95,-30,234.521078688,norm,0,81,81,81,441.571,441.582,441.591296403,441.591,441.593,441.596,up,1,0.891408176873,9.10859182313,001,004,1920_1080,Intel(R) Core(TM) i5-3570 CPU @ 3.40GHz,orientation_search,LEPPC096,Intel(R) HD Graphics 2500,2018_Sep_28_1211,testMonitor,
249.2,227.5,226.8,222.9,36,10,229.7,237.1,226.6,244.5,7.862,8.015,7.802,7.916,7.969,7.817,8.102,5.221,-4.3,-7.741,1.671,-1.304,7.815,5.16,-4.385,-7.57,241.1,243.5,-7.889,232.9,230.7,227.7,241.2,228.4,36,241.8,0,5,prime,10,0,82,norm,36,-5.046,down,norm,231.424464949,232.5,226.8,245.9,229.8,1,232.1,227.1,216.6,10,6,8.333,5.023,1.341,-2.072,-5.214,-7.591,229.1,6,313.4,-7.998,-8.087,10,-7.506,-8.054,-4.648,-5.177,-4.971,-5.113,4.445,8.137,1,-1.219,1.774,4.569,8.347,-7.911,-7.715,-1.523,1.701,244.3,238.5,243.4,211.4,,251.4,235.9,226.1,230.2,213.5,3,norm,1.679,2.033,-1.165,-1.893,-4.86,-4.386,-1.501,-1.951,-1.934,-1.591,1.224,-1.63,243.1,238.0,-4.543,-7.568,1.469,-1.47,8.196,4.984,-4.788,-8.378,22,4.793,5.206,5.212,4.766,1.702,1.199,1.624,1.238,22,4.612,4.873,-30,234.521078688,norm,0,82,82,82,442.528,442.537,442.543853792,442.544,442.546,442.548,up,0,0.922684126343,-10,001,004,1920_1080,Intel(R) Core(TM) i5-3570 CPU @ 3.40GHz,orientation_search,LEPPC096,Intel(R) HD Graphics 2500,2018_Sep_28_1211,testMonitor,
,230.7,230.3,211.4,36,10,234.7,226.6,245.7,221.1,7.998,8.257,7.952,7.906,8.429,8.06,8.174,4.9,-4.813,-8.18,1.463,-1.641,8.022,4.361,-4.458,-8.019,231.3,251.4,-7.706,222.7,238.9,225.9,233.5,217.4,36,233.6,3,5,prime,10,0,74,norm,36,-5.248,up,norm,231.424464949,225.7,224.2,220.3,227.5,4,238.6,229.7,225.9,10,6,8.136,4.491,1.306,-1.457,-4.525,-8.081,228.2,6,305.4,-8.092,-7.921,10,-7.771,-8.283,-5.206,-4.665,-5.263,-4.767,4.832,7.993,22,-2.082,1.679,4.823,7.969,-7.604,-7.848,-1.193,1.814,216.3,217.2,235.2,241.0,228.2,236.2,235.2,245.0,225.9,232.2,4,norm,1.666,1.218,-1.66,-2.034,-4.417,-4.431,-2.052,-1.569,-1.13,-1.344,1.959,-1.513,245.0,243.4,-4.996,-8.228,1.129,-1.311,8.427,4.914,-4.836,-7.784,22,4.998,4.517,5.146,4.348,1.303,1.822,1.83,1.836,22,5.287,4.607,-30,234.521078688,norm,0,83,83,83,444.544,444.554,444.570927116,444.571,444.575,444.582,up,1,0.8037117608,9.1962882392,001,004,1920_1080,Intel(R) Core(TM) i5-3570 CPU @ 3.40GHz,orientation_search,LEPPC096,Intel(R) HD Graphics 2500,2018_Sep_28_1211,testMonitor,
243.3,239.0,227.8,251.4,36,10,239.6,229.3,217.1,226.6,7.944,7.59,8.381,7.607,7.543,7.917,7.847,4.932,-5.178,-8.364,1.652,-1.536,7.741,5.19,-5.045,-8.145,231.7,229.0,-7.776,227.2,223.2,241.6,239.4,232.1,36,227.2,1,5,prime,10,0,79,norm,36,-4.83,down,norm,231.424464949,213.7,235.2,223.6,240.3,0,230.7,211.4,227.1,10,6,7.876,4.355,1.587,-1.519,-4.901,-7.62,219.3,6,310.4,-7.702,-8.191,10,-7.971,-7.88,-4.623,-4.73,-4.904,-5.081,4.792,7.711,6,-1.429,1.369,4.999,7.938,-8.353,-8.187,-1.703,1.252,232.8,230.2,238.0,222.2,220.1,227.9,237.5,,217.5,217.6,5,norm,2.08,1.874,-1.559,-1.881,-4.691,-5.046,-1.179,-1.458,-1.152,-1.908,1.179,-1.864,213.8,226.7,-4.548,-8.177,2.02,-2.017,7.552,4.463,-4.303,-7.551,22,4.575,5.162,4.614,5.269,1.487,1.444,1.103,1.192,22,4.454,5.06,-30,234.521078688,norm,0,84,84,84,445.418,445.428,445.444308345,445.444,445.446,445.449,down,1,0.637517435478,9.36248256452,001,004,1920_1080,Intel(R) Core(TM) i5-3570 CPU @ 3.40GHz,orientation_search,LEPPC096,Intel(R) HD Graphics 2500,2018_Sep_28_1211,testMonitor,
307.3,300.8,305.9,304.2,36,-30,303.6,297.6,294.8,310.4,8.33,8.475,7.506,7.602,7.994,7.71,7.913,4.683,-5.16,-7.551,1.67,-1.982,7.824,4.7,-4.446,-8.012,295.7,297.1,-7.604,,299.2,300.2,307.8,300.2,36,314.8,5,5,probe,5,0,61,norm,36,-5.008,down,norm,304.776527164,307.5,307.2,309.1,306.5,1,297.8,307.9,308.9,10,6,7.896,4.565,1.268,-1.975,-4.767,-7.706,306.9,1,243.8,-7.804,-8.484,10,-8.35,-7.605,-4.309,-5.005,-5.198,-4.596,4.716,8.479,31,-1.952,2.062,5.066,7.769,-7.928,-7.853,-1.285,1.948,300.8,305.4,309.9,296.5,309.2,304.3,300.0,311.5,309.8,304.1,0,norm,1.121,1.807,-1.362,-1.422,-4.756,-4.462,-1.402,-1.633,-1.26,-1.58,1.909,-1.179,310.8,310.8,-4.46,-7.754,1.506,-1.966,7.555,4.952,-4.917,-8.261,23,5.12,4.796,4.806,4.586,1.748,1.895,2.039,2.018,23,4.473,4.535,10,231.424464949,norm,0,85,85,85,446.119,446.129,446.146295921,446.146,446.148,446.151,down,1,1.40198869339,8.59801130661,001,004,1920_1080,Intel(R) Core(TM) i5-3570 CPU @ 3.40GHz,orientation_search,LEPPC096,Intel(R) HD Graphics 2500,2018_Sep_28_1211,testMonitor,
289.3,300.9,267.6,279.7,36,0,293.6,307.3,281.1,293.0,7.67,7.513,8.134,7.985,7.86,8.198,7.865,5.233,-4.498,-7.919,1.585,-2.007,8.377,4.61,-4.871,-7.531,281.8,286.3,-7.934,,292.0,289.5,286.0,277.6,36,277.3,5,5,prime,10,0,91,norm,36,-5.169,down,norm,287.284521284,275.5,287.2,285.1,282.5,1,280.7,300.7,302.8,10,6,7.885,4.666,2.029,-1.603,-4.848,-8.145,283.4,6,378.3,-8.015,-7.809,0,-8.221,-8.173,-5.206,-4.8,-4.31,-4.558,4.853,7.87,31,-1.934,1.392,4.426,8.355,-8.196,-8.207,-1.528,1.742,271.4,270.8,271.2,295.0,282.2,305.3,267.3,270.4,279.0,280.8,0,norm,1.271,1.929,-1.647,-1.577,-4.481,-4.947,-2.041,-1.668,-2.021,-1.482,1.246,-1.226,306.9,306.2,-5.14,-7.622,2.086,-1.194,7.577,5.267,-4.542,-8.352,24,4.98,4.309,5.077,4.691,1.45,1.309,1.415,1.879,24,5.003,4.474,-30,231.424464949,norm,0,86,86,86,447.585,447.595,447.612419101,447.613,447.614,447.617,down,1,0.707289531409,9.29271046859,001,004,1920_1080,Intel(R) Core(TM) i5-3570 CPU @ 3.40GHz,orientation_search,LEPPC096,Intel(R) HD Graphics 2500,2018_Sep_28_1211,testMonitor,
273.5,295.5,285.6,297.4,36,0,268.9,298.8,281.7,283.0,8.484,8.013,7.551,7.857,8.411,7.661,7.801,4.56,-4.766,-7.588,2.007,-1.438,8.078,5.244,-4.991,-8.208,278.2,279.5,-7.939,285.5,301.6,283.8,284.1,,36,297.2,4,5,prime,10,0,67,norm,36,-5.296,down,norm,287.284521284,289.1,267.3,295.6,286.9,2,293.4,299.7,307.3,10,6,8.244,4.984,1.347,-1.227,-5.279,-7.737,291.5,6,354.3,-8.375,-7.858,0,-8.319,-7.905,-4.352,-4.963,-4.553,-5.123,5.13,8.305,26,-1.194,1.42,4.625,7.6,-8.137,-7.781,-1.591,1.217,292.8,284.2,285.4,283.2,288.4,277.6,287.6,267.5,286.7,297.5,1,norm,1.247,1.711,-1.762,-1.326,-5.131,-5.254,-1.63,-1.723,-1.492,-2.056,1.303,-1.877,289.2,285.6,-4.592,-8.018,1.412,-1.776,8.315,4.677,-4.787,-7.535,24,5.06,4.846,4.598,4.93,1.521,1.302,1.316,1.944,24,4.681,4.587,-30,231.424464949,norm,0,87,87,87,448.362,448.375,448.394788418,448.395,448.397,448.401,down,1,1.49792192951,8.50207807049,001,004,1920_1080,Intel(R) Core(TM) i5-3570 CPU @ 3.40GHz,orientation_search,LEPPC096,Intel(R) HD Graphics 2500,2018_Sep_28_1211,testMonitor,
295.4,280.3,274.9,307.3,36,0,,287.9,279.9,301.0,7.95,8.41,7.669,8.476,8.19,8.397,8.227,4.773,-4.442,-7.731,1.815,-1.697,7.646,4.559,-5.183,-7.708,285.2,290.0,-8.38,283.3,290.1,278.1,293.4,275.4,36,277.6,4,5,prime,10,0,90,norm,36,-4.965,down,norm,287.284521284,288.9,267.3,280.2,282.4,0,282.5,281.2,292.7,10,6,7.565,4.87,1.954,-1.921,-5.225,-7.644,283.5,6,377.3,-8.458,-8.044,0,-7.591,-7.53,-5.294,-4.515,-4.349,-4.835,4.683,8.129,24,-1.336,1.35,5.264,8.011,-8.037,-8.08,-1.838,1.159,286.9,291.4,287.1,291.1,280.0,268.5,277.0,295.0,298.9,292.9,2,norm,1.55,1.408,-1.549,-1.125,-5.091,-4.903,-1.886,-1.124,-1.696,-1.605,1.879,-2.086,291.8,300.9,-4.457,-8.056,1.573,-1.371,7.68,4.48,-4.633,-8.252,24,4.57,4.928,4.993,4.914,1.164,1.444,1.497,1.837,24,4.335,5.237,-30,231.424464949,norm,0,88,88,88,449.937,449.947,449.953526019,449.954,449.956,449.958,down,1,0.875637841922,9.12436215808,001,004,1920_1080,Intel(R) Core(TM) i5-3570 CPU @ 3.40GHz,orientation_search,LEPPC096,Intel(R) HD Graphics 2500,2018_Sep_28_1211,testMonitor,
278.4,267.3,288.5,277.2,36,0,273.7,289.4,270.4,300.2,7.683,7.595,7.655,7.863,7.596,7.766,8.193,4.626,-4.91,-7.872,1.854,-1.423,7.503,4.596,-5.281,-7.966,285.0,284.8,-8.497,305.3,289.8,307.3,288.3,290.1,36,281.9,2,5,prime,10,0,69,norm,36,-5.01,down,norm,287.284521284,306.9,291.1,285.4,293.9,0,276.5,287.6,,10,6,8.394,4.531,1.73,-1.653,-4.333,-7.784,297.6,6,356.3,-7.795,-7.597,0,-7.794,-7.662,-4.738,-4.94,-4.549,-4.617,5.134,7.567,12,-1.695,1.875,4.658,7.845,-7.618,-7.658,-2.076,2.0,272.3,276.8,273.1,283.6,302.6,300.6,289.4,282.6,286.7,296.0,3,norm,1.883,1.597,-1.126,-1.405,-4.604,-4.308,-1.399,-1.367,-1.129,-1.819,1.494,-1.763,282.7,286.4,-4.839,-7.75,1.808,-1.221,8.125,5.003,-5.047,-7.866,24,4.394,5.163,4.825,4.615,2.072,1.772,1.891,1.17,24,5.181,5.222,-30,231.424464949,norm,0,89,89,89,450.867,450.877,450.888538209,450.889,450.89,450.893,down,1,0.738461041574,9.26153895843,001,004,1920_1080,Intel(R) Core(TM) i5-3570 CPU @ 3.40GHz,orientation_search,LEPPC096,Intel(R) HD Graphics 2500,2018_Sep_28_1211,testMonitor,
297.9,307.0,292.3,296.2,36,0,283.4,279.7,277.7,272.5,7.691,7.556,8.464,8.398,8.483,7.962,7.976,4.375,-5.022,-8.451,1.559,-1.116,7.555,4.961,-4.948,-8.193,295.7,294.8,-8.27,291.7,276.1,277.1,271.9,267.3,36,292.6,0,5,prime,10,0,96,norm,36,-5.18,down,norm,287.284521284,287.5,289.8,288.9,277.7,0,294.5,287.3,300.0,10,6,7.797,5.068,1.6,-1.309,-5.067,-7.51,300.9,6,383.3,-7.869,-8.146,0,-7.631,-7.845,-4.68,-4.968,-4.624,-5.266,4.93,8.237,0,-1.783,1.454,4.921,7.861,-7.845,-7.757,-1.665,2.059,280.6,274.4,290.4,292.2,286.3,,283.2,271.6,287.7,292.6,4,norm,1.303,1.305,-1.841,-1.462,-4.508,-4.454,-1.298,-2.04,-1.856,-1.3,1.768,-1.74,299.2,307.3,-4.677,-8.367,1.626,-1.728,8.041,5.243,-5.074,-8.483,24,4.726,4.324,4.604,4.823,1.482,1.603,1.743,1.383,24,4.778,5.035,-30,231.424464949,norm,0,90,90,90,451.669,451.679,451.685209372,451.685,451.687,451.69,down,1,1.97553101802,8.02446898198,001,004,1920_1080,Intel(R) Core(TM) i5-3570 CPU @ 3.40GHz,orientation_search,LEPPC096,Intel(R) HD Graphics 2500,2018_Sep_28_1211,testMonitor,
292.4,275.7,290.8,298.8,36,0,301.1,292.6,267.3,293.4,8.374,8.148,8.053,7.651,7.937,8.221,8.103,4.918,-4.679,-7.882,1.473,-1.562,8.125,4.496,-5.219,-7.537,291.1,271.7,-8.036,283.0,274.7,269.3,284.8,293.1,36,,4,5,prime,10,0,87,norm,36,-4.609,up,norm,287.284521284,290.1,281.0,280.5,284.6,3,280.5,285.4,292.3,10,6,7.832,4.606,1.104,-1.519,-5.185,-7.83,272.4,6,374.3,-8.056,-8.302,0,-8.059,-8.207,-4.305,-4.673,-4.928,-4.812,4.583,7.917,27,-1.102,1.109,4.522,7.793,-7.862,-8.034,-1.252,1.867,281.4,299.1,286.4,297.5,282.6,279.7,307.3,293.1,288.7,285.3,5,norm,1.77,2.052,-1.748,-1.591,-5.005,-4.993,-1.918,-1.403,-1.778,-1.638,1.755,-1.41,281.6,304.4,-5.222,-7.791,1.343,-1.89,8.149,4.755,-4.766,-7.616,24,4.937,4.531,5.046,4.753,1.252,1.211,1.592,1.697,24,4.981,4.667,-30,231.424464949,norm,0,91,91,91,453.682,453.692,453.698451733,453.699,453.7,453.703,up,1,1.54902051931,8.45097948069,001,004,1920_1080,Intel(R) Core(TM) i5-3570 CPU @ 3.40GHz,orientation_search,LEPPC096,Intel(R) HD Graphics 2500,2018_Sep_28_1211,testMonitor,
415.0,402.5,400.9,401.2,36,30,398.4,414.6,405.4,409.4,7.723,7.819,7.638,7.888,8.035,7.604,7.54,4.798,-4.841,-8.076,1.897,-1.126,8.078,4.983,-4.887,-8.238,403.9,402.2,-8.253,396.1,414.8,407.3,404.3,415.3,36,403.4,0,5,probe,5,0,116,norm,36,-4.562,up,norm,405.721024263,405.3,399.5,406.5,405.8,3,409.0,405.3,411.7,10,6,7.784,4.713,1.183,-1.909,-4.655,-8.431,407.4,2,289.7,-8.133,-7.505,0,-8.353,-7.637,-4.735,-4.554,-4.837,-4.414,5.184,7.581,3,-2.081,1.331,4.378,7.656,-8.024,-7.514,-1.195,1.668,409.0,402.9,,415.7,405.5,404.7,395.7,406.5,403.4,413.8,0,norm,1.39,1.411,-1.97,-1.759,-5.041,-5.225,-1.311,-1.413,-1.53,-1.686,2.031,-2.042,404.9,402.3,-4.66,-7.875,1.389,-1.811,8.333,4.778,-5.099,-8.059,25,5.243,4.39,4.948,4.675,1.49,1.516,1.317,1.447,25,5.114,4.322,0,287.284521284,norm,0,92,92,92,455.273,455.282,455.290473475,455.291,455.292,455.295,up,1,1.83769317121,8.16230682879,001,004,1920_1080,Intel(R) Core(TM) i5-3570 CPU @ 3.40GHz,orientation_search,LEPPC096,Intel(R) HD Graphics 2500,2018_Sep_28_1211,testMonitor,
385.7,368.0,375.8,375.1,36,30,376.1,376.2,377.7,371.4,8.352,8.063,7.974,7.773,7.702,7.775,7.908,4.775,-4.786,-7.971,1.208,-1.307,7.883,4.418,-5.02,-8.192,369.9,374.7,-7.79,376.7,377.4,377.5,370.6,376.6,36,369.5,0,5,probe,5,0,86,norm,36,-4.768,up,norm,375.721024263,383.9,384.1,365.7,382.2,5,375.8,375.1,366.3,10,6,7.959,4.867,1.712,-1.765,-5.035,-8.131,377.7,2,289.7,-7.54,-8.26,0,-8.082,-7.866,-5.242,-4.36,-4.996,-5.189,5.218,7.908,5,-1.686,2.049,4.82,8.168,-8.194,-8.395,-2.075,1.646,370.0,368.5,370.4,374.1,374.1,384.0,367.9,375.4,,377.0,1,norm,1.51,1.873,-1.179,-1.814,-4.472,-4.73,-1.897,-1.853,-1.823,-2.052,1.446,-1.159,378.1,381.2,-4.452,-8.059,2.015,-1.56,8.308,5.288,-4.66,-8.109,25,4.405,5.258,4.694,4.51,1.588,1.457,1.496,1.656,25,5.112,4.612,0,287.284521284,norm,0,93,93,93,457.166,457.179,457.197993679,457.198,457.2,457.203,up,1,0.728893978712,9.27110602129,001,004,1920_1080,Intel(R) Core(TM) i5-3570 CPU @ 3.40GHz,orientation_search,LEPPC096,Intel(R) HD Graphics 2500,2018_Sep_28_1211,testMonitor,
56.0,62.1,49.2,57.5,36,30,49.9,73.2,66.2,64.7,7.685,7.978,7.66,7.927,8.171,7.81,7.992,5.151,-4.769,-8.404,1.169,-1.245,7.801,4.741,-4.901,-8.443,49.1,52.5,-7.671,60.6,72.5,63.5,44.4,68.9,36,44.1,0,5,prime,10,0,65,norm,36,-4.329,up,norm,61.6543039784,48.3,63.9,58.9,73.1,3,52.2,77.0,71.6,10,6,7.544,5.138,2.041,-1.743,-5.217,-7.774,62.5,6,126.7,-7.749,-7.79,30,-8.117,-8.416,-5.054,-4.316,-4.637,-4.593,5.128,7.502,3,-1.331,1.839,5.081,7.665,-7.907,-8.347,-1.593,1.535,71.6,55.3,,49.8,71.2,81.7,52.1,67.4,63.8,58.1,0,norm,1.75,1.957,-1.962,-2.058,-4.88,-4.706,-1.372,-1.835,-1.974,-1.997,1.287,-1.976,62.1,73.5,-4.306,-7.626,2.085,-2.081,7.626,4.705,-4.723,-8.169,26,4.985,4.837,4.321,5.146,1.191,1.326,1.857,1.138,26,4.688,4.519,30,287.284521284,norm,0,94,94,94,457.971,457.981,457.989121711,457.989,457.991,457.994,up,1,0.753574254082,9.24642574592,001,004,1920_1080,Intel(R) Core(TM) i5-3570 CPU @ 3.40GHz,orientation_search,LEPPC096,Intel(R) HD Graphics 2500,2018_Sep_28_1211,testMonitor,
61.2,46.7,63.9,59.5,36,30,43.5,63.8,68.3,66.3,8.378,7.601,8.043,8.125,7.562,8.208,7.915,4.94,-4.506,-8.312,1.421,-1.886,7.985,5.084,-4.737,-7.924,52.6,52.1,-8.305,49.1,67.7,57.7,67.6,51.8,36,74.3,1,5,prime,10,0,86,norm,36,-4.436,up,norm,61.6543039784,49.7,52.8,50.6,64.3,3,69.4,70.9,69.8,10,6,7.845,4.34,1.667,-1.49,-5.171,-8.196,59.0,6,147.7,-7.71,-8.259,30,-7.518,-8.49,-4.67,-5.206,-4.535,-5.249,4.622,7.671,9,-1.565,1.464,4.605,8.485,-8.268,-7.574,-1.419,2.097,,71.0,80.2,41.7,47.1,62.6,57.5,81.7,51.4,55.1,1,norm,1.203,1.734,-2.061,-1.21,-5.114,-4.653,-2.024,-1.528,-1.609,-2.006,1.954,-1.579,62.6,58.6,-4.803,-8.19,1.502,-1.787,8.153,5.095,-4.775,-8.48,26,4.335,4.357,5.052,4.9,1.524,1.491,1.457,1.328,26,4.589,4.53,30,287.284521284,norm,0,95,95,95,458.767,458.777,458.782980861,458.783,458.785,458.788,up,1,1.07818881721,8.92181118279,001,004,1920_1080,Intel(R) Core(TM) i5-3570 CPU @ 3.40GHz,orientation_search,LEPPC096,Intel(R) HD Graphics 2500,2018_Sep_28_1211,testMonitor,
