d_ori_22,d_ori_23,d_ori_20,d_ori_21,set_size,ctpd,d_ori_24,d_ori_25,d_ori_28,d_ori_29,stim_pos_x_30,stim_pos_x_31,stim_pos_x_32,stim_pos_x_33,stim_pos_x_34,stim_pos_x_35,stim_pos_y_11,stim_pos_y_10,stim_pos_y_13,stim_pos_y_12,stim_pos_y_15,stim_pos_y_14,stim_pos_y_17,stim_pos_y_16,stim_pos_y_19,stim_pos_y_18,d_ori_35,d_ori_34,stim_pos_x_3,d_ori_31,d_ori_30,d_ori_33,d_ori_32,d_ori_26,test_set_size,d_ori_27,targetCol,dsd_test,seq_type,dsd,blockRepN,targetDist,dtype_test,prime_set_size,stim_pos_y_25,correctResponse,dtype,distrMean,d_ori_17,d_ori_16,stim_pos_y_3,d_ori_14,targetRow,d_ori_11,d_ori_13,d_ori_12,dsd_prime,streak_length_prime,stim_pos_y_35,stim_pos_y_34,stim_pos_y_33,stim_pos_y_32,stim_pos_y_31,stim_pos_y_30,d_ori_10,nextProbe,targetOri,stim_pos_x_1,stim_pos_x_2,ctpd_prime,stim_pos_x_4,stim_pos_x_5,stim_pos_x_6,stim_pos_x_7,stim_pos_x_8,stim_pos_x_9,stim_pos_y_28,stim_pos_y_29,targetPos,stim_pos_y_20,stim_pos_y_21,stim_pos_y_22,stim_pos_y_23,stim_pos_y_24,stim_pos_x_0,stim_pos_y_26,stim_pos_y_27,d_ori_9,d_ori_8,d_ori_3,d_ori_2,d_ori_1,d_ori_0,d_ori_7,d_ori_6,d_ori_5,d_ori_4,trialN,dtype_prime,stim_pos_x_18,stim_pos_x_19,stim_pos_x_12,stim_pos_x_13,stim_pos_x_10,stim_pos_x_11,stim_pos_x_16,stim_pos_x_17,stim_pos_x_14,stim_pos_x_15,stim_pos_y_9,stim_pos_y_8,d_ori_19,d_ori_18,stim_pos_y_1,stim_pos_y_0,d_ori_15,stim_pos_y_2,stim_pos_y_5,stim_pos_y_4,stim_pos_y_7,stim_pos_y_6,totBlockN,stim_pos_x_27,stim_pos_x_26,stim_pos_x_25,stim_pos_x_24,stim_pos_x_23,stim_pos_x_22,stim_pos_x_21,stim_pos_x_20,blockN,stim_pos_x_29,stim_pos_x_28,prevDistrCTPD,prevDistrMean,prevDistrType,trials.thisRepN,trials.thisTrialN,trials.thisN,trials.thisIndex,timeStart,timeBeforeDraw,timeDraw,timeAfterSaving,timeAfterWritingToTemp,timeAfterPreparingNext,answer,correct,rt,trialScore,session,participant,resolution,cpu_info,expName,pc_name,graphic_card,date,monitorName,
115.7,100.4,126.8,101.2,36,0,,98.3,91.5,103.0,7.578,8.304,7.93,8.095,7.922,8.187,7.729,4.986,-5.079,-7.918,1.739,-1.707,8.167,4.379,-4.68,-7.887,103.8,116.8,-7.602,106.0,109.8,107.1,118.2,110.9,36,102.8,4,5,prime,10,0,116,norm,36,-5.243,down,norm,106.780919015,86.8,100.1,1.412,116.9,0,99.8,101.2,110.1,10,6,7.614,5.267,2.072,-1.412,-4.477,-7.565,114.5,6,222.8,-8.058,-8.331,0,-8.037,-7.834,-4.318,-4.812,-4.427,-4.791,4.488,7.593,24,-1.936,1.78,4.577,8.163,-8.377,-8.339,-1.181,1.986,103.8,101.5,116.4,98.9,118.6,112.4,105.2,102.1,114.6,113.4,0,norm,2.035,1.805,-1.561,-1.382,-4.317,-4.969,-2.1,-1.537,-2.035,-1.689,1.144,-1.712,103.3,108.9,-4.433,-7.662,93.7,-1.686,7.861,4.332,-4.941,-8.069,0,4.801,4.489,4.681,4.575,1.689,1.79,1.347,1.673,0,4.624,4.978,,,,0,0,0,0,87.828,87.852,87.8600699046,87.86,87.861,87.864,down,1,2.96563445571,7.03436554429,001,319,1366_768,Intel(R) Core(TM) i5-3320M CPU @ 2.60GHz,orientation_search,GRVLAPTOP6,Intel(R) HD Graphics 4000,2018_nov_08_1408,testMonitor,
114.1,103.3,118.3,100.2,36,0,89.9,110.0,117.6,90.5,8.181,7.594,7.736,8.129,7.62,7.671,7.562,4.509,-4.936,-8.196,1.774,-1.31,7.78,4.734,-5.131,-8.017,103.8,116.8,-8.461,91.9,94.2,108.2,92.1,110.6,36,97.9,0,5,prime,10,0,101,norm,36,-5.01,down,norm,106.780919015,102.4,104.0,1.474,126.8,0,101.1,106.7,86.8,10,6,8.173,5.071,1.291,-1.154,-4.606,-8.29,116.4,6,207.8,-7.546,-7.975,0,-8.352,-7.54,-5.256,-4.497,-4.468,-4.596,4.999,8.383,0,-1.817,1.511,4.98,7.562,-8.155,-8.426,-1.394,1.813,119.0,120.7,91.7,119.9,97.6,,97.9,96.6,113.1,120.8,1,norm,1.456,1.591,-1.984,-1.744,-5.135,-4.717,-1.232,-1.256,-1.711,-1.394,1.462,-1.366,101.5,97.0,-4.897,-8.219,117.6,-1.268,8.49,4.467,-5.058,-8.195,0,4.646,5.29,4.349,4.766,1.784,1.528,1.269,1.219,0,4.431,4.725,,,,0,1,1,1,90.863,90.877,90.8941513577,90.895,90.898,90.906,up,0,3.80397909342,-10,001,319,1366_768,Intel(R) Core(TM) i5-3320M CPU @ 2.60GHz,orientation_search,GRVLAPTOP6,Intel(R) HD Graphics 4000,2018_nov_08_1408,testMonitor,
118.0,98.5,114.3,111.2,36,0,118.3,107.4,126.8,120.9,8.331,8.333,8.212,7.87,7.702,8.434,8.446,4.34,-5.113,-8.382,1.695,-1.865,7.518,4.914,-4.584,-7.849,126.5,104.5,-8.089,91.8,100.2,,113.2,86.8,36,96.4,5,5,prime,10,0,70,norm,36,-5.243,up,norm,106.780919015,109.4,123.0,1.551,100.3,3,95.8,98.1,101.8,10,6,8.211,4.833,2.085,-2.098,-5.011,-8.126,106.0,6,176.8,-7.989,-8.22,0,-7.845,-8.035,-4.984,-4.915,-4.712,-5.045,5.229,7.801,33,-1.803,1.486,4.397,8.259,-8.473,-8.354,-1.989,2.029,115.9,90.0,107.7,105.9,100.5,100.2,115.2,106.1,108.1,117.9,2,norm,1.983,1.908,-1.806,-1.246,-4.947,-5.221,-1.367,-1.459,-1.612,-1.169,1.746,-2.019,100.6,111.8,-4.38,-7.803,101.7,-1.482,8.424,4.746,-4.609,-8.262,0,4.662,4.845,4.321,4.958,1.918,1.98,1.591,2.055,0,5.201,5.171,,,,0,2,2,2,95.776,95.782,95.7994537864,95.8,95.802,95.805,down,0,1.83920639399,-10,001,319,1366_768,Intel(R) Core(TM) i5-3320M CPU @ 2.60GHz,orientation_search,GRVLAPTOP6,Intel(R) HD Graphics 4000,2018_nov_08_1408,testMonitor,
102.9,111.8,101.5,90.7,36,0,93.7,126.7,106.5,90.2,7.974,7.967,8.371,8.092,7.946,7.678,8.402,4.94,-4.784,-7.59,1.357,-1.253,8.496,4.816,-4.459,-7.751,113.6,109.5,-8.21,111.0,106.9,102.7,98.6,110.5,36,101.2,0,5,prime,10,0,98,norm,36,-4.771,down,norm,106.780919015,100.2,123.2,2.072,102.7,2,111.0,109.7,111.7,10,6,8.364,4.915,1.893,-1.116,-4.559,-8.407,101.3,6,204.8,-8.015,-8.392,0,-8.03,-8.0,-5.237,-5.004,-4.72,-4.74,4.47,8.264,2,-1.895,1.659,4.927,7.715,-7.903,-7.706,-1.741,1.55,96.2,126.8,120.3,,109.7,103.8,86.8,108.5,116.2,110.2,3,norm,1.612,1.233,-1.431,-1.678,-4.309,-4.676,-1.291,-1.236,-1.253,-1.387,1.775,-2.015,103.4,112.7,-5.133,-8.078,100.6,-1.67,8.242,5.047,-5.205,-7.681,0,4.475,4.997,4.528,5.007,1.836,1.478,1.198,1.212,0,4.845,5.204,,,,0,3,3,3,98.71,98.716,98.7322269189,98.732,98.735,98.738,down,1,1.82355727933,8.17644272067,001,319,1366_768,Intel(R) Core(TM) i5-3320M CPU @ 2.60GHz,orientation_search,GRVLAPTOP6,Intel(R) HD Graphics 4000,2018_nov_08_1408,testMonitor,
86.8,95.4,112.1,111.1,36,0,90.0,107.2,116.0,122.6,7.826,8.433,8.095,7.727,7.952,8.169,7.599,4.324,-4.904,-7.981,1.184,-1.334,7.713,4.88,-4.865,-7.638,120.4,120.7,-8.482,103.3,105.8,105.4,121.3,94.0,36,104.7,0,5,prime,10,0,70,norm,36,-5.12,up,norm,106.780919015,115.4,114.1,1.759,102.4,5,112.9,113.3,118.7,10,6,7.58,4.97,1.953,-1.935,-5.218,-7.626,126.8,6,176.8,-8.153,-7.709,0,-8.458,-7.63,-4.396,-4.837,-4.524,-4.451,5.113,7.74,5,-1.195,1.704,4.938,8.298,-7.928,-8.272,-1.483,1.757,104.5,96.6,113.0,104.5,98.4,100.1,95.6,111.1,,87.9,4,norm,1.726,1.264,-1.961,-1.363,-5.221,-4.563,-1.283,-1.604,-1.558,-1.947,1.438,-2.082,108.2,100.0,-5.272,-7.762,110.6,-1.147,8.061,5.265,-5.276,-8.329,0,4.865,4.386,4.548,4.305,1.82,1.554,1.563,1.133,0,5.226,5.127,,,,0,4,4,4,100.594,100.609,100.625246258,100.626,100.632,100.64,up,1,4.04858353504,5.95141646496,001,319,1366_768,Intel(R) Core(TM) i5-3320M CPU @ 2.60GHz,orientation_search,GRVLAPTOP6,Intel(R) HD Graphics 4000,2018_nov_08_1408,testMonitor,
102.4,108.0,86.8,100.9,36,0,103.1,94.0,106.3,108.2,7.911,8.483,7.975,7.581,7.832,7.736,8.276,4.391,-5.083,-7.974,1.711,-1.169,8.18,5.234,-4.663,-7.572,108.8,90.8,-7.955,126.3,118.7,90.6,94.6,91.3,36,92.8,2,5,prime,10,0,82,norm,36,-5.021,down,norm,106.780919015,113.2,103.3,1.286,121.7,0,115.7,100.7,,10,6,8.019,5.051,1.518,-1.878,-4.477,-7.8,102.8,6,188.8,-8.085,-7.75,0,-7.911,-7.711,-5.125,-4.949,-4.729,-4.885,5.118,8.461,12,-1.924,2.098,4.728,7.922,-7.837,-7.56,-2.038,2.087,120.6,107.7,97.4,122.2,106.8,109.6,105.5,111.5,112.2,107.5,5,norm,1.425,1.442,-2.054,-1.615,-4.759,-4.609,-1.928,-1.86,-1.69,-1.788,1.145,-1.686,126.8,98.6,-5.276,-8.271,100.3,-1.28,7.581,4.9,-4.448,-7.522,0,5.186,4.5,5.135,5.096,1.262,2.013,1.225,1.283,0,4.712,4.515,,,,0,5,5,5,104.722,104.736,104.753692592,104.754,104.758,104.763,down,1,2.81959264729,7.18040735271,001,319,1366_768,Intel(R) Core(TM) i5-3320M CPU @ 2.60GHz,orientation_search,GRVLAPTOP6,Intel(R) HD Graphics 4000,2018_nov_08_1408,testMonitor,
181.3,201.1,186.2,190.5,36,80,189.3,186.6,187.7,186.5,8.363,8.08,8.003,8.177,7.764,7.699,7.876,4.646,-5.18,-8.331,1.595,-1.121,8.063,5.291,-5.276,-7.879,189.3,190.1,-7.63,197.7,190.0,195.6,194.5,187.4,36,197.5,0,5,probe,5,0,89,norm,36,-4.763,up,norm,191.109871153,185.1,195.0,1.472,185.0,3,181.9,185.8,199.3,10,6,8.43,5.028,1.193,-1.637,-5.09,-8.02,192.9,2,102.1,-7.852,-8.149,0,-8.35,-8.44,-4.5,-4.364,-4.314,-4.513,4.798,7.709,3,-1.895,2.062,5.299,8.114,-7.863,-8.161,-1.135,1.515,194.7,189.7,,189.4,190.7,199.5,200.8,181.1,196.2,186.1,0,norm,1.869,1.403,-2.05,-1.477,-4.402,-4.75,-1.911,-1.593,-1.836,-1.309,1.882,-1.248,193.8,199.8,-5.203,-8.266,182.9,-1.599,7.526,5.168,-4.642,-7.638,1,4.655,4.311,4.831,4.862,1.161,1.571,1.357,1.314,1,4.992,4.469,0,106.780919015,norm,0,6,6,6,107.616,107.628,107.647288411,107.648,107.654,107.663,up,1,2.50831964243,7.49168035757,001,319,1366_768,Intel(R) Core(TM) i5-3320M CPU @ 2.60GHz,orientation_search,GRVLAPTOP6,Intel(R) HD Graphics 4000,2018_nov_08_1408,testMonitor,
208.5,208.5,205.1,209.8,36,80,202.9,204.4,205.9,197.1,7.984,8.108,8.28,7.593,8.466,8.253,7.865,4.842,-4.486,-8.066,1.291,-1.782,8.242,4.552,-5.129,-7.631,202.9,199.3,-7.952,205.3,204.6,210.5,207.4,206.6,36,205.1,2,5,probe,5,0,102,norm,36,-4.722,up,norm,204.109871153,210.4,,1.207,202.0,4,208.6,202.6,209.9,10,6,7.571,5.244,1.167,-1.923,-4.445,-7.579,211.4,2,102.1,-8.419,-8.309,0,-7.579,-7.77,-5.294,-4.57,-5.146,-5.194,4.53,7.671,16,-1.69,1.107,4.993,8.164,-8.264,-7.725,-1.952,1.99,205.2,194.1,205.6,214.1,206.9,201.5,204.8,203.8,198.2,210.1,1,norm,1.668,1.336,-1.347,-1.807,-5.242,-5.12,-1.662,-1.636,-1.631,-1.499,2.007,-1.46,202.8,195.1,-5.272,-7.547,206.9,-1.348,8.409,5.227,-5.061,-8.066,1,5.287,4.562,4.874,4.607,1.847,1.139,1.806,1.549,1,4.556,4.476,0,106.780919015,norm,0,7,7,7,110.204,110.217,110.235747041,110.236,110.242,110.251,up,1,1.52702224287,8.47297775713,001,319,1366_768,Intel(R) Core(TM) i5-3320M CPU @ 2.60GHz,orientation_search,GRVLAPTOP6,Intel(R) HD Graphics 4000,2018_nov_08_1408,testMonitor,
251.7,257.1,258.5,284.6,36,0,259.6,273.6,252.6,260.0,8.188,7.528,7.857,8.083,7.754,7.782,7.984,5.047,-4.352,-8.245,1.825,-1.879,8.238,5.095,-4.983,-7.608,266.8,264.8,-7.715,263.1,266.1,250.8,252.9,253.9,36,266.4,1,5,prime,10,0,107,norm,36,-4.783,down,norm,264.569736452,274.8,264.2,1.603,263.1,1,254.4,268.5,257.5,10,5,7.674,4.468,1.183,-1.362,-4.897,-8.282,244.6,5,371.6,-7.814,-7.767,0,-8.265,-7.792,-4.9,-5.242,-5.153,-4.481,4.365,7.806,7,-1.42,1.52,4.893,7.779,-8.06,-8.036,-1.248,1.658,258.9,262.0,270.4,277.5,258.9,266.6,,256.2,277.0,270.9,0,norm,1.944,1.264,-1.294,-1.809,-5.134,-4.808,-1.414,-1.778,-1.716,-1.715,1.764,-1.542,275.8,256.3,-4.738,-7.847,250.5,-1.716,8.128,4.636,-4.637,-7.856,2,4.364,4.984,5.287,4.396,2.033,1.334,1.547,1.585,2,4.789,4.651,80,106.780919015,norm,0,8,8,8,111.811,111.824,111.842634453,111.843,111.849,111.857,down,1,1.59785220781,8.40214779219,001,319,1366_768,Intel(R) Core(TM) i5-3320M CPU @ 2.60GHz,orientation_search,GRVLAPTOP6,Intel(R) HD Graphics 4000,2018_nov_08_1408,testMonitor,
260.8,268.8,268.1,259.8,36,0,273.4,278.1,275.2,252.7,8.37,7.952,7.504,7.581,8.432,7.793,8.415,5.105,-4.984,-8.025,1.674,-1.738,7.796,4.807,-5.277,-8.326,273.9,271.1,-7.819,280.4,258.4,260.3,248.4,264.9,36,279.9,2,5,prime,10,0,92,norm,36,-4.846,down,norm,264.569736452,256.6,251.0,1.413,247.7,1,244.6,,264.5,10,5,7.843,4.795,1.318,-1.819,-4.751,-8.112,269.2,5,356.6,-7.734,-8.061,0,-7.771,-7.648,-4.35,-4.873,-4.748,-4.786,4.775,7.932,13,-1.391,1.271,4.978,7.814,-8.294,-8.269,-1.981,1.918,265.7,264.4,259.5,268.3,266.8,252.9,274.9,265.7,259.4,253.1,1,norm,2.085,1.439,-1.596,-1.126,-5.001,-4.705,-1.94,-1.504,-1.15,-1.421,1.516,-1.131,274.0,284.6,-4.309,-7.802,265.3,-1.939,8.14,4.444,-4.837,-8.373,2,4.832,5.058,4.998,4.717,1.734,1.491,1.178,1.259,2,4.719,4.438,80,106.780919015,norm,0,9,9,9,113.488,113.5,113.520798711,113.521,113.525,113.53,down,1,2.61328084562,7.38671915438,001,319,1366_768,Intel(R) Core(TM) i5-3320M CPU @ 2.60GHz,orientation_search,GRVLAPTOP6,Intel(R) HD Graphics 4000,2018_nov_08_1408,testMonitor,
272.3,275.6,256.4,257.0,36,0,,271.7,264.8,269.2,8.257,8.354,8.379,7.674,8.487,7.519,8.213,5.089,-5.171,-8.206,1.462,-1.928,7.507,4.547,-5.285,-8.312,284.6,273.9,-8.016,255.6,262.2,261.7,273.4,255.1,36,262.9,4,5,prime,10,0,109,norm,36,-4.935,down,norm,264.569736452,280.0,260.0,2.054,260.0,0,271.6,255.8,265.9,10,5,8.055,5.042,1.872,-1.621,-5.251,-8.188,266.4,5,373.6,-8.376,-8.422,0,-7.95,-8.149,-4.528,-4.605,-5.246,-4.468,4.48,8.407,24,-1.895,1.63,4.95,8.02,-7.67,-7.671,-1.841,1.231,262.4,258.6,271.2,257.4,263.1,257.2,279.6,244.6,274.9,280.5,2,norm,1.19,1.586,-1.841,-1.742,-4.76,-4.995,-1.152,-1.336,-1.449,-2.004,1.863,-1.231,258.7,262.6,-4.426,-8.389,274.3,-1.302,8.284,4.528,-4.399,-7.542,2,4.579,4.623,4.911,4.975,1.937,1.739,1.157,1.819,2,5.033,4.791,80,106.780919015,norm,0,10,10,10,116.177,116.191,116.208475083,116.209,116.215,116.223,down,1,3.54035477016,6.45964522984,001,319,1366_768,Intel(R) Core(TM) i5-3320M CPU @ 2.60GHz,orientation_search,GRVLAPTOP6,Intel(R) HD Graphics 4000,2018_nov_08_1408,testMonitor,
265.8,272.6,262.4,244.6,36,0,270.9,253.7,268.4,284.6,7.888,7.736,7.858,7.526,8.216,7.614,8.333,5.275,-5.163,-8.173,1.221,-2.039,8.449,5.08,-4.735,-7.596,255.9,254.7,-8.33,251.7,261.6,257.0,268.3,268.5,36,279.7,1,5,prime,10,0,112,norm,36,-4.905,up,norm,264.569736452,246.1,247.6,1.368,261.1,4,258.2,273.5,244.8,10,5,7.712,4.72,1.701,-2.013,-4.986,-8.009,,5,376.6,-8.4,-8.308,0,-8.009,-8.21,-4.96,-4.389,-5.074,-4.828,5.214,8.367,10,-2.036,1.812,4.847,8.041,-7.823,-8.329,-1.516,1.153,261.8,276.8,266.0,273.8,251.4,267.7,281.3,258.6,254.7,271.8,3,norm,1.703,1.641,-1.703,-1.655,-4.757,-4.395,-1.529,-1.137,-1.632,-1.176,1.607,-1.261,255.7,266.3,-4.907,-8.043,262.5,-1.94,8.006,4.862,-4.433,-8.329,2,5.294,4.832,5.256,4.686,1.681,1.953,1.807,1.3,2,5.16,4.321,80,106.780919015,norm,0,11,11,11,119.797,119.809,119.828642471,119.829,119.835,119.842,down,0,5.22435810813,-10,001,319,1366_768,Intel(R) Core(TM) i5-3320M CPU @ 2.60GHz,orientation_search,GRVLAPTOP6,Intel(R) HD Graphics 4000,2018_nov_08_1408,testMonitor,
284.6,264.4,244.6,261.2,36,0,264.8,262.6,270.4,271.5,8.078,8.186,8.389,8.363,8.32,8.239,8.036,5.179,-4.741,-7.626,1.632,-1.815,7.63,4.88,-4.395,-7.724,272.7,267.5,-7.797,263.2,262.8,265.5,275.4,258.3,36,,4,5,prime,10,0,103,norm,36,-4.972,up,norm,264.569736452,272.5,263.0,1.284,271.3,3,278.1,278.8,268.4,10,5,8.113,4.572,1.895,-2.008,-4.387,-8.175,261.7,5,367.6,-7.509,-8.2,0,-8.261,-8.028,-4.846,-4.388,-5.199,-4.683,4.717,8.36,27,-1.272,1.391,4.935,8.354,-7.605,-7.736,-1.169,1.808,268.5,270.3,265.1,266.4,257.2,273.3,248.0,277.7,263.1,258.3,4,norm,1.695,1.216,-1.903,-1.141,-5.04,-4.918,-2.09,-1.673,-1.7,-1.119,1.208,-1.145,254.9,279.4,-4.691,-8.289,257.8,-1.923,8.145,5.194,-4.645,-7.614,2,4.848,5.015,4.485,4.437,1.908,1.602,1.455,1.368,2,4.866,4.904,80,106.780919015,norm,0,12,12,12,126.132,126.137,126.147898476,126.148,126.15,126.154,down,0,1.67772567465,-10,001,319,1366_768,Intel(R) Core(TM) i5-3320M CPU @ 2.60GHz,orientation_search,GRVLAPTOP6,Intel(R) HD Graphics 4000,2018_nov_08_1408,testMonitor,
338.3,338.0,338.6,331.9,36,-20,337.4,332.5,324.2,332.0,7.765,7.932,8.083,8.03,8.153,7.886,7.785,4.756,-5.013,-7.897,1.283,-2.058,7.518,4.966,-5.172,-8.257,328.3,339.0,-8.098,335.8,332.8,339.2,335.8,333.3,36,333.7,0,5,probe,5,0,70,norm,36,-4.5,down,norm,333.554757122,338.6,333.1,1.138,333.5,2,334.4,326.7,335.3,10,5,7.856,4.39,1.401,-1.999,-4.835,-8.036,333.4,1,263.6,-7.648,-7.987,0,-8.254,-8.012,-4.651,-4.422,-5.054,-4.604,4.781,7.552,2,-2.048,1.39,4.809,7.616,-8.386,-7.524,-1.54,1.273,337.1,330.5,330.6,,331.4,339.9,333.0,343.6,329.1,334.6,0,norm,1.491,1.425,-1.742,-1.379,-4.666,-5.148,-1.119,-1.372,-1.566,-2.041,1.358,-1.357,323.6,325.9,-5.112,-7.605,332.0,-1.476,8.487,5.106,-4.331,-7.606,3,4.926,4.505,4.378,5.274,2.043,1.809,1.554,1.252,3,4.501,4.718,0,264.569736452,norm,0,13,13,13,128.896,128.902,128.917720649,128.918,128.92,128.923,down,1,1.21335441693,8.78664558307,001,319,1366_768,Intel(R) Core(TM) i5-3320M CPU @ 2.60GHz,orientation_search,GRVLAPTOP6,Intel(R) HD Graphics 4000,2018_nov_08_1408,testMonitor,
17.1,47.2,22.5,17.0,36,60,32.4,25.5,15.4,18.7,7.635,7.501,7.676,7.92,8.446,7.911,8.342,4.729,-5.184,-7.852,1.952,-1.418,8.325,5.011,-5.053,-8.415,27.0,29.8,-8.177,32.0,,7.5,35.2,34.5,36,18.5,5,5,prime,10,0,99,norm,36,-4.898,down,norm,27.523919477,38.7,20.9,1.605,47.0,0,29.2,20.7,22.0,10,5,8.155,5.055,1.681,-1.308,-4.424,-7.912,32.3,5,126.5,-7.958,-8.338,60,-7.635,-7.584,-4.856,-4.909,-4.98,-5.044,4.559,8.291,30,-1.25,1.772,4.397,8.074,-8.01,-7.997,-1.439,1.46,18.4,19.0,28.3,17.8,36.6,12.5,47.5,25.5,23.8,25.5,0,norm,1.441,1.568,-1.664,-1.523,-5.077,-5.237,-1.825,-1.967,-1.721,-1.831,1.979,-1.588,24.7,22.4,-5.273,-7.604,20.4,-1.331,8.095,4.505,-4.839,-7.867,4,4.466,4.85,5.183,4.947,1.261,2.007,1.432,1.664,4,4.839,4.516,-20,264.569736452,norm,0,14,14,14,130.17,130.182,130.201427726,130.202,130.208,130.216,up,0,2.40875735614,-10,001,319,1366_768,Intel(R) Core(TM) i5-3320M CPU @ 2.60GHz,orientation_search,GRVLAPTOP6,Intel(R) HD Graphics 4000,2018_nov_08_1408,testMonitor,
32.0,34.5,47.5,27.9,36,60,20.6,40.4,7.5,36.4,7.558,8.337,7.523,8.158,8.37,8.362,7.682,4.831,-5.256,-7.536,1.924,-1.694,7.735,4.777,-5.082,-7.952,22.7,19.0,-7.878,38.6,24.8,25.4,25.7,19.5,36,,4,5,prime,10,0,107,norm,36,-5.156,up,norm,27.523919477,25.6,27.7,1.926,26.4,3,10.6,34.8,45.4,10,5,8.348,4.852,1.264,-1.339,-5.102,-7.625,18.6,5,134.5,-7.955,-8.352,60,-8.136,-7.887,-5.161,-4.455,-4.318,-4.655,5.227,8.063,27,-1.527,1.232,5.026,8.125,-7.814,-7.794,-1.968,1.755,26.6,17.4,26.7,36.4,26.7,31.1,26.5,26.3,40.5,26.7,1,norm,1.211,1.393,-1.861,-1.879,-4.488,-5.286,-2.065,-1.671,-1.35,-1.794,2.094,-1.683,39.3,40.6,-5.095,-7.714,21.9,-1.347,8.362,4.735,-4.449,-8.05,4,4.683,4.418,4.622,5.013,1.244,1.254,1.426,1.203,4,4.451,5.061,-20,264.569736452,norm,0,15,15,15,133.69,133.695,133.706874452,133.707,133.709,133.713,up,1,1.82474461432,8.17525538568,001,319,1366_768,Intel(R) Core(TM) i5-3320M CPU @ 2.60GHz,orientation_search,GRVLAPTOP6,Intel(R) HD Graphics 4000,2018_nov_08_1408,testMonitor,
37.3,7.5,24.3,33.6,36,60,34.1,23.6,,33.3,7.556,8.441,8.464,8.116,8.473,8.437,8.443,4.6,-4.793,-8.194,1.322,-1.848,8.175,4.484,-5.06,-8.122,44.4,32.2,-8.009,39.1,35.6,17.4,34.2,33.1,36,38.5,4,5,prime,10,0,119,norm,36,-4.602,up,norm,27.523919477,28.3,35.4,1.578,16.7,4,18.6,29.9,36.6,10,5,8.18,5.097,1.275,-1.323,-5.041,-8.378,33.2,5,146.5,-8.297,-7.643,60,-8.369,-8.455,-5.196,-4.99,-5.275,-4.509,4.616,8.474,28,-1.759,1.855,4.915,7.724,-7.882,-8.086,-2.072,1.634,34.4,32.1,33.4,9.1,33.8,13.7,37.0,27.8,26.6,47.5,2,norm,1.607,1.449,-1.692,-1.558,-4.766,-4.782,-1.271,-1.757,-1.439,-2.07,1.77,-1.447,37.6,9.3,-4.378,-8.392,23.7,-1.102,7.561,5.274,-5.203,-7.8,4,5.19,4.471,4.624,4.904,1.706,1.88,1.428,1.723,4,4.832,5.028,-20,264.569736452,norm,0,16,16,16,135.571,135.583,135.602143999,135.603,135.609,135.618,up,1,3.97815185086,6.02184814914,001,319,1366_768,Intel(R) Core(TM) i5-3320M CPU @ 2.60GHz,orientation_search,GRVLAPTOP6,Intel(R) HD Graphics 4000,2018_nov_08_1408,testMonitor,
20.3,7.5,25.0,26.6,36,60,32.6,24.8,20.1,,7.943,8.177,7.798,8.009,7.704,7.604,8.106,5.213,-4.497,-7.502,1.623,-1.413,8.032,4.443,-4.376,-8.242,47.5,23.4,-8.322,31.5,35.6,21.3,39.0,29.0,36,33.2,4,5,prime,10,0,114,norm,36,-5.294,up,norm,27.523919477,29.2,14.9,1.864,26.2,5,27.0,34.3,31.0,10,5,7.883,5.092,1.193,-2.05,-5.115,-8.027,24.1,5,141.5,-8.191,-7.91,60,-7.734,-7.656,-5.109,-5.076,-4.997,-5.058,5.072,8.456,29,-1.352,1.535,4.92,8.042,-7.814,-7.66,-2.093,1.705,27.2,36.0,13.2,45.6,24.6,33.1,31.4,27.6,25.3,15.0,3,norm,1.416,1.358,-1.922,-1.184,-4.855,-4.71,-1.47,-1.138,-1.359,-1.201,1.14,-1.211,29.5,20.4,-5.247,-8.364,38.5,-1.442,8.135,4.798,-4.391,-8.323,4,4.858,4.343,4.98,5.292,1.671,1.542,1.544,1.133,4,4.32,5.195,-20,264.569736452,norm,0,17,17,17,139.63,139.642,139.661307262,139.662,139.668,139.677,up,1,1.52671088847,8.47328911153,001,319,1366_768,Intel(R) Core(TM) i5-3320M CPU @ 2.60GHz,orientation_search,GRVLAPTOP6,Intel(R) HD Graphics 4000,2018_nov_08_1408,testMonitor,
21.1,44.0,15.8,38.9,36,60,,30.7,24.7,30.5,8.242,7.761,7.726,7.937,7.553,7.959,7.594,4.368,-4.786,-7.713,1.366,-1.505,7.686,5.14,-4.716,-7.634,26.0,34.9,-7.636,38.5,20.6,42.6,27.7,13.3,36,39.8,4,5,prime,10,0,94,norm,36,-5.052,down,norm,27.523919477,22.9,31.9,1.536,16.8,0,30.5,21.0,38.7,10,5,8.383,4.95,1.808,-1.539,-4.539,-7.692,7.5,5,121.5,-7.775,-8.06,60,-7.857,-7.521,-4.791,-4.954,-5.228,-4.33,5.037,7.805,24,-1.127,1.651,5.114,7.769,-7.689,-7.653,-2.056,1.724,29.5,16.3,37.0,18.7,10.3,25.8,28.3,34.1,25.2,31.0,4,norm,1.75,2.066,-1.846,-2.06,-5.085,-5.007,-1.336,-1.834,-1.81,-1.969,1.796,-1.315,47.5,28.6,-4.466,-8.128,42.9,-1.117,7.774,5.26,-5.052,-7.893,4,4.808,5.223,5.067,4.739,1.808,1.252,1.813,1.867,4,4.735,5.164,-20,264.569736452,norm,0,18,18,18,141.236,141.249,141.268083645,141.269,141.274,141.283,down,1,2.62816342787,7.37183657213,001,319,1366_768,Intel(R) Core(TM) i5-3320M CPU @ 2.60GHz,orientation_search,GRVLAPTOP6,Intel(R) HD Graphics 4000,2018_nov_08_1408,testMonitor,
194.0,196.8,197.5,182.0,36,30,195.0,185.4,,186.2,7.599,7.639,8.387,8.172,7.6,7.69,7.756,4.685,-4.624,-7.811,1.959,-1.336,7.915,4.382,-4.78,-7.81,191.5,194.4,-7.645,194.7,186.2,188.6,187.7,200.0,36,193.9,4,5,probe,5,0,110,norm,36,-4.743,up,norm,190.035124454,184.7,190.1,1.277,186.3,4,192.7,187.7,190.9,10,5,7.782,4.57,1.14,-1.43,-4.37,-7.552,196.3,1,80.0,-7.961,-7.858,60,-8.435,-7.792,-5.147,-4.757,-4.337,-4.35,4.719,7.873,28,-1.162,1.756,4.56,8.405,-7.873,-8.194,-1.58,1.413,180.0,190.5,196.3,192.1,194.0,186.9,190.9,190.5,186.5,191.0,0,norm,1.837,1.842,-1.157,-1.288,-5.092,-5.017,-1.752,-1.914,-1.362,-1.452,1.169,-2.096,190.3,190.2,-5.175,-8.441,189.9,-1.384,7.712,5.27,-4.44,-7.768,5,4.981,4.581,4.33,4.859,1.213,1.405,1.521,1.412,5,5.176,5.104,60,27.523919477,norm,0,19,19,19,143.944,143.957,143.976061272,143.977,143.982,143.991,up,1,1.83063980168,8.16936019832,001,319,1366_768,Intel(R) Core(TM) i5-3320M CPU @ 2.60GHz,orientation_search,GRVLAPTOP6,Intel(R) HD Graphics 4000,2018_nov_08_1408,testMonitor,
298.3,295.9,297.5,310.6,36,10,301.6,300.6,291.2,284.7,7.791,8.113,7.59,7.67,7.98,7.879,7.814,4.741,-4.686,-7.969,1.588,-1.427,8.347,5.007,-4.477,-8.16,,286.5,-7.707,292.6,299.7,291.2,277.9,305.7,36,290.2,5,5,prime,10,0,65,norm,36,-5.047,up,norm,297.855565682,311.2,301.8,1.924,317.9,5,291.4,293.6,296.2,10,6,8.114,4.631,1.272,-1.286,-5.248,-7.937,308.7,6,362.9,-8.224,-8.441,10,-8.431,-7.53,-4.306,-4.881,-4.698,-4.484,4.769,7.539,35,-1.351,1.894,4.308,8.333,-8.194,-8.092,-2.043,1.464,308.5,308.3,292.7,295.4,290.7,315.0,308.8,305.0,307.1,301.2,0,norm,1.598,1.845,-1.59,-1.248,-5.008,-4.305,-1.228,-2.043,-1.48,-1.365,1.349,-1.199,301.0,304.3,-5.123,-8.293,301.1,-1.79,8.194,4.839,-4.676,-7.809,6,4.934,4.323,4.441,5.227,1.179,2.049,1.943,1.256,6,4.769,4.7,30,27.523919477,norm,0,20,20,20,145.855,145.867,145.886600618,145.887,145.893,145.902,up,1,2.23828015416,7.76171984584,001,319,1366_768,Intel(R) Core(TM) i5-3320M CPU @ 2.60GHz,orientation_search,GRVLAPTOP6,Intel(R) HD Graphics 4000,2018_nov_08_1408,testMonitor,
294.9,306.4,292.8,296.2,36,10,296.8,287.9,282.6,307.2,7.576,7.523,7.756,8.04,8.122,7.8,8.329,4.839,-4.506,-8.357,1.778,-1.424,7.774,4.88,-4.472,-8.44,303.6,297.8,-7.985,297.6,306.3,288.7,309.1,299.0,36,300.5,0,5,prime,10,0,100,norm,36,-4.32,up,norm,297.855565682,313.0,277.9,1.917,285.9,3,301.2,280.3,283.3,10,6,8.059,4.341,1.892,-1.577,-5.004,-7.864,294.6,6,397.9,-7.775,-7.957,10,-8.122,-8.369,-5.229,-4.882,-4.352,-4.872,4.933,7.986,3,-1.85,1.892,4.332,8.219,-8.016,-7.957,-1.853,1.29,301.1,299.0,,310.5,302.3,305.1,312.9,304.5,281.4,290.1,1,norm,1.491,1.485,-1.382,-1.647,-4.484,-4.872,-1.806,-1.851,-1.859,-2.099,1.852,-1.628,317.9,310.1,-4.534,-7.508,299.9,-1.807,7.984,5.115,-4.375,-8.456,6,4.78,4.449,4.424,4.575,1.45,1.649,1.555,1.419,6,4.722,5.272,30,27.523919477,norm,0,21,21,21,148.173,148.186,148.204644791,148.205,148.211,148.22,up,1,1.51103055936,8.48896944064,001,319,1366_768,Intel(R) Core(TM) i5-3320M CPU @ 2.60GHz,orientation_search,GRVLAPTOP6,Intel(R) HD Graphics 4000,2018_nov_08_1408,testMonitor,
291.9,278.9,,313.6,36,10,293.5,299.2,299.2,294.2,8.322,8.246,7.768,7.563,7.655,7.641,8.421,5.299,-5.192,-7.52,1.907,-1.829,7.703,5.215,-4.483,-7.712,292.7,291.9,-7.522,305.6,289.1,293.6,296.1,304.9,36,297.9,3,5,prime,10,0,91,norm,36,-4.753,down,norm,297.855565682,286.5,293.0,1.654,277.9,2,288.1,294.9,298.0,10,6,8.427,4.343,1.852,-1.173,-4.412,-7.878,302.2,6,388.9,-8.069,-8.204,10,-8.312,-8.125,-4.608,-5.147,-4.733,-4.879,5.134,7.659,20,-1.773,1.212,5.237,7.913,-7.64,-7.996,-2.03,1.163,299.1,297.4,297.7,296.6,316.5,288.2,317.9,290.2,301.9,310.3,2,norm,1.908,2.037,-1.787,-2.07,-5.086,-4.814,-1.394,-1.992,-1.903,-1.819,1.901,-1.992,299.7,291.4,-4.505,-8.429,293.7,-1.515,8.275,5.085,-4.471,-8.109,6,5.032,5.216,5.037,4.638,2.013,1.166,1.958,1.942,6,4.329,5.011,30,27.523919477,norm,0,22,22,22,149.764,149.777,149.795857011,149.796,149.802,149.811,down,1,1.22045630015,8.77954369985,001,319,1366_768,Intel(R) Core(TM) i5-3320M CPU @ 2.60GHz,orientation_search,GRVLAPTOP6,Intel(R) HD Graphics 4000,2018_nov_08_1408,testMonitor,
309.1,289.8,295.9,284.6,36,10,294.2,287.7,286.5,286.1,7.861,7.758,8.459,8.28,8.061,8.312,7.941,4.571,-4.484,-7.524,1.63,-1.446,8.3,4.477,-4.678,-8.148,303.8,308.4,-8.075,304.9,,312.3,290.0,292.3,36,293.7,5,5,prime,10,0,94,norm,36,-5.097,down,norm,297.855565682,309.0,291.7,1.295,315.4,0,310.5,294.0,307.5,10,6,7.804,5.241,1.615,-1.84,-4.359,-8.387,294.7,6,391.9,-8.167,-8.021,10,-7.971,-8.164,-4.869,-4.96,-4.603,-4.708,5.153,8.393,30,-1.668,1.255,4.72,7.91,-7.697,-8.406,-1.615,1.435,317.9,292.2,277.9,290.6,307.5,302.7,304.7,300.9,310.3,287.9,3,norm,1.498,1.131,-1.468,-1.373,-4.982,-4.652,-2.035,-1.697,-1.824,-2.033,2.087,-1.594,288.0,299.8,-4.855,-7.74,284.9,-1.482,8.418,5.106,-4.618,-8.14,6,4.388,4.65,5.227,4.914,1.834,2.058,1.227,1.611,6,4.556,4.509,30,27.523919477,norm,0,23,23,23,151.064,151.076,151.096072983,151.097,151.102,151.111,down,1,2.11766469976,7.88233530024,001,319,1366_768,Intel(R) Core(TM) i5-3320M CPU @ 2.60GHz,orientation_search,GRVLAPTOP6,Intel(R) HD Graphics 4000,2018_nov_08_1408,testMonitor,
313.6,301.5,304.6,289.6,36,10,303.2,281.1,305.8,,8.223,7.615,8.401,8.456,8.144,8.238,8.144,4.348,-4.467,-7.772,1.102,-1.696,7.879,4.727,-4.847,-7.826,294.8,302.3,-8.173,300.0,303.9,308.7,295.4,299.6,36,317.9,4,5,prime,10,0,101,norm,36,-4.625,up,norm,297.855565682,295.9,277.9,1.263,314.9,5,289.0,286.3,304.0,10,6,7.546,5.151,1.334,-1.6,-4.404,-8.121,314.9,6,398.9,-7.76,-7.636,10,-7.933,-8.108,-4.716,-5.198,-4.581,-4.48,4.437,8.39,29,-1.37,1.958,4.803,8.233,-7.603,-7.604,-1.229,1.296,303.8,304.4,300.7,288.7,277.9,289.7,294.4,294.0,295.9,308.8,4,norm,2.032,1.136,-1.334,-1.208,-5.067,-4.894,-1.552,-1.649,-1.738,-1.698,1.19,-1.201,292.7,293.5,-4.718,-7.586,297.8,-1.222,8.071,4.826,-5.263,-8.044,6,4.864,4.97,5.273,5.026,1.502,2.008,1.955,1.659,6,4.719,4.835,30,27.523919477,norm,0,24,24,24,153.262,153.274,153.293355507,153.294,153.3,153.31,up,1,1.76192649349,8.23807350651,001,319,1366_768,Intel(R) Core(TM) i5-3320M CPU @ 2.60GHz,orientation_search,GRVLAPTOP6,Intel(R) HD Graphics 4000,2018_nov_08_1408,testMonitor,
309.8,278.8,290.5,299.5,36,10,282.9,298.1,293.8,287.3,8.428,7.553,8.081,8.491,8.299,7.932,8.153,5.153,-4.857,-8.462,1.538,-1.139,8.081,4.998,-4.776,-8.074,305.6,289.4,-8.451,307.6,304.5,303.5,308.1,290.8,36,299.5,1,5,prime,10,0,108,norm,36,-4.533,up,norm,297.855565682,293.4,295.8,1.85,296.5,4,280.2,299.0,299.8,10,6,7.724,4.907,1.161,-1.125,-4.822,-7.772,,6,405.9,-7.751,-7.767,10,-7.95,-8.469,-5.205,-4.708,-4.661,-5.083,4.857,8.212,10,-1.965,1.72,4.816,8.31,-7.717,-8.057,-1.797,1.944,303.4,284.2,310.0,317.9,287.6,312.3,304.8,308.0,310.7,288.5,5,norm,1.731,1.836,-1.751,-1.164,-5.061,-4.311,-1.866,-1.441,-1.976,-1.479,1.969,-1.468,285.8,277.9,-5.17,-8.256,307.5,-1.796,8.059,4.584,-4.926,-7.881,6,4.567,5.055,4.938,4.929,1.176,1.113,1.159,1.155,6,4.447,4.866,30,27.523919477,norm,0,25,25,25,155.105,155.117,155.136373227,155.137,155.143,155.152,up,1,1.60984093267,8.39015906733,001,319,1366_768,Intel(R) Core(TM) i5-3320M CPU @ 2.60GHz,orientation_search,GRVLAPTOP6,Intel(R) HD Graphics 4000,2018_nov_08_1408,testMonitor,
408.1,415.5,408.3,412.4,36,40,,414.7,414.3,413.2,8.237,8.463,7.534,8.407,7.801,8.233,7.674,4.965,-4.337,-7.522,1.846,-1.318,7.892,4.371,-4.59,-7.602,404.2,401.8,-7.842,416.4,412.8,404.6,414.2,416.7,36,403.1,4,5,probe,5,0,106,norm,36,-5.049,down,norm,411.751667101,404.5,409.0,1.141,417.8,0,417.6,413.2,402.4,10,6,7.676,5.026,1.284,-2.051,-5.017,-7.711,410.9,1,305.8,-8.198,-8.47,10,-7.539,-7.612,-4.691,-4.859,-5.049,-4.717,4.553,7.896,24,-2.082,1.288,5.044,8.369,-7.556,-7.901,-1.378,1.734,411.4,412.2,408.5,409.5,412.8,421.8,418.6,414.2,406.5,409.8,0,norm,1.72,2.014,-1.297,-2.083,-4.368,-5.09,-1.191,-1.794,-1.8,-1.457,1.446,-1.14,411.3,418.3,-5.188,-8.165,409.4,-1.852,7.899,4.946,-5.203,-7.916,7,5.124,4.452,4.774,4.751,1.834,1.928,1.953,1.701,7,4.925,5.146,10,297.855565682,norm,0,26,26,26,156.794,156.802,156.810286391,156.811,156.814,156.82,down,1,1.41335655057,8.58664344943,001,319,1366_768,Intel(R) Core(TM) i5-3320M CPU @ 2.60GHz,orientation_search,GRVLAPTOP6,Intel(R) HD Graphics 4000,2018_nov_08_1408,testMonitor,
300.0,285.9,299.5,305.1,36,60,289.2,304.2,301.2,290.4,7.585,8.366,8.294,7.967,7.818,7.95,8.026,4.888,-5.011,-8.011,1.614,-2.069,8.362,5.068,-5.06,-7.906,300.5,313.1,-7.632,294.7,314.6,289.0,311.5,292.2,36,304.5,1,5,prime,10,0,99,norm,36,-4.845,up,norm,299.284955979,294.2,292.7,1.971,310.7,3,287.4,296.0,282.1,10,6,7.681,4.97,1.901,-1.593,-4.592,-7.901,292.5,6,398.3,-8.346,-7.891,60,-7.678,-8.304,-5.084,-4.896,-4.542,-4.312,4.49,8.183,9,-1.752,1.165,4.756,8.398,-7.963,-7.631,-1.429,1.548,,279.3,310.4,297.4,297.3,280.7,311.9,290.2,315.2,319.3,0,norm,1.822,1.974,-1.906,-2.088,-4.922,-4.45,-1.34,-1.657,-1.346,-1.96,1.678,-1.943,304.3,316.0,-4.934,-7.586,299.8,-1.643,7.585,5.256,-4.568,-8.186,8,4.488,4.911,4.642,4.684,1.269,1.898,1.487,1.348,8,4.903,4.936,40,297.855565682,norm,0,27,27,27,158.266,158.278,158.297807322,158.298,158.304,158.313,up,1,1.64332615006,8.35667384994,001,319,1366_768,Intel(R) Core(TM) i5-3320M CPU @ 2.60GHz,orientation_search,GRVLAPTOP6,Intel(R) HD Graphics 4000,2018_nov_08_1408,testMonitor,
296.4,312.4,292.9,311.3,36,60,315.5,319.3,296.2,297.4,8.418,7.59,7.94,7.92,7.914,8.461,7.988,4.918,-5.269,-8.19,1.255,-1.753,7.921,4.605,-4.465,-7.876,292.5,283.5,-8.451,298.3,302.2,286.0,302.1,312.3,36,298.9,1,5,prime,10,0,93,norm,36,-4.894,up,norm,299.284955979,295.5,293.5,1.267,302.0,4,297.4,318.8,298.5,10,6,7.615,5.23,1.698,-1.818,-4.992,-7.572,,6,392.3,-7.722,-8.318,60,-7.661,-8.403,-4.511,-5.206,-5.148,-5.225,4.453,8.02,10,-1.781,2.065,4.621,7.911,-7.808,-7.878,-1.588,1.767,283.8,297.7,303.1,288.1,291.3,304.2,305.0,279.3,289.2,316.0,1,norm,2.037,1.992,-1.545,-1.583,-4.356,-4.421,-1.564,-1.97,-1.124,-1.983,1.181,-1.588,287.1,288.4,-5.052,-8.397,281.5,-1.788,7.78,4.565,-4.443,-7.622,8,5.282,4.714,4.517,4.602,1.968,1.656,1.475,1.334,8,5.129,4.664,40,297.855565682,norm,0,28,28,28,159.99,160.002,160.021115597,160.022,160.027,160.036,up,1,0.965888912859,9.03411108714,001,319,1366_768,Intel(R) Core(TM) i5-3320M CPU @ 2.60GHz,orientation_search,GRVLAPTOP6,Intel(R) HD Graphics 4000,2018_nov_08_1408,testMonitor,
279.3,306.7,294.2,314.2,36,60,289.0,315.8,286.9,284.6,7.903,8.026,8.391,7.818,8.129,7.886,8.358,4.586,-5.218,-8.348,1.41,-1.519,7.905,5.084,-4.558,-7.903,284.1,303.0,-7.544,304.6,303.7,293.1,294.0,289.8,36,287.9,2,5,prime,10,0,84,norm,36,-5.206,down,norm,299.284955979,292.4,295.0,1.822,303.8,0,319.3,308.5,,10,6,7.518,4.76,1.695,-1.675,-5.206,-8.123,299.7,6,383.3,-8.255,-8.491,60,-8.327,-7.771,-5.283,-4.827,-4.917,-4.813,4.992,7.861,12,-1.94,1.101,5.154,7.957,-7.714,-8.356,-1.299,1.55,309.6,297.3,292.5,299.6,282.8,292.2,310.0,286.5,304.2,289.3,2,norm,1.799,1.884,-1.951,-2.08,-4.655,-5.143,-1.591,-1.305,-1.113,-1.669,2.044,-1.373,292.4,288.5,-4.309,-7.851,311.7,-1.666,7.977,5.235,-4.331,-8.35,8,4.459,4.535,4.984,4.824,1.731,1.844,1.491,1.639,8,4.365,5.1,40,297.855565682,norm,0,29,29,29,161.035,161.047,161.066198766,161.067,161.073,161.081,down,1,1.49401946676,8.50598053324,001,319,1366_768,Intel(R) Core(TM) i5-3320M CPU @ 2.60GHz,orientation_search,GRVLAPTOP6,Intel(R) HD Graphics 4000,2018_nov_08_1408,testMonitor,
308.3,305.9,296.4,305.2,36,60,304.5,292.9,297.0,300.7,8.139,8.283,8.259,8.44,8.078,8.155,7.626,4.404,-5.067,-8.397,2.024,-1.392,8.196,4.905,-4.613,-8.392,293.4,285.4,-7.501,295.5,302.1,296.8,305.7,286.3,36,294.5,2,5,prime,10,0,86,norm,36,-4.706,up,norm,299.284955979,,312.1,1.889,315.4,5,317.6,294.3,319.3,10,6,8.158,4.677,1.858,-1.63,-4.685,-7.717,290.6,6,385.3,-8.328,-7.763,60,-8.195,-7.533,-5.097,-4.835,-4.527,-4.874,4.451,8.359,17,-1.883,1.407,4.967,8.023,-8.421,-7.61,-1.798,2.064,288.9,294.4,301.7,314.6,313.9,285.3,317.3,304.0,302.4,301.3,3,norm,1.552,1.748,-1.756,-1.283,-5.175,-5.247,-1.406,-1.784,-1.247,-1.4,1.807,-1.948,316.4,303.7,-4.338,-7.968,288.3,-1.525,7.521,4.321,-4.815,-8.052,8,4.583,4.852,5.141,5.271,2.036,1.624,1.161,1.121,8,4.798,4.363,40,297.855565682,norm,0,30,30,30,162.608,162.621,162.639891769,162.64,162.646,162.655,up,1,0.933336968435,9.06666303156,001,319,1366_768,Intel(R) Core(TM) i5-3320M CPU @ 2.60GHz,orientation_search,GRVLAPTOP6,Intel(R) HD Graphics 4000,2018_nov_08_1408,testMonitor,
302.1,314.3,296.3,305.3,36,60,289.2,318.1,279.3,300.7,8.114,7.52,7.554,8.104,8.368,7.624,7.812,4.533,-4.794,-8.346,1.671,-1.118,8.399,4.492,-4.419,-7.59,290.1,300.9,-8.375,307.6,308.6,319.3,284.1,304.2,36,306.1,1,5,prime,10,0,100,norm,36,-5.194,up,norm,299.284955979,317.0,296.9,1.467,298.7,4,296.4,296.6,302.8,10,6,7.916,5.061,1.901,-1.794,-4.369,-8.487,,6,399.3,-8.179,-7.931,60,-8.147,-7.713,-4.535,-5.052,-4.532,-5.278,5.229,7.592,10,-1.989,1.798,4.321,7.524,-8.169,-7.825,-1.356,1.886,297.5,298.6,296.9,295.1,316.9,297.9,299.8,300.7,306.6,297.7,4,norm,1.65,1.779,-1.722,-1.682,-4.88,-4.755,-1.472,-1.567,-1.359,-1.63,1.639,-1.714,295.4,284.9,-5.009,-7.743,307.8,-1.272,7.918,5.01,-4.65,-8.477,8,5.006,5.097,4.602,4.919,1.981,1.461,1.472,1.369,8,4.513,5.172,40,297.855565682,norm,0,31,31,31,163.621,163.633,163.652712616,163.653,163.659,163.668,up,1,1.03806268023,8.96193731977,001,319,1366_768,Intel(R) Core(TM) i5-3320M CPU @ 2.60GHz,orientation_search,GRVLAPTOP6,Intel(R) HD Graphics 4000,2018_nov_08_1408,testMonitor,
279.3,299.4,288.5,288.6,36,60,291.1,307.3,300.9,307.7,7.878,8.139,8.183,8.493,7.792,8.237,7.684,4.988,-5.146,-7.995,1.829,-1.46,8.405,4.671,-4.561,-8.178,292.1,293.5,-8.139,311.7,286.8,302.2,300.9,298.2,36,301.5,1,5,prime,10,0,104,norm,36,-5.127,up,norm,299.284955979,300.3,304.1,2.062,296.3,4,300.1,302.9,297.2,10,6,8.095,4.932,1.677,-1.483,-5.16,-8.437,,6,403.3,-7.503,-7.847,60,-8.48,-7.895,-4.97,-4.813,-4.909,-4.392,4.866,7.759,10,-1.44,1.372,5.005,8.494,-8.2,-8.422,-1.18,1.401,311.5,312.2,302.2,299.5,309.5,289.9,317.9,305.8,291.2,292.5,5,norm,1.898,2.023,-1.741,-1.756,-5.214,-5.017,-1.991,-1.139,-1.171,-2.016,1.318,-1.539,314.5,319.3,-4.303,-7.638,307.6,-2.069,8.056,4.895,-4.488,-7.561,8,4.865,4.755,4.911,4.533,1.863,1.247,1.888,2.056,8,4.614,4.406,40,297.855565682,norm,0,32,32,32,164.739,164.751,164.770568159,164.771,164.777,164.786,up,1,0.902476926978,9.09752307302,001,319,1366_768,Intel(R) Core(TM) i5-3320M CPU @ 2.60GHz,orientation_search,GRVLAPTOP6,Intel(R) HD Graphics 4000,2018_nov_08_1408,testMonitor,
461.8,465.9,468.5,470.9,36,-80,463.3,475.1,459.3,467.8,8.321,7.826,7.895,8.135,8.289,8.226,8.0,5.159,-5.079,-7.928,1.935,-2.016,8.181,5.079,-4.642,-7.945,468.5,469.7,-8.186,473.9,469.7,470.3,475.6,466.7,36,477.6,1,5,probe,5,0,99,norm,36,-5.24,up,norm,467.619269865,474.3,470.5,1.627,472.2,3,476.2,463.5,474.5,10,6,7.898,4.781,1.519,-1.11,-4.362,-7.978,465.0,1,368.6,-8.017,-8.376,60,-7.715,-8.254,-4.758,-4.448,-5.291,-5.047,4.339,7.811,9,-2.024,1.46,4.839,8.419,-7.68,-7.552,-2.015,1.143,,465.8,467.5,460.8,462.5,464.1,461.6,461.8,465.5,457.6,0,norm,1.266,1.345,-1.85,-1.68,-4.758,-5.251,-1.688,-1.959,-1.877,-2.028,1.681,-1.658,464.5,465.8,-5.182,-8.331,471.4,-1.762,7.918,4.759,-4.811,-8.027,9,5.202,4.343,4.974,4.681,1.629,2.031,1.606,1.547,9,5.027,4.359,60,299.284955979,norm,0,33,33,33,165.722,165.734,165.753357135,165.754,165.76,165.769,up,1,2.22021922827,7.77978077173,001,319,1366_768,Intel(R) Core(TM) i5-3320M CPU @ 2.60GHz,orientation_search,GRVLAPTOP6,Intel(R) HD Graphics 4000,2018_nov_08_1408,testMonitor,
,70.9,73.0,75.9,36,-40,89.0,85.8,93.6,63.3,7.518,8.084,8.206,8.095,7.824,7.976,8.326,4.827,-4.594,-7.799,1.119,-1.78,8.371,4.862,-4.337,-8.058,103.3,73.8,-8.425,83.7,81.1,92.2,77.2,71.6,36,84.1,3,5,prime,10,0,77,norm,36,-4.36,up,norm,83.3211810541,78.1,88.1,1.659,87.7,4,65.8,71.7,82.8,10,6,7.642,4.457,1.577,-1.407,-5.123,-8.257,84.8,6,160.3,-7.938,-8.358,-40,-8.396,-8.387,-4.916,-4.774,-4.314,-4.809,4.592,8.303,22,-1.818,1.98,4.319,8.399,-8.45,-7.667,-1.758,1.512,70.9,86.4,100.8,82.7,102.3,83.4,72.4,73.5,80.0,87.5,0,norm,1.275,1.695,-1.45,-1.668,-4.875,-5.128,-1.747,-1.139,-1.835,-1.564,1.309,-1.865,88.3,75.1,-4.961,-8.202,67.9,-1.728,8.088,4.439,-5.121,-8.446,10,4.444,4.905,5.262,4.357,1.902,1.59,1.899,1.854,10,5.069,4.472,-80,299.284955979,norm,0,34,34,34,168.022,168.035,168.05400853,168.055,168.06,168.069,up,1,1.98253254404,8.01746745596,001,319,1366_768,Intel(R) Core(TM) i5-3320M CPU @ 2.60GHz,orientation_search,GRVLAPTOP6,Intel(R) HD Graphics 4000,2018_nov_08_1408,testMonitor,
69.3,74.3,86.9,80.1,36,-40,,83.8,87.5,80.2,8.381,7.69,7.688,8.369,7.635,7.972,7.807,4.912,-4.887,-8.43,1.53,-2.012,8.233,4.542,-4.375,-7.904,77.0,68.0,-7.654,97.6,92.9,82.0,69.1,91.1,36,83.5,4,5,prime,10,0,118,norm,36,-4.361,down,norm,83.3211810541,83.4,84.5,1.975,97.8,0,89.4,84.8,72.1,10,6,7.75,5.119,1.472,-1.497,-5.131,-8.116,77.1,6,201.3,-8.469,-8.267,-40,-8.2,-7.587,-4.472,-4.623,-5.113,-5.266,4.504,7.841,24,-1.288,1.696,4.633,7.678,-8.423,-8.352,-1.456,1.959,63.3,66.3,79.8,80.7,103.3,72.8,82.5,76.6,90.3,79.0,1,norm,1.89,1.858,-1.455,-1.713,-4.765,-5.0,-1.645,-2.018,-1.473,-2.012,1.566,-1.496,101.2,80.1,-5.01,-8.36,78.5,-1.788,7.665,4.499,-5.109,-8.242,10,4.321,4.801,4.926,5.208,2.1,2.053,1.479,1.698,10,4.991,4.738,-80,299.284955979,norm,0,35,35,35,170.085,170.096,170.116908045,170.117,170.123,170.132,down,1,2.17097347245,7.82902652755,001,319,1366_768,Intel(R) Core(TM) i5-3320M CPU @ 2.60GHz,orientation_search,GRVLAPTOP6,Intel(R) HD Graphics 4000,2018_nov_08_1408,testMonitor,
91.9,69.8,89.6,90.0,36,-40,96.8,88.4,81.5,95.3,8.141,7.728,7.549,7.746,8.077,7.607,7.813,4.785,-4.71,-8.085,1.756,-1.128,8.278,5.005,-4.764,-8.121,98.4,91.8,-7.911,73.4,76.4,86.4,93.9,86.6,36,,4,5,prime,10,0,99,norm,36,-5.192,up,norm,83.3211810541,87.1,82.7,1.592,72.1,3,82.9,85.3,103.3,10,6,7.776,4.913,1.148,-1.195,-5.136,-7.978,63.3,6,182.3,-7.708,-7.768,-40,-8.063,-8.214,-4.47,-4.687,-4.59,-4.35,5.031,8.064,27,-1.574,1.354,5.124,7.522,-7.532,-8.362,-1.159,1.458,89.5,70.5,101.6,77.0,99.2,70.1,77.3,80.7,90.3,87.5,2,norm,1.112,1.606,-2.096,-1.183,-4.893,-4.567,-1.972,-1.797,-1.921,-1.775,1.478,-1.339,82.4,91.5,-4.341,-8.378,78.4,-1.101,8.08,5.029,-4.378,-8.221,10,5.039,4.371,4.954,5.128,2.063,1.837,1.627,1.621,10,4.738,4.937,-80,299.284955979,norm,0,36,36,36,172.336,172.348,172.367560981,172.368,172.374,172.382,up,1,2.60886696238,7.39113303762,001,319,1366_768,Intel(R) Core(TM) i5-3320M CPU @ 2.60GHz,orientation_search,GRVLAPTOP6,Intel(R) HD Graphics 4000,2018_nov_08_1408,testMonitor,
63.3,96.5,88.1,,36,-40,68.7,76.7,80.6,75.7,7.906,7.661,7.626,8.135,7.898,8.106,7.535,4.417,-5.198,-8.157,1.672,-1.532,8.292,4.505,-4.693,-8.318,78.2,83.4,-7.775,78.2,93.2,88.7,77.3,89.1,36,88.6,3,5,prime,10,0,67,norm,36,-4.682,up,norm,83.3211810541,92.8,96.3,1.527,77.9,3,82.0,94.5,86.5,10,6,8.079,5.17,2.006,-1.143,-4.858,-8.391,82.4,6,150.3,-7.688,-8.129,-40,-8.101,-7.669,-4.76,-4.335,-4.462,-4.744,4.551,8.33,21,-1.102,1.81,4.705,8.454,-8.095,-7.737,-1.806,1.684,80.3,67.7,82.6,91.6,75.9,103.3,76.1,80.6,71.4,81.1,3,norm,1.619,1.877,-1.705,-1.95,-5.084,-4.731,-1.563,-1.984,-1.892,-1.128,1.435,-1.776,80.7,91.8,-4.512,-8.481,85.2,-1.52,8.374,4.999,-5.255,-8.485,10,4.932,4.931,5.267,4.806,1.531,1.476,1.425,1.172,10,4.344,4.469,-80,299.284955979,norm,0,37,37,37,175.025,175.038,175.056178133,175.057,175.063,175.071,up,1,1.63094665172,8.36905334828,001,319,1366_768,Intel(R) Core(TM) i5-3320M CPU @ 2.60GHz,orientation_search,GRVLAPTOP6,Intel(R) HD Graphics 4000,2018_nov_08_1408,testMonitor,
,103.1,78.2,92.3,36,-40,75.5,72.1,78.3,81.6,7.773,8.338,8.439,8.226,8.217,8.145,8.054,4.403,-5.042,-8.076,1.677,-1.354,8.493,4.705,-4.826,-7.587,88.1,81.6,-7.725,84.2,73.6,67.7,98.3,94.8,36,93.9,3,5,prime,10,0,75,norm,36,-5.029,up,norm,83.3211810541,63.3,79.8,1.66,67.3,4,99.7,79.7,87.9,10,6,8.034,5.117,2.087,-1.431,-5.003,-8.335,68.6,6,158.3,-8.438,-7.645,-40,-7.93,-7.806,-4.619,-4.947,-4.948,-4.463,4.64,7.581,22,-1.204,1.77,4.514,7.909,-7.505,-7.539,-1.317,1.406,80.6,68.7,91.2,103.3,81.0,102.0,70.3,74.5,101.4,81.6,4,norm,2.06,1.832,-1.607,-1.289,-4.969,-4.712,-1.189,-1.361,-1.304,-1.803,1.679,-1.611,86.0,81.9,-4.777,-8.066,73.2,-1.343,7.527,4.41,-4.914,-8.032,10,4.451,4.96,4.36,5.009,1.924,1.403,1.99,1.797,10,4.717,4.761,-80,299.284955979,norm,0,38,38,38,176.735,176.747,176.76681294,176.767,176.773,176.782,up,1,4.88983981053,5.11016018947,001,319,1366_768,Intel(R) Core(TM) i5-3320M CPU @ 2.60GHz,orientation_search,GRVLAPTOP6,Intel(R) HD Graphics 4000,2018_nov_08_1408,testMonitor,
98.8,73.8,83.2,86.6,36,-40,68.7,76.7,78.3,103.3,8.449,7.834,8.094,8.057,7.934,7.671,7.956,4.34,-5.271,-8.123,1.121,-2.087,7.982,4.806,-4.878,-7.585,74.8,87.7,-8.207,84.8,80.8,85.9,91.2,83.5,36,67.5,1,5,prime,10,0,88,norm,36,-5.144,up,norm,83.3211810541,79.4,63.3,1.382,87.0,3,83.5,66.5,79.4,10,6,7.557,4.784,1.967,-1.876,-4.658,-8.078,75.2,6,171.3,-7.894,-7.852,-40,-7.906,-7.842,-5.207,-5.099,-4.452,-5.062,4.858,7.973,9,-1.705,1.963,4.326,8.135,-7.725,-8.327,-1.705,1.193,,78.4,66.9,73.6,95.9,82.3,74.5,90.2,91.1,81.8,5,norm,1.893,1.798,-1.319,-1.833,-4.894,-5.021,-1.14,-1.482,-1.509,-1.799,1.596,-1.886,83.1,78.0,-4.931,-7.824,81.7,-1.981,8.187,4.911,-5.191,-7.51,10,4.8,4.828,5.115,5.295,1.992,1.784,1.259,1.382,10,4.641,4.403,-80,299.284955979,norm,0,39,39,39,181.706,181.718,181.738952253,181.74,181.746,181.754,up,1,3.45627485797,6.54372514203,001,319,1366_768,Intel(R) Core(TM) i5-3320M CPU @ 2.60GHz,orientation_search,GRVLAPTOP6,Intel(R) HD Graphics 4000,2018_nov_08_1408,testMonitor,
142.5,141.9,148.4,142.3,36,-40,141.2,133.2,140.4,137.9,7.688,7.568,7.871,7.818,7.836,8.189,8.032,4.374,-4.509,-7.819,1.39,-1.938,7.866,4.482,-4.467,-7.891,146.3,146.2,-8.066,136.8,153.2,145.0,138.8,150.6,36,143.8,0,5,probe,5,0,95,norm,36,-4.729,up,norm,143.172898696,143.7,142.0,1.41,141.0,5,142.6,139.6,152.1,10,6,8.096,4.473,1.134,-1.12,-4.659,-8.057,145.8,1,48.2,-7.933,-7.957,-40,-7.867,-7.727,-4.664,-5.126,-4.543,-5.282,4.995,7.807,5,-1.177,1.51,5.289,8.1,-8.271,-7.809,-1.511,1.331,141.9,135.3,148.3,139.5,147.6,146.0,140.4,138.7,,144.0,0,norm,1.233,1.653,-1.94,-1.301,-4.677,-4.398,-1.38,-1.251,-1.985,-1.111,1.466,-2.068,137.2,142.0,-4.377,-7.81,136.6,-1.619,8.398,4.965,-4.535,-8.441,11,4.894,4.735,5.194,4.411,2.057,1.185,1.642,2.059,11,4.755,4.833,-40,83.3211810541,norm,0,40,40,40,185.244,185.257,185.275121124,185.276,185.282,185.29,up,1,1.10347871371,8.89652128629,001,319,1366_768,Intel(R) Core(TM) i5-3320M CPU @ 2.60GHz,orientation_search,GRVLAPTOP6,Intel(R) HD Graphics 4000,2018_nov_08_1408,testMonitor,
8.4,5.0,10.3,2.5,36,-20,6.3,3.3,6.8,26.6,8.452,7.552,8.493,8.29,8.131,7.681,7.986,4.968,-4.996,-8.004,1.331,-1.448,7.546,4.804,-4.46,-8.023,7.7,-3.4,-7.855,-1.4,,6.1,-2.8,17.6,36,8.7,5,5,prime,10,0,73,norm,36,-4.585,down,norm,6.64473561204,6.9,-0.1,1.894,-3.7,0,20.1,10.4,-1.9,10,6,8.227,5.224,1.56,-1.779,-5.167,-8.179,4.3,6,79.6,-7.989,-8.384,-20,-8.004,-8.242,-4.607,-5.284,-4.639,-4.373,4.943,7.698,30,-1.199,1.462,4.975,8.241,-8.218,-7.759,-1.677,1.393,21.6,-4.9,14.4,-13.4,8.3,18.5,9.0,2.1,-4.8,10.0,0,norm,1.33,1.602,-1.746,-1.495,-4.435,-4.322,-1.153,-1.967,-1.896,-1.994,1.735,-2.051,13.9,1.2,-4.666,-7.926,-1.6,-1.759,7.971,4.764,-5.266,-7.637,12,4.464,4.981,4.997,4.717,1.222,1.672,1.193,1.577,12,4.846,4.405,-40,83.3211810541,norm,0,41,41,41,186.427,186.439,186.458567343,186.459,186.465,186.474,down,1,1.96640572955,8.03359427045,001,319,1366_768,Intel(R) Core(TM) i5-3320M CPU @ 2.60GHz,orientation_search,GRVLAPTOP6,Intel(R) HD Graphics 4000,2018_nov_08_1408,testMonitor,
10.8,-10.3,8.4,11.4,36,-20,20.7,1.7,15.7,-3.2,7.991,8.383,8.415,7.943,7.739,8.399,7.859,4.811,-4.712,-7.773,1.716,-1.918,7.925,4.373,-4.452,-7.64,15.8,,-8.206,6.2,4.4,12.8,0.4,12.9,36,25.7,5,5,prime,10,0,118,norm,36,-5.285,up,norm,6.64473561204,15.8,-10.2,1.309,23.9,4,17.3,12.3,-13.4,10,6,8.484,4.848,1.722,-1.603,-5.15,-8.267,9.9,6,124.6,-7.67,-7.517,-20,-7.629,-7.585,-5.134,-4.494,-4.855,-4.53,4.893,8.077,34,-1.651,1.994,4.484,7.973,-8.087,-8.365,-2.006,2.042,6.6,8.5,3.6,14.5,6.3,16.0,1.6,12.3,-8.2,3.2,1,norm,1.162,1.922,-1.967,-1.342,-4.589,-4.318,-1.232,-2.034,-1.655,-2.027,1.366,-2.095,6.3,17.8,-4.981,-8.259,26.6,-1.954,8.41,4.575,-4.326,-8.257,12,4.946,4.676,4.968,4.698,1.238,1.463,1.97,1.102,12,4.673,4.943,-40,83.3211810541,norm,0,42,42,42,188.473,188.485,188.504278357,188.505,188.511,188.519,up,1,1.5926706068,8.4073293932,001,319,1366_768,Intel(R) Core(TM) i5-3320M CPU @ 2.60GHz,orientation_search,GRVLAPTOP6,Intel(R) HD Graphics 4000,2018_nov_08_1408,testMonitor,
-5.6,0.9,19.6,2.6,36,-20,8.7,-5.5,-10.4,16.6,8.406,7.78,7.788,8.482,8.062,8.067,7.567,4.789,-4.869,-8.038,1.583,-1.544,7.871,5.186,-5.031,-8.349,8.6,0.2,-8.364,26.6,3.7,-1.7,20.7,13.3,36,19.9,0,5,prime,10,0,74,norm,36,-4.416,down,norm,6.64473561204,10.2,-2.0,1.265,-1.8,0,7.0,15.1,13.6,10,6,8.217,4.309,1.528,-1.612,-4.305,-8.37,-3.6,6,80.6,-7.715,-8.465,-20,-7.534,-7.875,-5.223,-4.903,-5.019,-4.416,5.277,8.393,0,-1.776,1.581,5.056,8.082,-8.415,-8.204,-1.193,1.434,-13.4,3.4,12.6,20.2,0.1,,17.4,6.9,-8.2,4.8,2,norm,1.9,1.62,-1.198,-1.932,-4.604,-5.105,-1.583,-1.365,-1.979,-1.313,1.467,-2.094,2.4,6.8,-4.461,-7.909,-3.6,-1.776,8.384,4.5,-5.182,-7.779,12,4.637,5.193,4.475,5.241,1.336,1.578,1.719,1.283,12,4.57,5.094,-40,83.3211810541,norm,0,43,43,43,190.145,190.158,190.178364188,190.179,190.185,190.194,up,0,0.76140928168,-10,001,319,1366_768,Intel(R) Core(TM) i5-3320M CPU @ 2.60GHz,orientation_search,GRVLAPTOP6,Intel(R) HD Graphics 4000,2018_nov_08_1408,testMonitor,
21.0,3.4,4.6,6.6,36,-20,10.1,26.6,0.5,17.3,7.743,7.553,8.267,7.954,8.206,8.072,8.348,4.504,-4.86,-8.453,1.301,-1.848,7.95,4.664,-4.416,-8.157,2.3,8.2,-8.099,15.0,5.8,5.8,-9.3,3.2,36,23.7,0,5,prime,10,0,75,norm,36,-4.799,up,norm,6.64473561204,1.1,0.7,1.435,11.6,5,-4.0,7.5,16.6,10,6,8.179,4.4,1.902,-2.082,-4.996,-7.963,-13.4,6,81.6,-8.359,-8.148,-20,-8.45,-7.547,-4.962,-4.369,-4.855,-4.76,4.402,8.356,5,-1.556,1.236,5.252,8.352,-8.169,-7.654,-1.251,1.969,6.1,14.7,-6.6,23.5,12.3,-2.0,5.7,-1.0,,-4.1,3,norm,1.56,1.35,-1.207,-1.728,-4.586,-4.443,-2.08,-1.122,-2.038,-2.062,1.463,-1.682,4.0,-0.5,-4.68,-8.214,3.7,-1.751,7.622,5.272,-4.547,-7.567,12,4.802,4.927,4.483,4.699,1.91,1.92,1.199,1.628,12,4.415,5.088,-40,83.3211810541,norm,0,44,44,44,192.022,192.027,192.038357835,192.039,192.041,192.044,down,0,0.368216089435,-10,001,319,1366_768,Intel(R) Core(TM) i5-3320M CPU @ 2.60GHz,orientation_search,GRVLAPTOP6,Intel(R) HD Graphics 4000,2018_nov_08_1408,testMonitor,
10.4,8.7,4.6,-2.6,36,-20,15.9,-8.7,22.1,-0.6,7.907,7.582,8.125,8.15,8.447,8.004,7.576,4.686,-5.22,-8.49,1.81,-1.836,7.516,4.832,-5.25,-8.163,1.7,9.9,-7.887,4.0,7.3,,10.5,-1.6,36,1.2,5,5,prime,10,0,81,norm,36,-4.808,up,norm,6.64473561204,12.5,9.4,1.229,3.9,3,2.7,3.6,17.8,10,6,7.949,4.854,1.823,-1.709,-5.188,-8.462,4.6,6,87.6,-8.463,-7.97,-20,-7.861,-8.165,-4.523,-5.175,-5.289,-5.022,5.267,7.624,33,-1.348,1.349,4.626,7.862,-7.513,-7.743,-1.241,1.382,11.3,15.4,3.0,4.6,4.9,2.5,-4.7,1.7,-13.4,22.2,4,norm,1.266,1.964,-1.481,-1.642,-4.789,-4.735,-1.94,-2.074,-1.937,-1.846,1.156,-1.783,3.3,15.7,-4.902,-8.484,11.0,-1.656,7.6,4.644,-5.244,-8.188,12,4.911,4.551,5.148,4.699,1.183,1.285,1.149,1.925,12,4.762,5.142,-40,83.3211810541,norm,0,45,45,45,193.478,193.483,193.501001234,193.501,193.504,193.507,up,1,1.11228830469,8.88771169531,001,319,1366_768,Intel(R) Core(TM) i5-3320M CPU @ 2.60GHz,orientation_search,GRVLAPTOP6,Intel(R) HD Graphics 4000,2018_nov_08_1408,testMonitor,
1.6,-2.7,4.5,-0.7,36,-20,18.9,3.3,6.5,4.7,8.483,7.823,8.36,7.784,7.601,8.454,7.964,4.852,-4.351,-8.031,1.776,-1.191,8.403,5.022,-5.19,-7.501,26.6,5.7,-8.349,8.7,2.3,-2.3,0.4,-1.4,36,11.4,2,5,prime,10,0,75,norm,36,-4.838,up,norm,6.64473561204,,-3.4,1.178,7.1,5,-3.1,3.3,-3.1,10,6,7.94,4.455,1.293,-2.047,-5.079,-8.076,16.0,6,81.6,-8.376,-8.439,-20,-7.779,-7.971,-5.081,-4.727,-4.303,-4.53,4.305,7.713,17,-1.966,1.147,4.314,8.471,-8.005,-7.741,-1.432,1.666,5.6,17.8,4.7,12.1,8.4,-3.3,-7.2,7.5,13.0,-13.4,5,norm,1.484,1.526,-1.537,-1.281,-5.217,-4.585,-1.204,-1.926,-1.8,-1.494,1.673,-1.197,1.3,10.9,-4.805,-7.951,1.7,-1.555,8.219,4.574,-4.581,-7.975,12,5.142,4.758,4.458,4.919,1.229,1.625,1.38,1.814,12,4.929,4.974,-40,83.3211810541,norm,0,46,46,46,194.651,194.664,194.68283892,194.683,194.689,194.698,up,1,1.27322375871,8.72677624129,001,319,1366_768,Intel(R) Core(TM) i5-3320M CPU @ 2.60GHz,orientation_search,GRVLAPTOP6,Intel(R) HD Graphics 4000,2018_nov_08_1408,testMonitor,
79.5,84.5,79.9,86.1,36,-60,87.6,87.5,79.2,78.7,8.12,8.234,8.279,8.478,8.088,8.069,8.002,4.489,-4.979,-7.757,1.935,-2.025,7.563,4.907,-4.699,-8.235,88.2,89.5,-8.438,86.4,82.9,90.1,83.6,86.8,36,78.0,1,5,probe,5,0,94,norm,36,-4.746,up,norm,85.0553759524,75.1,77.5,1.275,82.2,4,95.1,80.7,94.4,10,6,8.23,4.897,1.51,-1.409,-4.354,-7.723,,1,-8.9,-8.471,-7.934,-20,-8.031,-8.41,-5.147,-4.778,-4.55,-4.883,4.678,7.858,10,-1.813,1.459,4.762,8.157,-8.383,-8.206,-1.843,1.387,86.4,83.9,84.6,94.2,77.4,88.5,93.2,82.6,88.6,80.6,0,norm,1.713,1.256,-2.073,-1.202,-4.571,-4.652,-1.275,-1.379,-1.921,-2.026,1.515,-1.939,90.6,85.1,-4.623,-7.858,82.9,-1.699,7.878,5.263,-4.573,-8.167,13,4.561,5.09,4.721,5.229,1.758,1.814,1.909,1.899,13,5.265,4.385,-20,6.64473561204,norm,0,47,47,47,196.004,196.016,196.035800619,196.036,196.042,196.051,up,1,1.39202561324,8.60797438676,001,319,1366_768,Intel(R) Core(TM) i5-3320M CPU @ 2.60GHz,orientation_search,GRVLAPTOP6,Intel(R) HD Graphics 4000,2018_nov_08_1408,testMonitor,
52.4,60.7,43.8,56.0,36,40,65.0,67.1,69.7,46.5,8.328,8.206,8.235,7.775,7.789,7.922,8.308,4.552,-4.954,-7.687,1.105,-1.813,8.394,5.237,-4.787,-8.027,44.2,55.7,-7.865,63.5,59.6,49.7,46.4,57.0,36,61.9,1,5,prime,10,0,62,norm,36,-4.713,up,norm,53.2699407872,59.2,72.2,1.776,34.2,3,50.7,56.1,59.8,10,6,7.775,4.581,1.936,-1.844,-4.337,-8.325,45.1,6,115.3,-8.338,-8.298,40,-8.012,-7.855,-4.589,-5.293,-5.076,-4.48,5.053,8.005,9,-1.831,1.995,4.572,8.013,-8.497,-8.149,-1.568,1.147,,72.8,54.8,50.3,49.7,55.4,60.0,54.4,46.0,33.3,0,norm,2.05,2.066,-2.089,-1.875,-5.265,-5.073,-1.463,-1.759,-1.816,-1.145,1.82,-1.39,60.6,47.8,-4.402,-8.197,73.3,-1.701,7.535,5.063,-4.51,-8.215,14,4.889,5.274,4.922,5.104,1.643,1.269,1.195,1.644,14,4.725,4.74,-60,6.64473561204,norm,0,48,48,48,197.476,197.488,197.507461837,197.508,197.514,197.522,up,1,1.32176066962,8.67823933038,001,319,1366_768,Intel(R) Core(TM) i5-3320M CPU @ 2.60GHz,orientation_search,GRVLAPTOP6,Intel(R) HD Graphics 4000,2018_nov_08_1408,testMonitor,
41.7,49.3,68.1,49.8,36,40,58.6,54.4,46.1,73.3,8.163,8.047,8.482,8.492,7.712,7.996,8.049,4.874,-4.335,-7.844,1.624,-1.736,7.802,4.546,-4.644,-8.316,,56.7,-7.546,50.6,59.3,41.0,44.1,42.7,36,48.9,5,5,prime,10,0,93,norm,36,-4.862,up,norm,53.2699407872,42.1,46.5,1.163,48.4,5,55.7,39.7,45.9,10,6,7.557,5.267,2.092,-1.474,-4.606,-7.591,60.4,6,146.3,-8.228,-8.203,40,-7.956,-8.393,-5.152,-5.008,-4.961,-4.935,4.902,7.514,35,-1.588,1.776,4.973,7.622,-7.609,-8.337,-2.065,1.125,52.2,46.9,56.5,58.3,53.6,50.3,46.3,44.7,33.3,60.7,1,norm,2.089,1.27,-2.056,-1.599,-4.754,-5.262,-2.044,-1.882,-1.83,-1.508,2.022,-1.805,67.8,41.1,-4.331,-8.356,45.5,-1.8,8.096,4.984,-5.052,-8.466,14,4.924,4.356,4.717,4.657,1.653,1.167,2.098,1.596,14,4.812,4.387,-60,6.64473561204,norm,0,49,49,49,198.877,198.889,198.908345246,198.909,198.915,198.923,up,1,0.984110257388,9.01588974261,001,319,1366_768,Intel(R) Core(TM) i5-3320M CPU @ 2.60GHz,orientation_search,GRVLAPTOP6,Intel(R) HD Graphics 4000,2018_nov_08_1408,testMonitor,
55.7,58.5,34.9,38.4,36,40,65.8,61.3,35.9,33.3,7.663,7.989,8.216,8.047,8.406,8.166,7.633,5.215,-5.189,-8.379,1.502,-2.048,7.954,4.79,-4.441,-8.202,63.3,,-8.103,56.8,60.3,56.2,40.8,50.2,36,49.6,5,5,prime,10,0,80,norm,36,-4.388,up,norm,53.2699407872,37.9,55.1,1.352,55.2,4,57.4,64.7,73.3,10,6,8.455,4.935,1.502,-1.408,-5.036,-7.885,41.7,6,133.3,-7.979,-8.196,40,-7.744,-7.508,-5.154,-4.791,-4.823,-5.018,4.817,8.147,34,-1.227,1.725,5.241,7.955,-8.487,-7.536,-1.758,1.42,56.8,56.2,43.7,35.1,66.8,47.7,37.8,54.7,61.7,57.9,2,norm,1.102,1.326,-1.908,-1.401,-4.327,-4.774,-1.709,-1.895,-1.29,-1.679,2.0,-1.357,54.9,59.9,-5.111,-8.396,49.2,-1.917,8.213,4.495,-4.598,-8.282,14,4.78,4.95,5.158,5.028,1.351,1.214,1.577,1.902,14,5.2,4.597,-60,6.64473561204,norm,0,50,50,50,199.941,199.953,199.972208459,199.973,199.979,199.987,up,1,1.13641352922,8.86358647078,001,319,1366_768,Intel(R) Core(TM) i5-3320M CPU @ 2.60GHz,orientation_search,GRVLAPTOP6,Intel(R) HD Graphics 4000,2018_nov_08_1408,testMonitor,
62.8,33.3,51.9,61.5,36,40,50.3,60.7,50.2,62.3,7.64,7.701,7.523,8.381,8.049,7.763,7.661,5.103,-4.536,-7.963,1.285,-1.724,8.223,5.083,-5.067,-7.864,44.9,58.8,-8.287,53.9,59.6,53.6,54.0,60.5,36,48.4,0,5,prime,10,0,110,norm,36,-4.489,down,norm,53.2699407872,43.4,53.0,1.929,59.1,2,71.3,52.9,55.4,10,6,7.645,5.158,1.548,-1.192,-4.905,-7.915,65.9,6,163.3,-8.328,-8.057,40,-7.934,-8.402,-4.689,-4.328,-5.01,-5.011,5.034,8.189,2,-1.159,2.097,4.666,7.727,-8.469,-7.685,-1.313,1.825,46.9,71.0,61.5,,45.1,40.0,49.5,68.6,73.3,58.6,3,norm,1.128,2.058,-1.346,-1.128,-4.945,-4.769,-1.362,-1.388,-1.954,-1.808,2.054,-1.786,61.9,54.7,-5.038,-8.475,47.3,-1.536,7.579,4.864,-5.199,-7.659,14,4.391,4.83,4.529,4.348,1.915,1.81,1.769,1.768,14,4.633,4.872,-60,6.64473561204,norm,0,51,51,51,201.156,201.169,201.18795019,201.188,201.194,201.203,down,1,1.50916677927,8.49083322073,001,319,1366_768,Intel(R) Core(TM) i5-3320M CPU @ 2.60GHz,orientation_search,GRVLAPTOP6,Intel(R) HD Graphics 4000,2018_nov_08_1408,testMonitor,
52.7,53.3,57.1,57.2,36,40,63.9,43.1,44.4,40.4,7.541,8.002,8.4,8.128,7.538,7.964,7.956,5.103,-4.795,-7.593,1.539,-1.743,8.291,4.733,-5.183,-7.598,47.2,46.4,-7.686,68.3,65.8,49.8,73.3,66.3,36,36.1,2,5,prime,10,0,94,norm,36,-4.965,up,norm,53.2699407872,,55.6,1.864,57.4,5,46.1,60.9,65.7,10,6,7.951,5.009,1.69,-1.829,-4.474,-8.362,67.0,6,147.3,-8.376,-7.583,40,-7.714,-7.78,-4.436,-4.867,-5.235,-5.171,5.106,8.369,17,-1.197,1.804,5.029,7.751,-8.468,-8.049,-1.208,1.701,68.3,45.8,53.7,56.6,49.1,52.2,41.7,55.2,58.0,67.4,4,norm,1.237,1.123,-1.577,-1.519,-4.566,-4.616,-1.49,-1.852,-1.602,-1.688,1.39,-1.286,33.3,63.9,-5.145,-8.074,48.5,-1.573,7.83,5.178,-5.164,-8.486,14,4.461,4.91,4.347,4.97,1.275,1.225,1.969,1.321,14,5.216,4.374,-60,6.64473561204,norm,0,52,52,52,202.745,202.758,202.77697305,202.778,202.784,202.792,up,1,0.868158006826,9.13184199317,001,319,1366_768,Intel(R) Core(TM) i5-3320M CPU @ 2.60GHz,orientation_search,GRVLAPTOP6,Intel(R) HD Graphics 4000,2018_nov_08_1408,testMonitor,
56.0,66.4,46.8,48.7,36,40,52.5,39.8,43.4,73.3,7.894,8.268,7.985,8.024,8.133,8.327,8.413,5.146,-5.041,-7.605,2.076,-1.903,7.861,5.232,-5.006,-8.422,52.5,63.2,-8.487,70.0,47.8,43.3,36.3,67.8,36,66.4,2,5,prime,10,0,92,norm,36,-4.754,down,norm,53.2699407872,49.5,41.4,1.652,58.7,1,56.7,,63.7,10,6,8.377,4.597,1.595,-1.711,-5.039,-8.435,55.4,6,145.3,-7.557,-8.109,40,-7.847,-7.933,-4.718,-4.828,-4.951,-4.794,5.092,7.53,13,-1.858,2.088,4.742,7.712,-8.29,-8.308,-1.728,1.826,49.2,60.8,37.0,44.4,61.1,49.6,63.9,54.2,64.8,52.6,5,norm,2.076,1.138,-1.642,-1.433,-4.434,-5.084,-1.353,-1.989,-1.217,-1.854,1.432,-1.192,58.9,63.4,-4.436,-7.973,45.3,-2.02,7.557,4.358,-4.778,-8.153,14,4.455,5.061,4.498,5.221,1.227,1.348,2.08,1.899,14,4.991,4.483,-60,6.64473561204,norm,0,53,53,53,203.694,203.706,203.725285454,203.726,203.732,203.74,down,1,0.886420838935,9.11357916106,001,319,1366_768,Intel(R) Core(TM) i5-3320M CPU @ 2.60GHz,orientation_search,GRVLAPTOP6,Intel(R) HD Graphics 4000,2018_nov_08_1408,testMonitor,
176.5,,179.6,177.8,36,20,180.7,171.6,188.5,179.0,7.795,8.375,7.953,8.276,7.742,8.176,8.267,4.722,-4.641,-8.408,1.472,-1.85,8.302,5.132,-4.778,-8.422,186.4,177.2,-8.385,184.8,185.2,176.1,178.7,169.5,36,173.6,3,5,probe,5,0,89,norm,36,-4.591,up,norm,179.485244628,176.5,182.4,1.598,175.6,5,178.6,175.6,180.2,10,6,7.818,4.965,1.178,-1.878,-4.467,-7.861,179.9,1,90.5,-8.417,-7.977,40,-8.289,-7.558,-4.374,-4.712,-4.343,-5.098,4.309,7.87,23,-1.712,1.698,4.476,8.184,-7.903,-8.253,-1.662,1.262,173.2,178.4,182.2,178.1,187.7,174.9,185.1,175.0,181.7,184.1,0,norm,1.933,1.992,-1.785,-1.851,-4.816,-4.837,-1.924,-1.333,-1.814,-1.96,1.924,-1.674,180.6,189.5,-4.534,-8.321,185.8,-1.825,7.911,4.605,-5.223,-8.41,15,4.765,5.105,4.974,5.276,1.907,1.987,1.202,1.429,15,4.526,4.645,40,53.2699407872,norm,0,54,54,54,204.66,204.672,204.691568302,204.692,204.698,204.707,up,1,1.20599175464,8.79400824536,001,319,1366_768,Intel(R) Core(TM) i5-3320M CPU @ 2.60GHz,orientation_search,GRVLAPTOP6,Intel(R) HD Graphics 4000,2018_nov_08_1408,testMonitor,
243.4,258.3,244.4,226.9,36,-10,246.4,236.5,240.8,261.7,8.016,7.847,8.355,8.283,7.8,8.229,7.758,5.157,-4.724,-7.787,1.565,-1.194,7.912,5.255,-4.426,-7.795,242.1,255.9,-8.008,257.7,243.5,252.5,252.5,231.0,36,243.6,0,5,prime,10,0,64,norm,36,-4.98,up,norm,246.924520578,235.5,241.1,1.11,253.0,4,244.8,264.2,254.3,10,5,8.042,4.309,1.206,-1.672,-5.105,-8.251,238.6,5,310.9,-7.613,-8.264,-10,-8.364,-8.189,-4.556,-5.244,-4.973,-4.441,4.415,7.879,4,-1.115,1.745,4.999,7.789,-8.109,-8.069,-1.28,1.531,243.1,253.4,258.5,243.6,264.3,266.9,250.0,240.1,227.3,,0,norm,1.996,1.661,-1.123,-1.121,-4.44,-5.027,-1.355,-1.393,-1.768,-1.337,1.847,-1.421,260.1,259.3,-5.137,-8.31,241.4,-1.974,7.801,4.973,-4.936,-7.526,16,4.867,4.375,4.473,5.244,1.201,1.775,1.263,1.941,16,4.803,5.277,20,53.2699407872,norm,0,55,55,55,205.946,205.959,205.97706132,205.978,205.983,205.992,down,0,1.00016199912,-10,001,319,1366_768,Intel(R) Core(TM) i5-3320M CPU @ 2.60GHz,orientation_search,GRVLAPTOP6,Intel(R) HD Graphics 4000,2018_nov_08_1408,testMonitor,
227.2,233.6,241.1,240.0,36,-10,236.3,258.9,257.3,234.8,8.233,7.679,7.504,7.964,7.83,7.712,8.428,4.506,-4.804,-7.946,1.34,-2.069,8.342,5.25,-4.55,-7.618,255.3,244.7,-7.712,235.3,265.1,266.9,249.5,254.6,36,248.6,2,5,prime,10,0,93,norm,36,-5.008,up,norm,246.924520578,,254.7,1.396,230.6,5,248.3,241.3,251.1,10,5,7.553,4.386,1.504,-1.124,-5.205,-7.69,252.8,5,339.9,-8.192,-8.073,-10,-7.603,-7.962,-4.754,-4.943,-4.904,-5.246,5.187,7.849,17,-1.292,2.009,4.362,7.519,-7.888,-8.366,-1.484,1.441,248.1,261.0,228.7,243.9,226.9,245.1,266.5,254.3,235.9,238.4,1,norm,1.344,1.194,-2.087,-1.165,-4.527,-5.163,-1.609,-1.203,-1.807,-2.097,2.089,-1.539,255.1,236.1,-5.093,-8.009,246.9,-1.613,7.779,4.411,-4.573,-8.348,16,4.306,4.704,4.312,5.017,1.59,1.902,1.258,2.035,16,4.936,4.706,20,53.2699407872,norm,0,56,56,56,208.059,208.064,208.074960547,208.075,208.078,208.081,up,1,0.924464158288,9.07553584171,001,319,1366_768,Intel(R) Core(TM) i5-3320M CPU @ 2.60GHz,orientation_search,GRVLAPTOP6,Intel(R) HD Graphics 4000,2018_nov_08_1408,testMonitor,
239.2,266.9,247.4,247.2,36,-10,234.2,255.4,254.2,247.8,7.839,7.633,7.897,8.403,7.976,8.173,8.285,4.697,-5.163,-7.823,1.371,-1.938,7.751,4.993,-4.359,-8.125,237.6,261.6,-8.339,253.2,246.1,227.5,247.4,258.0,36,261.7,0,5,prime,10,0,117,norm,36,-4.684,up,norm,246.924520578,226.9,241.6,1.666,257.1,5,245.8,250.7,246.5,10,5,8.475,4.637,1.195,-1.132,-4.31,-7.808,235.3,5,363.9,-7.955,-7.835,-10,-8.037,-7.769,-4.437,-4.903,-4.387,-4.619,4.864,7.935,5,-1.833,1.233,4.791,8.317,-7.708,-8.301,-1.28,1.954,241.8,248.8,261.2,255.7,252.6,265.1,228.5,260.6,,257.7,2,norm,1.324,1.913,-1.731,-2.093,-5.18,-4.584,-1.575,-1.881,-1.675,-1.57,1.755,-1.116,257.0,262.0,-4.802,-7.514,244.9,-1.438,7.541,4.886,-5.07,-7.948,16,5.162,4.402,4.628,5.192,1.846,1.712,2.044,1.542,16,4.709,5.12,20,53.2699407872,norm,0,57,57,57,209.038,209.051,209.069874565,209.07,209.074,209.079,up,1,1.1250783325,8.8749216675,001,319,1366_768,Intel(R) Core(TM) i5-3320M CPU @ 2.60GHz,orientation_search,GRVLAPTOP6,Intel(R) HD Graphics 4000,2018_nov_08_1408,testMonitor,
265.3,243.1,258.3,244.0,36,-10,254.2,230.3,248.0,250.7,8.182,8.126,7.518,8.063,7.877,8.455,8.126,4.759,-5.257,-8.392,1.81,-1.778,8.141,4.551,-4.318,-7.555,255.9,255.8,-8.081,234.9,253.7,234.9,251.4,226.9,36,249.5,0,5,prime,10,0,74,norm,36,-4.584,up,norm,246.924520578,238.3,248.7,1.22,252.6,5,249.1,240.0,243.5,10,5,8.313,5.227,1.496,-1.648,-5.122,-7.752,240.4,5,320.9,-7.656,-7.581,-10,-7.901,-7.886,-5.105,-4.801,-4.649,-5.033,4.602,7.834,5,-1.871,1.232,5.176,8.17,-8.449,-7.539,-1.337,2.071,253.1,249.6,266.9,246.3,260.3,254.9,253.7,252.2,,262.7,3,norm,2.083,2.005,-1.738,-1.626,-5.099,-4.497,-1.962,-1.567,-1.272,-1.918,1.509,-1.694,235.5,254.2,-5.291,-7.568,259.1,-2.094,8.146,4.675,-4.386,-8.413,16,4.313,5.06,4.922,4.47,1.978,1.732,1.545,1.709,16,4.633,4.666,20,53.2699407872,norm,0,58,58,58,210.238,210.251,210.270862523,210.271,210.275,210.28,up,1,0.920654018093,9.07934598191,001,319,1366_768,Intel(R) Core(TM) i5-3320M CPU @ 2.60GHz,orientation_search,GRVLAPTOP6,Intel(R) HD Graphics 4000,2018_nov_08_1408,testMonitor,
226.9,246.0,227.8,256.3,36,-10,243.2,263.4,243.2,261.7,8.225,7.737,8.217,8.19,8.449,7.659,7.572,4.67,-4.724,-7.848,1.885,-1.123,7.729,4.839,-4.687,-8.442,240.8,245.4,-7.707,239.0,228.3,,266.9,248.3,36,248.2,5,5,prime,10,0,103,norm,36,-5.212,up,norm,246.924520578,252.9,260.4,1.961,259.1,3,249.4,253.8,253.8,10,5,8.144,4.616,1.703,-1.524,-4.462,-7.652,246.8,5,349.9,-8.131,-7.531,-10,-7.988,-8.279,-4.744,-4.448,-4.42,-5.107,5.075,8.096,33,-2.09,1.938,5.243,7.621,-7.552,-7.841,-1.168,1.251,248.5,245.4,248.0,243.7,233.1,252.4,257.3,230.2,245.5,233.5,4,norm,1.714,1.758,-1.736,-2.067,-5.201,-5.153,-1.793,-2.087,-1.997,-1.146,1.451,-1.687,249.3,242.1,-5.153,-7.67,245.4,-2.022,8.496,4.35,-4.446,-7.802,16,4.984,4.547,5.134,4.597,1.668,1.281,2.001,2.019,16,4.785,4.519,20,53.2699407872,norm,0,59,59,59,211.234,211.246,211.265303187,211.266,211.272,211.28,up,1,1.05431553793,8.94568446207,001,319,1366_768,Intel(R) Core(TM) i5-3320M CPU @ 2.60GHz,orientation_search,GRVLAPTOP6,Intel(R) HD Graphics 4000,2018_nov_08_1408,testMonitor,
330.7,324.5,,328.0,36,80,326.5,325.5,324.5,333.9,8.427,7.631,7.674,7.731,7.764,8.255,8.173,4.633,-4.82,-8.211,1.835,-1.239,7.912,5.274,-4.545,-8.125,316.7,327.9,-7.849,324.6,318.6,324.3,327.6,326.5,36,327.9,3,5,probe,5,0,86,norm,36,-4.649,down,norm,323.875030684,324.3,321.9,1.998,324.8,2,318.8,324.8,329.3,10,5,7.719,4.31,1.295,-1.293,-4.821,-8.159,313.9,1,237.9,-8.253,-7.817,-10,-7.858,-7.909,-5.0,-4.427,-4.852,-4.852,4.571,8.307,20,-1.783,1.507,5.275,8.217,-7.742,-7.647,-1.939,2.008,318.8,323.5,323.0,328.2,329.5,326.8,330.6,325.4,313.9,319.9,0,norm,2.027,1.751,-1.96,-1.331,-5.182,-5.137,-1.376,-1.237,-1.785,-1.402,1.139,-1.389,317.5,321.1,-4.844,-8.43,325.2,-1.216,8.145,4.77,-5.181,-8.137,17,4.311,5.15,4.359,4.426,1.756,1.572,1.852,1.242,17,4.362,5.146,-10,246.924520578,norm,0,60,60,60,212.379,212.392,212.410122495,212.411,212.417,212.425,down,1,1.0019759941,8.9980240059,001,319,1366_768,Intel(R) Core(TM) i5-3320M CPU @ 2.60GHz,orientation_search,GRVLAPTOP6,Intel(R) HD Graphics 4000,2018_nov_08_1408,testMonitor,
57.5,61.1,76.0,77.9,36,-30,57.2,56.2,54.3,66.0,8.37,8.039,7.962,7.557,7.657,7.555,7.857,4.71,-5.286,-8.295,1.196,-1.57,8.114,4.461,-4.756,-8.413,74.7,59.1,-8.434,72.6,61.5,72.7,65.9,58.0,36,73.2,1,5,prime,10,0,73,norm,36,-4.38,down,norm,65.5971700838,68.7,71.9,1.733,60.3,0,69.6,65.1,64.5,10,6,7.687,4.967,1.155,-1.429,-5.078,-7.937,68.3,6,138.6,-7.755,-8.488,-30,-8.454,-8.203,-4.923,-4.735,-5.131,-5.271,4.395,7.519,6,-1.632,1.273,4.645,7.606,-8.295,-8.277,-2.009,1.721,63.4,71.4,54.8,64.6,69.2,64.9,59.7,,50.9,67.8,0,norm,1.641,1.671,-1.1,-1.393,-4.58,-4.866,-1.977,-1.562,-2.088,-1.874,1.78,-1.874,45.6,82.1,-4.987,-8.149,85.2,-1.172,8.213,4.492,-4.376,-7.503,18,4.699,4.661,5.103,4.926,1.722,1.183,1.428,1.613,18,5.177,4.398,80,246.924520578,norm,0,61,61,61,213.46,215.996,216.011386957,216.012,216.014,216.017,down,1,1.26407080863,8.73592919137,001,319,1366_768,Intel(R) Core(TM) i5-3320M CPU @ 2.60GHz,orientation_search,GRVLAPTOP6,Intel(R) HD Graphics 4000,2018_nov_08_1408,testMonitor,
81.6,67.4,68.9,53.7,36,-30,76.4,45.6,55.7,56.1,7.676,7.983,8.012,7.57,8.433,8.258,8.024,4.423,-4.617,-7.888,1.814,-1.53,8.21,4.736,-4.526,-7.872,57.5,76.6,-8.221,62.9,64.4,78.0,79.9,81.6,36,69.0,1,5,prime,10,0,116,norm,36,-4.594,down,norm,65.5971700838,69.9,72.6,1.6,77.8,1,66.9,56.2,56.8,10,6,8.383,4.905,1.812,-1.393,-5.272,-8.035,69.1,6,181.6,-7.594,-8.059,-30,-8.089,-7.593,-4.399,-4.336,-5.003,-5.26,4.731,7.845,7,-1.461,1.408,4.864,7.924,-7.7,-8.452,-1.774,1.979,68.9,63.2,83.3,85.6,60.2,60.4,,60.4,48.3,81.7,1,norm,1.37,1.711,-1.947,-2.046,-5.029,-4.771,-1.37,-1.952,-1.26,-1.709,1.471,-1.984,63.5,78.5,-4.319,-8.323,55.1,-1.663,7.731,5.161,-4.349,-7.889,18,4.945,4.845,5.076,4.51,1.35,1.195,1.604,2.041,18,5.155,4.378,80,246.924520578,norm,0,62,62,62,217.314,217.326,217.345072342,217.346,217.352,217.36,down,1,2.76367964003,7.23632035997,001,319,1366_768,Intel(R) Core(TM) i5-3320M CPU @ 2.60GHz,orientation_search,GRVLAPTOP6,Intel(R) HD Graphics 4000,2018_nov_08_1408,testMonitor,
76.3,56.5,62.3,72.1,36,-30,76.7,52.7,57.9,84.9,8.362,8.117,7.966,7.588,7.908,7.982,7.835,4.914,-4.355,-7.59,1.427,-1.21,7.639,4.805,-4.974,-8.235,61.1,51.5,-8.168,68.6,68.5,55.8,57.6,56.3,36,59.9,1,5,prime,10,0,84,norm,36,-5.137,down,norm,65.5971700838,69.2,45.9,1.895,61.0,1,85.6,67.2,78.3,10,6,8.147,5.158,1.715,-1.106,-4.912,-8.077,73.9,6,149.6,-8.462,-8.124,-30,-7.677,-7.556,-4.523,-4.737,-4.852,-4.35,4.691,8.1,7,-1.901,1.271,5.004,8.239,-7.84,-7.815,-1.357,2.087,74.0,71.7,51.0,64.4,46.3,70.1,,45.6,65.3,79.3,2,norm,1.64,1.813,-1.381,-1.327,-4.565,-4.423,-1.335,-1.14,-1.809,-1.5,1.664,-1.582,67.0,63.6,-4.914,-7.999,67.3,-1.182,8.306,5.25,-5.005,-7.691,18,4.632,4.642,4.701,5.045,1.609,1.512,1.966,1.158,18,4.642,4.36,80,246.924520578,norm,0,63,63,63,220.157,220.169,220.188492689,220.189,220.195,220.203,down,1,0.866745058433,9.13325494157,001,319,1366_768,Intel(R) Core(TM) i5-3320M CPU @ 2.60GHz,orientation_search,GRVLAPTOP6,Intel(R) HD Graphics 4000,2018_nov_08_1408,testMonitor,
58.8,60.0,62.1,71.9,36,-30,85.6,71.4,66.6,68.6,8.205,7.689,8.253,8.44,7.523,8.415,8.093,5.127,-4.881,-7.625,1.954,-1.835,7.765,4.649,-5.274,-8.412,71.3,71.9,-8.363,64.2,77.1,45.6,46.4,57.4,36,62.6,1,5,prime,10,0,72,norm,36,-5.129,down,norm,65.5971700838,78.2,67.4,1.253,68.6,2,60.9,60.8,78.7,10,6,7.957,5.204,1.898,-1.977,-5.252,-8.366,70.2,6,137.6,-7.822,-8.033,-30,-8.277,-8.352,-5.144,-5.028,-5.23,-4.923,4.57,7.853,8,-1.958,1.117,5.152,7.753,-8.358,-8.46,-1.841,1.833,59.2,,64.5,69.8,70.6,56.3,75.9,49.0,76.8,62.9,3,norm,1.25,1.381,-1.413,-1.231,-5.212,-5.143,-1.659,-1.627,-1.147,-1.227,1.815,-1.657,61.2,67.2,-5.072,-7.558,64.5,-1.703,7.832,4.962,-4.62,-8.158,18,4.994,4.555,4.673,4.963,1.354,1.55,1.286,1.864,18,5.119,4.751,80,246.924520578,norm,0,64,64,64,221.103,221.116,221.134847274,221.135,221.141,221.15,down,1,1.22143106068,8.77856893932,001,319,1366_768,Intel(R) Core(TM) i5-3320M CPU @ 2.60GHz,orientation_search,GRVLAPTOP6,Intel(R) HD Graphics 4000,2018_nov_08_1408,testMonitor,
61.0,75.3,,61.7,36,-30,48.3,75.8,58.3,71.0,8.232,7.973,7.795,8.217,8.474,8.048,7.872,4.376,-4.366,-8.021,1.133,-1.661,8.04,4.683,-5.126,-7.74,83.8,74.2,-7.598,79.4,66.7,60.0,81.9,61.5,36,78.5,3,5,prime,10,0,90,norm,36,-4.66,down,norm,65.5971700838,67.3,77.3,1.986,55.3,2,64.0,46.1,74.2,10,6,8.438,5.162,1.765,-1.34,-4.748,-8.015,78.4,6,155.6,-7.742,-8.334,-30,-8.217,-7.542,-5.185,-4.577,-4.368,-4.949,4.692,8.179,20,-2.074,1.224,5.178,8.288,-8.493,-7.524,-1.445,1.59,45.6,85.6,53.5,80.6,59.1,66.3,68.3,76.4,58.7,80.7,4,norm,1.584,1.274,-1.27,-1.25,-4.575,-5.275,-1.965,-1.994,-1.965,-1.225,1.773,-1.353,80.5,67.7,-5.069,-7.858,69.1,-1.462,8.385,5.082,-5.223,-8.294,18,5.155,5.239,4.494,4.361,1.688,1.844,1.507,1.486,18,4.328,4.837,80,246.924520578,norm,0,65,65,65,222.405,222.417,222.43599731,222.437,222.441,222.446,down,1,2.39187230677,7.60812769323,001,319,1366_768,Intel(R) Core(TM) i5-3320M CPU @ 2.60GHz,orientation_search,GRVLAPTOP6,Intel(R) HD Graphics 4000,2018_nov_08_1408,testMonitor,
62.7,45.6,67.2,65.7,36,-30,83.2,54.3,52.1,63.8,7.533,7.853,7.737,8.122,7.728,8.079,7.903,4.484,-5.047,-7.957,1.168,-1.779,8.486,4.366,-4.497,-8.07,59.3,62.6,-7.935,61.3,66.2,85.6,53.5,59.7,36,56.1,2,5,prime,10,0,80,norm,36,-5.108,up,norm,65.5971700838,,78.2,1.915,62.0,5,51.4,71.2,79.7,10,6,7.513,4.469,1.139,-1.876,-4.409,-7.981,66.2,6,145.6,-8.438,-8.436,-30,-8.141,-7.706,-4.919,-4.559,-4.573,-4.43,4.871,8.23,17,-1.533,2.016,5.209,8.421,-7.776,-8.245,-1.549,1.837,70.0,64.0,65.9,70.6,63.3,69.6,64.9,48.6,71.6,81.1,5,norm,2.073,1.276,-1.166,-1.639,-5.218,-5.275,-1.469,-1.838,-2.052,-1.711,1.262,-1.452,72.7,73.0,-4.466,-8.163,75.3,-1.892,8.479,4.349,-4.817,-8.408,18,4.882,4.866,5.277,4.86,2.048,1.952,1.936,2.089,18,5.077,4.502,80,246.924520578,norm,0,66,66,66,224.871,224.884,224.903495546,224.904,224.908,224.913,up,1,0.954686871515,9.04531312848,001,319,1366_768,Intel(R) Core(TM) i5-3320M CPU @ 2.60GHz,orientation_search,GRVLAPTOP6,Intel(R) HD Graphics 4000,2018_nov_08_1408,testMonitor,
91.2,96.4,89.6,91.5,36,-60,85.8,99.8,94.6,97.7,7.95,8.123,7.671,7.952,8.266,8.368,7.91,5.139,-4.428,-7.647,1.42,-1.496,7.546,4.379,-4.342,-7.923,92.2,87.3,-8.298,84.0,96.7,95.5,87.4,89.2,36,98.3,1,5,probe,5,0,63,norm,36,-4.888,up,norm,94.0249046984,92.3,94.6,1.862,96.1,4,99.1,93.8,95.4,10,6,8.468,5.294,1.975,-2.081,-5.083,-7.842,,1,31.0,-8.203,-7.586,-30,-8.196,-8.106,-5.056,-5.138,-4.78,-4.624,4.69,7.666,10,-1.668,1.448,4.876,7.693,-7.827,-8.263,-1.638,1.536,93.0,84.2,90.3,84.9,96.1,86.6,87.0,102.4,97.0,104.0,0,norm,2.081,1.146,-1.289,-1.636,-4.502,-4.444,-1.353,-1.47,-1.462,-1.249,1.863,-1.44,97.8,92.6,-5.228,-7.665,90.7,-1.269,8.283,4.336,-5.192,-8.275,19,4.705,4.587,4.467,5.092,1.981,1.347,1.671,1.591,19,5.006,4.972,-30,65.5971700838,norm,0,67,67,67,225.904,225.916,225.935285304,225.936,225.942,225.95,up,1,1.59352011436,8.40647988564,001,319,1366_768,Intel(R) Core(TM) i5-3320M CPU @ 2.60GHz,orientation_search,GRVLAPTOP6,Intel(R) HD Graphics 4000,2018_nov_08_1408,testMonitor,
309.4,332.0,312.5,312.3,36,30,312.8,292.0,319.2,318.3,7.813,7.575,8.192,8.019,8.127,7.904,8.468,5.073,-5.298,-8.188,1.796,-1.194,7.634,4.681,-4.911,-7.917,305.9,322.6,-7.664,317.3,297.6,322.6,322.8,328.4,36,321.5,2,5,prime,10,0,77,norm,36,-4.827,up,norm,311.953050204,307.3,316.2,1.203,307.8,3,309.8,326.6,317.8,10,6,7.909,4.348,1.256,-1.919,-4.39,-7.642,293.7,6,389.0,-8.144,-8.232,30,-7.537,-8.381,-4.682,-4.65,-4.743,-5.008,5.239,8.036,15,-2.064,1.982,4.774,8.038,-8.429,-7.665,-1.709,1.754,316.3,307.2,311.1,310.7,302.7,323.6,324.2,322.8,319.8,313.6,0,norm,1.834,1.76,-1.194,-1.991,-4.948,-5.085,-1.265,-1.303,-1.908,-1.245,1.688,-2.07,310.7,324.7,-4.524,-7.898,,-1.904,8.409,4.767,-4.399,-8.119,20,5.168,4.552,4.68,4.313,1.418,1.943,1.8,1.359,20,4.662,5.215,-60,65.5971700838,norm,0,68,68,68,227.576,227.584,227.60201677,227.602,227.606,227.611,up,1,1.12382264179,8.87617735821,001,319,1366_768,Intel(R) Core(TM) i5-3320M CPU @ 2.60GHz,orientation_search,GRVLAPTOP6,Intel(R) HD Graphics 4000,2018_nov_08_1408,testMonitor,
318.6,303.8,322.6,305.6,36,30,322.8,309.3,313.8,309.8,8.453,8.221,7.834,7.613,7.908,8.202,7.719,5.162,-5.105,-7.571,1.47,-1.649,8.461,5.164,-4.345,-8.366,,303.9,-8.398,332.0,306.9,323.2,311.3,315.0,36,319.8,5,5,prime,10,0,64,norm,36,-4.724,up,norm,311.953050204,310.3,309.2,1.374,304.5,5,321.4,322.3,304.3,10,6,8.173,4.8,1.49,-1.397,-5.282,-7.745,298.4,6,376.0,-8.077,-7.898,30,-8.158,-7.685,-4.736,-5.201,-4.489,-4.548,4.578,7.76,35,-1.266,1.801,5.203,8.446,-8.088,-7.515,-1.359,1.569,299.9,292.0,297.2,302.2,304.7,306.4,308.9,327.1,293.8,319.9,1,norm,1.165,1.564,-1.76,-1.742,-4.927,-5.076,-1.444,-1.662,-1.98,-1.173,1.246,-1.615,325.4,309.3,-5.241,-7.542,306.9,-1.998,7.564,4.314,-4.974,-7.933,20,4.986,4.513,4.614,4.413,1.11,2.038,1.607,1.507,20,4.453,5.221,-60,65.5971700838,norm,0,69,69,69,228.769,228.781,228.799628824,228.8,228.806,228.815,up,1,2.8819374146,7.1180625854,001,319,1366_768,Intel(R) Core(TM) i5-3320M CPU @ 2.60GHz,orientation_search,GRVLAPTOP6,Intel(R) HD Graphics 4000,2018_nov_08_1408,testMonitor,
312.0,320.6,320.8,316.0,36,30,323.2,332.0,316.6,317.0,7.545,8.368,7.579,7.791,8.155,7.848,8.363,4.34,-5.291,-7.569,2.004,-1.883,7.58,5.156,-5.29,-7.654,317.5,314.7,-7.737,321.9,303.7,296.1,,303.0,36,313.4,5,5,prime,10,0,93,norm,36,-4.826,down,norm,311.953050204,302.1,318.9,1.639,306.3,2,292.0,309.4,329.4,10,6,7.987,4.929,1.341,-2.02,-4.833,-7.506,314.0,6,405.0,-8.207,-8.422,30,-7.596,-8.11,-4.658,-4.397,-4.413,-5.152,4.852,8.266,32,-2.071,1.448,4.922,8.322,-7.515,-7.936,-2.08,1.538,304.6,308.4,327.2,316.7,311.9,321.4,313.4,301.6,305.3,303.6,2,norm,2.034,1.661,-1.239,-1.291,-4.729,-4.669,-1.838,-1.829,-1.676,-1.331,1.259,-1.164,331.8,299.0,-5.052,-7.514,319.9,-1.599,7.742,5.124,-4.825,-8.042,20,4.611,4.994,4.531,4.718,1.302,1.656,1.895,1.384,20,4.83,4.697,-60,65.5971700838,norm,0,70,70,70,231.73,231.742,231.761492652,231.762,231.768,231.776,down,1,1.35741311908,8.64258688092,001,319,1366_768,Intel(R) Core(TM) i5-3320M CPU @ 2.60GHz,orientation_search,GRVLAPTOP6,Intel(R) HD Graphics 4000,2018_nov_08_1408,testMonitor,
310.4,317.6,321.1,311.5,36,30,313.5,295.4,309.6,302.9,8.381,7.67,7.963,7.694,7.797,8.285,8.211,5.068,-4.65,-8.084,1.661,-1.483,7.51,5.11,-4.904,-8.461,326.8,329.4,-8.187,311.8,311.0,310.4,316.8,332.0,36,311.5,3,5,prime,10,0,116,norm,36,-4.862,down,norm,311.953050204,308.3,305.9,1.874,324.7,1,319.5,308.7,305.9,10,6,7.692,5.243,1.613,-1.552,-4.969,-8.344,292.0,6,428.0,-8.276,-8.467,30,-8.21,-8.213,-4.738,-4.659,-5.198,-5.099,4.466,7.823,19,-1.352,1.957,5.187,8.359,-7.638,-7.559,-1.725,1.997,321.6,305.7,305.9,315.3,319.5,308.9,307.9,329.9,312.6,306.8,3,norm,1.934,2.079,-1.638,-1.683,-4.931,-4.853,-1.849,-1.475,-1.196,-1.225,1.402,-1.971,,301.0,-4.791,-8.19,310.2,-1.664,8.208,4.995,-4.825,-7.733,20,5.126,4.479,4.58,4.653,1.954,2.052,1.678,1.698,20,4.65,5.011,-60,65.5971700838,norm,0,71,71,71,233.167,233.179,233.198772126,233.199,233.205,233.214,down,1,1.02023922133,8.97976077867,001,319,1366_768,Intel(R) Core(TM) i5-3320M CPU @ 2.60GHz,orientation_search,GRVLAPTOP6,Intel(R) HD Graphics 4000,2018_nov_08_1408,testMonitor,
326.9,311.8,305.4,308.3,36,30,325.7,308.4,296.4,316.1,7.891,8.494,7.613,7.777,7.772,8.314,7.902,4.729,-5.161,-7.809,1.424,-1.379,7.627,5.104,-4.965,-8.215,307.1,305.7,-8.085,309.9,303.4,314.4,305.9,306.8,36,308.1,2,5,prime,10,0,86,norm,36,-4.555,down,norm,311.953050204,326.8,324.9,1.727,309.5,0,332.0,325.4,,10,6,8.291,4.727,1.669,-1.82,-5.012,-7.553,301.2,6,398.0,-8.094,-8.036,30,-7.535,-7.927,-4.781,-4.778,-4.653,-5.23,4.677,7.919,12,-1.66,2.002,4.544,7.746,-7.56,-8.232,-2.038,1.697,292.0,310.5,309.0,311.8,320.6,296.0,318.9,312.5,311.3,313.2,4,norm,1.777,2.095,-1.453,-2.078,-4.38,-4.694,-1.592,-1.225,-1.97,-1.489,1.499,-1.565,310.4,312.8,-4.957,-8.19,325.5,-1.385,7.978,4.977,-4.819,-8.011,20,4.965,4.886,4.429,4.447,1.638,1.645,1.147,1.572,20,4.339,4.66,-60,65.5971700838,norm,0,72,72,72,234.267,234.279,234.298930253,234.299,234.305,234.314,down,1,1.10197093657,8.89802906343,001,319,1366_768,Intel(R) Core(TM) i5-3320M CPU @ 2.60GHz,orientation_search,GRVLAPTOP6,Intel(R) HD Graphics 4000,2018_nov_08_1408,testMonitor,
316.8,314.3,327.8,315.2,36,30,314.6,310.8,316.1,300.9,7.927,7.714,7.759,7.731,7.554,8.43,8.339,4.948,-5.082,-8.25,1.65,-1.576,7.536,4.51,-4.767,-8.47,326.2,306.2,-7.878,312.5,305.4,,308.2,306.5,36,311.4,5,5,prime,10,0,103,norm,36,-5.124,up,norm,311.953050204,318.5,327.6,2.012,307.6,3,319.6,310.8,292.0,10,6,8.481,5.109,2.016,-1.744,-4.881,-8.162,319.9,6,415.0,-8.462,-7.576,30,-8.079,-7.672,-4.937,-5.251,-4.783,-4.981,4.774,7.519,33,-1.68,1.25,5.241,7.815,-8.147,-8.21,-1.104,1.435,302.1,308.5,332.0,312.0,306.3,295.3,315.5,298.7,318.2,318.2,5,norm,1.191,1.452,-1.753,-1.589,-4.522,-5.071,-1.895,-1.367,-2.059,-1.323,1.553,-1.901,305.0,310.4,-4.347,-8.222,311.0,-1.21,8.494,5.218,-5.163,-7.957,20,5.035,5.042,4.754,4.924,1.759,1.326,1.574,1.598,20,4.809,4.734,-60,65.5971700838,norm,0,73,73,73,235.45,235.462,235.482196297,235.483,235.489,235.497,up,1,1.0689152144,8.9310847856,001,319,1366_768,Intel(R) Core(TM) i5-3320M CPU @ 2.60GHz,orientation_search,GRVLAPTOP6,Intel(R) HD Graphics 4000,2018_nov_08_1408,testMonitor,
409.4,424.3,419.3,420.1,36,-80,409.3,411.5,404.3,410.0,8.358,7.647,7.804,8.088,7.752,7.645,8.239,5.249,-4.897,-8.043,1.888,-2.043,8.351,4.519,-4.68,-8.247,419.2,416.1,-7.964,418.1,409.1,420.8,417.9,416.0,36,410.7,0,5,probe,5,0,69,norm,36,-4.556,down,norm,414.272917994,409.4,410.0,1.376,413.8,0,417.9,418.4,408.1,10,6,8.203,4.932,1.219,-1.163,-4.425,-7.56,419.1,2,345.3,-8.149,-7.847,30,-7.524,-8.012,-4.66,-4.712,-4.346,-4.823,4.594,7.718,0,-1.211,1.692,4.302,7.722,-8.417,-8.359,-2.028,1.208,414.4,413.9,408.2,418.6,415.5,,417.4,408.2,415.4,406.2,0,norm,1.785,1.432,-1.527,-1.179,-5.215,-4.338,-1.716,-1.935,-1.749,-1.828,1.332,-1.156,407.1,419.5,-4.489,-7.83,413.9,-1.345,7.591,4.93,-4.977,-7.639,21,4.407,4.622,4.78,4.397,1.717,1.44,1.855,2.042,21,4.362,5.233,30,311.953050204,norm,0,74,74,74,236.599,236.611,236.630730521,236.631,236.638,236.646,down,1,1.28933437329,8.71066562671,001,319,1366_768,Intel(R) Core(TM) i5-3320M CPU @ 2.60GHz,orientation_search,GRVLAPTOP6,Intel(R) HD Graphics 4000,2018_nov_08_1408,testMonitor,
437.6,,442.1,441.8,36,-80,433.9,438.3,439.8,444.4,7.604,8.287,7.769,8.115,7.639,8.287,7.934,4.442,-5.236,-7.873,1.898,-1.829,7.56,4.452,-5.023,-7.645,442.2,433.3,-7.697,440.8,440.2,439.9,436.6,442.6,36,439.4,3,5,probe,5,0,94,norm,36,-5.291,up,norm,439.272917994,433.2,449.1,1.485,443.4,5,438.6,443.9,438.9,10,6,7.846,4.348,1.153,-1.535,-4.395,-8.381,441.6,2,345.3,-8.44,-7.896,30,-8.358,-8.216,-4.891,-4.635,-4.646,-4.992,5.268,7.605,23,-1.601,1.859,4.485,8.429,-8.065,-8.177,-1.695,1.405,438.1,438.7,433.5,446.9,437.1,429.3,439.1,433.2,442.3,446.9,1,norm,1.568,2.048,-1.724,-1.321,-5.036,-4.635,-1.962,-1.526,-1.645,-1.537,1.393,-1.783,436.6,442.0,-4.627,-8.223,449.3,-1.548,7.888,5.298,-4.512,-7.871,21,5.295,4.559,5.1,4.355,1.402,1.518,1.311,1.489,21,4.692,4.399,30,311.953050204,norm,0,75,75,75,237.969,237.981,238.000344544,238.001,238.007,238.015,up,1,1.17250653726,8.82749346274,001,319,1366_768,Intel(R) Core(TM) i5-3320M CPU @ 2.60GHz,orientation_search,GRVLAPTOP6,Intel(R) HD Graphics 4000,2018_nov_08_1408,testMonitor,
14.5,14.3,8.7,5.6,36,-30,22.5,,33.6,26.5,8.442,7.515,8.245,7.689,8.179,7.697,8.172,4.793,-5.153,-8.193,1.165,-1.46,8.234,4.714,-5.124,-7.845,39.1,18.4,-7.545,20.5,28.6,0.6,36.6,13.0,36,6.4,4,5,prime,10,0,115,norm,36,-5.049,down,norm,20.5522267539,22.9,22.9,1.335,28.7,1,12.0,14.2,19.4,10,5,8.352,4.685,1.668,-1.573,-4.953,-8.4,13.6,5,135.6,-8.245,-8.202,-30,-8.163,-8.47,-4.823,-5.025,-4.314,-4.438,5.088,8.005,25,-1.576,2.093,5.159,7.943,-8.106,-7.729,-1.591,1.13,21.3,40.6,11.6,32.6,35.7,22.6,27.3,19.4,39.2,21.0,0,norm,1.191,1.337,-1.285,-1.482,-4.684,-5.148,-1.985,-2.001,-2.091,-1.71,1.701,-2.099,21.7,29.4,-5.019,-8.306,35.6,-1.131,7.731,4.305,-5.109,-7.84,22,5.054,4.416,4.56,4.385,1.37,1.372,1.693,2.012,22,4.331,4.843,-80,311.953050204,norm,0,76,76,76,239.221,239.234,239.255282159,239.256,239.259,239.265,down,1,1.04122600931,8.95877399069,001,319,1366_768,Intel(R) Core(TM) i5-3320M CPU @ 2.60GHz,orientation_search,GRVLAPTOP6,Intel(R) HD Graphics 4000,2018_nov_08_1408,testMonitor,
22.2,16.5,11.0,14.3,36,-30,2.3,29.0,36.6,22.4,8.044,8.164,7.98,8.176,8.279,8.279,7.561,5.06,-4.903,-8.2,1.274,-2.097,8.018,4.59,-5.013,-8.424,22.9,20.6,-8.333,20.3,24.9,32.9,36.4,,36,0.6,4,5,prime,10,0,104,norm,36,-4.803,down,norm,20.5522267539,12.1,12.5,1.702,15.7,2,16.0,22.6,25.8,10,5,8.389,4.564,2.046,-1.218,-4.657,-8.366,17.9,5,124.6,-8.032,-7.515,-30,-8.145,-7.804,-4.698,-5.151,-4.306,-4.309,5.236,8.429,26,-1.677,1.403,4.364,7.838,-8.102,-8.161,-1.199,1.674,12.6,23.4,33.1,16.0,25.1,35.0,40.6,2.6,25.0,19.9,1,norm,1.861,1.924,-2.008,-1.672,-5.259,-4.458,-1.901,-1.189,-1.69,-2.1,1.203,-1.326,24.8,26.4,-4.637,-7.966,19.8,-1.272,7.973,4.624,-5.203,-8.084,22,4.726,4.44,5.161,4.894,1.833,1.319,1.628,1.829,22,4.362,4.582,-80,311.953050204,norm,0,77,77,77,240.339,240.352,240.370446541,240.371,240.377,240.385,down,1,1.18804422813,8.81195577187,001,319,1366_768,Intel(R) Core(TM) i5-3320M CPU @ 2.60GHz,orientation_search,GRVLAPTOP6,Intel(R) HD Graphics 4000,2018_nov_08_1408,testMonitor,
34.0,19.8,26.1,21.9,36,-30,37.6,28.5,23.2,,8.141,8.058,7.656,8.425,7.793,8.496,7.976,4.989,-4.792,-7.596,2.006,-1.755,7.674,5.039,-4.889,-7.523,28.4,24.8,-7.561,19.2,22.1,28.2,9.5,8.0,36,19.9,4,5,prime,10,0,72,norm,36,-4.464,up,norm,20.5522267539,31.1,16.8,1.62,26.0,5,12.6,0.6,9.9,10,5,8.006,5.181,1.472,-1.247,-5.296,-8.067,13.2,5,92.6,-7.984,-8.003,-30,-7.854,-8.14,-5.077,-4.515,-4.597,-5.221,4.83,7.679,29,-2.069,1.297,5.059,7.794,-7.973,-8.217,-1.863,1.993,34.9,11.0,20.6,22.0,15.4,15.3,40.6,3.0,21.1,7.7,2,norm,1.639,1.563,-1.69,-1.332,-4.515,-4.868,-1.596,-1.471,-1.766,-1.609,1.42,-1.683,6.3,22.3,-4.437,-8.216,1.6,-1.369,8.082,5.019,-5.126,-7.888,22,4.59,4.885,4.616,4.674,1.892,1.624,1.652,1.773,22,4.389,4.991,-80,311.953050204,norm,0,78,78,78,241.607,241.619,241.638218832,241.639,241.645,241.654,up,1,1.38862955859,8.61137044141,001,319,1366_768,Intel(R) Core(TM) i5-3320M CPU @ 2.60GHz,orientation_search,GRVLAPTOP6,Intel(R) HD Graphics 4000,2018_nov_08_1408,testMonitor,
13.3,24.7,21.1,27.5,36,-30,17.7,10.4,11.4,15.5,7.703,7.809,8.357,8.021,8.33,7.941,7.7,5.121,-5.104,-7.513,1.712,-1.565,7.776,4.668,-5.184,-7.784,38.7,5.8,-7.869,15.4,16.0,32.6,21.3,8.8,36,16.2,2,5,prime,10,0,73,norm,36,-4.396,down,norm,20.5522267539,34.6,27.1,1.396,8.1,0,20.1,18.2,,10,5,7.793,4.702,2.052,-1.718,-4.889,-7.867,9.4,5,93.6,-8.378,-8.248,-30,-7.869,-7.632,-5.228,-4.868,-5.047,-5.044,4.569,7.519,12,-1.736,1.24,5.035,7.521,-8.098,-7.901,-1.871,1.446,26.2,9.2,18.2,30.7,40.6,23.8,4.4,38.9,18.1,0.6,3,norm,1.289,1.423,-1.592,-2.038,-4.957,-5.18,-1.749,-1.321,-1.258,-1.442,1.692,-1.15,14.2,26.6,-4.724,-8.467,36.6,-2.004,8.348,4.598,-4.774,-8.336,22,4.662,5.121,5.096,4.351,1.146,1.12,1.925,1.329,22,4.748,4.94,-80,311.953050204,norm,0,79,79,79,243.076,243.09,243.108533086,243.109,243.115,243.123,down,1,1.82987919607,8.17012080393,001,319,1366_768,Intel(R) Core(TM) i5-3320M CPU @ 2.60GHz,orientation_search,GRVLAPTOP6,Intel(R) HD Graphics 4000,2018_nov_08_1408,testMonitor,
7.5,34.9,37.8,22.0,36,-30,,22.2,12.0,35.8,8.213,7.881,7.816,7.649,8.43,7.641,8.025,5.034,-4.522,-7.945,1.556,-1.448,8.096,4.481,-4.99,-7.508,23.7,25.7,-7.678,26.8,25.5,16.8,19.0,20.6,36,27.1,4,5,prime,10,0,72,norm,36,-4.35,down,norm,20.5522267539,20.9,22.6,1.456,23.3,0,25.9,10.5,20.1,10,5,8.345,5.033,1.942,-1.801,-4.899,-7.548,13.6,5,92.6,-8.483,-8.129,-30,-8.486,-7.748,-4.439,-4.865,-4.96,-4.343,4.943,7.708,24,-1.486,1.748,5.056,8.448,-8.155,-8.466,-1.422,1.1,21.3,12.1,7.2,32.8,30.1,25.2,29.3,27.0,11.6,27.8,4,norm,1.64,1.444,-1.222,-1.605,-5.156,-5.18,-1.288,-1.82,-1.862,-2.026,1.845,-1.756,40.6,32.3,-4.762,-7.846,29.3,-1.432,8.187,5.268,-4.761,-7.77,22,5.238,4.684,4.955,5.245,1.37,1.162,1.986,1.306,22,4.569,5.287,-80,311.953050204,norm,0,80,80,80,244.986,244.998,245.017930141,245.018,245.024,245.034,down,1,1.22221695396,8.77778304604,001,319,1366_768,Intel(R) Core(TM) i5-3320M CPU @ 2.60GHz,orientation_search,GRVLAPTOP6,Intel(R) HD Graphics 4000,2018_nov_08_1408,testMonitor,
54.9,66.4,51.4,65.6,36,-10,56.2,60.8,55.6,57.8,8.067,7.747,7.503,7.982,7.611,8.398,8.475,4.917,-5.218,-8.07,1.582,-1.636,8.336,5.155,-4.449,-7.952,61.7,69.9,-7.722,62.7,56.5,63.4,62.4,56.1,36,52.6,2,5,probe,5,0,67,norm,36,-5.018,up,norm,61.4251036336,71.4,,1.347,62.0,4,60.0,54.1,62.9,10,5,7.678,4.638,1.542,-1.894,-4.981,-8.367,57.3,2,-5.6,-8.071,-8.099,-30,-8.065,-7.653,-5.16,-4.346,-4.745,-4.325,4.558,8.277,16,-1.558,1.639,5.227,7.876,-7.73,-7.972,-1.57,1.285,65.6,60.3,69.7,66.8,64.6,57.5,63.8,70.7,63.6,60.6,0,norm,1.631,1.107,-1.519,-1.682,-4.985,-4.902,-1.969,-1.871,-1.83,-2.096,1.3,-1.517,67.7,60.5,-4.443,-8.419,58.7,-1.178,8.447,5.006,-4.742,-8.098,23,4.841,4.487,5.167,5.234,1.158,1.27,1.201,1.212,23,5.24,4.836,-30,20.5522267539,norm,0,81,81,81,246.289,246.301,246.322034488,246.323,246.328,246.337,up,1,1.18808453035,8.81191546965,001,319,1366_768,Intel(R) Core(TM) i5-3320M CPU @ 2.60GHz,orientation_search,GRVLAPTOP6,Intel(R) HD Graphics 4000,2018_nov_08_1408,testMonitor,
100.2,99.4,101.0,100.9,36,-10,101.7,96.0,98.4,96.3,7.874,7.563,7.841,7.603,8.281,8.118,7.699,5.191,-4.882,-7.713,1.992,-1.163,7.837,5.138,-5.214,-7.968,102.6,99.4,-8.051,90.1,88.8,97.0,104.4,90.4,36,91.4,2,5,probe,5,0,100,norm,36,-4.846,down,norm,94.4251036336,100.6,87.9,1.662,,2,95.3,90.6,93.3,10,5,8.463,4.421,1.155,-2.019,-4.94,-7.654,102.1,2,-5.6,-7.81,-7.983,-30,-7.624,-8.058,-4.859,-4.322,-4.34,-4.817,4.852,7.864,14,-1.703,1.939,5.25,8.426,-8.482,-7.571,-1.617,1.86,84.4,94.7,94.4,97.6,100.7,89.7,98.1,89.9,94.6,97.1,1,norm,1.178,1.871,-1.362,-2.091,-4.903,-5.017,-1.998,-1.621,-1.386,-2.091,1.83,-1.626,98.0,93.3,-4.674,-7.869,96.6,-1.869,7.969,4.483,-5.296,-7.726,23,5.254,4.342,4.493,5.113,1.996,1.359,1.365,2.068,23,4.839,4.884,-30,20.5522267539,norm,0,82,82,82,247.558,247.57,247.589897656,247.59,247.596,247.605,down,1,0.799163768461,9.20083623154,001,319,1366_768,Intel(R) Core(TM) i5-3320M CPU @ 2.60GHz,orientation_search,GRVLAPTOP6,Intel(R) HD Graphics 4000,2018_nov_08_1408,testMonitor,
39.2,36.1,42.4,24.0,36,20,47.8,32.1,50.9,36.7,7.768,7.607,7.553,8.429,8.407,8.387,8.146,4.527,-4.335,-7.951,1.354,-1.506,7.951,5.137,-5.037,-7.778,23.3,46.1,-7.784,48.5,41.1,33.1,23.4,36.8,36,42.9,1,5,prime,10,0,101,norm,36,-4.748,up,norm,40.1841731239,31.8,39.5,2.029,54.5,5,,52.4,55.2,10,6,7.939,4.881,1.808,-1.277,-4.656,-7.749,41.2,6,141.2,-7.599,-7.669,20,-7.776,-8.406,-4.8,-4.547,-4.411,-4.351,4.587,7.88,11,-1.923,1.499,5.03,7.949,-7.942,-8.341,-1.689,1.652,41.3,41.0,29.4,30.8,35.5,20.2,46.3,47.4,60.2,41.6,0,norm,1.539,1.774,-1.824,-2.03,-4.52,-4.413,-2.002,-1.691,-1.31,-1.211,1.561,-1.332,52.7,35.9,-4.666,-7.529,41.9,-2.038,8.166,4.762,-4.378,-8.128,24,4.463,4.574,4.761,5.258,1.642,1.931,1.967,1.111,24,4.507,5.132,-10,20.5522267539,norm,0,83,83,83,248.437,248.45,248.468874043,248.469,248.475,248.484,up,1,0.750035758345,9.24996424166,001,319,1366_768,Intel(R) Core(TM) i5-3320M CPU @ 2.60GHz,orientation_search,GRVLAPTOP6,Intel(R) HD Graphics 4000,2018_nov_08_1408,testMonitor,
48.1,20.2,55.2,51.9,36,20,56.0,25.1,27.0,60.2,8.203,7.908,8.023,8.315,8.297,7.775,7.835,4.707,-4.361,-7.64,2.028,-1.533,8.2,4.704,-4.596,-8.222,21.9,49.7,-8.471,53.1,49.7,45.8,33.5,49.9,36,,4,5,prime,10,0,71,norm,36,-4.835,up,norm,40.1841731239,33.3,36.3,1.93,51.3,3,24.3,39.9,46.2,10,6,8.315,4.797,1.171,-1.552,-4.66,-7.953,40.9,6,111.2,-8.114,-8.24,20,-8.418,-7.942,-4.818,-4.999,-5.098,-4.955,5.093,7.69,27,-1.105,1.494,4.882,7.558,-7.929,-8.483,-1.685,1.936,31.1,51.6,47.9,39.5,44.1,35.6,36.8,54.5,44.7,55.5,1,norm,1.546,2.093,-1.181,-1.994,-4.887,-4.719,-1.296,-1.298,-1.124,-1.894,2.1,-2.076,49.8,51.3,-4.937,-8.347,32.1,-1.835,8.433,4.356,-5.049,-7.669,24,4.401,4.463,4.527,4.553,1.591,1.473,1.788,2.025,24,5.082,4.894,-10,20.5522267539,norm,0,84,84,84,249.267,249.279,249.298834239,249.299,249.305,249.314,up,1,0.866176085929,9.13382391407,001,319,1366_768,Intel(R) Core(TM) i5-3320M CPU @ 2.60GHz,orientation_search,GRVLAPTOP6,Intel(R) HD Graphics 4000,2018_nov_08_1408,testMonitor,
34.7,35.3,49.2,40.5,36,20,34.5,40.4,36.1,38.1,8.126,7.554,8.341,7.585,8.229,7.752,7.934,4.475,-5.23,-7.908,1.776,-1.512,8.174,4.306,-4.754,-8.105,37.2,32.8,-8.152,45.4,45.3,34.5,48.3,50.2,36,34.2,2,5,prime,10,0,64,norm,36,-4.491,up,norm,40.1841731239,,31.8,1.413,39.8,5,40.5,55.7,52.1,10,6,7.754,4.866,1.666,-1.734,-4.764,-7.53,42.6,6,104.2,-8.387,-8.252,20,-7.91,-7.714,-4.42,-4.406,-4.549,-4.7,4.383,8.089,17,-2.03,1.504,4.822,7.585,-7.576,-8.203,-1.434,1.817,39.2,21.6,41.8,20.2,54.2,31.3,27.2,25.1,28.9,44.5,2,norm,2.037,1.519,-2.084,-1.316,-5.274,-4.817,-1.318,-1.419,-1.838,-1.291,2.064,-1.591,39.3,60.2,-4.444,-8.246,39.8,-1.957,7.955,4.528,-4.302,-8.102,24,5.287,4.479,4.796,5.246,1.689,1.412,1.66,1.459,24,5.142,4.463,-10,20.5522267539,norm,0,85,85,85,250.214,250.226,250.245465408,250.246,250.252,250.26,up,1,0.748644936659,9.25135506334,001,319,1366_768,Intel(R) Core(TM) i5-3320M CPU @ 2.60GHz,orientation_search,GRVLAPTOP6,Intel(R) HD Graphics 4000,2018_nov_08_1408,testMonitor,
21.1,36.7,57.6,48.3,36,20,32.8,49.9,39.3,40.8,8.132,7.945,8.04,8.055,7.693,7.605,8.175,4.934,-4.822,-7.588,1.341,-1.387,7.85,4.997,-4.674,-7.731,43.9,,-8.069,23.1,49.4,22.8,32.4,35.4,36,29.1,5,5,prime,10,0,112,norm,36,-4.396,up,norm,40.1841731239,46.0,36.4,1.935,21.1,4,37.1,45.7,30.2,10,6,8.043,4.406,1.132,-1.517,-5.15,-8.056,47.8,6,152.2,-7.572,-7.66,20,-8.469,-8.406,-4.955,-5.261,-5.089,-4.382,4.589,8.179,34,-1.972,1.311,4.963,7.831,-8.091,-8.104,-1.874,1.652,47.6,38.9,47.0,50.5,30.0,55.3,22.9,49.5,60.2,25.9,3,norm,1.147,1.555,-1.201,-1.387,-4.876,-5.283,-1.839,-1.622,-1.497,-1.27,1.8,-1.13,20.2,34.5,-5.158,-8.288,50.0,-1.171,7.758,4.695,-4.895,-7.586,24,5.285,5.171,4.896,4.327,1.985,1.49,1.64,2.047,24,5.193,4.422,-10,20.5522267539,norm,0,86,86,86,251.042,251.055,251.074020952,251.075,251.081,251.089,up,1,0.902149372669,9.09785062733,001,319,1366_768,Intel(R) Core(TM) i5-3320M CPU @ 2.60GHz,orientation_search,GRVLAPTOP6,Intel(R) HD Graphics 4000,2018_nov_08_1408,testMonitor,
53.8,49.3,60.2,58.8,36,20,35.7,22.9,24.7,38.2,7.981,8.252,7.98,7.509,7.701,8.441,7.895,4.533,-4.312,-7.534,1.398,-2.003,7.926,4.876,-4.968,-8.251,33.0,50.0,-8.396,40.3,48.2,38.6,32.1,27.1,36,50.2,3,5,prime,10,0,75,norm,36,-4.995,down,norm,40.1841731239,50.6,46.1,2.094,45.4,0,32.7,32.2,42.0,10,6,8.002,4.337,1.5,-1.348,-4.981,-8.247,34.0,6,115.2,-8.373,-7.962,20,-8.482,-8.416,-4.339,-5.153,-4.838,-4.735,4.895,7.678,18,-1.918,1.725,4.673,8.345,-7.848,-7.89,-1.721,1.604,47.9,50.5,25.8,32.4,43.0,28.3,46.1,31.9,20.2,33.9,4,norm,1.474,2.096,-1.887,-1.11,-4.614,-4.355,-1.789,-1.529,-1.518,-1.703,1.329,-1.808,24.1,,-4.534,-8.045,59.0,-1.756,8.398,5.138,-4.347,-8.462,24,5.052,5.111,4.541,5.12,1.605,1.844,1.174,1.573,24,5.123,4.611,-10,20.5522267539,norm,0,87,87,87,252.024,252.037,252.055693716,252.056,252.062,252.071,down,1,1.10469686804,8.89530313196,001,319,1366_768,Intel(R) Core(TM) i5-3320M CPU @ 2.60GHz,orientation_search,GRVLAPTOP6,Intel(R) HD Graphics 4000,2018_nov_08_1408,testMonitor,
,26.1,33.0,46.6,36,20,59.2,27.6,55.7,24.1,8.087,7.853,7.82,7.941,8.367,8.125,8.489,5.128,-5.266,-7.528,1.453,-1.745,8.222,4.918,-5.293,-7.861,54.5,34.0,-7.781,60.2,41.5,27.5,44.2,49.2,36,48.1,3,5,prime,10,0,93,norm,36,-5.139,up,norm,40.1841731239,35.0,39.7,1.933,45.7,4,42.5,47.2,20.2,10,6,7.96,4.968,1.577,-1.725,-4.718,-8.03,36.3,6,133.2,-8.474,-7.521,20,-8.068,-7.596,-4.507,-4.615,-5.087,-4.744,5.148,8.25,22,-1.355,1.505,4.645,7.555,-7.538,-7.915,-1.14,1.347,35.5,23.3,36.5,32.6,45.1,45.2,43.1,44.3,50.6,52.5,5,norm,2.065,1.664,-1.738,-1.439,-4.951,-4.685,-1.959,-1.948,-1.553,-1.522,1.132,-1.287,36.0,34.8,-5.066,-7.974,43.2,-1.118,7.828,4.6,-4.587,-7.814,24,5.083,4.5,4.327,4.53,2.071,1.262,1.178,1.791,24,4.768,4.661,-10,20.5522267539,norm,0,88,88,88,253.209,253.222,253.240266026,253.241,253.247,253.255,up,1,0.815270826963,9.18472917304,001,319,1366_768,Intel(R) Core(TM) i5-3320M CPU @ 2.60GHz,orientation_search,GRVLAPTOP6,Intel(R) HD Graphics 4000,2018_nov_08_1408,testMonitor,
173.4,173.8,162.8,178.4,36,10,182.2,173.6,175.3,170.9,7.806,8.374,7.954,8.248,8.289,7.713,8.295,4.981,-4.462,-7.667,1.248,-1.889,8.217,4.783,-4.577,-7.803,164.3,165.6,-8.234,167.6,167.6,175.3,,169.1,36,171.6,5,5,probe,5,0,113,norm,36,-4.547,down,norm,172.83266699,170.9,173.9,1.738,182.8,2,181.5,172.7,182.3,10,6,7.662,4.827,1.562,-1.421,-4.604,-8.356,163.8,1,59.8,-7.88,-8.274,20,-8.201,-8.48,-4.328,-4.931,-4.791,-5.01,4.961,8.381,32,-1.615,1.771,4.976,8.049,-8.374,-7.624,-1.584,1.876,173.3,173.1,169.7,166.3,174.2,168.9,171.9,168.8,167.1,174.3,0,norm,1.256,1.837,-1.54,-1.684,-4.497,-4.473,-1.146,-1.697,-1.134,-1.723,1.433,-1.373,180.5,169.3,-5.102,-8.151,180.4,-2.066,7.948,5.241,-4.851,-8.213,25,4.774,4.953,4.619,5.014,1.399,1.894,1.669,1.186,25,4.84,5.113,20,40.1841731239,norm,0,89,89,89,254.092,254.099,254.107301893,254.108,254.111,254.116,down,1,1.24443454011,8.75556545989,001,319,1366_768,Intel(R) Core(TM) i5-3320M CPU @ 2.60GHz,orientation_search,GRVLAPTOP6,Intel(R) HD Graphics 4000,2018_nov_08_1408,testMonitor,
228.3,232.7,230.5,228.9,36,10,224.1,230.4,251.8,230.2,8.126,8.158,7.641,8.438,7.751,7.692,8.135,4.754,-4.382,-8.286,1.801,-1.573,7.989,4.321,-5.284,-8.05,243.1,232.6,-7.734,223.6,214.2,242.9,251.6,235.6,36,241.5,0,5,prime,10,0,71,norm,36,-5.01,up,norm,233.698144479,224.8,237.1,1.274,236.8,4,240.2,244.2,234.3,10,5,8.41,5.107,1.541,-1.967,-5.14,-7.51,234.4,5,304.7,-7.862,-7.506,10,-7.85,-8.423,-4.456,-4.969,-4.696,-5.12,4.733,7.807,4,-1.727,1.339,4.951,8.032,-7.684,-7.808,-2.095,1.185,234.7,213.7,230.9,226.3,219.5,234.1,227.4,253.7,241.0,,0,norm,1.408,1.202,-1.878,-1.926,-4.305,-4.482,-1.228,-1.134,-2.071,-1.271,1.622,-1.353,233.3,229.3,-5.271,-8.128,224.6,-1.257,8.338,5.016,-5.292,-8.149,26,4.38,4.616,4.715,4.896,1.82,2.01,1.377,1.632,26,5.025,4.312,10,40.1841731239,norm,0,90,90,90,255.394,255.407,255.425317617,255.426,255.432,255.44,up,1,0.681341415904,9.3186585841,001,319,1366_768,Intel(R) Core(TM) i5-3320M CPU @ 2.60GHz,orientation_search,GRVLAPTOP6,Intel(R) HD Graphics 4000,2018_nov_08_1408,testMonitor,
232.0,236.5,233.8,237.2,36,10,232.0,234.9,213.7,226.1,7.674,7.714,7.947,8.129,7.592,7.686,7.768,4.502,-5.248,-8.405,1.673,-1.304,8.331,4.778,-5.26,-8.293,234.7,231.5,-8.316,219.3,238.4,227.2,253.7,214.2,36,246.8,0,5,prime,10,0,78,norm,36,-4.775,down,norm,233.698144479,234.4,222.1,1.589,239.2,2,240.5,247.2,232.3,10,5,8.073,4.948,1.111,-1.576,-5.2,-7.512,230.0,5,311.7,-7.947,-7.796,10,-8.311,-7.815,-5.111,-4.3,-4.351,-4.512,5.264,7.574,2,-2.077,1.824,4.618,7.52,-7.514,-7.719,-1.31,1.32,230.6,251.2,214.2,,236.2,230.2,238.3,235.9,225.1,239.9,1,norm,1.722,1.78,-1.346,-1.767,-4.474,-4.603,-1.674,-1.13,-1.542,-1.645,1.161,-1.42,219.6,235.4,-5.121,-8.301,234.3,-1.968,8.236,4.611,-5.048,-7.584,26,4.875,5.18,4.867,5.012,1.318,1.877,1.264,2.002,26,5.244,4.498,10,40.1841731239,norm,0,91,91,91,256.155,256.167,256.186492593,256.187,256.193,256.202,down,1,0.848703888532,9.15129611147,001,319,1366_768,Intel(R) Core(TM) i5-3320M CPU @ 2.60GHz,orientation_search,GRVLAPTOP6,Intel(R) HD Graphics 4000,2018_nov_08_1408,testMonitor,
233.6,231.5,224.3,237.6,36,10,240.7,236.1,243.2,231.9,8.005,7.909,8.303,7.879,8.016,8.348,8.345,4.386,-5.263,-8.108,1.224,-1.191,7.977,4.894,-5.056,-7.933,240.5,244.2,-8.393,220.4,234.7,228.2,231.3,226.1,36,228.3,2,5,prime,10,0,103,norm,36,-4.589,up,norm,233.698144479,228.9,,1.361,245.7,4,230.2,237.4,231.6,10,5,8.137,5.017,1.117,-1.501,-4.743,-7.508,232.2,5,336.7,-8.477,-8.068,10,-8.282,-7.876,-4.378,-4.971,-4.876,-4.53,4.591,8.16,16,-1.758,1.356,5.211,8.489,-7.913,-7.973,-1.309,1.193,231.9,222.5,228.1,244.1,238.8,231.0,232.3,221.9,252.1,241.9,2,norm,1.89,2.025,-1.396,-1.223,-4.543,-4.552,-1.573,-1.607,-1.591,-1.214,1.692,-1.281,236.0,213.7,-5.048,-7.821,253.7,-1.123,8.382,4.334,-4.715,-8.192,26,4.729,4.845,4.738,5.082,2.062,1.195,2.078,1.337,26,5.254,4.956,10,40.1841731239,norm,0,92,92,92,257.084,257.097,257.116893031,257.117,257.123,257.132,up,1,0.696173422821,9.30382657718,001,319,1366_768,Intel(R) Core(TM) i5-3320M CPU @ 2.60GHz,orientation_search,GRVLAPTOP6,Intel(R) HD Graphics 4000,2018_nov_08_1408,testMonitor,
224.5,218.6,242.8,229.6,36,10,250.7,226.2,228.2,234.6,7.663,7.706,7.576,7.883,8.313,8.474,7.874,4.626,-4.849,-7.785,1.645,-1.956,8.379,4.835,-4.667,-7.856,223.0,216.8,-7.59,230.8,238.2,253.7,231.4,234.5,36,224.1,2,5,prime,10,0,93,norm,36,-5.113,up,norm,233.698144479,,251.7,1.596,225.7,5,222.0,214.2,232.0,10,5,7.632,4.984,1.145,-1.336,-4.81,-7.966,237.7,5,326.7,-7.705,-7.902,10,-7.533,-7.574,-5.293,-4.975,-5.165,-4.968,5.278,7.926,17,-1.83,1.482,5.174,8.419,-7.934,-7.623,-1.352,1.743,219.7,237.4,241.8,244.2,232.5,242.9,224.2,236.1,213.7,249.3,3,norm,1.557,2.064,-1.593,-1.896,-4.766,-4.736,-1.132,-1.645,-2.029,-1.595,2.099,-1.395,222.0,246.6,-5.234,-8.176,231.0,-1.588,8.397,4.354,-4.381,-7.553,26,4.657,4.818,4.442,4.983,1.273,2.051,1.219,1.214,26,4.803,4.412,10,40.1841731239,norm,0,93,93,93,257.861,257.873,257.892237793,257.893,257.899,257.907,up,1,1.08782801858,8.91217198142,001,319,1366_768,Intel(R) Core(TM) i5-3320M CPU @ 2.60GHz,orientation_search,GRVLAPTOP6,Intel(R) HD Graphics 4000,2018_nov_08_1408,testMonitor,
247.9,231.4,234.7,219.7,36,10,231.5,227.5,236.4,250.2,8.125,8.263,7.898,8.311,7.526,8.268,7.589,4.318,-4.762,-8.352,1.939,-1.702,7.808,5.263,-5.148,-7.738,235.8,222.9,-8.02,242.4,226.6,234.4,225.3,253.4,36,244.8,2,5,prime,10,0,86,norm,36,-4.711,up,norm,233.698144479,223.1,219.0,1.789,244.3,3,223.4,231.6,238.2,10,5,8.349,5.216,1.35,-1.806,-4.955,-7.775,238.1,5,319.7,-7.646,-8.119,10,-8.277,-7.936,-4.717,-4.914,-4.994,-4.898,4.723,8.135,15,-1.821,1.1,4.757,7.629,-7.876,-8.059,-1.172,1.347,228.5,251.8,231.3,246.8,219.2,217.6,239.1,253.7,229.8,225.8,4,norm,1.822,1.559,-1.404,-1.256,-5.049,-4.68,-1.234,-1.755,-1.465,-1.891,1.315,-1.462,232.2,228.7,-4.644,-8.442,,-1.721,8.024,4.831,-4.373,-7.61,26,4.801,4.881,5.184,4.536,1.526,1.119,1.72,1.813,26,5.191,4.458,10,40.1841731239,norm,0,94,94,94,259.027,259.04,259.058976766,259.06,259.066,259.074,down,0,0.665776856884,-10,001,319,1366_768,Intel(R) Core(TM) i5-3320M CPU @ 2.60GHz,orientation_search,GRVLAPTOP6,Intel(R) HD Graphics 4000,2018_nov_08_1408,testMonitor,
348.8,,348.1,351.1,36,20,351.2,351.0,343.9,344.8,8.254,8.303,8.211,7.533,7.53,8.413,7.852,4.736,-5.276,-7.541,1.934,-2.029,7.71,5.252,-4.736,-8.413,356.4,358.1,-8.39,359.9,342.2,339.9,347.5,345.3,36,348.3,3,5,probe,5,0,102,norm,36,-4.766,up,norm,349.890084157,349.1,353.1,1.438,359.4,5,349.6,356.2,354.7,10,5,8.021,4.497,1.446,-1.212,-4.845,-7.931,355.5,1,247.9,-7.83,-7.992,10,-8.405,-7.555,-5.109,-4.33,-4.932,-4.631,5.13,7.869,23,-1.482,1.684,4.424,7.603,-7.573,-8.169,-1.82,2.021,343.4,346.7,353.2,352.6,351.5,352.7,352.8,349.5,349.5,352.1,0,norm,1.114,1.965,-1.294,-1.338,-4.592,-4.483,-1.501,-1.907,-1.969,-1.232,1.261,-1.712,359.3,345.6,-5.125,-8.358,344.4,-1.883,8.121,4.623,-4.64,-7.706,27,5.202,5.034,4.824,4.691,1.368,1.875,1.169,2.007,27,5.287,4.327,10,233.698144479,norm,0,95,95,95,260.805,260.811,260.829619207,260.83,260.832,260.836,up,1,0.740009198391,9.25999080161,001,319,1366_768,Intel(R) Core(TM) i5-3320M CPU @ 2.60GHz,orientation_search,GRVLAPTOP6,Intel(R) HD Graphics 4000,2018_nov_08_1408,testMonitor,
77.6,88.4,92.9,88.9,36,-10,83.3,77.8,99.0,74.6,7.609,7.578,8.032,8.345,8.129,8.319,7.825,4.385,-5.255,-8.293,1.794,-1.67,8.299,5.278,-4.99,-8.308,99.4,96.7,-7.716,85.5,90.5,104.4,104.2,86.9,36,95.4,0,5,prime,10,0,86,norm,36,-4.843,down,norm,91.3302373609,95.0,95.3,1.588,104.1,1,93.3,111.3,96.6,10,6,8.163,4.738,1.28,-1.619,-5.244,-7.584,84.5,6,177.3,-8.216,-8.333,-10,-8.104,-8.314,-4.471,-4.694,-4.474,-4.473,5.283,7.757,1,-1.309,1.924,4.62,8.136,-7.557,-8.27,-1.802,1.298,90.0,90.6,93.0,98.3,,104.8,71.3,87.9,91.8,84.9,0,norm,1.916,1.706,-1.641,-1.908,-4.963,-4.344,-1.957,-1.235,-1.667,-1.348,1.762,-1.212,91.9,88.7,-5.113,-7.801,87.8,-1.373,8.414,4.474,-5.041,-8.479,28,4.545,4.987,4.549,4.865,1.582,1.695,1.301,1.314,28,4.444,5.039,20,233.698144479,norm,0,96,96,96,261.609,261.621,261.641154967,261.642,261.647,261.656,down,1,1.03611315915,8.96388684085,001,319,1366_768,Intel(R) Core(TM) i5-3320M CPU @ 2.60GHz,orientation_search,GRVLAPTOP6,Intel(R) HD Graphics 4000,2018_nov_08_1408,testMonitor,
