d_ori_22,d_ori_23,d_ori_20,d_ori_21,set_size,ctpd,d_ori_24,d_ori_25,d_ori_28,d_ori_29,stim_pos_x_30,stim_pos_x_31,stim_pos_x_32,stim_pos_x_33,stim_pos_x_34,stim_pos_x_35,stim_pos_y_11,stim_pos_y_10,stim_pos_y_13,stim_pos_y_12,stim_pos_y_15,stim_pos_y_14,stim_pos_y_17,stim_pos_y_16,stim_pos_y_19,stim_pos_y_18,d_ori_35,d_ori_34,stim_pos_x_3,d_ori_31,d_ori_30,d_ori_33,d_ori_32,d_ori_26,test_set_size,d_ori_27,targetCol,dsd_test,seq_type,dsd,blockRepN,targetDist,dtype_test,prime_set_size,stim_pos_y_25,correctResponse,dtype,distrMean,d_ori_17,d_ori_16,d_ori_15,d_ori_14,targetRow,d_ori_11,d_ori_13,d_ori_12,dsd_prime,streak_length_prime,stim_pos_y_35,stim_pos_y_34,stim_pos_y_33,stim_pos_y_32,stim_pos_y_31,stim_pos_y_30,d_ori_10,nextProbe,targetOri,stim_pos_x_1,stim_pos_x_2,ctpd_prime,stim_pos_x_4,stim_pos_x_5,stim_pos_x_6,stim_pos_x_7,stim_pos_x_8,stim_pos_x_9,stim_pos_y_28,stim_pos_y_29,targetPos,stim_pos_y_20,stim_pos_y_21,stim_pos_y_22,stim_pos_y_23,stim_pos_y_24,stim_pos_x_0,stim_pos_y_26,stim_pos_y_27,d_ori_9,d_ori_8,d_ori_3,d_ori_2,d_ori_1,d_ori_0,d_ori_7,d_ori_6,d_ori_5,d_ori_4,trialN,dtype_prime,stim_pos_x_18,stim_pos_x_19,stim_pos_x_12,stim_pos_x_13,stim_pos_x_10,stim_pos_x_11,stim_pos_x_16,stim_pos_x_17,stim_pos_x_14,stim_pos_x_15,stim_pos_y_9,stim_pos_y_8,d_ori_19,d_ori_18,stim_pos_y_1,stim_pos_y_0,stim_pos_y_3,stim_pos_y_2,stim_pos_y_5,stim_pos_y_4,stim_pos_y_7,stim_pos_y_6,totBlockN,stim_pos_x_27,stim_pos_x_26,stim_pos_x_25,stim_pos_x_24,stim_pos_x_23,stim_pos_x_22,stim_pos_x_21,stim_pos_x_20,blockN,stim_pos_x_29,stim_pos_x_28,prevDistrCTPD,prevDistrMean,prevDistrType,trials.thisRepN,trials.thisTrialN,trials.thisN,trials.thisIndex,timeStart,timeBeforeDraw,timeDraw,timeAfterSaving,timeAfterWritingToTemp,timeAfterPreparingNext,answer,correct,rt,trialScore,session,participant,resolution,cpu_info,expName,pc_name,graphic_card,date,monitorName,
321.1,325.6,337.4,330.5,36,-10,337.9,335.7,323.0,317.0,7.805,8.323,7.512,7.615,7.755,8.419,7.646,4.865,-4.986,-8.246,1.958,-1.461,8.199,4.735,-4.617,-8.189,336.7,344.4,-7.929,325.3,330.8,339.6,327.0,345.6,36,330.2,2,5,prime,10,0,110,norm,36,-4.977,down,norm,332.415985433,336.9,352.4,338.3,347.9,0,331.9,333.8,,10,5,7.605,4.666,1.176,-1.968,-4.637,-8.194,325.3,5,442.4,-8.161,-8.196,-10,-7.642,-8.208,-5.29,-4.761,-4.678,-4.422,4.7,7.57,12,-1.961,1.229,4.649,7.767,-7.997,-7.719,-1.116,1.686,333.3,342.9,312.4,328.1,315.1,328.5,331.0,332.6,340.5,319.5,0,norm,1.476,1.548,-1.171,-2.067,-5.286,-4.807,-1.725,-1.304,-1.851,-1.181,1.556,-1.972,318.2,350.3,-5.246,-8.119,1.271,-2.003,8.045,4.872,-5.189,-8.194,0,4.773,4.996,4.993,4.706,1.881,1.408,2.076,1.327,0,5.152,5.289,,,,0,0,0,0,263.373,263.404,263.424246476,263.424,263.425,263.427,down,1,1.19963156903,8.80036843097,001,006,1920_1080,Intel(R) Core(TM) i5-3570 CPU @ 3.40GHz,orientation_search,LEPPC096,Intel(R) HD Graphics 2500,2018_Oct_10_1541,testMonitor,
312.4,330.3,343.4,324.5,36,-10,337.8,332.5,327.9,323.3,7.831,8.31,7.761,7.75,8.061,8.288,8.482,5.22,-4.968,-7.549,1.591,-1.239,8.122,4.389,-4.712,-7.617,315.5,330.6,-7.606,330.3,347.2,318.8,323.3,323.7,36,328.0,2,5,prime,10,0,117,norm,36,-4.623,down,norm,332.415985433,328.8,324.6,349.5,328.7,1,330.1,,322.9,10,5,7.523,5.245,1.972,-1.355,-5.089,-8.479,336.6,5,449.4,-8.313,-7.83,-10,-8.004,-7.865,-4.609,-5.026,-4.982,-4.96,4.509,8.377,13,-1.418,1.129,5.296,8.201,-8.07,-7.592,-1.139,1.895,321.4,347.2,335.2,336.3,341.6,333.0,344.4,352.4,345.8,335.8,1,norm,1.321,1.815,-1.801,-1.65,-5.206,-5.01,-1.517,-1.713,-1.568,-2.053,1.684,-1.694,336.3,326.8,-4.504,-8.417,1.47,-2.099,7.839,5.254,-4.375,-7.786,0,4.624,5.153,4.444,5.057,1.829,1.814,1.185,1.233,0,4.812,4.683,,,,0,1,1,1,264.66,264.674,264.691952352,264.692,264.693,264.696,down,1,1.14969718995,8.85030281005,001,006,1920_1080,Intel(R) Core(TM) i5-3570 CPU @ 3.40GHz,orientation_search,LEPPC096,Intel(R) HD Graphics 2500,2018_Oct_10_1541,testMonitor,
326.9,316.2,330.9,329.5,36,-10,321.0,323.1,337.9,331.5,7.527,8.41,8.06,7.971,7.622,8.1,8.169,4.553,-5.03,-7.947,1.165,-1.185,8.328,4.614,-4.423,-8.265,329.6,326.5,-8.239,333.5,312.4,342.9,335.9,,36,319.1,4,5,prime,10,0,93,norm,36,-4.418,down,norm,332.415985433,346.9,321.8,352.4,315.9,2,336.3,322.2,314.8,10,5,7.98,4.671,1.738,-1.277,-4.333,-7.889,338.0,5,425.4,-8.379,-8.469,-10,-7.815,-8.459,-4.488,-4.698,-4.532,-4.421,4.62,8.118,26,-1.152,1.475,4.463,7.971,-7.894,-7.525,-1.536,1.122,321.7,332.1,332.8,332.8,328.4,323.4,332.0,330.2,329.5,342.9,2,norm,1.597,2.009,-1.698,-1.297,-4.466,-5.235,-1.277,-1.457,-1.857,-1.585,1.636,-1.423,316.3,343.5,-4.9,-7.965,1.351,-1.621,8.233,4.841,-5.063,-8.087,0,5.123,5.02,5.026,4.56,1.796,1.164,1.195,1.61,0,5.285,4.815,,,,0,2,2,2,265.888,265.898,265.903478392,265.904,265.905,265.908,down,1,1.85717851787,8.14282148213,001,006,1920_1080,Intel(R) Core(TM) i5-3570 CPU @ 3.40GHz,orientation_search,LEPPC096,Intel(R) HD Graphics 2500,2018_Oct_10_1541,testMonitor,
333.9,342.8,334.6,326.9,36,-10,338.9,341.2,352.4,341.0,7.575,7.873,8.249,8.073,8.496,8.286,7.759,4.989,-5.251,-7.994,1.298,-1.849,7.983,4.76,-5.164,-7.897,343.2,327.9,-8.078,341.7,341.3,342.2,327.5,322.3,36,331.0,0,5,prime,10,0,76,norm,36,-4.872,up,norm,332.415985433,339.7,334.5,348.8,331.3,5,324.3,316.4,337.4,10,5,8.291,4.875,1.347,-1.302,-4.304,-8.196,312.4,5,408.4,-7.832,-7.643,-10,-7.879,-8.242,-5.006,-4.678,-4.962,-4.423,4.725,7.906,5,-1.55,1.48,4.567,8.269,-8.089,-8.32,-2.052,1.902,326.1,335.0,325.4,329.8,321.9,329.7,331.1,332.6,,319.8,3,norm,1.297,1.266,-1.978,-1.412,-4.78,-4.768,-1.329,-2.009,-1.64,-1.756,1.179,-1.575,335.1,329.1,-5.102,-7.58,1.428,-1.641,7.927,5.103,-4.494,-8.042,0,4.832,4.335,4.317,4.313,2.072,2.047,1.373,1.77,0,5.011,4.9,,,,0,3,3,3,267.806,267.816,267.823965399,267.824,267.826,267.829,up,1,0.82493341318,9.17506658682,001,006,1920_1080,Intel(R) Core(TM) i5-3570 CPU @ 3.40GHz,orientation_search,LEPPC096,Intel(R) HD Graphics 2500,2018_Oct_10_1541,testMonitor,
350.1,343.9,322.8,343.1,36,-10,331.5,329.6,343.1,338.5,7.55,7.582,7.641,7.736,7.826,8.383,8.366,4.697,-4.638,-7.805,1.526,-1.837,8.077,5.111,-4.888,-8.302,330.3,345.1,-7.564,322.4,326.4,320.2,312.4,336.5,36,,4,5,prime,10,0,87,norm,36,-4.855,up,norm,332.415985433,345.4,340.5,324.4,343.8,3,335.9,314.8,322.0,10,5,8.107,4.353,1.509,-1.175,-4.53,-7.811,316.3,5,419.4,-8.374,-7.574,-10,-8.346,-8.075,-4.481,-5.074,-4.658,-4.528,4.726,7.619,27,-1.818,1.647,5.162,7.629,-7.675,-8.231,-1.656,1.805,324.5,322.7,337.0,329.0,324.8,323.5,352.4,332.1,325.1,330.4,4,norm,1.709,1.12,-1.674,-1.622,-4.354,-4.901,-2.042,-1.464,-1.555,-1.798,2.077,-2.023,331.8,326.6,-4.692,-7.751,1.635,-1.729,8.229,4.605,-4.569,-8.045,0,5.191,5.218,4.942,5.229,1.371,1.34,1.817,1.651,0,5.198,4.479,,,,0,4,4,4,268.686,268.699,268.718585872,268.719,268.72,268.723,up,1,1.03264263343,8.96735736657,001,006,1920_1080,Intel(R) Core(TM) i5-3570 CPU @ 3.40GHz,orientation_search,LEPPC096,Intel(R) HD Graphics 2500,2018_Oct_10_1541,testMonitor,
397.4,390.6,394.9,394.0,36,-60,390.7,387.7,390.8,398.3,8.056,7.505,7.533,8.206,8.331,8.127,8.415,5.108,-4.318,-8.229,1.982,-1.33,8.234,4.34,-4.982,-7.798,393.2,394.0,-8.078,395.0,391.8,393.3,391.8,395.1,36,397.0,1,5,probe,5,0,70,norm,36,-5.067,down,norm,392.222171096,391.3,389.2,387.7,398.1,0,387.6,394.4,386.1,10,5,7.976,4.759,1.81,-2.052,-4.317,-8.26,390.2,1,322.2,-8.308,-7.979,-10,-8.448,-7.641,-4.339,-5.076,-4.387,-4.904,4.473,8.326,6,-1.488,1.161,4.998,7.87,-8.344,-7.983,-1.608,2.008,382.9,390.9,390.4,386.9,391.2,394.9,389.4,,402.2,398.2,0,norm,1.499,1.229,-1.74,-1.685,-5.198,-4.482,-1.272,-1.945,-1.676,-1.505,2.017,-1.356,382.2,389.8,-4.763,-8.235,1.478,-1.215,8.318,4.646,-4.346,-8.009,1,4.779,4.58,5.191,4.929,1.915,1.467,1.28,1.613,1,5.042,4.629,-10,332.415985433,norm,0,5,5,5,269.775,269.785,269.805392627,269.806,269.807,269.81,down,1,1.01300193663,8.98699806337,001,006,1920_1080,Intel(R) Core(TM) i5-3570 CPU @ 3.40GHz,orientation_search,LEPPC096,Intel(R) HD Graphics 2500,2018_Oct_10_1541,testMonitor,
318.5,334.4,305.8,305.5,36,-80,306.8,323.8,315.3,309.3,8.172,7.993,8.017,7.767,7.668,7.784,7.615,4.603,-4.589,-7.696,1.567,-1.775,8.455,4.35,-4.467,-7.807,312.2,310.4,-8.428,304.9,320.5,323.3,314.6,317.8,36,322.4,2,5,prime,10,0,80,norm,36,-4.406,down,norm,314.660044292,311.3,307.2,334.7,,2,324.0,333.0,316.0,10,6,8.403,4.446,1.817,-1.278,-4.742,-8.197,329.8,6,394.7,-8.177,-7.567,-80,-7.915,-7.681,-4.417,-4.455,-4.838,-5.182,4.481,8.464,14,-1.379,2.031,5.045,7.899,-7.838,-7.69,-1.276,1.481,319.0,294.7,316.7,311.4,314.5,315.7,319.4,314.7,316.2,333.6,0,norm,1.662,1.897,-1.864,-1.472,-4.669,-4.304,-1.904,-1.238,-1.143,-2.012,1.651,-1.356,315.9,299.5,-4.583,-8.476,1.214,-1.771,8.069,5.223,-4.97,-7.609,2,5.169,4.849,5.125,5.071,1.924,1.161,1.155,1.597,2,4.635,4.649,-60,332.415985433,norm,0,6,6,6,270.864,270.873,270.879570222,270.88,270.881,270.884,down,1,1.72047179448,8.27952820552,001,006,1920_1080,Intel(R) Core(TM) i5-3570 CPU @ 3.40GHz,orientation_search,LEPPC096,Intel(R) HD Graphics 2500,2018_Oct_10_1541,testMonitor,
313.4,323.5,309.5,306.7,36,-80,331.1,326.2,326.6,305.9,8.471,7.758,8.225,8.028,8.295,7.631,7.979,4.992,-4.626,-8.073,2.054,-1.754,7.847,5.011,-4.696,-7.856,310.3,314.6,-7.634,313.1,325.5,320.2,327.5,,36,317.0,4,5,prime,10,0,85,norm,36,-4.559,down,norm,314.660044292,305.4,306.8,310.4,330.7,2,334.7,317.2,326.5,10,6,7.509,5.009,1.529,-1.782,-5.288,-8.027,303.2,6,399.7,-8.246,-8.38,-80,-8.42,-8.094,-4.483,-4.513,-4.318,-4.981,4.939,8.474,26,-2.046,1.662,5.248,7.675,-8.247,-7.826,-1.422,1.427,311.4,301.9,308.3,323.6,305.3,321.7,303.1,311.1,309.9,294.7,1,norm,1.233,1.449,-1.158,-1.326,-4.882,-5.28,-1.368,-1.943,-1.423,-1.929,1.156,-1.954,309.4,294.9,-4.525,-7.622,1.516,-1.547,8.08,5.234,-5.032,-8.432,2,4.877,4.666,5.24,4.358,1.987,1.744,1.842,1.345,2,4.561,5.164,-60,332.415985433,norm,0,7,7,7,272.642,272.651,272.658525226,272.659,272.661,272.663,down,1,1.68708330416,8.31291669584,001,006,1920_1080,Intel(R) Core(TM) i5-3570 CPU @ 3.40GHz,orientation_search,LEPPC096,Intel(R) HD Graphics 2500,2018_Oct_10_1541,testMonitor,
318.5,313.0,319.5,298.7,36,-80,314.2,311.1,334.7,,8.091,8.067,8.399,7.837,7.538,8.132,7.687,4.476,-4.549,-7.967,1.157,-1.22,7.837,4.726,-5.034,-7.836,321.1,315.0,-8.135,325.3,304.0,302.8,305.3,330.7,36,315.1,4,5,prime,10,0,76,norm,36,-5.013,up,norm,314.660044292,301.2,315.8,311.2,316.8,5,309.4,313.4,326.0,10,6,7.602,4.841,1.966,-1.894,-5.1,-7.743,314.2,6,390.7,-7.993,-8.19,-80,-7.629,-8.466,-5.215,-5.184,-4.856,-5.122,4.768,8.309,29,-1.375,1.244,4.641,7.95,-7.757,-8.49,-1.648,1.836,310.5,318.7,331.3,294.7,321.2,308.2,328.0,299.5,304.6,324.3,2,norm,1.684,1.826,-1.454,-1.221,-4.409,-5.185,-1.277,-1.6,-1.857,-2.042,1.537,-2.0,302.3,312.7,-5.079,-7.819,1.515,-1.738,7.533,4.619,-4.932,-7.96,2,5.1,4.51,5.109,4.401,1.155,1.414,1.407,1.3,2,4.92,4.792,-60,332.415985433,norm,0,8,8,8,274.383,274.396,274.4157064,274.416,274.418,274.421,up,1,1.59250587389,8.40749412611,001,006,1920_1080,Intel(R) Core(TM) i5-3570 CPU @ 3.40GHz,orientation_search,LEPPC096,Intel(R) HD Graphics 2500,2018_Oct_10_1541,testMonitor,
296.8,313.7,319.6,326.1,36,-80,304.1,318.1,331.2,320.0,7.948,7.762,8.491,8.09,7.998,8.356,7.956,4.984,-4.917,-8.337,1.602,-1.865,7.782,4.469,-4.946,-7.743,314.9,304.0,-8.282,306.2,332.0,322.9,314.7,308.8,36,323.7,3,5,prime,10,0,101,norm,36,-4.863,down,norm,314.660044292,309.4,321.9,295.4,306.2,0,320.0,334.7,304.8,10,6,8.276,5.077,1.619,-1.682,-4.692,-7.868,306.0,6,415.7,-8.182,-7.633,-80,-8.021,-8.468,-5.241,-5.262,-4.799,-4.508,4.521,7.657,18,-1.474,1.739,4.447,7.85,-8.48,-8.459,-1.271,1.551,309.7,306.1,331.5,303.7,294.7,308.9,300.2,317.0,311.6,315.4,3,norm,1.93,1.149,-1.353,-1.194,-5.2,-4.625,-1.309,-1.344,-1.921,-1.198,1.851,-1.859,316.3,,-4.74,-7.707,1.573,-1.253,8.202,4.603,-4.709,-8.199,2,4.932,4.73,4.666,5.106,1.166,2.022,2.056,1.771,2,4.314,4.439,-60,332.415985433,norm,0,9,9,9,276.046,276.057,276.061574999,276.062,276.064,276.067,down,1,0.774310225755,9.22568977424,001,006,1920_1080,Intel(R) Core(TM) i5-3570 CPU @ 3.40GHz,orientation_search,LEPPC096,Intel(R) HD Graphics 2500,2018_Oct_10_1541,testMonitor,
,319.6,314.1,308.9,36,-80,308.6,334.7,311.8,329.4,8.392,8.078,7.91,7.535,7.904,7.69,8.441,4.32,-4.996,-8.064,1.656,-1.125,8.372,4.676,-5.208,-7.643,310.4,314.5,-8.287,310.3,324.7,323.5,314.8,328.2,36,296.7,3,5,prime,10,0,113,norm,36,-5.276,up,norm,314.660044292,323.8,297.1,319.7,311.6,4,305.1,306.1,313.5,10,6,8.491,5.068,2.078,-1.749,-4.629,-7.944,309.4,6,427.7,-7.733,-7.7,-80,-8.086,-7.582,-4.457,-4.608,-5.152,-4.715,4.952,7.951,22,-1.682,1.382,4.333,7.783,-7.546,-7.609,-1.257,1.306,318.6,300.5,324.8,324.9,310.9,314.7,300.5,319.4,315.1,312.2,4,norm,1.536,1.454,-2.049,-1.963,-4.435,-5.027,-1.183,-1.661,-1.512,-1.966,1.443,-1.281,314.3,324.5,-5.008,-8.496,1.471,-1.556,7.848,4.872,-5.203,-8.401,2,4.813,4.547,4.744,4.74,1.251,2.094,1.901,1.205,2,5.111,5.284,-60,332.415985433,norm,0,10,10,10,276.858,276.868,276.888680784,276.889,276.891,276.894,up,1,0.875233929213,9.12476607079,001,006,1920_1080,Intel(R) Core(TM) i5-3570 CPU @ 3.40GHz,orientation_search,LEPPC096,Intel(R) HD Graphics 2500,2018_Oct_10_1541,testMonitor,
326.6,313.9,314.5,300.2,36,-80,318.6,325.4,316.5,322.6,8.264,8.109,8.441,7.616,8.295,8.282,8.396,4.656,-5.212,-7.923,1.336,-1.296,7.535,4.53,-4.593,-7.588,303.1,323.3,-8.031,307.2,307.8,317.4,311.9,326.2,36,331.6,2,5,prime,10,0,116,norm,36,-4.922,up,norm,314.660044292,319.4,311.5,,306.6,3,319.1,309.3,314.4,10,6,8.316,5.068,1.833,-1.592,-5.164,-8.479,301.6,6,430.7,-8.211,-7.835,-80,-8.142,-7.599,-4.713,-5.032,-4.546,-4.33,4.435,8.314,15,-1.394,1.611,4.683,7.785,-8.094,-7.902,-2.012,1.995,306.3,332.8,313.7,329.2,334.7,294.7,323.7,316.3,318.2,309.1,5,norm,1.558,1.795,-1.705,-1.693,-4.544,-4.559,-2.081,-2.035,-1.185,-1.219,2.049,-1.405,321.3,298.5,-4.763,-8.43,1.944,-1.639,8.115,4.389,-4.991,-7.792,2,5.197,4.654,4.458,5.022,1.791,1.214,1.714,1.241,2,4.512,4.364,-60,332.415985433,norm,0,11,11,11,277.79,277.8,277.8080398,277.808,277.81,277.813,up,1,0.975445280485,9.02455471952,001,006,1920_1080,Intel(R) Core(TM) i5-3570 CPU @ 3.40GHz,orientation_search,LEPPC096,Intel(R) HD Graphics 2500,2018_Oct_10_1541,testMonitor,
306.6,296.9,299.8,307.9,36,40,297.2,300.9,293.8,303.9,8.096,7.718,7.863,7.902,7.81,7.914,8.45,4.803,-5.171,-7.596,1.237,-1.343,8.121,4.495,-4.659,-8.494,297.1,301.1,-7.501,306.9,299.3,301.8,296.9,310.1,36,304.2,0,5,probe,5,0,67,norm,36,-5.055,down,norm,303.781565202,311.7,301.7,313.8,299.7,0,297.7,301.7,304.3,10,6,7.798,4.483,1.347,-1.497,-4.43,-8.142,302.6,2,236.8,-8.064,-8.287,-80,-8.298,-7.557,-4.507,-5.22,-4.453,-4.827,5.021,7.629,0,-1.691,1.919,5.238,7.84,-7.881,-7.804,-2.034,1.388,305.9,296.3,311.2,308.9,304.2,,307.6,303.0,309.9,306.1,0,norm,1.852,1.546,-1.654,-1.103,-4.795,-4.879,-1.651,-1.879,-1.531,-1.414,1.193,-1.572,309.4,306.0,-4.723,-7.817,1.536,-1.779,8.256,4.918,-5.066,-8.073,3,4.476,4.334,4.589,4.945,1.474,1.798,1.755,1.257,3,5.21,5.107,-80,314.660044292,norm,0,12,12,12,278.805,278.814,278.834149922,278.834,278.836,278.839,down,1,0.942611579707,9.05738842029,001,006,1920_1080,Intel(R) Core(TM) i5-3570 CPU @ 3.40GHz,orientation_search,LEPPC096,Intel(R) HD Graphics 2500,2018_Oct_10_1541,testMonitor,
328.4,339.5,329.3,329.7,36,40,335.2,336.6,,320.8,7.65,8.292,7.79,7.578,8.408,8.273,8.054,4.703,-4.602,-8.001,1.867,-1.179,7.723,5.028,-4.772,-7.802,338.0,327.2,-7.881,326.8,327.9,335.0,333.4,323.9,36,326.1,4,5,probe,5,0,94,norm,36,-4.549,up,norm,330.781565202,329.5,340.8,330.1,333.9,4,327.9,326.3,329.9,10,6,8.448,4.611,1.67,-2.049,-4.833,-8.347,328.9,2,236.8,-7.708,-7.855,-80,-8.434,-7.834,-4.781,-5.14,-4.566,-4.43,4.739,8.067,28,-1.585,1.346,4.616,8.248,-8.266,-8.323,-1.448,1.99,334.1,331.0,336.7,339.3,334.1,328.0,331.1,329.4,325.4,333.6,1,norm,1.638,1.775,-1.981,-1.346,-5.086,-4.33,-1.878,-1.579,-1.228,-1.428,1.816,-1.245,332.0,338.3,-4.791,-7.669,1.26,-1.956,7.631,4.476,-5.25,-7.997,3,4.757,4.868,4.993,4.946,1.486,1.494,1.692,1.484,3,4.543,4.401,-80,314.660044292,norm,0,13,13,13,279.802,279.812,279.81778846,279.818,279.82,279.823,up,1,0.606242499172,9.39375750083,001,006,1920_1080,Intel(R) Core(TM) i5-3570 CPU @ 3.40GHz,orientation_search,LEPPC096,Intel(R) HD Graphics 2500,2018_Oct_10_1541,testMonitor,
12.9,11.1,4.1,-2.5,36,60,-4.4,2.4,17.3,-11.3,8.439,7.995,7.952,7.89,7.683,7.987,8.29,4.651,-5.297,-8.26,1.482,-1.507,7.501,5.2,-5.202,-7.522,3.3,2.7,-8.255,-2.3,9.1,2.8,9.7,-0.4,36,15.6,1,5,prime,10,0,81,norm,36,-5.023,up,norm,7.37287131617,14.2,27.4,-1.9,11.1,4,6.4,-3.9,24.6,10,6,7.718,5.202,2.051,-1.141,-5.228,-8.155,,6,88.4,-8.229,-8.149,60,-7.66,-7.664,-4.743,-5.138,-4.539,-5.27,5.074,7.852,10,-1.112,1.402,4.61,7.682,-7.984,-8.323,-1.725,1.481,-5.1,4.3,0.4,0.9,9.5,20.2,0.7,-6.2,-12.6,3.4,0,norm,1.15,1.502,-1.142,-1.975,-4.331,-4.566,-1.963,-1.35,-1.154,-2.027,1.776,-1.372,7.3,19.2,-4.548,-8.04,1.122,-1.713,8.12,5.188,-4.653,-7.789,4,5.222,4.642,4.805,5.295,2.091,1.599,2.032,1.3,4,4.901,4.594,40,314.660044292,norm,0,14,14,14,280.461,280.471,280.487676005,280.488,280.49,280.492,up,1,0.974006087592,9.02599391241,001,006,1920_1080,Intel(R) Core(TM) i5-3570 CPU @ 3.40GHz,orientation_search,LEPPC096,Intel(R) HD Graphics 2500,2018_Oct_10_1541,testMonitor,
-0.8,,-2.7,-12.6,36,60,18.6,-6.3,15.8,13.4,7.604,7.856,8.068,8.049,7.55,7.613,8.037,4.978,-4.548,-8.202,1.915,-1.692,7.633,4.447,-4.708,-7.641,0.9,10.0,-7.544,10.1,-0.2,1.7,5.3,-9.6,36,-1.9,3,5,prime,10,0,68,norm,36,-4.662,up,norm,7.37287131617,23.0,3.6,-6.9,27.4,5,7.0,18.0,7.1,10,6,8.478,4.553,1.427,-1.268,-4.425,-7.89,11.5,6,75.4,-8.325,-7.635,60,-7.576,-7.631,-5.007,-4.422,-5.181,-5.265,4.954,7.935,23,-2.054,1.248,4.576,7.85,-8.12,-8.326,-1.999,1.506,15.3,10.1,11.1,16.3,5.7,1.3,-3.3,5.5,22.2,7.0,1,norm,1.248,1.506,-1.143,-1.229,-4.629,-5.039,-2.027,-1.282,-1.703,-1.566,1.348,-1.946,2.3,3.6,-4.771,-7.659,1.684,-1.699,7.691,4.797,-4.551,-8.499,4,5.064,4.446,4.73,4.995,1.866,1.509,2.084,1.464,4,4.761,4.419,40,314.660044292,norm,0,15,15,15,281.487,281.496,281.502590426,281.503,281.505,281.508,up,1,1.45351841612,8.54648158388,001,006,1920_1080,Intel(R) Core(TM) i5-3570 CPU @ 3.40GHz,orientation_search,LEPPC096,Intel(R) HD Graphics 2500,2018_Oct_10_1541,testMonitor,
4.0,13.2,-3.0,12.9,36,60,,6.3,13.6,17.6,7.599,7.796,8.159,8.437,7.81,8.357,8.449,4.484,-4.401,-8.161,1.467,-1.337,7.781,4.391,-4.334,-8.006,0.1,6.2,-8.089,-9.2,5.3,11.2,-1.9,4.0,36,5.6,4,5,prime,10,0,60,norm,36,-5.201,down,norm,7.37287131617,8.0,-7.8,-8.6,12.4,0,10.2,16.4,0.3,10,6,8.032,4.615,1.417,-1.5,-5.223,-8.404,6.5,6,67.4,-8.33,-7.584,60,-7.825,-8.068,-5.159,-4.932,-5.133,-4.761,4.31,8.286,24,-2.056,1.768,5.022,8.461,-7.935,-7.877,-1.275,1.537,-2.8,2.9,17.1,0.9,27.4,16.7,6.7,7.4,20.0,18.3,2,norm,1.859,1.452,-1.659,-1.235,-5.19,-4.798,-1.426,-1.384,-1.981,-1.344,1.749,-1.632,2.1,-12.6,-4.809,-7.909,1.549,-1.173,7.563,4.309,-4.799,-7.663,4,4.831,5.142,4.61,4.55,1.164,1.938,1.477,1.699,4,4.908,5.107,40,314.660044292,norm,0,16,16,16,282.994,283.004,283.014616501,283.015,283.017,283.019,down,1,2.15908152448,7.84091847552,001,006,1920_1080,Intel(R) Core(TM) i5-3570 CPU @ 3.40GHz,orientation_search,LEPPC096,Intel(R) HD Graphics 2500,2018_Oct_10_1541,testMonitor,
13.1,14.9,-12.6,12.9,36,60,4.0,-1.0,11.6,,8.345,8.095,8.403,8.381,8.362,7.784,8.039,4.82,-4.591,-7.571,1.138,-1.506,7.517,5.203,-4.406,-8.488,-9.5,7.6,-7.763,17.1,14.1,8.7,21.3,10.0,36,-9.1,4,5,prime,10,0,76,norm,36,-4.918,up,norm,7.37287131617,4.3,11.9,17.3,13.7,5,22.6,-2.6,-2.4,10,6,7.636,5.264,1.358,-1.61,-5.264,-8.418,18.9,6,83.4,-8.081,-8.133,60,-7.855,-8.435,-5.256,-4.972,-5.193,-4.334,4.412,7.812,29,-1.783,1.705,5.014,8.14,-8.093,-8.32,-1.984,1.216,-12.5,3.3,0.9,-10.8,27.4,17.4,-3.0,4.0,16.0,1.5,3,norm,1.68,1.694,-1.214,-1.581,-5.158,-4.983,-1.924,-1.847,-1.472,-1.383,1.938,-1.145,3.4,-7.0,-5.219,-8.261,1.794,-2.084,8.231,4.726,-4.705,-7.708,4,4.699,5.236,4.839,4.912,1.687,1.802,1.708,1.891,4,4.765,5.28,40,314.660044292,norm,0,17,17,17,285.211,285.221,285.229713659,285.23,285.232,285.234,up,1,1.7200090674,8.2799909326,001,006,1920_1080,Intel(R) Core(TM) i5-3570 CPU @ 3.40GHz,orientation_search,LEPPC096,Intel(R) HD Graphics 2500,2018_Oct_10_1541,testMonitor,
,18.4,12.5,4.2,36,60,-7.0,-1.7,-10.5,4.1,8.199,7.697,7.963,8.354,7.677,8.053,8.45,4.621,-4.918,-7.803,1.394,-1.283,7.842,5.251,-4.402,-7.951,23.6,18.7,-7.742,-9.0,1.6,15.7,3.1,18.5,36,8.4,3,5,prime,10,0,82,norm,36,-4.388,up,norm,7.37287131617,14.0,7.5,-5.5,13.0,4,27.4,13.2,19.6,10,6,7.922,4.672,1.419,-1.889,-5.197,-7.927,20.4,6,89.4,-8.2,-8.335,60,-8.073,-8.191,-4.305,-4.836,-4.611,-5.182,4.963,8.176,22,-1.162,1.353,4.97,7.869,-8.012,-7.724,-1.343,1.34,19.8,-12.6,5.8,9.6,5.5,3.0,-1.3,5.4,2.6,8.6,4,norm,2.098,1.575,-1.896,-1.597,-4.401,-4.856,-1.912,-1.569,-1.788,-1.946,1.415,-1.89,6.4,-1.5,-4.744,-7.99,1.608,-1.383,7.529,4.5,-5.077,-7.688,4,5.26,4.926,4.659,4.921,1.66,1.188,1.114,1.112,4,4.973,5.196,40,314.660044292,norm,0,18,18,18,286.987,286.998,287.008058333,287.008,287.01,287.013,up,1,1.34814281333,8.65185718667,001,006,1920_1080,Intel(R) Core(TM) i5-3570 CPU @ 3.40GHz,orientation_search,LEPPC096,Intel(R) HD Graphics 2500,2018_Oct_10_1541,testMonitor,
3.7,4.3,23.1,-3.4,36,60,18.9,8.5,0.4,16.2,7.928,7.981,8.097,8.416,7.907,8.373,7.565,4.376,-4.989,-8.35,1.849,-1.848,8.152,4.624,-4.634,-7.627,15.3,20.6,-7.795,-0.5,,-0.9,8.2,-5.5,36,8.7,5,5,prime,10,0,84,norm,36,-5.073,down,norm,7.37287131617,5.1,24.7,12.2,7.1,0,9.2,-7.0,5.3,10,6,8.055,5.18,1.893,-1.12,-4.621,-7.696,-2.2,6,91.4,-7.518,-7.786,60,-7.895,-7.957,-4.655,-4.577,-4.491,-4.596,5.032,8.408,30,-1.87,1.431,4.524,7.516,-7.817,-7.533,-1.949,1.822,-3.0,-7.9,-9.8,-12.6,16.9,27.4,15.4,15.4,-7.5,-3.3,5,norm,1.646,1.212,-1.8,-1.518,-4.939,-4.39,-2.054,-1.506,-1.909,-1.819,1.855,-1.979,7.6,1.8,-4.73,-7.924,1.571,-2.063,8.03,4.843,-4.895,-8.112,4,4.896,4.597,5.173,4.631,1.414,1.59,1.803,1.995,4,4.653,4.328,40,314.660044292,norm,0,19,19,19,288.381,288.391,288.397428831,288.398,288.399,288.402,down,1,1.04623135509,8.95376864491,001,006,1920_1080,Intel(R) Core(TM) i5-3570 CPU @ 3.40GHz,orientation_search,LEPPC096,Intel(R) HD Graphics 2500,2018_Oct_10_1541,testMonitor,
150.0,144.6,135.2,149.3,36,-30,143.4,145.6,153.8,137.5,7.989,7.583,7.693,8.062,7.983,7.722,7.805,4.483,-4.874,-7.525,1.573,-2.056,8.156,5.031,-4.873,-7.739,142.9,138.4,-7.6,151.0,147.2,137.5,141.3,140.3,36,138.4,1,5,probe,5,0,75,norm,36,-4.857,up,norm,145.170029053,146.2,139.9,146.0,150.2,4,145.9,143.7,155.2,10,6,8.145,4.582,1.817,-1.478,-5.112,-8.272,,2,70.2,-8.422,-7.743,60,-8.278,-8.262,-4.669,-4.803,-4.795,-4.96,4.867,8.102,10,-1.759,1.578,4.315,8.245,-8.378,-8.16,-1.872,1.799,143.2,155.2,138.8,141.6,143.0,150.6,143.2,140.6,150.0,142.2,0,norm,1.402,1.129,-1.84,-1.451,-4.414,-4.796,-1.939,-2.055,-1.145,-1.508,1.869,-1.833,150.3,149.3,-4.448,-7.908,1.513,-2.086,8.053,4.783,-5.013,-7.975,5,4.993,4.846,4.685,4.999,1.361,2.094,1.955,1.546,5,4.557,4.498,60,7.37287131617,norm,0,20,20,20,289.489,289.499,289.506983466,289.507,289.509,289.512,up,1,0.735443264168,9.26455673583,001,006,1920_1080,Intel(R) Core(TM) i5-3570 CPU @ 3.40GHz,orientation_search,LEPPC096,Intel(R) HD Graphics 2500,2018_Oct_10_1541,testMonitor,
176.4,166.9,178.7,185.2,36,-30,180.3,176.4,179.0,173.8,8.18,7.687,8.433,7.839,8.042,7.788,8.12,4.807,-4.895,-8.417,1.483,-1.849,8.434,4.302,-4.65,-7.668,179.6,174.9,-8.43,,168.5,178.7,169.1,176.6,36,168.8,5,5,probe,5,0,105,norm,36,-4.571,down,norm,175.170029053,178.3,168.5,178.3,178.9,1,171.3,165.2,181.5,10,6,8.174,4.332,1.419,-1.409,-4.702,-7.557,178.0,2,70.2,-8.305,-7.969,60,-7.568,-7.872,-4.461,-4.808,-4.671,-4.919,4.375,7.95,31,-1.678,1.285,5.147,7.672,-8.165,-7.713,-1.731,1.744,178.3,177.8,181.1,174.6,175.0,175.6,180.7,170.1,177.1,181.8,1,norm,1.396,2.088,-2.024,-2.045,-5.211,-4.357,-1.152,-1.917,-1.897,-1.125,1.222,-1.882,174.4,170.7,-4.874,-7.905,1.621,-1.994,7.726,4.376,-4.602,-8.429,5,5.085,4.653,4.943,4.327,1.151,1.108,1.923,1.388,5,4.459,5.061,60,7.37287131617,norm,0,21,21,21,290.28,290.29,290.299532021,290.3,290.301,290.304,down,1,1.82728719384,8.17271280616,001,006,1920_1080,Intel(R) Core(TM) i5-3570 CPU @ 3.40GHz,orientation_search,LEPPC096,Intel(R) HD Graphics 2500,2018_Oct_10_1541,testMonitor,
72.8,91.3,,91.7,36,60,78.8,88.8,84.7,97.7,7.697,7.891,8.351,8.024,7.635,8.082,7.79,5.042,-4.447,-7.732,1.22,-1.475,8.448,4.42,-4.524,-7.763,75.2,81.6,-8.073,79.3,102.9,93.3,99.9,91.3,36,102.2,3,5,prime,10,0,78,norm,36,-5.076,down,norm,85.2035353657,88.9,93.5,85.0,95.4,2,100.7,89.0,80.2,10,5,7.564,4.54,1.478,-1.758,-4.776,-8.247,96.0,5,163.2,-7.583,-8.456,60,-8.448,-8.189,-4.417,-4.819,-4.809,-4.748,4.323,8.05,20,-1.262,1.983,4.913,7.842,-7.564,-7.785,-1.567,1.725,81.5,92.6,82.6,75.5,99.8,105.2,84.5,73.3,68.7,90.6,0,norm,1.153,1.415,-1.455,-1.331,-4.308,-5.109,-1.292,-1.932,-1.437,-1.145,1.728,-1.439,87.4,94.6,-5.127,-8.452,1.125,-1.106,7.877,4.39,-5.159,-8.295,6,4.525,5.052,5.072,5.05,1.377,1.85,1.66,1.883,6,4.373,5.005,-30,7.37287131617,norm,0,22,22,22,292.173,292.195,292.204768655,292.205,292.207,292.21,down,1,1.68824781887,8.31175218113,001,006,1920_1080,Intel(R) Core(TM) i5-3570 CPU @ 3.40GHz,orientation_search,LEPPC096,Intel(R) HD Graphics 2500,2018_Oct_10_1541,testMonitor,
105.2,65.2,73.0,76.3,36,60,74.0,87.1,85.6,91.5,8.44,8.484,7.873,8.22,8.258,8.295,7.742,4.389,-4.607,-7.74,2.075,-1.449,7.537,4.833,-4.699,-7.566,91.8,102.2,-8.476,89.0,90.1,76.4,82.3,70.2,36,87.1,2,5,prime,10,0,110,norm,36,-4.91,down,norm,85.2035353657,84.1,96.3,87.2,,2,73.3,77.0,105.1,10,5,7.568,5.283,1.241,-1.958,-5.073,-7.755,99.7,5,195.2,-8.307,-8.029,60,-8.081,-7.702,-4.903,-4.615,-4.934,-4.628,5.192,7.846,14,-1.815,1.698,4.323,8.125,-8.064,-8.12,-1.729,1.915,88.3,82.1,67.7,82.0,83.6,91.1,85.3,75.9,98.6,94.7,1,norm,1.317,1.376,-1.878,-1.745,-4.355,-4.362,-1.935,-1.618,-1.736,-1.278,1.489,-1.612,86.8,79.2,-4.764,-7.572,1.176,-1.802,8.44,5.065,-4.365,-7.517,6,4.432,5.173,4.632,5.073,1.409,1.563,1.977,1.119,6,4.907,4.477,-30,7.37287131617,norm,0,23,23,23,293.931,293.941,293.949705521,293.95,293.952,293.955,up,0,1.09477544003,-10,001,006,1920_1080,Intel(R) Core(TM) i5-3570 CPU @ 3.40GHz,orientation_search,LEPPC096,Intel(R) HD Graphics 2500,2018_Oct_10_1541,testMonitor,
78.7,67.4,77.1,80.5,36,60,96.7,89.0,75.8,95.1,7.701,7.786,8.442,8.055,7.791,7.916,7.886,4.381,-5.151,-8.151,1.995,-1.237,7.579,5.293,-4.591,-7.948,88.8,95.8,-7.52,91.1,89.9,71.2,81.8,90.6,36,92.8,2,5,prime,10,0,71,norm,36,-5.074,down,norm,85.2035353657,84.5,88.2,83.7,79.0,1,96.6,,105.2,10,5,7.92,5.238,1.737,-1.929,-4.754,-8.444,89.7,5,156.2,-8.499,-7.587,60,-8.082,-8.127,-4.842,-4.421,-4.649,-4.677,4.715,7.751,13,-1.274,1.566,4.574,8.211,-8.299,-8.004,-1.735,1.841,82.4,83.2,99.8,92.3,84.0,87.4,82.1,91.5,65.2,87.2,2,norm,1.653,1.615,-1.998,-1.787,-4.829,-5.206,-1.962,-1.598,-1.705,-1.595,1.564,-1.811,72.6,72.4,-4.922,-7.644,1.815,-2.017,8.259,4.687,-4.442,-8.196,6,4.373,4.515,5.086,5.013,1.99,1.952,1.406,1.824,6,4.447,4.937,-30,7.37287131617,norm,0,24,24,24,296.115,296.126,296.133776119,296.134,296.136,296.139,down,1,1.06124991247,8.93875008753,001,006,1920_1080,Intel(R) Core(TM) i5-3570 CPU @ 3.40GHz,orientation_search,LEPPC096,Intel(R) HD Graphics 2500,2018_Oct_10_1541,testMonitor,
84.2,74.4,83.6,86.6,36,60,81.8,72.6,93.8,,7.563,8.29,7.748,7.577,8.153,7.768,7.738,5.289,-5.108,-8.091,1.807,-1.753,8.198,4.347,-5.279,-7.992,88.4,85.8,-8.231,73.7,66.4,79.6,75.6,76.9,36,85.0,4,5,prime,10,0,68,norm,36,-5.048,up,norm,85.2035353657,102.7,103.7,105.2,72.5,5,78.5,78.9,72.6,10,5,8.297,4.438,2.006,-1.278,-5.131,-7.726,94.7,5,153.2,-8.373,-8.165,60,-8.171,-7.985,-5.1,-4.806,-4.484,-5.203,5.103,8.041,29,-1.149,1.178,5.069,7.731,-7.829,-7.894,-1.561,1.987,93.1,65.2,89.5,79.2,85.8,99.2,89.9,92.2,86.9,92.4,3,norm,1.357,1.184,-2.052,-2.077,-4.643,-4.627,-1.876,-1.894,-1.96,-1.102,1.351,-1.327,86.1,96.4,-4.346,-7.923,1.749,-1.995,8.289,4.598,-4.848,-7.541,6,4.999,4.996,4.393,4.513,1.621,1.725,2.096,1.126,6,4.334,4.844,-30,7.37287131617,norm,0,25,25,25,297.242,297.252,297.257473359,297.258,297.259,297.262,up,1,1.41770732467,8.58229267533,001,006,1920_1080,Intel(R) Core(TM) i5-3570 CPU @ 3.40GHz,orientation_search,LEPPC096,Intel(R) HD Graphics 2500,2018_Oct_10_1541,testMonitor,
74.2,86.0,91.3,82.5,36,60,85.6,96.4,89.9,94.0,7.871,7.669,8.188,8.063,8.353,8.418,7.714,5.126,-4.585,-7.655,1.729,-1.467,7.515,5.072,-5.295,-8.494,,83.2,-7.737,79.0,78.9,89.4,105.2,96.4,36,66.2,5,5,prime,10,0,74,norm,36,-5.038,up,norm,85.2035353657,86.3,87.7,92.6,89.4,5,90.7,92.7,81.2,10,5,8.187,5.035,1.436,-1.647,-4.806,-8.342,85.2,5,159.2,-8.475,-7.99,60,-7.566,-7.75,-4.933,-4.343,-4.481,-5.196,4.901,8.267,35,-1.716,1.941,5.01,7.848,-7.917,-7.516,-1.526,1.286,80.9,85.3,86.5,86.5,76.3,89.0,73.8,75.9,65.2,84.3,4,norm,1.698,1.51,-1.794,-1.713,-4.775,-4.819,-1.579,-1.288,-1.44,-1.394,1.448,-1.304,84.6,97.6,-4.65,-8.456,2.072,-1.87,7.575,4.853,-5.137,-7.959,6,5.104,5.051,4.511,5.022,1.237,1.129,1.332,1.421,6,5.142,4.415,-30,7.37287131617,norm,0,26,26,26,298.713,298.727,298.745047945,298.745,298.747,298.75,up,1,1.44650899133,8.55349100867,001,006,1920_1080,Intel(R) Core(TM) i5-3570 CPU @ 3.40GHz,orientation_search,LEPPC096,Intel(R) HD Graphics 2500,2018_Oct_10_1541,testMonitor,
221.0,223.7,217.9,224.8,36,40,223.6,216.2,,219.5,8.106,7.894,7.855,8.097,7.802,8.093,7.584,5.263,-4.799,-7.593,1.535,-1.611,8.275,4.627,-4.476,-7.531,218.4,219.8,-7.783,218.2,221.2,211.0,225.3,222.5,36,225.4,4,5,probe,5,0,77,norm,36,-4.94,up,norm,221.005841082,218.7,226.9,223.3,211.7,4,218.9,220.7,218.5,10,5,8.024,4.912,1.794,-1.629,-4.461,-7.563,216.6,2,144.0,-7.682,-7.618,60,-8.479,-7.722,-4.631,-4.787,-5.147,-4.57,5.099,8.029,28,-1.231,1.572,5.202,7.598,-7.524,-7.702,-1.173,2.02,213.3,217.4,212.6,218.9,218.6,227.8,227.8,227.7,220.4,231.0,0,norm,1.14,1.98,-1.679,-1.141,-4.413,-5.211,-1.951,-1.441,-1.572,-1.853,1.587,-1.708,215.8,214.3,-4.597,-8.312,1.303,-1.858,7.705,4.383,-5.046,-7.705,7,5.204,5.271,5.163,4.715,1.796,1.182,1.133,1.777,7,4.808,4.712,60,85.2035353657,norm,0,27,27,27,300.237,300.247,300.252725351,300.253,300.255,300.258,up,1,0.941280145174,9.05871985483,001,006,1920_1080,Intel(R) Core(TM) i5-3570 CPU @ 3.40GHz,orientation_search,LEPPC096,Intel(R) HD Graphics 2500,2018_Oct_10_1541,testMonitor,
257.1,,263.7,255.3,36,40,265.5,262.3,264.1,266.1,8.187,7.817,8.377,8.383,7.622,8.342,8.45,4.562,-4.577,-7.726,1.476,-1.132,7.82,4.657,-4.619,-7.902,253.4,265.9,-8.471,258.0,259.2,257.6,262.0,253.8,36,260.4,3,5,probe,5,0,116,norm,36,-4.743,up,norm,260.005841082,257.0,262.0,250.0,258.4,5,250.5,264.3,265.4,10,5,8.416,5.245,1.539,-1.502,-5.026,-7.584,268.7,2,144.0,-8.294,-8.345,60,-8.144,-7.738,-4.448,-4.332,-4.44,-5.034,5.216,7.931,23,-1.916,1.134,4.663,8.469,-7.526,-8.046,-1.764,1.813,257.0,256.7,270.0,258.4,260.0,252.4,266.6,262.6,250.8,264.9,1,norm,1.868,1.313,-1.936,-1.339,-4.815,-5.272,-1.601,-1.664,-1.537,-1.421,1.254,-2.02,261.1,259.4,-4.895,-8.246,1.825,-1.945,7.794,4.545,-4.869,-8.388,7,4.492,4.522,4.738,4.692,1.608,1.909,1.736,1.8,7,5.132,4.637,60,85.2035353657,norm,0,28,28,28,301.235,301.248,301.267767452,301.268,301.27,301.274,up,1,0.572068912226,9.42793108777,001,006,1920_1080,Intel(R) Core(TM) i5-3570 CPU @ 3.40GHz,orientation_search,LEPPC096,Intel(R) HD Graphics 2500,2018_Oct_10_1541,testMonitor,
44.5,21.4,61.0,55.2,36,-10,24.4,41.4,36.3,32.9,7.622,7.542,7.657,7.515,8.456,7.75,7.707,4.838,-4.51,-8.306,1.459,-1.729,8.244,4.706,-5.177,-7.754,36.4,46.8,-8.247,61.4,39.5,26.4,32.7,48.0,36,33.6,1,5,prime,10,0,109,norm,36,-4.858,down,norm,41.4147383917,42.7,34.9,43.9,42.9,2,52.7,28.0,39.4,10,6,7.645,4.373,1.932,-1.242,-5.297,-8.38,51.3,6,150.4,-7.643,-7.871,-10,-7.962,-7.956,-5.211,-4.781,-5.081,-4.904,4.822,8.131,8,-1.187,1.648,4.478,7.775,-8.479,-8.148,-2.044,1.907,37.2,,37.3,55.7,40.6,28.4,31.5,46.1,22.9,37.3,0,norm,1.148,1.295,-1.325,-1.125,-4.666,-5.251,-1.396,-1.84,-1.126,-1.954,1.826,-1.763,25.0,53.8,-4.357,-7.625,1.179,-1.748,7.555,5.138,-4.627,-8.46,8,4.316,4.727,4.86,4.828,1.738,1.784,1.529,1.593,8,4.482,5.02,40,85.2035353657,norm,0,29,29,29,301.879,301.889,301.905149703,301.905,301.907,301.91,down,1,0.673009820801,9.3269901792,001,006,1920_1080,Intel(R) Core(TM) i5-3570 CPU @ 3.40GHz,orientation_search,LEPPC096,Intel(R) HD Graphics 2500,2018_Oct_10_1541,testMonitor,
37.9,48.4,52.3,21.4,36,-10,61.4,36.2,46.4,53.0,7.777,7.744,8.101,7.746,8.396,7.675,7.767,4.402,-4.814,-7.748,1.331,-1.77,8.029,4.445,-4.836,-8.292,35.5,,-8.342,36.0,38.8,55.3,35.8,54.5,36,38.5,5,5,prime,10,0,84,norm,36,-4.303,up,norm,41.4147383917,41.2,48.2,28.3,51.4,4,37.2,27.4,31.1,10,6,7.902,4.412,2.0,-1.155,-4.338,-7.925,58.7,6,125.4,-7.954,-8.298,-10,-8.032,-7.592,-4.526,-4.547,-4.752,-4.354,5.298,7.854,34,-1.911,1.776,4.478,7.687,-8.254,-8.135,-1.269,1.988,54.8,44.7,37.7,40.1,51.1,38.0,33.0,41.1,47.4,34.0,1,norm,1.488,1.487,-1.833,-1.711,-5.103,-4.913,-1.548,-1.803,-1.664,-1.526,2.077,-1.235,34.9,49.5,-4.622,-7.809,1.725,-1.493,8.414,4.759,-4.642,-7.915,8,4.669,4.944,4.59,4.58,1.915,1.34,1.776,1.691,8,4.682,4.369,40,85.2035353657,norm,0,30,30,30,302.624,302.643,302.656166012,302.656,302.658,302.661,up,1,0.637929494036,9.36207050596,001,006,1920_1080,Intel(R) Core(TM) i5-3570 CPU @ 3.40GHz,orientation_search,LEPPC096,Intel(R) HD Graphics 2500,2018_Oct_10_1541,testMonitor,
43.4,43.0,47.7,46.2,36,-10,50.6,46.4,29.1,50.8,7.603,7.517,7.553,7.92,8.166,8.437,7.591,5.031,-4.326,-7.551,1.877,-1.877,8.226,5.295,-4.618,-8.39,34.8,55.9,-8.144,24.2,53.9,59.7,42.7,45.3,36,43.2,0,5,prime,10,0,77,norm,36,-4.852,up,norm,41.4147383917,61.4,42.9,54.9,50.9,4,39.6,35.2,36.9,10,6,7.619,4.652,1.373,-1.461,-4.668,-7.827,46.7,6,118.4,-7.874,-8.106,-10,-8.045,-7.832,-5.225,-5.113,-4.633,-4.677,5.046,8.253,4,-2.015,1.962,4.989,7.826,-7.515,-7.871,-1.419,1.749,42.9,24.1,53.1,45.9,39.8,21.4,31.9,44.2,55.9,,2,norm,1.132,1.104,-1.135,-1.105,-4.953,-5.159,-2.051,-1.254,-1.15,-1.19,1.69,-1.785,40.1,34.8,-4.366,-7.664,1.553,-1.523,8.148,4.797,-4.569,-7.828,8,5.019,4.911,4.947,4.493,1.439,1.109,1.323,1.695,8,4.934,4.957,40,85.2035353657,norm,0,31,31,31,303.342,303.366,303.387257891,303.387,303.389,303.392,up,1,0.640645185827,9.35935481417,001,006,1920_1080,Intel(R) Core(TM) i5-3570 CPU @ 3.40GHz,orientation_search,LEPPC096,Intel(R) HD Graphics 2500,2018_Oct_10_1541,testMonitor,
26.2,31.8,36.6,44.9,36,-10,26.8,36.5,40.5,43.8,8.25,8.018,7.59,7.734,7.731,7.777,7.623,4.43,-5.116,-8.091,1.636,-1.631,8.105,4.735,-5.039,-7.773,47.9,61.4,-7.892,45.6,44.5,33.6,21.7,40.9,36,47.8,2,5,prime,10,0,115,norm,36,-4.713,up,norm,41.4147383917,45.8,,32.8,30.1,4,47.5,44.1,21.4,10,6,7.802,5.045,1.208,-1.641,-4.754,-8.052,33.1,6,156.4,-7.979,-7.85,-10,-7.973,-7.632,-4.66,-4.808,-4.79,-5.11,4.586,8.381,16,-1.61,1.385,4.571,8.255,-7.883,-7.629,-1.521,1.337,43.1,24.9,40.8,39.1,39.3,50.8,43.9,45.2,55.0,37.5,3,norm,2.045,1.268,-2.071,-1.161,-5.209,-4.519,-1.399,-2.006,-1.12,-1.564,2.087,-1.574,42.3,28.6,-5.158,-8.419,1.507,-1.639,8.3,4.797,-4.48,-7.604,8,4.548,4.816,4.504,4.844,1.636,1.754,2.06,1.989,8,4.959,4.682,40,85.2035353657,norm,0,32,32,32,304.074,304.084,304.090023809,304.09,304.092,304.095,up,1,0.841636864589,9.15836313541,001,006,1920_1080,Intel(R) Core(TM) i5-3570 CPU @ 3.40GHz,orientation_search,LEPPC096,Intel(R) HD Graphics 2500,2018_Oct_10_1541,testMonitor,
50.4,25.6,44.9,32.3,36,-10,48.6,43.8,54.1,47.1,8.369,8.47,7.585,7.711,8.303,7.845,8.017,4.939,-4.61,-7.874,1.28,-1.58,8.165,4.514,-4.926,-8.059,37.5,45.7,-7.768,,41.0,36.6,36.0,31.6,36,39.8,5,5,prime,10,0,97,norm,36,-4.655,down,norm,41.4147383917,29.2,49.5,39.8,21.4,1,49.8,42.4,22.0,10,6,7.893,4.542,2.094,-1.864,-4.765,-7.897,61.4,6,138.4,-8.295,-8.04,-10,-8.381,-7.545,-5.074,-4.805,-5.129,-5.174,4.666,8.308,31,-1.625,1.625,4.868,8.314,-7.688,-7.533,-1.319,1.564,42.2,33.2,30.5,50.9,49.8,42.8,23.2,32.3,41.4,43.6,4,norm,1.221,2.061,-1.201,-1.895,-4.76,-4.893,-1.519,-1.119,-1.529,-1.924,1.561,-1.331,56.6,44.5,-4.705,-8.189,1.978,-1.466,7.763,4.406,-4.93,-7.518,8,4.495,4.841,4.648,4.501,1.158,1.84,1.752,1.754,8,4.878,4.633,40,85.2035353657,norm,0,33,33,33,304.979,304.989,305.00957178,305.01,305.012,305.014,down,1,0.63710213923,9.36289786077,001,006,1920_1080,Intel(R) Core(TM) i5-3570 CPU @ 3.40GHz,orientation_search,LEPPC096,Intel(R) HD Graphics 2500,2018_Oct_10_1541,testMonitor,
57.1,53.6,58.3,31.7,36,-10,39.5,49.0,31.3,46.7,8.051,7.796,7.551,7.777,7.808,7.845,8.076,5.019,-4.596,-7.791,1.824,-1.727,8.314,5.107,-5.09,-7.719,30.1,21.4,-8.225,61.4,40.9,46.3,27.6,,36,43.3,4,5,prime,10,0,77,norm,36,-5.201,down,norm,41.4147383917,50.5,49.8,58.5,25.6,2,52.5,46.7,31.3,10,6,7.579,4.304,1.855,-1.309,-5.248,-7.883,44.8,6,118.4,-8.375,-7.536,-10,-7.771,-7.885,-4.576,-4.357,-4.964,-5.201,4.73,8.408,26,-2.076,1.213,4.985,7.748,-8.009,-7.966,-1.102,1.752,34.8,40.6,39.0,31.4,55.6,54.1,39.3,25.6,44.0,37.3,5,norm,1.82,1.104,-1.156,-1.327,-4.691,-4.896,-1.486,-1.74,-1.299,-1.766,1.362,-1.266,53.4,36.0,-4.314,-8.291,1.318,-1.822,7.745,4.593,-4.789,-7.952,8,4.72,4.586,4.335,4.91,1.838,1.901,1.668,2.055,8,4.772,4.39,40,85.2035353657,norm,0,34,34,34,305.684,305.694,305.711447258,305.712,305.713,305.716,down,1,1.12855361114,8.87144638886,001,006,1920_1080,Intel(R) Core(TM) i5-3570 CPU @ 3.40GHz,orientation_search,LEPPC096,Intel(R) HD Graphics 2500,2018_Oct_10_1541,testMonitor,
108.6,104.2,117.3,112.5,36,20,111.6,101.9,106.4,113.0,7.589,8.442,7.693,7.581,7.825,7.846,7.844,4.665,-4.649,-8.028,1.992,-1.359,8.145,4.642,-5.214,-7.993,98.1,103.5,-8.013,108.1,108.1,108.1,104.2,114.4,36,108.5,2,5,probe,5,0,79,norm,36,-5.218,down,norm,107.277945112,97.3,113.9,105.7,111.5,0,112.0,108.2,,10,6,8.056,4.748,1.677,-1.755,-5.233,-7.518,109.8,1,28.3,-8.21,-8.318,-10,-7.982,-7.867,-4.615,-4.464,-5.298,-4.462,5.031,7.93,12,-2.05,1.895,5.253,8.023,-8.373,-8.203,-1.299,2.047,111.7,105.3,102.9,115.1,110.6,112.7,106.5,117.1,111.9,100.4,0,norm,1.882,1.117,-1.635,-1.17,-4.718,-4.886,-1.614,-1.526,-1.476,-1.574,1.474,-1.621,104.4,107.1,-4.492,-8.077,1.838,-1.727,8.239,4.729,-4.992,-7.862,9,5.062,4.852,4.749,5.231,1.776,1.181,1.703,1.576,9,4.411,4.899,-10,41.4147383917,norm,0,35,35,35,306.882,306.895,306.914721181,306.915,306.917,306.921,down,1,1.38531642926,8.61468357074,001,006,1920_1080,Intel(R) Core(TM) i5-3570 CPU @ 3.40GHz,orientation_search,LEPPC096,Intel(R) HD Graphics 2500,2018_Oct_10_1541,testMonitor,
121.5,120.5,136.6,121.8,36,-40,125.2,111.7,99.8,114.9,8.071,8.206,8.049,7.769,7.648,7.674,8.487,4.744,-5.049,-8.433,1.212,-1.931,7.631,4.536,-4.411,-8.247,117.1,128.4,-7.861,113.5,115.9,115.6,,110.2,36,129.6,5,5,prime,10,0,97,norm,36,-5.071,down,norm,119.846094506,111.8,118.8,118.8,139.8,2,116.2,113.6,127.3,10,6,8.461,4.934,1.346,-1.598,-4.738,-7.564,109.1,6,216.8,-8.085,-8.482,-40,-8.329,-8.412,-4.586,-4.98,-5.248,-5.103,5.131,7.976,32,-1.691,1.657,4.345,8.182,-8.384,-8.198,-1.241,1.817,116.0,116.8,114.9,121.8,121.9,122.3,109.6,130.4,118.3,115.0,0,norm,1.187,1.151,-1.712,-1.243,-4.781,-4.453,-1.592,-1.204,-1.578,-1.995,1.612,-1.535,120.5,127.6,-5.233,-8.5,1.425,-1.633,8.061,5.215,-4.789,-8.336,10,4.888,4.502,4.633,5.249,1.278,1.871,2.071,2.022,10,5.211,4.911,20,41.4147383917,norm,0,36,36,36,308.338,308.351,308.369691769,308.37,308.372,308.374,down,1,0.857270278495,9.14272972151,001,006,1920_1080,Intel(R) Core(TM) i5-3570 CPU @ 3.40GHz,orientation_search,LEPPC096,Intel(R) HD Graphics 2500,2018_Oct_10_1541,testMonitor,
118.4,114.7,113.1,134.8,36,-40,112.5,120.5,133.7,110.7,7.974,8.145,7.771,7.512,8.053,7.507,8.476,4.68,-4.971,-7.826,2.039,-1.133,7.897,5.149,-4.695,-7.628,109.4,104.0,-7.842,135.7,118.6,99.8,119.5,129.4,36,119.8,1,5,prime,10,0,101,norm,36,-4.46,up,norm,119.846094506,119.3,122.9,119.1,137.0,3,120.9,130.8,134.2,10,6,8.216,4.748,1.141,-1.887,-5.123,-7.816,116.8,6,220.8,-7.928,-7.864,-40,-8.36,-7.814,-4.474,-5.075,-4.603,-4.371,4.367,8.458,9,-1.431,2.061,4.912,8.203,-7.531,-8.47,-1.64,1.264,,124.9,132.5,139.8,119.8,111.6,126.4,133.2,112.1,120.9,1,norm,2.037,1.412,-1.254,-2.073,-5.223,-4.469,-1.215,-1.664,-1.835,-1.923,1.868,-1.316,110.3,131.5,-4.856,-8.424,1.614,-1.839,8.408,4.324,-4.989,-8.159,10,4.96,5.071,5.157,4.343,1.378,1.311,1.518,1.313,10,4.347,5.007,20,41.4147383917,norm,0,37,37,37,309.265,309.275,309.283746779,309.284,309.286,309.288,up,1,0.775823672308,9.22417632769,001,006,1920_1080,Intel(R) Core(TM) i5-3570 CPU @ 3.40GHz,orientation_search,LEPPC096,Intel(R) HD Graphics 2500,2018_Oct_10_1541,testMonitor,
121.7,113.0,134.7,135.9,36,-40,120.2,100.5,115.6,124.2,8.06,7.597,7.596,7.863,7.778,8.38,7.689,4.767,-5.226,-8.468,1.92,-1.122,8.125,4.906,-5.012,-8.349,130.4,139.6,-8.165,139.8,,122.2,114.1,110.1,36,115.7,5,5,prime,10,0,73,norm,36,-4.883,down,norm,119.846094506,124.8,127.9,118.4,128.5,0,99.8,126.6,126.0,10,6,8.179,4.663,1.203,-2.012,-5.286,-7.856,116.2,6,192.8,-8.467,-7.998,-40,-8.144,-8.199,-4.906,-4.382,-4.301,-4.417,5.061,8.195,30,-1.36,1.594,5.171,8.309,-7.557,-8.195,-1.233,1.797,119.0,111.1,119.2,122.2,115.5,125.4,116.9,111.6,126.0,115.2,2,norm,1.534,1.409,-1.941,-1.994,-5.063,-4.518,-1.394,-1.547,-1.287,-1.516,1.195,-1.84,126.1,118.1,-4.433,-7.688,2.041,-1.222,7.732,4.709,-4.589,-8.205,10,4.32,4.933,5.215,4.88,1.552,1.401,1.192,1.596,10,4.759,5.206,20,41.4147383917,norm,0,38,38,38,310.081,310.093,310.097205587,310.097,310.099,310.102,down,1,0.924780136724,9.07521986328,001,006,1920_1080,Intel(R) Core(TM) i5-3570 CPU @ 3.40GHz,orientation_search,LEPPC096,Intel(R) HD Graphics 2500,2018_Oct_10_1541,testMonitor,
127.7,121.5,119.5,128.4,36,-40,133.5,120.3,112.1,115.5,7.517,7.788,7.661,7.874,7.545,7.657,7.584,5.289,-4.82,-7.505,1.136,-2.099,7.674,5.125,-5.163,-7.647,130.9,100.7,-8.365,129.4,122.6,121.7,121.8,134.2,36,119.6,1,5,prime,10,0,77,norm,36,-4.813,up,norm,119.846094506,115.2,124.1,113.9,128.1,3,120.8,120.2,99.8,10,6,8.036,5.066,1.376,-1.778,-4.862,-8.494,120.3,6,196.8,-8.295,-7.993,-40,-8.338,-8.269,-5.18,-4.543,-4.917,-4.469,5.201,8.123,9,-1.747,1.154,4.316,8.485,-8.463,-7.693,-1.336,1.27,,118.0,132.2,112.1,128.9,113.6,118.8,118.5,139.8,114.0,3,norm,1.33,1.735,-1.176,-1.115,-4.838,-5.233,-1.805,-1.759,-1.51,-1.11,2.033,-1.606,110.6,128.1,-4.883,-7.777,1.239,-1.125,7.858,5.164,-4.471,-8.048,10,4.815,5.052,4.55,5.123,1.225,1.99,1.308,2.042,10,5.092,4.648,20,41.4147383917,norm,0,39,39,39,311.06,311.07,311.077503616,311.078,311.079,311.082,up,1,1.65470418066,8.34529581934,001,006,1920_1080,Intel(R) Core(TM) i5-3570 CPU @ 3.40GHz,orientation_search,LEPPC096,Intel(R) HD Graphics 2500,2018_Oct_10_1541,testMonitor,
126.0,,136.7,116.8,36,-40,117.9,108.5,123.7,110.9,7.713,7.517,8.173,8.373,8.324,8.472,7.981,4.575,-4.676,-8.229,1.313,-1.515,8.098,4.94,-4.41,-8.493,116.1,124.8,-7.675,117.3,114.2,127.0,114.2,129.0,36,129.9,3,5,prime,10,0,69,norm,36,-4.54,up,norm,119.846094506,106.3,107.4,99.8,108.4,5,109.4,123.0,124.5,10,6,7.519,4.671,1.963,-1.756,-4.577,-7.931,125.1,6,188.8,-7.861,-8.115,-40,-8.014,-7.527,-4.956,-4.617,-4.834,-4.896,4.782,7.518,23,-1.803,1.954,5.155,8.054,-8.491,-8.167,-1.797,1.375,113.1,120.5,132.9,125.1,136.9,128.7,111.7,129.8,114.1,115.1,4,norm,2.069,1.849,-1.45,-1.155,-4.339,-5.238,-1.282,-1.546,-1.347,-1.29,1.141,-1.574,107.0,122.4,-4.791,-8.233,1.97,-1.221,8.108,4.489,-4.979,-7.81,10,4.88,4.435,4.389,4.756,1.671,1.657,1.513,1.255,10,4.426,4.388,20,41.4147383917,norm,0,40,40,40,312.778,312.788,312.79444474,312.795,312.796,312.799,up,1,1.02969874747,8.97030125253,001,006,1920_1080,Intel(R) Core(TM) i5-3570 CPU @ 3.40GHz,orientation_search,LEPPC096,Intel(R) HD Graphics 2500,2018_Oct_10_1541,testMonitor,
110.0,124.1,116.4,112.1,36,-40,110.8,129.0,118.0,112.8,7.658,8.363,8.288,8.101,7.619,7.771,7.91,4.773,-5.295,-7.549,1.481,-1.365,8.018,4.949,-4.332,-8.409,119.2,114.6,-7.787,119.4,109.1,121.0,114.4,111.4,36,119.0,2,5,prime,10,0,63,norm,36,-4.643,up,norm,119.846094506,113.1,,120.8,102.5,4,126.7,119.1,132.5,10,6,7.882,4.459,1.853,-1.204,-4.466,-7.721,123.4,6,182.8,-7.527,-8.417,-40,-8.249,-8.432,-4.846,-4.712,-4.364,-4.937,4.969,8.136,16,-1.752,1.681,5.228,7.62,-7.733,-7.767,-1.399,1.523,128.8,118.2,113.7,113.7,126.9,113.0,133.6,139.8,115.6,100.4,5,norm,1.314,1.672,-1.738,-1.853,-4.654,-4.384,-1.827,-1.458,-1.528,-1.966,1.143,-1.106,99.8,115.3,-4.414,-7.768,1.403,-1.406,7.555,4.861,-5.299,-7.846,10,5.229,4.839,4.501,4.647,1.471,1.209,1.159,1.954,10,4.875,4.927,20,41.4147383917,norm,0,41,41,41,313.871,313.892,313.903160248,313.903,313.905,313.908,up,1,0.944755276838,9.05524472316,001,006,1920_1080,Intel(R) Core(TM) i5-3570 CPU @ 3.40GHz,orientation_search,LEPPC096,Intel(R) HD Graphics 2500,2018_Oct_10_1541,testMonitor,
189.5,194.9,191.7,189.4,36,0,185.5,193.7,188.8,197.9,8.035,8.481,7.88,7.661,7.547,8.469,7.753,4.602,-5.001,-7.813,1.191,-1.717,7.709,5.281,-4.799,-7.654,194.0,184.1,-7.816,188.0,186.8,185.3,190.4,193.8,36,191.5,0,5,probe,5,0,110,norm,36,-5.017,down,norm,190.360635291,180.4,195.9,186.4,192.2,2,200.4,189.1,181.8,10,6,8.078,5.039,1.586,-1.343,-4.772,-7.796,197.6,2,80.4,-7.797,-7.829,-40,-8.298,-7.969,-4.778,-4.794,-4.39,-5.013,4.314,7.636,2,-1.126,1.161,5.033,8.036,-8.057,-8.156,-1.796,1.337,192.7,194.9,182.9,,191.5,192.5,191.5,191.5,189.0,195.4,0,norm,1.947,2.084,-1.537,-1.869,-5.001,-4.717,-1.175,-1.199,-1.666,-1.227,1.387,-1.997,183.4,194.4,-5.013,-7.953,1.827,-2.003,8.131,4.562,-4.904,-7.661,11,4.381,4.991,4.407,4.325,1.808,1.423,1.418,1.88,11,4.341,4.535,-40,119.846094506,norm,0,42,42,42,314.872,314.881,314.887777968,314.888,314.89,314.892,down,1,1.88943328158,8.11056671842,001,006,1920_1080,Intel(R) Core(TM) i5-3570 CPU @ 3.40GHz,orientation_search,LEPPC096,Intel(R) HD Graphics 2500,2018_Oct_10_1541,testMonitor,
199.1,194.5,198.0,201.7,36,0,197.1,192.5,187.7,192.9,8.039,7.986,8.316,7.908,7.691,8.396,7.688,4.747,-4.934,-8.44,1.438,-1.663,7.681,5.232,-5.231,-7.99,190.0,186.7,-8.31,201.4,198.6,185.4,197.2,194.9,36,205.4,1,5,probe,5,0,115,norm,36,-4.841,up,norm,195.360635291,193.5,195.5,192.5,196.7,4,188.3,190.7,199.4,10,6,8.196,5.239,1.194,-1.803,-4.708,-7.861,,2,80.4,-7.895,-8.045,-40,-8.416,-7.761,-4.8,-4.865,-4.458,-4.455,5.105,7.901,10,-1.703,1.572,4.81,7.648,-8.095,-8.156,-1.797,1.172,196.9,192.7,189.8,195.7,195.0,193.6,195.0,199.8,193.4,192.1,1,norm,1.186,1.906,-2.006,-2.086,-5.183,-5.259,-1.517,-2.041,-1.939,-1.653,1.515,-1.112,187.7,193.2,-4.402,-7.985,1.444,-1.191,7.543,4.615,-5.059,-8.422,11,4.516,5.013,5.162,5.108,2.072,1.575,1.749,1.123,11,4.913,4.388,-40,119.846094506,norm,0,43,43,43,316.815,316.83,316.849306423,316.849,316.851,316.854,up,1,0.640484001055,9.35951599895,001,006,1920_1080,Intel(R) Core(TM) i5-3570 CPU @ 3.40GHz,orientation_search,LEPPC096,Intel(R) HD Graphics 2500,2018_Oct_10_1541,testMonitor,
231.1,,252.5,219.9,36,20,239.2,224.9,236.1,212.5,8.257,8.433,7.927,7.562,8.375,7.665,8.245,4.693,-5.23,-8.468,1.796,-1.414,7.813,4.822,-4.929,-7.862,226.3,232.7,-7.769,242.2,235.0,227.9,217.1,216.0,36,226.0,3,5,prime,10,0,66,norm,36,-5.177,up,norm,232.501390656,231.6,236.2,234.1,244.6,5,229.2,227.6,227.2,10,5,8.064,4.399,1.561,-1.562,-5.193,-7.858,239.5,5,298.5,-7.703,-8.191,20,-8.005,-8.267,-4.706,-4.81,-4.556,-5.22,5.061,8.377,23,-1.437,1.716,4.65,8.371,-8.386,-8.369,-1.448,1.288,219.2,235.8,252.0,233.7,250.2,224.1,242.3,229.3,244.1,221.9,0,norm,1.291,1.376,-1.622,-1.553,-5.069,-5.094,-1.421,-1.796,-1.716,-1.764,1.503,-1.981,229.8,226.8,-4.882,-8.001,1.887,-1.509,8.23,5.059,-4.435,-7.686,12,4.792,4.901,4.741,4.513,1.239,1.469,1.423,1.345,12,4.639,4.498,0,119.846094506,norm,0,44,44,44,317.536,317.546,317.554324702,317.555,317.556,317.559,up,1,0.704669951536,9.29533004846,001,006,1920_1080,Intel(R) Core(TM) i5-3570 CPU @ 3.40GHz,orientation_search,LEPPC096,Intel(R) HD Graphics 2500,2018_Oct_10_1541,testMonitor,
234.5,228.5,252.5,237.3,36,20,240.6,233.4,216.8,229.2,8.207,8.013,8.256,8.33,7.882,7.523,8.137,4.901,-4.643,-8.37,1.202,-1.499,8.216,4.609,-4.69,-8.011,212.5,244.8,-8.384,236.5,225.5,222.1,224.1,234.7,36,246.2,0,5,prime,10,0,83,norm,36,-5.294,up,norm,232.501390656,240.2,230.8,233.8,226.2,4,239.6,232.1,220.6,10,5,8.353,4.75,1.489,-1.38,-5.139,-7.931,243.6,5,315.5,-7.992,-7.556,20,-8.337,-8.302,-5.074,-4.422,-5.259,-4.343,4.765,7.592,4,-1.851,1.427,4.455,8.152,-8.149,-7.804,-1.69,1.816,249.6,234.5,230.2,238.0,231.2,236.8,226.3,234.7,241.3,,1,norm,1.557,1.81,-1.372,-1.212,-4.494,-4.469,-1.74,-1.494,-1.184,-1.709,1.808,-1.1,224.1,228.1,-5.15,-8.48,1.92,-1.81,8.008,4.452,-4.678,-8.295,12,4.453,4.461,4.848,4.664,1.488,1.495,2.069,1.763,12,4.886,5.011,0,119.846094506,norm,0,45,45,45,318.297,318.307,318.315673438,318.316,318.318,318.32,down,0,0.722639940985,-10,001,006,1920_1080,Intel(R) Core(TM) i5-3570 CPU @ 3.40GHz,orientation_search,LEPPC096,Intel(R) HD Graphics 2500,2018_Oct_10_1541,testMonitor,
230.2,225.6,244.1,239.3,36,20,248.3,224.1,229.3,231.0,7.522,7.919,8.465,8.257,8.141,8.47,8.24,5.046,-4.442,-7.901,1.982,-1.734,7.624,4.395,-5.135,-8.037,225.3,221.0,-8.179,220.6,233.1,221.4,221.6,232.5,36,215.5,1,5,prime,10,0,73,norm,36,-4.904,up,norm,232.501390656,227.9,229.8,212.5,228.1,4,233.0,214.5,229.0,10,5,8.457,5.145,1.222,-1.649,-4.4,-7.793,,5,305.5,-7.642,-8.39,20,-8.472,-7.965,-4.575,-4.575,-5.002,-5.287,5.046,8.014,10,-1.155,2.039,4.676,7.859,-7.889,-8.168,-1.717,1.356,228.1,252.5,238.9,237.7,226.3,224.8,231.2,216.2,227.1,245.3,2,norm,1.239,1.932,-2.075,-1.75,-4.312,-4.526,-1.754,-1.912,-1.421,-1.959,1.205,-1.618,232.2,247.3,-4.33,-8.006,1.524,-1.536,7.658,4.862,-4.705,-8.395,12,4.925,5.11,4.305,4.943,1.205,1.527,1.171,2.026,12,4.753,5.203,0,119.846094506,norm,0,46,46,46,320.114,320.124,320.14079973,320.141,320.143,320.145,up,1,0.822712443947,9.17728755605,001,006,1920_1080,Intel(R) Core(TM) i5-3570 CPU @ 3.40GHz,orientation_search,LEPPC096,Intel(R) HD Graphics 2500,2018_Oct_10_1541,testMonitor,
225.0,229.7,222.4,221.3,36,20,235.8,239.7,238.4,225.5,7.511,7.658,7.9,7.544,8.279,8.009,7.531,4.526,-5.172,-8.1,1.43,-1.72,7.817,4.538,-4.897,-8.241,223.8,235.6,-7.565,238.4,229.3,225.1,252.5,243.2,36,223.7,0,5,prime,10,0,89,norm,36,-5.148,up,norm,232.501390656,237.7,236.9,224.9,223.0,3,231.4,212.5,233.9,10,5,7.536,4.526,1.839,-1.568,-5.249,-7.665,241.8,5,321.5,-7.864,-8.476,20,-8.204,-8.143,-4.722,-4.772,-4.711,-5.127,4.68,8.125,3,-1.653,1.721,5.037,8.345,-7.653,-7.7,-1.495,2.076,219.3,234.5,,225.9,223.8,241.6,239.9,246.9,223.9,245.1,3,norm,1.496,1.245,-1.787,-1.198,-4.494,-5.083,-1.277,-1.922,-1.507,-1.166,1.804,-1.252,244.1,233.8,-4.89,-8.424,1.663,-1.151,8.38,4.411,-4.574,-8.395,12,5.223,4.302,4.946,5.209,1.256,1.586,1.238,1.944,12,4.804,4.796,0,119.846094506,norm,0,47,47,47,320.985,320.995,321.014439922,321.015,321.016,321.019,up,1,1.23080633438,8.76919366562,001,006,1920_1080,Intel(R) Core(TM) i5-3570 CPU @ 3.40GHz,orientation_search,LEPPC096,Intel(R) HD Graphics 2500,2018_Oct_10_1541,testMonitor,
252.5,231.2,230.5,240.0,36,20,227.7,226.4,244.9,227.2,8.472,8.36,7.533,7.969,7.813,8.067,7.633,4.934,-4.904,-7.888,2.075,-1.669,8.35,4.917,-5.051,-8.041,216.3,235.6,-8.081,240.7,244.7,219.3,234.0,236.6,36,233.1,3,5,prime,10,0,107,norm,36,-4.496,down,norm,232.501390656,235.9,231.3,212.5,233.4,0,233.8,246.7,223.3,10,5,8.084,4.823,1.107,-1.444,-5.281,-7.829,215.8,5,339.5,-7.715,-7.942,20,-8.027,-7.737,-5.01,-4.383,-4.599,-5.286,5.29,8.446,18,-1.924,1.265,4.857,7.954,-7.723,-7.535,-1.768,1.933,243.4,225.7,226.0,229.9,237.3,243.3,233.4,237.8,240.0,251.7,4,norm,1.141,1.155,-1.443,-1.488,-4.748,-5.166,-1.384,-1.143,-2.074,-1.157,1.807,-1.477,236.0,,-4.852,-7.981,1.355,-1.2,8.108,4.735,-4.34,-7.988,12,4.703,4.539,4.916,4.891,1.103,1.278,1.744,1.387,12,4.624,4.625,0,119.846094506,norm,0,48,48,48,322.283,322.296,322.315072467,322.315,322.317,322.32,down,1,0.928634082793,9.07136591721,001,006,1920_1080,Intel(R) Core(TM) i5-3570 CPU @ 3.40GHz,orientation_search,LEPPC096,Intel(R) HD Graphics 2500,2018_Oct_10_1541,testMonitor,
340.6,336.0,342.9,350.4,36,-30,351.6,345.4,343.2,348.7,8.022,8.121,8.182,7.55,7.934,8.154,8.317,4.312,-5.116,-8.084,1.792,-1.916,8.23,4.917,-4.817,-8.158,,355.2,-7.573,346.4,353.8,351.5,356.0,349.2,36,348.3,5,5,probe,5,0,90,norm,36,-5.065,up,norm,345.963212019,344.0,339.4,341.8,339.8,5,348.3,344.2,347.9,10,5,8.347,4.756,1.534,-1.476,-5.033,-8.048,340.4,1,256.0,-7.8,-8.369,20,-8.304,-7.726,-4.75,-4.604,-4.314,-4.982,4.404,8.408,35,-1.995,1.958,5.2,8.039,-8.366,-8.294,-1.855,1.915,341.7,337.9,342.3,346.2,336.2,348.9,345.5,338.4,354.0,351.1,0,norm,1.293,1.27,-1.71,-1.351,-4.582,-4.54,-1.583,-2.092,-1.362,-1.535,1.337,-1.933,343.8,352.5,-4.4,-7.872,1.113,-1.219,8.136,4.435,-4.835,-8.071,13,5.232,4.829,4.305,4.856,1.617,2.013,1.536,1.238,13,4.363,4.696,20,232.501390656,norm,0,49,49,49,323.282,323.295,323.313665873,323.314,323.316,323.318,up,1,0.806918448954,9.19308155105,001,006,1920_1080,Intel(R) Core(TM) i5-3570 CPU @ 3.40GHz,orientation_search,LEPPC096,Intel(R) HD Graphics 2500,2018_Oct_10_1541,testMonitor,
339.5,332.5,333.9,336.6,36,-20,349.9,344.0,339.5,363.0,8.348,8.283,8.449,7.87,7.634,7.81,8.326,5.12,-5.049,-8.226,1.103,-1.316,7.83,4.738,-4.889,-7.827,354.0,357.0,-7.771,360.1,342.3,357.4,,346.3,36,338.4,5,5,prime,10,0,69,norm,36,-4.594,down,norm,345.517730033,341.3,338.5,325.5,350.6,2,345.5,344.7,345.6,10,5,7.757,4.874,1.723,-1.504,-4.532,-7.914,338.7,5,414.5,-7.576,-7.833,-20,-7.925,-7.861,-5.035,-5.226,-5.294,-4.851,5.228,8.449,32,-1.539,1.683,4.405,8.499,-7.653,-8.123,-1.807,1.928,335.4,339.0,343.7,349.7,342.9,353.2,343.6,343.3,339.0,349.2,0,norm,1.574,1.764,-1.468,-1.481,-5.179,-4.377,-2.009,-1.688,-1.142,-1.178,1.182,-1.625,349.8,361.9,-5.248,-7.927,1.903,-1.404,8.394,4.474,-5.227,-8.35,14,4.306,5.169,4.412,5.277,1.54,2.075,1.828,2.075,14,4.47,5.138,-30,232.501390656,norm,0,50,50,50,324.166,324.176,324.18196765,324.182,324.184,324.187,down,1,2.19428198522,7.80571801478,001,006,1920_1080,Intel(R) Core(TM) i5-3570 CPU @ 3.40GHz,orientation_search,LEPPC096,Intel(R) HD Graphics 2500,2018_Oct_10_1541,testMonitor,
365.5,341.6,337.6,343.7,36,-20,354.9,340.2,325.5,354.3,7.88,7.961,8.262,7.711,7.98,7.743,8.232,5.296,-4.373,-8.223,1.612,-1.105,7.568,5.026,-4.396,-8.498,336.9,348.2,-7.941,351.3,334.4,344.4,336.5,348.6,36,349.2,2,5,prime,10,0,64,norm,36,-5.224,up,norm,345.517730033,349.5,345.3,,342.5,3,361.3,338.9,332.6,10,5,8.174,5.249,1.766,-2.039,-4.872,-7.792,332.0,5,409.5,-7.697,-8.472,-20,-7.601,-7.936,-4.718,-4.738,-4.922,-5.179,4.32,8.32,15,-1.528,1.802,4.951,8.054,-7.85,-8.139,-1.547,1.604,344.1,336.0,335.6,342.1,350.2,348.9,343.6,341.4,328.2,345.6,1,norm,1.97,1.161,-1.222,-1.425,-5.093,-4.753,-1.73,-1.39,-1.16,-1.648,1.603,-1.452,329.5,352.8,-4.46,-7.537,1.883,-1.721,8.306,4.515,-4.45,-7.589,14,4.417,4.948,4.946,4.606,1.894,1.973,1.422,1.697,14,5.095,4.481,-30,232.501390656,norm,0,51,51,51,326.412,326.423,326.4280313,326.428,326.43,326.433,up,1,1.87590009925,8.12409990075,001,006,1920_1080,Intel(R) Core(TM) i5-3570 CPU @ 3.40GHz,orientation_search,LEPPC096,Intel(R) HD Graphics 2500,2018_Oct_10_1541,testMonitor,
347.0,351.6,336.7,333.2,36,-20,365.5,355.1,348.6,343.3,7.857,8.208,7.725,8.3,7.966,7.777,8.465,4.76,-4.61,-8.343,1.453,-1.919,8.395,4.614,-4.931,-8.345,343.2,334.8,-7.646,344.0,327.8,337.3,361.7,357.6,36,359.8,2,5,prime,10,0,79,norm,36,-5.29,up,norm,345.517730033,,343.3,325.5,329.2,5,347.2,345.5,362.6,10,5,7.521,5.054,2.035,-2.068,-4.628,-8.364,357.3,5,424.5,-8.072,-8.331,-20,-8.48,-8.27,-4.785,-4.308,-4.396,-5.231,4.356,8.242,17,-1.9,1.921,4.405,7.872,-8.318,-8.421,-2.049,1.346,354.2,358.1,346.8,347.1,343.9,349.3,355.0,355.1,346.9,326.7,2,norm,1.401,1.617,-1.534,-2.064,-5.273,-4.543,-1.845,-1.741,-1.309,-1.576,1.126,-1.798,354.0,345.3,-5.215,-7.596,1.775,-1.486,7.959,5.247,-4.703,-8.249,14,4.331,4.551,4.994,5.164,1.508,1.93,1.941,1.551,14,4.543,5.135,-30,232.501390656,norm,0,52,52,52,328.347,328.357,328.377031411,328.377,328.379,328.382,up,1,1.46847026594,8.53152973406,001,006,1920_1080,Intel(R) Core(TM) i5-3570 CPU @ 3.40GHz,orientation_search,LEPPC096,Intel(R) HD Graphics 2500,2018_Oct_10_1541,testMonitor,
348.7,358.5,355.5,340.9,36,-20,348.1,345.9,342.5,337.7,8.467,7.857,8.379,8.065,8.134,8.286,8.235,4.792,-4.615,-7.818,1.245,-1.386,8.304,4.885,-5.14,-8.207,336.1,365.5,-7.578,349.1,357.1,355.1,345.2,360.1,36,353.5,2,5,prime,10,0,86,norm,36,-4.799,down,norm,345.517730033,336.0,346.5,351.8,357.7,0,359.1,325.5,,10,5,7.687,5.147,1.449,-1.328,-4.332,-8.279,347.0,5,431.5,-8.104,-7.523,-20,-8.368,-8.313,-4.964,-4.348,-5.15,-4.404,5.027,7.819,12,-1.647,1.437,4.845,8.164,-7.717,-8.385,-1.457,1.176,355.2,350.2,343.5,339.7,352.2,348.9,337.8,343.9,330.1,349.1,3,norm,1.229,1.351,-1.578,-1.627,-5.261,-4.409,-1.474,-1.124,-1.772,-1.41,1.374,-1.788,340.9,336.7,-4.447,-8.125,1.108,-1.245,8.446,4.939,-4.399,-7.597,14,5.122,5.169,4.827,4.326,1.608,1.937,1.123,1.498,14,5.18,4.868,-30,232.501390656,norm,0,53,53,53,329.883,329.895,329.915345092,329.916,329.917,329.92,down,1,0.962745791689,9.03725420831,001,006,1920_1080,Intel(R) Core(TM) i5-3570 CPU @ 3.40GHz,orientation_search,LEPPC096,Intel(R) HD Graphics 2500,2018_Oct_10_1541,testMonitor,
350.2,335.8,337.2,343.5,36,-20,346.6,327.0,347.4,335.8,7.729,7.7,7.913,7.525,8.432,7.864,8.03,4.533,-4.715,-7.865,1.543,-1.521,7.567,4.648,-4.814,-7.616,346.2,365.5,-8.314,343.0,356.6,337.3,333.2,347.4,36,339.6,0,5,prime,10,0,87,norm,36,-5.155,up,norm,345.517730033,348.6,349.5,335.5,350.9,3,350.0,336.0,338.7,10,5,7.809,4.826,2.084,-1.444,-4.37,-7.522,332.4,5,432.5,-7.704,-8.194,-20,-8.405,-8.217,-5.182,-5.06,-5.013,-5.249,4.809,7.985,3,-1.725,2.054,4.749,7.596,-8.183,-7.691,-1.286,1.888,338.1,329.4,,353.1,348.6,330.9,340.0,351.9,347.6,325.5,4,norm,1.186,1.769,-1.202,-1.436,-4.354,-4.615,-2.082,-1.727,-1.405,-1.189,1.837,-1.892,336.5,334.7,-4.853,-7.934,1.871,-1.397,8.172,4.637,-4.711,-7.68,14,4.806,5.029,5.019,5.273,1.878,1.756,1.648,1.942,14,5.09,4.77,-30,232.501390656,norm,0,54,54,54,330.92,330.93,330.938281022,330.938,330.94,330.943,up,1,0.655447622798,9.3445523772,001,006,1920_1080,Intel(R) Core(TM) i5-3570 CPU @ 3.40GHz,orientation_search,LEPPC096,Intel(R) HD Graphics 2500,2018_Oct_10_1541,testMonitor,
420.8,412.2,417.4,415.7,36,10,425.1,416.0,418.9,407.2,7.57,8.295,7.678,7.745,7.571,8.17,7.852,5.133,-5.242,-8.467,1.129,-1.203,8.409,4.337,-4.628,-7.91,412.7,411.8,-8.283,421.6,410.9,427.2,422.0,419.9,36,424.3,0,5,probe,5,0,95,norm,36,-4.905,down,norm,417.224361857,424.8,413.9,420.8,413.0,0,411.5,414.8,410.8,10,5,7.737,4.31,1.922,-1.119,-5.28,-7.907,408.5,2,322.2,-7.567,-8.096,-20,-7.826,-8.481,-5.08,-4.818,-4.62,-4.45,4.627,8.098,0,-1.399,1.592,5.071,8.105,-8.172,-7.711,-1.322,1.222,415.0,415.1,409.8,420.6,419.8,,424.4,412.1,420.4,417.2,0,norm,2.098,1.909,-1.72,-1.883,-4.8,-4.542,-1.964,-1.24,-1.492,-1.633,1.532,-1.912,412.2,409.6,-4.388,-8.166,1.339,-1.92,8.018,4.562,-4.823,-7.791,15,5.166,5.24,4.63,4.318,1.437,1.242,1.908,1.119,15,4.907,4.848,-20,345.517730033,norm,0,55,55,55,331.638,331.648,331.654864762,331.655,331.657,331.659,down,1,1.60369312351,8.39630687649,001,006,1920_1080,Intel(R) Core(TM) i5-3570 CPU @ 3.40GHz,orientation_search,LEPPC096,Intel(R) HD Graphics 2500,2018_Oct_10_1541,testMonitor,
377.0,382.6,385.5,380.2,36,10,384.1,391.9,380.5,389.3,7.969,7.661,8.116,8.428,8.051,7.607,7.944,4.411,-4.351,-8.365,1.825,-1.78,7.92,4.37,-4.432,-7.911,382.3,380.0,-8.485,386.4,,380.9,386.3,391.9,36,385.4,5,5,probe,5,0,61,norm,36,-4.816,down,norm,383.224361857,386.7,390.5,376.4,381.7,0,387.6,390.8,374.4,10,5,7.524,5.168,1.884,-1.413,-4.804,-7.833,381.4,2,322.2,-8.444,-8.227,-20,-8.377,-7.513,-4.565,-4.431,-4.836,-4.968,4.452,7.81,30,-1.329,2.05,4.848,8.054,-8.039,-8.206,-2.021,1.187,390.2,387.2,389.3,373.2,386.2,378.3,382.0,374.8,375.2,381.4,1,norm,1.615,2.019,-1.329,-1.64,-4.433,-5.19,-1.312,-1.459,-1.765,-1.828,1.411,-1.135,383.1,379.0,-4.372,-8.045,1.66,-1.484,7.901,4.775,-4.457,-8.113,15,4.33,4.545,4.511,4.584,1.377,1.728,1.474,1.152,15,4.76,4.568,-20,345.517730033,norm,0,56,56,56,333.296,333.31,333.328411865,333.329,333.33,333.333,down,1,0.763845289179,9.23615471082,001,006,1920_1080,Intel(R) Core(TM) i5-3570 CPU @ 3.40GHz,orientation_search,LEPPC096,Intel(R) HD Graphics 2500,2018_Oct_10_1541,testMonitor,
156.8,161.6,148.3,162.0,36,-20,160.6,146.8,165.8,152.6,7.845,8.452,8.255,7.541,7.668,7.538,7.547,4.343,-5.282,-8.329,1.383,-1.577,8.432,4.674,-5.172,-7.84,156.1,167.3,-7.525,165.9,163.5,138.0,148.1,152.2,36,167.1,0,5,prime,10,0,100,norm,36,-4.924,up,norm,158.007559141,162.2,150.0,143.4,148.9,5,151.8,156.3,153.5,10,6,7.685,4.997,1.117,-1.101,-4.336,-8.347,152.8,6,258.0,-7.948,-8.479,-20,-7.864,-7.913,-4.723,-5.202,-4.6,-4.39,4.569,7.589,5,-1.163,1.186,4.893,8.47,-8.455,-8.008,-1.525,1.397,142.3,156.8,153.0,161.4,157.3,157.5,149.5,166.9,,154.8,0,norm,2.091,2.096,-1.266,-1.312,-4.393,-5.091,-1.126,-1.271,-1.573,-1.852,1.441,-1.7,159.6,147.4,-4.766,-8.493,1.519,-1.961,7.752,4.737,-4.817,-8.032,16,4.965,4.361,5.014,4.831,1.361,1.699,1.87,1.408,16,4.38,4.669,10,345.517730033,norm,0,57,57,57,334.13,334.144,334.164953601,334.165,334.167,334.17,up,1,1.12784488109,8.87215511891,001,006,1920_1080,Intel(R) Core(TM) i5-3570 CPU @ 3.40GHz,orientation_search,LEPPC096,Intel(R) HD Graphics 2500,2018_Oct_10_1541,testMonitor,
166.7,155.9,146.8,163.0,36,-20,160.5,154.7,167.8,160.1,8.371,8.115,8.037,8.056,7.621,7.95,7.659,4.497,-4.644,-8.007,1.811,-1.406,8.44,4.706,-4.763,-7.999,153.3,153.7,-7.824,156.8,168.3,157.3,152.1,175.4,36,156.8,1,5,prime,10,0,108,norm,36,-5.018,up,norm,158.007559141,167.2,138.0,155.3,162.7,4,163.3,165.6,170.8,10,6,8.072,5.128,1.988,-1.53,-5.278,-7.528,,6,266.0,-7.533,-7.833,-20,-8.01,-8.228,-4.837,-4.894,-4.36,-4.482,4.823,7.715,10,-1.663,2.099,4.914,7.584,-8.257,-7.509,-1.204,1.454,163.4,155.5,154.1,165.3,166.3,160.4,178.0,175.9,157.5,160.8,1,norm,1.483,1.49,-1.353,-1.771,-5.299,-4.305,-1.682,-1.777,-1.541,-1.516,1.719,-1.201,165.6,166.5,-4.784,-7.87,1.402,-1.852,7.996,4.365,-4.624,-8.452,16,4.839,4.983,4.52,4.628,1.678,1.243,1.825,1.431,16,4.757,4.842,10,345.517730033,norm,0,58,58,58,335.335,335.345,335.350863938,335.351,335.353,335.356,down,0,1.01171728794,-10,001,006,1920_1080,Intel(R) Core(TM) i5-3570 CPU @ 3.40GHz,orientation_search,LEPPC096,Intel(R) HD Graphics 2500,2018_Oct_10_1541,testMonitor,
152.1,144.7,166.5,163.7,36,-20,151.6,138.0,163.8,162.4,8.094,7.8,8.3,8.192,8.023,7.869,8.492,4.59,-5.147,-8.44,2.031,-1.155,8.441,4.566,-4.684,-8.34,171.5,156.8,-8.229,158.7,149.1,167.3,151.9,162.0,36,155.2,1,5,prime,10,0,117,norm,36,-4.361,up,norm,158.007559141,149.4,172.3,162.7,170.6,5,,167.3,160.0,10,6,8.111,4.579,1.508,-1.741,-4.647,-8.074,138.1,6,275.0,-7.586,-8.159,-20,-8.262,-7.74,-4.684,-5.171,-4.979,-4.756,4.304,7.533,11,-1.836,1.457,5.002,7.5,-7.783,-8.477,-1.212,1.135,159.1,162.0,178.0,142.8,160.3,161.7,160.0,168.5,146.7,160.5,2,norm,1.965,1.693,-1.38,-2.044,-4.92,-4.711,-1.427,-2.045,-1.968,-1.477,1.714,-1.483,175.6,149.3,-5.284,-7.626,1.957,-2.058,7.886,4.642,-4.798,-8.026,16,4.797,5.281,4.601,4.701,2.017,1.123,1.176,1.224,16,4.749,4.447,10,345.517730033,norm,0,59,59,59,337.433,337.443,337.455871593,337.456,337.458,337.461,up,1,3.60329800952,6.39670199048,001,006,1920_1080,Intel(R) Core(TM) i5-3570 CPU @ 3.40GHz,orientation_search,LEPPC096,Intel(R) HD Graphics 2500,2018_Oct_10_1541,testMonitor,
164.0,148.3,151.9,163.7,36,-20,175.1,154.4,173.4,154.0,8.41,8.351,7.618,7.773,8.101,7.745,7.553,4.562,-4.819,-8.328,1.936,-1.653,7.788,5.238,-4.892,-7.752,162.4,140.6,-7.785,141.8,161.9,163.8,141.2,178.0,36,152.5,0,5,prime,10,0,78,norm,36,-4.329,down,norm,158.007559141,162.3,170.6,153.1,161.0,1,160.2,142.7,151.9,10,6,7.643,4.811,1.839,-1.507,-4.55,-8.401,164.6,6,236.0,-7.726,-7.746,-20,-8.05,-8.015,-5.235,-4.622,-4.384,-5.184,5.24,8.199,1,-1.193,1.949,5.273,7.759,-8.077,-7.755,-1.874,1.719,166.8,161.7,148.8,163.4,,160.4,160.9,150.6,164.8,138.0,3,norm,1.53,1.343,-1.138,-1.656,-4.327,-4.78,-1.341,-1.358,-1.58,-1.708,1.497,-1.67,162.5,150.1,-4.441,-7.934,1.484,-1.709,8.144,5.015,-4.508,-8.245,16,4.381,5.153,4.564,4.716,1.875,1.463,2.059,1.818,16,5.182,5.299,10,345.517730033,norm,0,60,60,60,341.097,341.11,341.129099949,341.129,341.131,341.134,down,1,2.67855107565,7.32144892435,001,006,1920_1080,Intel(R) Core(TM) i5-3570 CPU @ 3.40GHz,orientation_search,LEPPC096,Intel(R) HD Graphics 2500,2018_Oct_10_1541,testMonitor,
170.1,167.6,160.0,155.1,36,-20,165.0,165.3,162.8,144.0,7.961,8.162,7.74,7.827,7.541,8.437,8.058,5.041,-4.958,-7.739,1.337,-1.948,7.737,4.774,-5.166,-7.74,154.4,172.7,-8.325,138.0,157.3,154.6,150.4,157.1,36,153.7,2,5,prime,10,0,91,norm,36,-4.463,up,norm,158.007559141,,148.4,163.4,164.4,5,173.8,159.4,178.0,10,6,8.426,4.65,1.965,-1.398,-4.924,-8.484,169.8,6,249.0,-7.94,-8.15,-20,-7.914,-7.88,-4.605,-4.902,-4.683,-4.425,5.106,7.592,17,-1.317,2.044,4.608,7.501,-7.673,-8.492,-1.706,1.939,144.5,169.3,162.9,161.3,159.3,148.9,151.3,157.0,164.1,154.4,4,norm,1.432,1.562,-1.602,-2.09,-5.099,-4.529,-1.683,-1.905,-1.556,-1.202,2.023,-1.11,152.7,157.0,-5.274,-7.634,1.94,-2.028,7.606,4.825,-4.401,-7.998,16,4.969,4.45,5.176,5.117,1.371,1.912,1.209,2.016,16,5.056,4.46,10,345.517730033,norm,0,61,61,61,343.852,343.862,343.869956486,343.87,343.872,343.875,up,1,0.757437741626,9.24256225837,001,006,1920_1080,Intel(R) Core(TM) i5-3570 CPU @ 3.40GHz,orientation_search,LEPPC096,Intel(R) HD Graphics 2500,2018_Oct_10_1541,testMonitor,
159.5,149.7,150.4,145.7,36,-20,163.0,154.7,156.8,169.1,8.103,8.421,7.996,8.06,7.643,8.009,8.449,4.307,-4.855,-8.009,1.174,-1.645,8.083,4.497,-5.039,-8.179,155.5,162.1,-7.55,154.3,166.2,156.1,165.4,178.0,36,160.3,1,5,prime,10,0,110,norm,36,-5.088,up,norm,158.007559141,148.6,152.1,139.5,138.5,5,,165.5,149.2,10,6,8.226,5.16,1.854,-1.689,-4.798,-8.029,156.8,6,268.0,-7.727,-7.95,-20,-7.913,-8.11,-4.516,-4.672,-4.762,-4.915,5.038,7.916,11,-1.753,1.939,4.474,8.216,-8.049,-8.078,-1.919,1.824,164.2,142.2,151.5,150.3,141.4,162.3,148.4,175.9,148.4,138.0,5,norm,1.766,1.957,-1.782,-1.875,-4.325,-4.801,-1.997,-1.506,-1.53,-1.375,1.346,-1.329,156.8,155.8,-4.792,-8.002,1.863,-1.336,8.494,4.431,-4.3,-8.29,16,5.27,5.237,4.967,5.064,1.524,1.277,1.701,1.18,16,4.634,4.633,10,345.517730033,norm,0,62,62,62,344.649,344.659,344.6782604,344.678,344.68,344.683,up,1,3.46405338053,6.53594661947,001,006,1920_1080,Intel(R) Core(TM) i5-3570 CPU @ 3.40GHz,orientation_search,LEPPC096,Intel(R) HD Graphics 2500,2018_Oct_10_1541,testMonitor,
203.6,201.6,210.2,212.2,36,80,201.0,204.7,195.7,203.1,8.119,7.865,7.649,7.691,7.625,7.995,8.018,4.485,-4.503,-7.78,1.301,-1.477,7.506,4.386,-4.766,-8.299,200.7,209.3,-7.835,203.1,202.0,211.6,195.6,200.7,36,206.3,2,5,probe,5,0,65,norm,36,-4.437,down,norm,205.60731892,205.9,209.0,199.2,204.2,1,196.1,,215.6,10,6,8.369,5.274,1.809,-1.65,-5.102,-8.209,202.2,2,140.6,-8.167,-7.53,-20,-7.678,-7.574,-5.054,-4.664,-4.351,-4.356,4.862,7.897,13,-1.428,1.445,5.24,7.787,-8.355,-7.795,-1.937,1.644,209.3,203.2,214.3,207.4,198.2,209.0,205.9,205.9,202.1,208.3,0,norm,2.021,1.417,-1.432,-1.111,-4.694,-4.439,-2.045,-2.027,-1.222,-1.439,1.917,-1.623,198.9,206.1,-4.776,-7.709,1.559,-1.608,7.906,4.895,-5.044,-7.6,17,4.459,5.12,5.224,4.601,1.674,1.614,1.456,1.824,17,5.103,5.07,-20,158.007559141,norm,0,63,63,63,348.189,348.211,348.22131394,348.222,348.223,348.227,down,1,1.09529098983,8.90470901017,001,006,1920_1080,Intel(R) Core(TM) i5-3570 CPU @ 3.40GHz,orientation_search,LEPPC096,Intel(R) HD Graphics 2500,2018_Oct_10_1541,testMonitor,
213.6,208.2,205.2,209.6,36,80,207.0,206.7,206.7,196.6,8.297,8.107,7.696,7.719,7.968,8.429,8.024,5.175,-4.973,-8.324,1.495,-1.787,7.966,4.991,-4.678,-7.603,203.3,198.7,-8.132,203.3,209.1,210.9,206.4,206.6,36,208.7,2,5,probe,5,0,66,norm,36,-5.011,down,norm,206.60731892,206.1,209.4,209.6,210.3,1,210.0,,207.7,10,6,8.233,4.992,1.434,-1.305,-5.042,-8.127,206.9,2,140.6,-8.237,-7.931,-20,-8.288,-8.127,-5.18,-4.549,-4.605,-4.487,5.054,8.025,13,-1.192,1.557,4.61,8.086,-7.686,-8.024,-1.522,1.733,207.8,205.2,205.4,199.3,201.9,209.8,213.7,211.4,211.9,202.3,1,norm,1.364,1.51,-1.353,-1.351,-5.029,-4.312,-1.724,-1.422,-1.788,-1.919,1.305,-1.599,209.2,214.6,-4.834,-7.744,1.312,-1.213,7.569,4.781,-5.151,-8.296,17,4.802,4.624,4.634,4.485,1.366,1.372,1.405,1.345,17,4.393,4.535,-20,158.007559141,norm,0,64,64,64,349.354,349.364,349.373664943,349.374,349.376,349.378,down,1,0.958649766613,9.04135023339,001,006,1920_1080,Intel(R) Core(TM) i5-3570 CPU @ 3.40GHz,orientation_search,LEPPC096,Intel(R) HD Graphics 2500,2018_Oct_10_1541,testMonitor,
35.2,28.7,15.4,32.4,36,-80,26.0,19.0,33.4,28.5,7.96,8.427,7.927,7.597,7.703,7.917,7.988,4.748,-4.831,-7.762,1.225,-1.411,7.901,4.902,-5.223,-8.328,15.6,5.9,-7.843,31.9,22.3,,29.7,15.5,36,27.3,5,5,prime,10,0,115,norm,36,-4.82,up,norm,25.8548659858,32.2,45.9,24.7,31.0,3,30.9,27.1,14.4,10,5,8.242,5.001,1.79,-1.406,-4.921,-8.227,27.3,5,140.9,-7.83,-8.248,-80,-7.82,-7.818,-4.371,-4.611,-4.563,-4.465,5.0,7.705,33,-1.348,1.365,4.513,8.05,-7.98,-7.612,-1.637,1.167,15.2,8.5,38.4,39.2,11.9,25.7,30.3,25.7,7.8,26.1,0,norm,1.239,1.27,-1.82,-1.878,-5.299,-4.578,-1.665,-1.826,-1.236,-1.805,1.584,-1.146,12.9,24.7,-4.573,-8.327,1.78,-1.265,8.48,5.171,-4.925,-8.152,18,4.774,4.537,4.477,5.065,1.521,2.035,1.482,1.2,18,4.457,4.743,80,158.007559141,norm,0,65,65,65,350.368,383.163,383.169758054,383.17,383.172,383.175,up,1,1.03535530678,8.96464469322,001,006,1920_1080,Intel(R) Core(TM) i5-3570 CPU @ 3.40GHz,orientation_search,LEPPC096,Intel(R) HD Graphics 2500,2018_Oct_10_1541,testMonitor,
13.7,29.7,23.0,27.7,36,-80,,27.4,12.0,19.5,8.319,8.159,7.888,8.466,8.413,7.968,7.653,5.171,-4.389,-8.008,1.577,-1.728,8.33,5.196,-5.044,-8.444,22.7,5.9,-8.122,23.5,34.0,29.6,25.6,27.7,36,18.3,4,5,prime,10,0,105,norm,36,-4.856,down,norm,25.8548659858,10.2,28.6,39.8,18.9,0,24.2,20.2,31.6,10,5,7.946,5.051,1.999,-1.915,-4.307,-7.651,40.0,5,130.9,-8.054,-8.045,-80,-7.748,-8.325,-4.556,-5.29,-5.029,-4.669,4.771,8.336,24,-1.183,1.152,4.785,7.89,-8.013,-8.161,-1.955,2.004,45.9,32.2,30.1,26.5,30.3,42.7,22.7,25.0,14.6,31.7,1,norm,1.519,2.017,-1.699,-1.258,-5.286,-4.481,-1.413,-1.382,-1.982,-2.027,1.127,-1.297,24.1,11.9,-4.669,-7.737,1.565,-1.843,7.913,4.427,-4.729,-8.433,18,5.061,5.085,4.954,4.616,1.382,1.227,1.248,1.147,18,4.961,5.291,80,158.007559141,norm,0,66,66,66,384.242,384.252,384.268806701,384.269,384.271,384.273,down,1,0.583125463332,9.41687453667,001,006,1920_1080,Intel(R) Core(TM) i5-3570 CPU @ 3.40GHz,orientation_search,LEPPC096,Intel(R) HD Graphics 2500,2018_Oct_10_1541,testMonitor,
13.0,24.7,26.0,17.7,36,-80,28.7,32.8,17.7,,7.849,7.626,7.956,8.323,8.422,7.844,7.612,5.179,-5.193,-7.854,1.291,-1.868,8.238,5.077,-4.339,-7.659,16.8,32.5,-7.696,30.7,36.8,34.2,13.3,30.2,36,41.9,4,5,prime,10,0,114,norm,36,-4.644,up,norm,25.8548659858,13.9,5.9,25.2,21.5,5,16.5,34.3,20.0,10,5,8.252,4.813,1.853,-1.4,-4.84,-8.481,12.3,5,139.9,-7.845,-7.771,-80,-8.298,-7.82,-5.272,-4.506,-5.155,-5.022,4.867,8.051,29,-1.537,1.345,4.991,7.688,-8.422,-7.712,-1.205,1.522,8.0,45.9,7.1,16.1,30.2,26.7,35.8,33.4,44.8,15.5,2,norm,1.863,1.834,-1.657,-1.439,-5.242,-5.252,-1.99,-1.175,-1.193,-1.949,1.12,-1.177,43.3,38.8,-5.152,-7.718,1.704,-1.873,8.049,4.918,-5.115,-8.066,18,5.065,5.258,5.271,5.131,1.886,1.23,1.154,2.061,18,4.34,4.897,80,158.007559141,norm,0,67,67,67,384.89,384.901,384.905616656,384.906,384.908,384.91,up,1,0.53614342185,9.46385657815,001,006,1920_1080,Intel(R) Core(TM) i5-3570 CPU @ 3.40GHz,orientation_search,LEPPC096,Intel(R) HD Graphics 2500,2018_Oct_10_1541,testMonitor,
23.7,18.2,31.7,30.9,36,-80,17.1,26.0,29.0,15.8,8.181,7.635,8.431,7.626,7.832,7.553,7.93,4.51,-4.51,-8.311,1.929,-1.791,7.6,5.225,-5.118,-8.033,19.8,26.3,-8.107,35.0,43.5,31.1,37.9,19.3,36,32.6,2,5,prime,10,0,73,norm,36,-4.868,down,norm,25.8548659858,26.6,18.3,24.8,45.9,0,17.2,5.9,,10,5,8.127,4.817,1.604,-1.917,-5.074,-8.069,26.1,5,98.9,-7.571,-8.362,-80,-7.771,-7.985,-5.13,-5.055,-4.598,-4.908,4.599,8.3,12,-1.7,1.344,4.574,7.538,-8.278,-8.313,-2.064,1.363,24.8,35.0,28.3,26.3,40.1,14.9,28.0,8.7,23.5,31.9,3,norm,1.27,1.835,-1.519,-1.805,-4.423,-4.378,-1.31,-1.571,-1.19,-1.79,1.361,-1.352,30.9,20.8,-4.988,-7.892,1.327,-1.896,7.648,4.72,-4.381,-7.967,18,4.383,4.844,5.152,4.535,1.15,1.43,1.916,1.672,18,4.83,5.087,80,158.007559141,norm,0,68,68,68,385.486,385.496,385.502193803,385.502,385.504,385.507,down,1,0.786990094683,9.21300990532,001,006,1920_1080,Intel(R) Core(TM) i5-3570 CPU @ 3.40GHz,orientation_search,LEPPC096,Intel(R) HD Graphics 2500,2018_Oct_10_1541,testMonitor,
40.2,33.7,15.4,9.2,36,-80,29.8,5.9,36.3,29.4,8.0,8.152,8.083,7.907,7.814,8.189,8.078,5.289,-4.562,-8.0,1.32,-1.3,7.548,5.108,-4.302,-7.848,15.4,31.4,-7.759,21.6,30.7,27.5,20.9,12.6,36,14.2,0,5,prime,10,0,119,norm,36,-4.606,up,norm,25.8548659858,27.5,27.4,24.4,8.6,5,27.7,27.5,9.9,10,5,7.568,5.068,1.226,-1.505,-5.186,-7.615,26.9,5,144.9,-7.679,-7.738,-80,-8.34,-7.52,-4.817,-4.642,-4.38,-4.804,4.34,8.492,5,-1.321,1.135,4.346,8.143,-7.824,-7.608,-1.881,1.489,19.4,31.6,22.9,45.9,20.5,30.8,27.2,13.4,,34.9,4,norm,1.206,1.495,-1.437,-1.145,-5.173,-4.496,-1.439,-1.622,-1.625,-1.264,1.271,-1.256,21.9,34.5,-4.582,-7.883,1.281,-1.645,8.268,4.424,-4.457,-8.331,18,4.647,5.029,4.735,5.013,1.69,1.643,1.829,1.146,18,4.628,4.505,80,158.007559141,norm,0,69,69,69,386.327,386.337,386.343584967,386.344,386.346,386.348,up,1,0.47121463292,9.52878536708,001,006,1920_1080,Intel(R) Core(TM) i5-3570 CPU @ 3.40GHz,orientation_search,LEPPC096,Intel(R) HD Graphics 2500,2018_Oct_10_1541,testMonitor,
52.4,49.7,45.3,36.1,36,80,38.3,38.9,35.2,51.8,8.137,7.907,7.688,8.395,7.674,8.336,7.67,5.269,-5.02,-7.587,1.847,-2.052,8.201,4.56,-4.647,-7.979,42.9,,-8.208,47.2,47.1,42.4,37.2,39.5,36,42.0,5,5,probe,5,0,106,norm,36,-5.186,up,norm,42.6238008418,38.5,42.0,46.9,41.3,4,42.4,37.2,46.9,10,5,7.641,5.062,1.432,-1.3,-4.968,-8.499,32.6,1,-63.4,-8.15,-7.81,-80,-7.687,-8.483,-4.934,-4.805,-4.486,-4.626,5.023,8.375,34,-1.449,1.15,4.334,8.194,-8.364,-8.023,-1.156,2.019,39.5,41.1,43.6,38.7,47.5,39.3,39.6,52.6,43.5,41.6,0,norm,1.374,1.615,-2.072,-1.189,-5.104,-5.279,-1.619,-2.041,-1.57,-1.145,1.579,-1.447,44.3,45.7,-4.349,-7.831,1.408,-1.397,7.574,4.995,-4.782,-7.638,19,5.005,4.822,4.799,4.344,1.789,1.419,1.506,1.145,19,5.277,4.961,-80,25.8548659858,norm,0,70,70,70,386.86,386.878,386.891721864,386.892,386.894,386.897,up,1,0.689100830434,9.31089916957,001,006,1920_1080,Intel(R) Core(TM) i5-3570 CPU @ 3.40GHz,orientation_search,LEPPC096,Intel(R) HD Graphics 2500,2018_Oct_10_1541,testMonitor,
291.4,314.1,313.1,302.6,36,0,299.4,311.9,323.2,293.8,8.311,7.683,8.168,8.093,8.473,7.79,7.855,4.948,-4.603,-8.042,1.588,-1.581,8.471,4.609,-4.712,-8.365,296.4,292.7,-7.575,296.6,297.8,315.1,318.8,305.6,36,305.6,0,5,prime,10,0,98,norm,36,-5.243,up,norm,303.229943911,311.3,289.9,301.9,296.1,4,310.9,297.2,304.1,10,6,8.33,4.436,1.912,-2.014,-4.989,-8.283,320.6,6,401.2,-7.792,-7.838,0,-8.207,-8.413,-4.882,-5.002,-4.677,-4.587,4.696,7.653,4,-1.456,1.283,4.321,8.485,-8.21,-8.124,-1.445,1.297,292.3,305.3,300.5,316.2,283.2,290.8,291.4,308.8,308.0,,0,norm,1.256,1.653,-1.972,-1.639,-4.994,-5.251,-1.403,-1.967,-1.88,-1.861,2.065,-1.364,311.0,317.4,-5.265,-8.134,1.226,-1.595,8.079,4.848,-4.681,-7.895,20,4.685,5.256,4.79,4.743,2.035,1.351,1.555,1.159,20,4.79,4.848,80,25.8548659858,norm,0,71,71,71,387.623,387.633,387.639333069,387.64,387.641,387.644,up,1,1.09618384482,8.90381615518,001,006,1920_1080,Intel(R) Core(TM) i5-3570 CPU @ 3.40GHz,orientation_search,LEPPC096,Intel(R) HD Graphics 2500,2018_Oct_10_1541,testMonitor,
309.5,311.4,293.6,323.2,36,0,283.2,,300.0,298.6,7.726,8.425,8.263,8.336,7.785,8.406,8.487,4.341,-5.152,-8.152,1.368,-1.389,7.811,4.718,-4.767,-7.948,293.3,318.9,-7.797,289.5,295.7,315.3,286.3,284.8,36,303.5,4,5,prime,10,0,119,norm,36,-4.773,down,norm,303.229943911,308.5,299.0,308.3,310.5,1,313.9,304.4,308.7,10,6,7.629,4.828,1.467,-1.892,-5.025,-8.295,309.3,6,422.2,-8.46,-8.232,0,-7.692,-8.039,-4.83,-5.02,-4.886,-5.241,4.403,7.946,25,-1.817,1.358,4.934,8.266,-8.486,-8.08,-1.934,2.086,304.4,296.2,301.7,303.8,293.4,313.0,317.6,284.1,302.1,322.6,1,norm,2.046,1.342,-1.144,-2.07,-5.187,-4.885,-1.81,-1.503,-1.952,-1.842,1.548,-1.176,310.8,294.1,-4.95,-7.544,1.953,-1.546,8.057,4.371,-4.974,-8.042,20,5.091,4.906,5.094,4.32,1.694,1.377,1.959,1.784,20,4.905,4.457,80,25.8548659858,norm,0,72,72,72,388.773,388.783,388.79277041,388.793,388.795,388.797,down,1,0.707142960633,9.29285703937,001,006,1920_1080,Intel(R) Core(TM) i5-3570 CPU @ 3.40GHz,orientation_search,LEPPC096,Intel(R) HD Graphics 2500,2018_Oct_10_1541,testMonitor,
306.0,311.8,304.7,301.2,36,0,,289.9,323.2,291.0,7.688,7.736,7.559,7.545,8.186,8.177,8.426,4.651,-5.052,-7.589,1.828,-1.128,8.247,5.054,-4.786,-8.088,291.9,308.0,-7.742,297.7,298.7,302.2,306.0,295.2,36,305.0,4,5,prime,10,0,74,norm,36,-4.402,down,norm,303.229943911,303.3,296.8,287.2,321.1,0,313.0,309.9,306.4,10,6,7.878,4.895,1.692,-2.02,-5.291,-8.18,304.1,6,377.2,-7.657,-8.315,0,-8.34,-7.61,-4.433,-4.895,-5.135,-5.226,5.09,8.463,24,-1.263,1.687,5.203,7.67,-7.807,-7.541,-1.845,2.007,318.5,299.4,304.2,283.2,312.7,311.7,309.5,296.9,285.5,293.5,2,norm,1.646,1.976,-1.123,-1.73,-4.553,-4.372,-1.873,-1.616,-2.09,-1.383,2.059,-1.956,322.3,300.7,-4.369,-7.619,1.191,-1.306,8.206,4.807,-4.47,-7.665,20,5.228,4.903,4.75,4.61,1.697,1.769,1.925,1.996,20,4.681,4.484,80,25.8548659858,norm,0,73,73,73,389.542,389.552,389.557967961,389.558,389.56,389.563,down,1,1.04531857839,8.95468142161,001,006,1920_1080,Intel(R) Core(TM) i5-3570 CPU @ 3.40GHz,orientation_search,LEPPC096,Intel(R) HD Graphics 2500,2018_Oct_10_1541,testMonitor,
291.5,296.1,304.2,283.2,36,0,312.8,299.4,312.8,303.7,7.636,8.235,7.621,8.212,8.063,8.259,8.127,4.637,-4.565,-8.111,1.669,-1.881,7.928,4.315,-5.216,-8.09,310.5,309.1,-8.002,285.4,287.8,293.4,305.1,291.5,36,295.1,2,5,prime,10,0,67,norm,36,-4.367,down,norm,303.229943911,302.1,313.8,306.0,,2,284.3,286.6,292.0,10,6,7.89,4.97,1.175,-2.019,-4.611,-7.621,323.2,6,370.2,-7.791,-7.503,0,-8.422,-7.638,-4.925,-4.893,-5.04,-4.471,4.905,8.471,14,-1.134,1.142,5.178,7.958,-7.999,-8.102,-1.841,1.101,301.0,301.0,307.3,306.2,290.9,320.8,303.1,291.2,298.8,300.6,3,norm,1.743,1.565,-1.82,-1.472,-5.14,-5.232,-1.229,-1.6,-1.181,-1.726,1.512,-1.238,306.4,299.6,-4.864,-7.996,1.133,-1.85,8.183,4.331,-5.144,-7.889,20,5.045,5.269,4.826,4.393,1.93,1.542,1.59,1.668,20,4.864,4.609,80,25.8548659858,norm,0,74,74,74,390.65,390.659,390.667605,390.668,390.67,390.672,down,1,1.01277736459,8.98722263541,001,006,1920_1080,Intel(R) Core(TM) i5-3570 CPU @ 3.40GHz,orientation_search,LEPPC096,Intel(R) HD Graphics 2500,2018_Oct_10_1541,testMonitor,
309.7,296.5,305.8,285.5,36,0,300.0,299.4,310.5,,8.264,7.951,8.425,8.189,8.302,7.789,7.54,5.193,-4.619,-7.515,1.524,-2.082,8.19,5.229,-4.931,-7.816,296.7,299.1,-8.09,310.5,304.1,297.4,292.4,306.1,36,298.9,4,5,prime,10,0,116,norm,36,-4.753,up,norm,303.229943911,309.6,283.2,307.7,323.2,5,305.8,296.3,316.2,10,6,8.476,4.766,2.054,-2.058,-4.36,-7.793,300.9,6,419.2,-8.362,-7.907,0,-7.712,-7.847,-4.845,-4.517,-5.28,-4.772,4.74,8.388,29,-1.366,1.522,4.75,8.374,-8.162,-8.072,-1.972,1.734,310.8,313.3,296.4,299.1,316.9,298.3,296.5,296.5,311.7,301.7,4,norm,1.263,1.896,-1.278,-1.351,-4.413,-5.268,-1.881,-1.597,-1.141,-1.751,1.72,-1.594,298.8,310.3,-4.887,-8.43,2.018,-1.604,8.489,5.218,-4.432,-7.6,20,5.236,4.493,4.689,4.575,1.113,2.033,1.509,1.486,20,5.232,4.403,80,25.8548659858,norm,0,75,75,75,391.726,391.736,391.741978794,391.742,391.744,391.747,up,1,0.640614095881,9.35938590412,001,006,1920_1080,Intel(R) Core(TM) i5-3570 CPU @ 3.40GHz,orientation_search,LEPPC096,Intel(R) HD Graphics 2500,2018_Oct_10_1541,testMonitor,
308.5,309.1,308.6,310.7,36,0,306.4,288.1,303.9,293.4,8.139,8.182,8.075,8.044,7.974,7.93,7.521,4.424,-4.652,-8.042,1.573,-1.833,8.177,4.51,-4.682,-8.32,294.5,301.7,-7.72,302.9,294.0,283.2,307.0,301.0,36,311.0,0,5,prime,10,0,117,norm,36,-4.818,up,norm,303.229943911,311.8,318.5,305.1,307.4,4,289.3,309.1,311.1,10,6,7.77,5.144,1.915,-1.578,-5.256,-8.497,294.6,6,420.2,-8.168,-7.844,0,-8.036,-7.671,-5.248,-4.427,-5.003,-5.198,4.352,7.918,4,-1.262,1.132,4.883,8.057,-7.989,-8.375,-1.998,1.583,298.9,323.2,304.3,287.2,308.8,294.9,293.4,298.7,308.7,,5,norm,1.913,1.758,-1.461,-1.593,-4.398,-4.884,-1.35,-1.759,-1.791,-1.597,1.894,-1.255,313.5,300.2,-4.718,-7.506,1.335,-1.56,8.337,4.632,-4.469,-8.005,20,4.7,4.721,5.057,4.375,2.069,1.68,1.583,1.618,20,5.268,4.473,80,25.8548659858,norm,0,76,76,76,392.42,392.43,392.442869656,392.443,392.445,392.448,up,1,0.858681399881,9.14131860012,001,006,1920_1080,Intel(R) Core(TM) i5-3570 CPU @ 3.40GHz,orientation_search,LEPPC096,Intel(R) HD Graphics 2500,2018_Oct_10_1541,testMonitor,
414.8,406.8,418.7,420.9,36,30,412.2,407.8,418.4,416.8,7.532,7.889,8.196,8.272,8.178,7.587,8.272,4.755,-5.168,-8.075,1.796,-1.757,7.78,4.392,-4.713,-7.564,,415.6,-8.332,422.0,418.7,413.1,420.3,415.9,36,409.5,5,5,probe,5,0,109,norm,36,-4.882,up,norm,415.756562853,412.9,424.4,406.5,423.5,5,417.5,425.8,412.4,10,6,8.199,4.875,1.679,-1.133,-4.741,-7.76,419.9,2,306.8,-7.623,-8.405,0,-8.358,-8.011,-4.891,-4.987,-5.154,-4.418,5.101,7.892,35,-1.342,1.794,4.527,8.492,-8.329,-7.815,-2.077,1.701,420.5,405.8,419.3,418.1,425.5,420.9,410.9,419.5,420.8,419.7,0,norm,1.411,1.537,-1.741,-1.879,-4.698,-5.196,-1.369,-1.474,-2.009,-1.775,1.588,-1.731,413.5,412.6,-4.687,-8.153,1.361,-1.339,8.338,5.244,-4.914,-8.414,21,4.871,4.761,4.929,4.563,1.611,1.479,1.636,1.248,21,5.124,5.205,0,303.229943911,norm,0,77,77,77,393.348,393.358,393.366262819,393.366,393.368,393.371,up,1,0.622032570191,9.37796742981,001,006,1920_1080,Intel(R) Core(TM) i5-3570 CPU @ 3.40GHz,orientation_search,LEPPC096,Intel(R) HD Graphics 2500,2018_Oct_10_1541,testMonitor,
390.2,402.3,402.0,391.6,36,30,386.8,398.8,,397.5,7.959,8.45,7.889,8.098,8.203,8.441,8.091,5.109,-5.233,-7.586,1.484,-1.291,7.844,5.29,-4.56,-8.015,387.4,395.2,-7.697,397.7,402.7,394.4,394.8,397.1,36,390.6,4,5,probe,5,0,90,norm,36,-5.069,up,norm,396.756562853,397.3,401.6,387.2,394.9,4,392.4,395.7,391.0,10,6,8.009,5.259,2.065,-1.927,-4.432,-8.241,393.4,2,306.8,-8.481,-8.131,0,-8.185,-8.094,-5.127,-4.968,-4.459,-4.631,4.747,8.441,28,-1.549,2.008,4.496,8.377,-8.273,-7.634,-1.225,1.976,393.0,402.5,393.4,393.7,404.1,399.1,406.2,397.3,396.1,393.1,1,norm,1.83,1.665,-1.491,-1.907,-5.119,-4.4,-1.903,-1.854,-1.525,-1.448,1.849,-1.693,398.2,406.8,-4.547,-8.031,1.562,-1.603,8.46,4.861,-5.285,-7.601,21,4.828,4.72,4.472,4.604,2.073,1.198,1.346,1.412,21,5.149,5.149,0,303.229943911,norm,0,78,78,78,394.035,394.044,394.051022225,394.051,394.053,394.056,up,1,0.621502230024,9.37849776998,001,006,1920_1080,Intel(R) Core(TM) i5-3570 CPU @ 3.40GHz,orientation_search,LEPPC096,Intel(R) HD Graphics 2500,2018_Oct_10_1541,testMonitor,
201.3,217.6,202.9,222.2,36,-60,201.0,215.0,228.5,197.9,7.669,8.199,8.016,8.449,8.089,8.268,8.203,5.133,-4.452,-8.117,2.026,-1.118,8.212,4.65,-4.378,-7.551,206.4,212.6,-7.753,212.1,195.0,197.2,204.0,221.0,36,209.8,2,5,prime,10,0,105,norm,36,-5.241,up,norm,208.461243799,218.9,206.2,,209.6,3,205.4,202.1,218.8,10,5,7.693,4.444,1.69,-1.414,-4.685,-8.219,221.0,5,313.5,-7.967,-8.137,-60,-8.129,-7.87,-5.291,-4.917,-5.077,-4.369,4.382,8.421,15,-1.213,1.727,4.627,8.103,-8.17,-8.426,-1.457,1.891,210.6,208.6,188.5,201.3,203.2,207.6,209.2,198.5,204.0,195.7,0,norm,1.729,1.278,-1.59,-1.856,-4.482,-5.148,-1.147,-1.973,-1.705,-1.71,1.673,-1.795,214.0,212.0,-4.518,-8.339,1.71,-1.581,8.243,4.495,-5.173,-7.862,22,4.722,4.96,4.699,4.948,1.76,1.244,2.058,1.11,22,5.189,4.756,30,303.229943911,norm,0,79,79,79,394.71,394.724,394.742429749,394.743,394.744,394.747,up,1,0.864726130769,9.13527386923,001,006,1920_1080,Intel(R) Core(TM) i5-3570 CPU @ 3.40GHz,orientation_search,LEPPC096,Intel(R) HD Graphics 2500,2018_Oct_10_1541,testMonitor,
190.0,209.7,197.1,214.1,36,-60,204.8,213.0,212.4,209.2,7.662,7.945,8.249,7.973,7.978,7.75,8.262,4.438,-4.685,-7.871,1.559,-2.062,8.462,4.437,-5.253,-7.792,201.7,188.7,-8.477,208.7,219.2,189.9,207.1,228.5,36,205.1,3,5,prime,10,0,112,norm,36,-4.582,down,norm,208.461243799,216.7,214.1,223.5,222.8,1,217.9,188.5,197.3,10,5,8.268,4.692,1.882,-1.937,-4.601,-7.605,212.6,5,320.5,-7.585,-8.26,-60,-8.28,-8.387,-4.635,-4.573,-4.714,-4.342,5.062,7.952,19,-1.66,1.237,5.125,8.173,-8.075,-8.027,-1.802,1.377,217.1,206.5,213.2,227.0,194.4,212.8,199.4,210.1,205.3,197.8,1,norm,1.223,1.393,-2.095,-1.251,-5.077,-4.978,-1.217,-1.839,-2.088,-1.308,1.914,-2.076,,196.0,-4.494,-8.321,1.381,-1.361,8.295,5.27,-4.651,-7.559,22,4.683,4.355,4.32,5.057,1.492,1.587,2.083,2.062,22,4.52,5.213,30,303.229943911,norm,0,80,80,80,395.644,395.655,395.671858285,395.672,395.674,395.676,down,1,0.754765515392,9.24523448461,001,006,1920_1080,Intel(R) Core(TM) i5-3570 CPU @ 3.40GHz,orientation_search,LEPPC096,Intel(R) HD Graphics 2500,2018_Oct_10_1541,testMonitor,
209.9,205.1,221.1,197.1,36,-60,202.8,200.9,202.6,204.7,8.209,8.327,8.316,7.546,8.073,7.876,7.565,5.198,-4.916,-8.328,2.001,-1.275,8.253,4.733,-4.423,-7.7,210.9,206.8,-8.094,200.8,206.1,198.4,210.0,,36,217.7,4,5,prime,10,0,75,norm,36,-5.178,down,norm,208.461243799,218.3,221.2,211.4,214.5,2,202.2,214.8,201.8,10,5,8.041,4.325,1.397,-1.401,-4.595,-7.765,218.9,5,283.5,-7.778,-8.404,-60,-7.992,-8.457,-4.698,-4.498,-4.301,-4.35,4.502,8.411,26,-1.581,2.019,5.285,7.919,-8.08,-8.116,-1.52,1.897,228.5,199.7,188.5,217.7,202.3,198.8,210.2,210.5,219.6,216.8,2,norm,2.08,1.891,-1.488,-1.224,-4.548,-4.519,-1.519,-1.61,-1.714,-1.156,1.558,-2.034,217.7,205.1,-4.311,-8.213,1.21,-1.606,7.817,4.805,-4.919,-8.042,22,4.561,5.089,4.408,5.019,1.685,1.301,1.498,1.726,22,4.899,5.229,30,303.229943911,norm,0,81,81,81,396.464,396.474,396.483106085,396.483,396.485,396.488,down,1,0.892083171344,9.10791682866,001,006,1920_1080,Intel(R) Core(TM) i5-3570 CPU @ 3.40GHz,orientation_search,LEPPC096,Intel(R) HD Graphics 2500,2018_Oct_10_1541,testMonitor,
212.2,210.1,220.3,211.1,36,-60,205.5,228.5,192.4,217.8,8.171,8.245,7.652,7.755,8.457,8.319,7.504,4.347,-5.088,-7.896,2.091,-1.998,7.855,4.391,-5.181,-7.881,188.5,205.9,-7.604,208.7,207.2,207.1,194.8,210.8,36,199.5,3,5,prime,10,0,65,norm,36,-5.007,down,norm,208.461243799,215.9,214.4,193.1,216.1,0,201.1,220.7,206.6,10,5,8.094,5.066,1.706,-1.475,-5.122,-7.632,224.2,5,273.5,-7.724,-7.859,-60,-8.461,-8.366,-4.976,-4.508,-4.993,-5.254,4.973,8.352,18,-1.22,1.66,4.831,8.226,-7.963,-8.352,-1.143,1.415,219.0,212.9,200.0,227.1,219.2,193.5,199.6,208.4,198.3,219.3,3,norm,2.073,1.722,-1.196,-1.521,-4.783,-4.542,-1.497,-1.576,-1.865,-1.903,1.105,-1.723,227.4,,-5.156,-7.546,1.821,-1.841,8.209,4.566,-5.158,-8.061,22,5.126,4.784,4.928,4.849,1.413,1.723,1.859,1.736,22,4.864,5.261,30,303.229943911,norm,0,82,82,82,397.42,397.441,397.452358731,397.453,397.455,397.458,up,0,1.41566142504,-10,001,006,1920_1080,Intel(R) Core(TM) i5-3570 CPU @ 3.40GHz,orientation_search,LEPPC096,Intel(R) HD Graphics 2500,2018_Oct_10_1541,testMonitor,
208.1,221.8,221.8,211.4,36,-60,209.6,206.1,220.7,214.5,7.848,8.392,7.963,8.454,7.776,8.202,7.708,4.516,-4.859,-8.212,1.6,-1.694,7.741,4.895,-4.739,-8.095,209.4,212.7,-7.665,207.0,215.2,207.5,,225.1,36,213.2,5,5,prime,10,0,88,norm,36,-4.323,down,norm,208.461243799,208.3,196.2,204.1,203.7,2,213.1,199.4,206.9,10,5,8.26,4.63,1.904,-1.575,-5.153,-7.68,188.5,5,296.5,-8.15,-7.917,-60,-7.824,-8.038,-4.989,-4.857,-4.906,-4.323,4.985,8.027,32,-1.326,1.114,4.972,7.63,-7.775,-8.259,-1.704,1.736,223.0,199.6,228.5,209.4,199.9,206.2,219.9,209.9,211.9,221.4,4,norm,1.956,1.258,-1.725,-2.067,-4.976,-5.248,-1.845,-2.0,-1.725,-1.961,1.845,-1.175,204.1,198.7,-4.51,-7.982,1.272,-1.379,8.098,4.6,-5.169,-7.714,22,4.752,4.696,4.625,4.801,1.754,1.104,1.137,1.368,22,4.796,4.498,30,303.229943911,norm,0,83,83,83,399.939,399.949,399.961775665,399.962,399.964,399.967,down,1,0.9098877502,9.0901122498,001,006,1920_1080,Intel(R) Core(TM) i5-3570 CPU @ 3.40GHz,orientation_search,LEPPC096,Intel(R) HD Graphics 2500,2018_Oct_10_1541,testMonitor,
204.1,207.9,210.4,206.1,36,10,214.9,205.2,205.5,211.6,8.316,7.68,7.809,8.236,7.824,8.026,8.018,4.466,-4.606,-7.932,1.944,-2.089,7.548,4.958,-4.438,-8.055,204.4,208.0,-8.391,198.8,204.0,208.1,212.5,206.9,36,213.7,2,5,probe,5,0,67,norm,36,-5.299,up,norm,207.670800334,197.7,,210.8,204.6,4,208.3,203.0,213.3,10,5,7.852,4.398,1.641,-1.542,-5.253,-8.301,203.1,1,140.7,-7.922,-8.464,-60,-8.443,-8.485,-4.788,-5.131,-4.486,-4.584,4.94,8.134,16,-1.304,1.879,4.544,8.407,-8.33,-7.639,-1.23,1.661,206.9,202.4,217.7,210.2,212.9,213.7,211.1,207.2,212.8,203.5,0,norm,1.256,1.511,-1.816,-1.144,-4.321,-4.76,-1.952,-1.362,-1.504,-1.365,1.804,-1.744,205.2,201.7,-5.214,-7.528,1.378,-1.118,8.215,5.228,-4.674,-7.972,23,4.344,4.494,4.884,5.289,1.684,1.989,1.894,1.985,23,4.545,4.502,-60,208.461243799,norm,0,84,84,84,400.914,400.924,400.929926579,400.93,400.932,400.935,up,1,0.606089464191,9.39391053581,001,006,1920_1080,Intel(R) Core(TM) i5-3570 CPU @ 3.40GHz,orientation_search,LEPPC096,Intel(R) HD Graphics 2500,2018_Oct_10_1541,testMonitor,
,227.7,245.5,241.0,36,30,234.0,238.6,218.4,248.3,7.832,8.285,8.064,7.656,7.663,7.689,8.29,5.247,-5.104,-8.101,1.38,-1.976,7.575,4.538,-4.587,-7.603,255.7,244.5,-7.666,228.5,231.1,233.8,247.2,258.4,36,244.6,3,5,prime,10,0,89,norm,36,-5.193,up,norm,238.424826888,231.7,240.1,223.3,242.7,4,237.7,252.4,247.7,10,5,8.498,4.943,1.41,-1.314,-4.665,-7.886,245.1,5,327.4,-7.574,-8.351,30,-7.756,-7.749,-5.251,-5.054,-5.034,-4.669,4.679,8.284,22,-1.724,1.236,4.873,8.394,-7.749,-8.492,-1.913,1.301,252.9,230.2,242.0,255.4,255.2,256.0,240.0,257.3,245.8,231.7,0,norm,1.273,1.987,-1.753,-2.056,-5.265,-5.28,-1.939,-1.873,-1.37,-1.7,1.814,-1.871,239.6,236.3,-4.704,-7.709,1.454,-1.93,7.757,4.666,-4.377,-8.15,24,5.221,4.342,5.272,4.506,1.936,1.832,1.847,1.476,24,5.254,4.41,10,208.461243799,norm,0,85,85,85,401.574,401.588,401.605911376,401.606,401.608,401.611,up,1,0.524709565561,9.47529043444,001,006,1920_1080,Intel(R) Core(TM) i5-3570 CPU @ 3.40GHz,orientation_search,LEPPC096,Intel(R) HD Graphics 2500,2018_Oct_10_1541,testMonitor,
247.1,247.6,,227.3,36,30,237.0,235.7,235.6,238.2,7.637,7.887,7.504,7.944,8.305,8.221,7.581,5.265,-5.288,-7.712,1.32,-1.785,7.791,4.611,-4.942,-7.682,230.5,230.3,-8.302,245.0,218.4,247.2,232.5,245.9,36,255.6,3,5,prime,10,0,118,norm,36,-4.925,down,norm,238.424826888,254.1,222.7,240.6,232.1,2,237.9,249.5,240.7,10,5,7.702,4.709,1.212,-1.382,-5.292,-8.45,258.4,5,356.4,-8.442,-7.972,30,-7.624,-7.737,-5.183,-4.672,-4.584,-4.732,4.663,7.904,20,-1.72,1.475,4.691,7.522,-7.51,-7.809,-1.104,1.715,220.3,240.4,248.1,243.2,233.6,246.6,244.9,227.8,246.5,238.5,1,norm,1.738,1.671,-1.743,-1.798,-4.775,-4.796,-1.708,-1.342,-1.192,-1.433,1.109,-2.065,233.8,227.4,-5.056,-8.045,1.364,-1.491,7.973,4.847,-4.964,-8.065,24,4.898,4.36,4.381,4.549,1.902,1.659,1.556,1.414,24,4.751,5.059,10,208.461243799,norm,0,86,86,86,402.178,402.201,402.210113711,402.21,402.212,402.215,down,1,0.77484418805,9.22515581195,001,006,1920_1080,Intel(R) Core(TM) i5-3570 CPU @ 3.40GHz,orientation_search,LEPPC096,Intel(R) HD Graphics 2500,2018_Oct_10_1541,testMonitor,
240.4,246.5,235.5,230.9,36,30,245.1,255.0,218.4,240.8,8.175,8.375,8.003,8.082,8.172,7.892,8.435,4.957,-4.764,-7.538,1.6,-1.385,7.938,4.704,-5.033,-7.692,240.5,251.1,-7.739,225.9,228.6,252.2,249.3,222.5,36,234.7,0,5,prime,10,0,66,norm,36,-4.66,down,norm,238.424826888,243.3,240.3,243.2,240.3,2,230.6,232.2,243.9,10,5,8.241,5.068,1.743,-1.199,-4.326,-8.418,239.3,5,304.4,-8.215,-7.967,30,-7.726,-7.92,-4.385,-4.746,-4.952,-4.961,4.525,8.346,2,-1.134,1.276,4.542,8.179,-8.135,-7.88,-1.761,1.243,228.0,248.6,243.1,,237.6,237.5,231.5,226.8,258.3,220.9,2,norm,1.3,1.663,-1.404,-2.037,-4.95,-4.684,-1.945,-1.331,-1.737,-1.954,2.002,-1.177,230.4,258.4,-4.995,-8.054,1.322,-1.314,8.497,4.785,-4.9,-8.289,24,4.894,4.751,4.636,4.587,1.116,1.827,1.793,1.684,24,4.734,4.358,10,208.461243799,norm,0,87,87,87,403.023,403.033,403.050381108,403.051,403.052,403.055,down,1,0.822341477491,9.17765852251,001,006,1920_1080,Intel(R) Core(TM) i5-3570 CPU @ 3.40GHz,orientation_search,LEPPC096,Intel(R) HD Graphics 2500,2018_Oct_10_1541,testMonitor,
248.6,246.3,258.4,237.2,36,30,219.6,241.6,234.0,245.2,7.575,8.385,7.611,8.104,7.602,7.555,7.643,5.078,-4.521,-7.601,1.991,-1.464,8.06,5.177,-5.185,-8.328,230.9,237.2,-8.398,240.5,244.0,255.6,235.3,218.5,36,250.9,2,5,prime,10,0,99,norm,36,-4.967,up,norm,238.424826888,252.0,,219.6,244.0,4,233.1,245.3,251.1,10,5,7.941,5.071,1.692,-1.311,-5.258,-8.329,229.6,5,337.4,-7.833,-8.241,30,-8.111,-7.532,-4.363,-4.574,-5.081,-4.995,5.094,8.439,16,-1.779,1.541,4.674,8.448,-7.63,-8.203,-1.992,1.537,245.9,239.1,241.8,218.4,248.9,252.1,241.4,228.8,245.3,246.4,3,norm,1.321,1.815,-1.547,-1.852,-5.169,-5.088,-1.135,-2.097,-1.707,-1.824,1.952,-1.742,244.6,232.0,-4.532,-7.9,1.23,-1.906,7.508,4.949,-5.225,-8.387,24,4.484,4.38,4.832,4.88,2.098,1.714,1.412,1.837,24,4.98,5.273,10,208.461243799,norm,0,88,88,88,403.894,403.904,403.910207403,403.91,403.912,403.915,up,1,0.656122244465,9.34387775553,001,006,1920_1080,Intel(R) Core(TM) i5-3570 CPU @ 3.40GHz,orientation_search,LEPPC096,Intel(R) HD Graphics 2500,2018_Oct_10_1541,testMonitor,
241.9,237.6,235.8,232.8,36,30,249.0,246.3,230.8,242.4,7.566,8.184,8.192,7.846,8.358,8.31,8.482,4.914,-5.172,-8.14,2.026,-1.269,7.523,4.723,-4.455,-7.817,242.1,239.9,-8.151,229.9,241.9,222.1,236.2,240.5,36,240.0,2,5,prime,10,0,111,norm,36,-4.993,down,norm,238.424826888,248.8,241.3,258.4,236.6,0,231.3,230.6,,10,5,7.867,4.431,1.199,-1.362,-5.106,-8.44,218.4,5,349.4,-8.191,-8.079,30,-7.901,-8.065,-4.807,-4.912,-4.905,-4.565,4.946,8.196,12,-1.101,1.97,5.105,7.881,-8.274,-7.889,-1.831,1.447,239.9,239.3,237.6,233.4,236.1,254.1,233.0,250.2,222.7,242.0,4,norm,1.323,1.885,-1.368,-1.394,-5.141,-4.677,-1.382,-1.458,-1.802,-1.432,1.947,-1.828,240.4,250.8,-4.502,-7.612,1.446,-1.16,7.729,5.105,-5.23,-8.165,24,4.402,5.295,5.229,4.887,1.236,1.108,1.251,1.159,24,5.063,4.939,10,208.461243799,norm,0,89,89,89,404.604,404.615,404.61976391,404.62,404.622,404.624,down,1,0.814203759288,9.18579624071,001,006,1920_1080,Intel(R) Core(TM) i5-3570 CPU @ 3.40GHz,orientation_search,LEPPC096,Intel(R) HD Graphics 2500,2018_Oct_10_1541,testMonitor,
354.2,348.7,347.6,354.1,36,-40,349.8,359.5,347.1,361.6,8.039,7.959,8.443,7.881,7.918,7.936,8.262,4.959,-4.645,-7.921,1.749,-1.408,7.884,4.577,-4.862,-7.649,346.3,345.2,-7.704,352.1,348.5,350.3,348.0,348.2,36,351.4,1,5,probe,5,0,86,norm,36,-5.063,up,norm,351.586155541,356.2,354.9,350.4,347.6,5,,357.4,352.8,10,5,7.511,4.77,1.98,-1.524,-5.112,-7.553,354.5,2,265.6,-7.565,-8.358,30,-8.352,-7.726,-4.578,-5.171,-5.06,-4.564,4.49,8.447,11,-1.489,1.832,5.047,8.145,-8.281,-8.187,-1.685,1.767,359.4,353.3,348.3,355.0,341.6,356.8,350.7,354.1,360.1,354.8,0,norm,1.558,1.642,-1.406,-1.542,-4.713,-4.871,-1.351,-1.892,-1.368,-1.936,1.648,-1.961,348.5,355.9,-5.12,-7.833,1.528,-1.915,7.757,5.026,-4.307,-7.767,25,4.353,4.895,5.051,4.808,1.632,1.494,1.255,1.524,25,4.973,5.168,30,238.424826888,norm,0,90,90,90,405.469,405.478,405.484797921,405.485,405.487,405.489,up,1,0.771198816288,9.22880118371,001,006,1920_1080,Intel(R) Core(TM) i5-3570 CPU @ 3.40GHz,orientation_search,LEPPC096,Intel(R) HD Graphics 2500,2018_Oct_10_1541,testMonitor,
379.0,379.4,374.5,378.1,36,-40,372.6,380.0,387.6,378.8,8.1,8.359,8.098,8.202,8.19,8.357,7.739,5.097,-5.269,-8.024,1.432,-1.872,8.147,4.385,-4.907,-7.65,376.3,374.0,-7.911,374.3,383.4,372.3,374.2,376.3,36,,4,5,probe,5,0,112,norm,36,-4.618,up,norm,377.586155541,376.1,375.0,381.5,377.6,3,370.8,384.3,374.2,10,5,7.558,4.829,1.488,-1.872,-4.855,-8.199,378.4,2,265.6,-8.152,-8.489,30,-7.893,-7.577,-5.18,-4.531,-4.628,-4.999,4.556,7.853,27,-1.128,1.295,5.155,8.348,-8.125,-7.999,-1.792,1.454,373.7,384.8,379.2,376.4,371.4,367.6,371.3,382.1,375.1,372.9,1,norm,1.397,1.106,-1.306,-1.4,-5.029,-4.666,-1.996,-1.839,-1.486,-1.201,1.196,-1.952,385.1,382.1,-5.072,-8.169,1.21,-2.052,7.71,5.093,-4.341,-8.408,25,5.132,5.232,5.192,4.525,2.092,1.222,1.29,1.703,25,5.127,4.562,30,238.424826888,norm,0,91,91,91,406.28,406.29,406.295937057,406.296,406.298,406.301,up,1,2.1991253764,7.8008746236,001,006,1920_1080,Intel(R) Core(TM) i5-3570 CPU @ 3.40GHz,orientation_search,LEPPC096,Intel(R) HD Graphics 2500,2018_Oct_10_1541,testMonitor,
45.6,29.5,67.6,53.0,36,-40,62.4,54.6,48.7,52.2,7.823,7.979,8.07,8.126,7.615,8.163,8.284,4.868,-4.693,-7.6,1.492,-2.053,8.382,5.187,-4.975,-8.314,49.8,34.8,-7.626,43.9,67.0,31.1,59.4,28.5,36,44.5,0,5,prime,10,0,119,norm,36,-4.409,down,norm,48.509700671,43.2,49.2,46.0,47.4,0,46.3,56.9,50.9,10,5,7.855,4.559,1.968,-1.55,-5.136,-8.025,50.4,5,167.5,-8.46,-7.914,-40,-8.096,-7.542,-4.542,-5.198,-4.702,-4.816,4.706,8.268,0,-2.091,1.536,4.463,8.342,-7.826,-7.676,-1.377,1.698,56.0,34.9,68.5,35.8,46.6,,64.9,49.4,49.9,48.3,0,norm,1.108,1.871,-1.182,-1.424,-4.979,-4.825,-1.392,-2.06,-1.229,-1.927,1.507,-1.287,57.3,32.9,-4.42,-7.88,1.352,-1.755,7.548,4.834,-5.268,-7.704,26,4.732,4.399,4.415,4.878,1.891,1.996,1.172,1.712,26,4.733,5.263,-40,238.424826888,norm,0,92,92,92,408.531,408.544,408.563255667,408.563,408.565,408.568,down,1,1.45591505864,8.54408494136,001,006,1920_1080,Intel(R) Core(TM) i5-3570 CPU @ 3.40GHz,orientation_search,LEPPC096,Intel(R) HD Graphics 2500,2018_Oct_10_1541,testMonitor,
44.6,48.6,30.9,57.3,36,-40,43.2,46.1,51.5,28.5,7.994,8.033,8.267,8.472,7.778,8.246,7.992,4.32,-5.28,-8.355,1.88,-1.701,8.329,4.995,-4.776,-8.248,41.7,43.0,-7.933,44.7,49.4,45.4,65.5,40.6,36,48.6,3,5,prime,10,0,76,norm,36,-5.248,down,norm,48.509700671,49.3,59.1,56.4,46.0,0,56.2,48.2,43.9,10,5,8.112,5.292,1.63,-1.663,-4.342,-7.592,68.5,5,124.5,-7.552,-8.143,-40,-8.252,-8.439,-5.113,-5.169,-4.909,-4.402,4.835,8.239,18,-1.149,1.388,4.79,8.318,-8.205,-8.473,-2.055,1.772,33.0,40.4,65.4,57.7,39.5,52.8,40.1,58.5,57.2,55.7,1,norm,1.388,1.759,-1.473,-1.261,-4.806,-4.785,-1.805,-1.187,-1.42,-1.41,1.923,-1.925,55.7,,-4.712,-8.096,1.854,-1.969,7.941,4.366,-4.436,-7.819,26,4.609,4.813,4.461,4.526,1.949,1.111,1.443,2.084,26,4.314,4.875,-40,238.424826888,norm,0,93,93,93,410.04,410.05,410.070013052,410.07,410.072,410.075,down,1,0.786625768798,9.2133742312,001,006,1920_1080,Intel(R) Core(TM) i5-3570 CPU @ 3.40GHz,orientation_search,LEPPC096,Intel(R) HD Graphics 2500,2018_Oct_10_1541,testMonitor,
,38.7,28.5,39.2,36,-40,36.2,56.7,51.7,47.8,8.008,7.815,8.306,7.978,7.518,8.096,7.663,5.137,-4.321,-8.237,1.203,-1.506,8.305,4.767,-4.591,-7.915,47.2,42.9,-8.325,54.8,46.9,41.9,49.6,43.7,36,50.1,3,5,prime,10,0,63,norm,36,-4.789,up,norm,48.509700671,36.8,34.2,32.2,62.8,4,61.5,43.3,68.5,10,5,8.366,4.543,1.548,-1.611,-4.494,-8.263,46.8,5,111.5,-7.852,-7.646,-40,-7.503,-7.616,-4.823,-4.887,-4.43,-4.446,4.558,8.114,22,-1.213,1.63,5.175,7.959,-8.424,-8.44,-1.575,2.024,35.4,49.5,55.3,39.7,45.7,46.2,61.3,54.5,61.6,36.8,2,norm,1.877,1.519,-1.713,-2.002,-5.093,-4.393,-2.009,-1.145,-1.678,-1.203,1.35,-1.248,47.9,44.6,-4.441,-8.008,1.17,-2.026,8.297,4.438,-4.804,-8.376,26,4.313,4.557,4.984,4.871,1.29,1.887,1.989,1.507,26,5.276,4.602,-40,238.424826888,norm,0,94,94,94,410.894,410.905,410.912265075,410.912,410.914,410.917,up,1,0.639216859323,9.36078314068,001,006,1920_1080,Intel(R) Core(TM) i5-3570 CPU @ 3.40GHz,orientation_search,LEPPC096,Intel(R) HD Graphics 2500,2018_Oct_10_1541,testMonitor,
67.0,54.3,41.4,44.1,36,-40,54.4,57.3,40.4,66.9,7.931,7.537,7.898,8.038,8.319,7.881,8.252,4.994,-4.311,-8.452,1.565,-1.236,7.878,5.048,-4.928,-7.674,60.3,38.0,-7.673,60.9,68.5,63.1,55.5,51.7,36,52.3,1,5,prime,10,0,118,norm,36,-4.671,down,norm,48.509700671,45.5,56.4,41.1,46.5,2,47.6,52.1,62.3,10,5,7.896,4.306,1.618,-1.133,-5.206,-7.931,45.7,5,166.5,-8.254,-8.16,-40,-8.133,-8.333,-5.125,-4.565,-4.659,-4.596,5.128,7.959,8,-1.458,1.236,4.942,8.439,-8.429,-8.38,-1.714,1.854,47.7,,44.5,67.5,56.4,40.1,51.0,28.5,43.3,45.0,3,norm,1.937,1.187,-1.358,-1.351,-4.756,-5.18,-1.598,-1.637,-1.127,-1.425,1.881,-1.515,45.4,32.3,-4.542,-7.692,1.343,-1.741,8.367,5.215,-4.942,-7.877,26,4.364,4.986,4.626,4.629,1.861,1.122,1.84,1.247,26,4.762,5.039,-40,238.424826888,norm,0,95,95,95,411.589,411.603,411.621643493,411.622,411.624,411.626,down,1,1.0512458919,8.9487541081,001,006,1920_1080,Intel(R) Core(TM) i5-3570 CPU @ 3.40GHz,orientation_search,LEPPC096,Intel(R) HD Graphics 2500,2018_Oct_10_1541,testMonitor,
