d_ori_22,d_ori_23,d_ori_20,d_ori_21,set_size,ctpd,d_ori_24,d_ori_25,d_ori_28,d_ori_29,stim_pos_x_30,stim_pos_x_31,stim_pos_x_32,stim_pos_x_33,stim_pos_x_34,stim_pos_x_35,stim_pos_y_11,stim_pos_y_10,stim_pos_y_13,stim_pos_y_12,stim_pos_y_15,stim_pos_y_14,stim_pos_y_17,stim_pos_y_16,stim_pos_y_19,stim_pos_y_18,d_ori_35,d_ori_34,stim_pos_x_3,d_ori_31,d_ori_30,d_ori_33,d_ori_32,d_ori_26,test_set_size,d_ori_27,targetCol,dsd_test,seq_type,dsd,blockRepN,targetDist,dtype_test,prime_set_size,stim_pos_y_25,correctResponse,dtype,distrMean,d_ori_17,d_ori_16,stim_pos_y_3,d_ori_14,targetRow,d_ori_11,d_ori_13,d_ori_12,dsd_prime,streak_length_prime,stim_pos_y_35,stim_pos_y_34,stim_pos_y_33,stim_pos_y_32,stim_pos_y_31,stim_pos_y_30,d_ori_10,nextProbe,targetOri,stim_pos_x_1,stim_pos_x_2,ctpd_prime,stim_pos_x_4,stim_pos_x_5,stim_pos_x_6,stim_pos_x_7,stim_pos_x_8,stim_pos_x_9,stim_pos_y_28,stim_pos_y_29,targetPos,stim_pos_y_20,stim_pos_y_21,stim_pos_y_22,stim_pos_y_23,stim_pos_y_24,stim_pos_x_0,stim_pos_y_26,stim_pos_y_27,d_ori_9,d_ori_8,d_ori_3,d_ori_2,d_ori_1,d_ori_0,d_ori_7,d_ori_6,d_ori_5,d_ori_4,trialN,dtype_prime,stim_pos_x_18,stim_pos_x_19,stim_pos_x_12,stim_pos_x_13,stim_pos_x_10,stim_pos_x_11,stim_pos_x_16,stim_pos_x_17,stim_pos_x_14,stim_pos_x_15,stim_pos_y_9,stim_pos_y_8,d_ori_19,d_ori_18,stim_pos_y_1,stim_pos_y_0,d_ori_15,stim_pos_y_2,stim_pos_y_5,stim_pos_y_4,stim_pos_y_7,stim_pos_y_6,totBlockN,stim_pos_x_27,stim_pos_x_26,stim_pos_x_25,stim_pos_x_24,stim_pos_x_23,stim_pos_x_22,stim_pos_x_21,stim_pos_x_20,blockN,stim_pos_x_29,stim_pos_x_28,prevDistrCTPD,prevDistrMean,prevDistrType,trials.thisRepN,trials.thisTrialN,trials.thisN,trials.thisIndex,timeStart,timeBeforeDraw,timeDraw,timeAfterSaving,timeAfterWritingToTemp,timeAfterPreparingNext,answer,correct,rt,trialScore,session,participant,resolution,cpu_info,expName,pc_name,graphic_card,date,monitorName,
102.9,122.3,101.7,135.6,36,-10,110.2,106.2,119.7,126.1,8.401,7.868,7.625,8.371,8.332,8.231,8.097,4.752,-4.681,-7.973,1.905,-1.638,8.461,4.606,-4.89,-8.403,120.1,117.0,-8.241,114.3,115.1,117.4,113.8,113.4,36,117.4,1,5,prime,10,0,60,norm,36,-4.982,down,norm,115.580249024,116.7,126.3,1.161,109.2,0,111.6,114.2,115.1,10,5,8.006,4.916,1.937,-1.955,-4.682,-7.938,129.4,5,175.6,-7.715,-7.72,-10,-7.849,-7.572,-4.319,-4.523,-4.607,-4.374,4.492,8.321,6,-1.366,1.953,4.587,7.6,-8.274,-7.506,-1.775,1.457,123.5,95.6,125.6,97.2,102.6,119.0,125.0,,107.8,96.7,0,norm,1.657,1.951,-1.506,-2.079,-4.845,-4.513,-1.344,-1.442,-1.82,-1.548,1.885,-1.647,122.6,118.6,-5.293,-8.427,123.9,-1.683,7.949,4.349,-5.011,-7.854,0,5.188,5.085,5.178,5.066,1.226,1.519,1.383,1.732,0,5.021,5.114,,,,0,0,0,0,1093.101,1093.111,1093.11785732,1093.118,1093.118,1093.121,up,0,1.71341714017,-10,001,317,1366_768,Intel(R) Core(TM) i5-4200U CPU @ 1.60GHz,orientation_search,GRVLAPTOP8,Intel(R) HD Graphics 4400,2018_nov_08_1351,testMonitor,
135.6,125.0,106.4,116.3,36,-10,117.3,103.7,,106.3,7.646,7.993,7.885,7.719,7.795,7.893,8.107,4.534,-5.185,-8.08,1.624,-1.685,8.092,4.914,-5.099,-7.571,118.4,102.0,-8.264,121.9,109.3,135.0,112.9,108.3,36,134.7,4,5,prime,10,0,87,norm,36,-4.82,up,norm,115.580249024,109.4,102.6,1.181,95.6,4,117.5,129.8,123.7,10,5,7.899,4.962,1.68,-1.633,-4.419,-7.529,105.8,5,202.6,-7.861,-7.815,-10,-8.055,-7.627,-5.034,-5.216,-4.755,-4.603,4.361,8.002,28,-1.939,1.256,4.63,8.404,-8.443,-8.339,-1.203,1.854,128.0,119.4,124.3,111.6,115.4,106.7,117.8,130.7,121.1,102.5,1,norm,1.852,1.727,-2.027,-1.839,-4.363,-5.216,-1.605,-1.134,-1.633,-1.272,1.993,-1.493,109.7,117.9,-4.367,-8.056,100.9,-2.064,8.186,4.928,-5.087,-7.76,0,5.195,4.977,4.574,4.681,1.871,1.987,1.688,1.826,0,4.845,5.231,,,,0,1,1,1,1095.878,1095.883,1095.89516441,1095.895,1095.897,1095.899,up,1,1.66309868105,8.33690131895,001,317,1366_768,Intel(R) Core(TM) i5-4200U CPU @ 1.60GHz,orientation_search,GRVLAPTOP8,Intel(R) HD Graphics 4400,2018_nov_08_1351,testMonitor,
109.4,97.1,126.8,115.9,36,-10,116.0,95.6,110.5,114.0,8.143,8.374,7.856,7.63,8.497,7.631,7.569,5.245,-4.963,-8.199,1.92,-1.147,7.639,4.593,-4.561,-7.77,102.8,110.4,-7.786,123.8,129.9,135.6,114.8,107.6,36,122.4,2,5,prime,10,0,109,norm,36,-4.383,up,norm,115.580249024,101.7,,1.475,115.0,4,105.7,114.6,118.8,10,5,7.707,4.874,1.844,-1.242,-5.229,-7.595,102.5,5,224.6,-7.992,-7.964,-10,-8.146,-8.343,-4.641,-4.475,-4.65,-4.896,4.724,7.807,16,-1.217,1.282,4.744,7.833,-7.671,-8.096,-1.386,1.2,101.8,106.9,98.3,104.7,98.0,120.0,135.3,129.5,120.7,119.8,2,norm,1.899,1.626,-1.502,-1.471,-4.547,-5.039,-1.231,-1.981,-1.617,-1.412,1.968,-1.286,102.4,106.9,-4.481,-7.947,123.5,-1.73,8.441,4.957,-4.361,-7.798,0,4.854,4.848,4.81,4.362,1.123,1.98,1.301,1.379,0,4.586,5.122,,,,0,2,2,2,1097.582,1097.596,1097.59936447,1097.6,1097.603,1097.606,up,1,1.50282135187,8.49717864813,001,317,1366_768,Intel(R) Core(TM) i5-4200U CPU @ 1.60GHz,orientation_search,GRVLAPTOP8,Intel(R) HD Graphics 4400,2018_nov_08_1351,testMonitor,
125.3,120.6,129.4,119.7,36,-10,116.6,117.1,109.8,124.8,7.899,8.0,7.746,7.546,8.197,7.763,8.208,5.159,-5.112,-7.683,1.17,-1.636,7.983,4.884,-4.549,-8.358,105.4,110.3,-8.441,102.4,95.6,112.3,109.4,121.5,36,106.4,0,5,prime,10,0,80,norm,36,-5.17,up,norm,115.580249024,135.6,111.2,1.978,101.1,4,99.8,123.0,120.8,10,5,7.763,4.537,1.61,-1.768,-4.303,-7.795,122.4,5,195.6,-8.434,-7.95,-10,-7.961,-7.839,-5.261,-5.037,-5.1,-4.872,4.461,8.484,4,-1.675,1.247,4.453,8.452,-8.065,-8.306,-1.388,1.457,114.7,112.7,129.0,117.9,115.5,119.1,127.8,125.7,119.7,,3,norm,1.198,1.84,-1.559,-1.805,-4.821,-4.896,-1.647,-1.584,-1.964,-1.711,1.814,-2.09,112.8,107.9,-4.796,-7.679,119.5,-1.574,8.059,4.674,-4.859,-7.707,0,4.747,4.753,4.62,4.304,1.798,1.171,1.763,1.228,0,4.509,4.95,,,,0,3,3,3,1099.132,1099.149,1099.15503356,1099.155,1099.158,1099.162,up,1,1.49506123974,8.50493876026,001,317,1366_768,Intel(R) Core(TM) i5-4200U CPU @ 1.60GHz,orientation_search,GRVLAPTOP8,Intel(R) HD Graphics 4400,2018_nov_08_1351,testMonitor,
95.6,96.7,118.5,100.1,36,-10,114.5,130.2,128.2,106.8,8.32,7.512,7.94,8.262,7.514,8.086,7.754,4.842,-5.077,-8.0,1.331,-1.81,7.87,4.78,-5.15,-8.375,124.0,105.0,-8.126,109.3,111.1,111.1,109.3,129.5,36,106.7,2,5,prime,10,0,81,norm,36,-4.783,down,norm,115.580249024,124.5,113.2,1.541,107.2,1,124.9,,106.3,10,5,8.258,5.235,1.517,-1.492,-5.023,-8.207,109.1,5,196.6,-7.807,-8.376,-10,-7.684,-7.761,-5.256,-4.87,-4.816,-4.591,4.835,7.577,13,-2.016,1.915,5.172,8.348,-8.479,-8.109,-1.393,1.682,105.8,111.2,125.2,123.1,132.1,106.6,118.4,113.3,124.8,109.1,4,norm,1.211,1.824,-1.737,-1.782,-4.926,-4.37,-1.121,-1.567,-1.28,-1.449,2.058,-2.074,135.6,127.8,-5.159,-8.295,125.4,-1.829,7.567,5.162,-4.758,-8.023,0,4.5,4.745,4.327,4.342,1.387,1.173,1.918,1.837,0,4.409,4.515,,,,0,4,4,4,1100.681,1100.69,1100.70268596,1100.703,1100.707,1100.712,down,1,1.02522951234,8.97477048766,001,317,1366_768,Intel(R) Core(TM) i5-4200U CPU @ 1.60GHz,orientation_search,GRVLAPTOP8,Intel(R) HD Graphics 4400,2018_nov_08_1351,testMonitor,
177.4,180.5,177.7,184.6,36,-20,166.7,178.9,178.9,176.6,8.438,7.65,8.231,8.0,8.238,8.171,8.242,4.617,-4.382,-8.173,1.34,-1.344,8.381,4.979,-4.737,-8.433,176.7,179.8,-8.024,180.1,178.1,175.8,175.3,173.4,36,173.4,2,5,probe,5,0,66,norm,36,-5.143,up,norm,174.627558416,,175.0,1.943,176.3,5,174.9,172.5,174.9,10,5,8.174,5.206,2.029,-1.971,-5.262,-8.232,182.3,1,108.6,-7.873,-8.081,-10,-8.403,-7.984,-4.85,-5.175,-5.134,-4.655,4.766,8.368,17,-2.011,1.127,5.085,7.85,-7.864,-8.24,-1.608,1.555,173.3,181.7,179.0,175.5,173.0,164.6,177.8,169.6,178.0,177.7,0,norm,1.681,1.542,-1.818,-1.855,-4.343,-4.369,-1.447,-1.197,-2.079,-1.736,1.145,-1.808,170.0,175.8,-4.865,-8.015,172.2,-1.148,7.617,4.59,-4.905,-7.903,1,4.763,4.53,4.751,4.451,1.476,1.525,1.615,1.178,1,4.809,4.415,-10,115.580249024,norm,0,5,5,5,1101.757,1101.765,1101.78384406,1101.784,1101.787,1101.791,up,1,0.877254125156,9.12274587484,001,317,1366_768,Intel(R) Core(TM) i5-4200U CPU @ 1.60GHz,orientation_search,GRVLAPTOP8,Intel(R) HD Graphics 4400,2018_nov_08_1351,testMonitor,
115.2,98.9,102.4,102.3,36,-80,121.2,114.9,109.8,116.7,8.42,8.351,8.22,8.085,8.098,8.325,7.525,4.965,-5.212,-7.705,1.157,-1.193,7.701,4.516,-4.761,-7.889,107.6,113.5,-8.23,116.2,115.8,102.7,117.5,111.4,36,102.3,1,5,prime,10,0,105,norm,36,-4.492,up,norm,108.000275409,109.1,119.1,2.044,117.0,4,88.0,103.1,103.7,10,5,7.873,4.915,1.678,-1.482,-4.848,-7.655,,5,213.0,-7.841,-7.984,-80,-7.934,-7.922,-5.22,-5.079,-5.18,-4.847,4.696,8.307,10,-2.043,2.042,5.29,8.054,-8.142,-7.605,-1.118,1.456,125.1,103.2,108.6,97.6,105.1,116.4,107.9,95.3,125.4,115.9,0,norm,1.266,1.943,-1.989,-1.463,-4.67,-5.05,-1.229,-1.324,-1.817,-1.491,1.219,-1.771,128.0,100.2,-5.204,-8.148,97.2,-2.059,8.182,5.05,-4.652,-7.851,2,5.222,4.681,4.641,5.206,1.313,1.789,1.217,1.523,2,5.038,4.416,-20,115.580249024,norm,0,6,6,6,1102.688,1102.7,1102.70284839,1102.703,1102.706,1102.709,up,1,1.72243832629,8.27756167371,001,317,1366_768,Intel(R) Core(TM) i5-4200U CPU @ 1.60GHz,orientation_search,GRVLAPTOP8,Intel(R) HD Graphics 4400,2018_nov_08_1351,testMonitor,
102.2,112.2,106.4,106.5,36,-80,,106.9,110.7,103.9,8.478,7.594,7.783,8.127,7.637,8.127,8.464,4.457,-4.614,-8.411,1.975,-1.176,8.264,4.983,-4.397,-7.655,115.3,97.7,-7.577,104.7,125.1,110.4,99.9,110.8,36,107.3,4,5,prime,10,0,115,norm,36,-4.732,down,norm,108.000275409,102.0,102.2,1.894,96.4,0,103.8,128.0,108.8,10,5,7.645,4.927,1.795,-2.079,-4.986,-8.224,116.3,5,223.0,-8.134,-8.382,-80,-7.953,-8.37,-4.528,-5.078,-5.03,-4.652,4.305,8.254,24,-1.557,2.029,4.757,7.939,-7.702,-8.344,-1.474,1.702,92.5,108.9,118.0,100.7,104.7,106.1,112.8,109.3,127.1,98.7,1,norm,1.954,1.453,-1.402,-1.506,-4.762,-5.282,-1.392,-1.241,-2.076,-1.891,1.126,-1.641,96.6,106.1,-5.287,-7.81,88.0,-1.383,8.283,4.584,-4.963,-8.123,2,4.825,4.858,4.431,4.927,1.322,1.529,1.979,1.298,2,4.75,4.436,-20,115.580249024,norm,0,7,7,7,1104.453,1104.463,1104.47839061,1104.479,1104.482,1104.485,down,1,0.994503662958,9.00549633704,001,317,1366_768,Intel(R) Core(TM) i5-4200U CPU @ 1.60GHz,orientation_search,GRVLAPTOP8,Intel(R) HD Graphics 4400,2018_nov_08_1351,testMonitor,
103.7,115.0,96.7,105.5,36,-80,104.8,108.8,108.7,112.9,7.542,8.022,8.226,7.839,7.58,8.396,8.35,4.807,-4.761,-7.562,1.563,-1.65,7.986,4.974,-4.301,-8.241,111.0,117.9,-8.486,110.2,97.8,109.8,105.7,111.8,36,109.0,1,5,prime,10,0,73,norm,36,-4.35,down,norm,108.000275409,93.5,113.0,1.271,109.0,2,116.0,116.4,120.1,10,5,8.161,4.39,1.569,-1.411,-4.827,-8.106,113.3,5,181.0,-8.402,-7.757,-80,-8.269,-8.272,-4.539,-5.184,-5.253,-4.731,4.309,7.965,8,-1.381,1.464,5.017,8.06,-7.743,-7.752,-2.051,1.25,108.9,,114.9,108.4,110.3,128.0,117.6,88.0,104.8,115.1,2,norm,1.833,1.185,-1.961,-1.279,-4.774,-4.538,-1.545,-1.895,-1.357,-1.42,1.354,-1.71,103.6,115.2,-4.617,-7.88,95.0,-1.689,7.633,5.113,-4.456,-7.93,2,4.357,5.242,5.193,4.388,1.526,1.797,2.039,1.31,2,4.765,4.825,-20,115.580249024,norm,0,8,8,8,1105.5,1105.509,1105.52643949,1105.527,1105.531,1105.535,down,1,1.85743839546,8.14256160454,001,317,1366_768,Intel(R) Core(TM) i5-4200U CPU @ 1.60GHz,orientation_search,GRVLAPTOP8,Intel(R) HD Graphics 4400,2018_nov_08_1351,testMonitor,
128.0,109.0,120.2,108.8,36,-80,89.0,109.0,108.0,99.4,8.422,7.705,8.128,8.37,7.823,7.523,8.41,5.024,-4.734,-7.873,2.068,-2.074,8.15,4.468,-4.544,-7.61,97.5,109.3,-8.423,92.1,105.3,100.2,100.8,107.5,36,121.9,1,5,prime,10,0,74,norm,36,-4.5,down,norm,108.000275409,99.2,97.7,1.75,114.9,1,125.0,113.5,114.5,10,5,8.463,5.093,1.737,-1.96,-4.649,-7.941,114.7,5,182.0,-7.694,-7.534,-80,-8.148,-8.242,-5.235,-4.318,-5.182,-4.833,5.205,7.95,7,-2.016,1.51,5.299,7.928,-7.633,-7.862,-1.857,1.995,113.1,118.5,105.8,117.7,104.5,111.0,,102.9,107.1,119.4,3,norm,1.463,1.623,-1.327,-2.089,-5.081,-4.349,-1.254,-1.735,-1.362,-1.373,1.28,-1.404,93.4,95.6,-4.356,-8.419,108.0,-1.111,7.538,5.008,-4.891,-8.385,2,4.811,4.954,4.747,5.142,1.745,1.76,1.766,1.494,2,5.201,5.049,-20,115.580249024,norm,0,9,9,9,1107.412,1107.424,1107.42731086,1107.428,1107.431,1107.434,down,1,1.00635311768,8.99364688232,001,317,1366_768,Intel(R) Core(TM) i5-4200U CPU @ 1.60GHz,orientation_search,GRVLAPTOP8,Intel(R) HD Graphics 4400,2018_nov_08_1351,testMonitor,
123.2,109.1,97.2,111.7,36,-80,123.7,96.1,98.3,102.7,8.495,8.065,8.147,8.364,7.563,8.041,7.688,4.883,-4.509,-7.928,1.106,-1.204,8.168,5.232,-4.751,-7.591,111.9,113.2,-8.38,,108.5,103.8,88.0,89.4,36,121.9,5,5,prime,10,0,99,norm,36,-4.962,down,norm,108.000275409,117.4,107.5,1.819,119.1,1,102.3,91.7,121.2,10,5,7.687,4.646,1.758,-1.438,-5.118,-8.047,104.3,5,207.0,-7.806,-8.301,-80,-8.031,-8.436,-5.299,-4.44,-4.304,-4.892,4.908,7.75,31,-1.941,1.206,4.44,7.702,-8.472,-8.091,-1.534,1.395,115.9,92.7,113.5,116.7,109.3,124.8,128.0,101.7,95.4,101.2,4,norm,1.163,1.659,-1.941,-1.914,-5.213,-5.265,-1.105,-1.462,-1.213,-1.934,1.953,-1.103,108.1,112.4,-4.838,-7.675,123.1,-1.485,8.34,5.245,-5.245,-8.428,2,4.576,5.245,4.447,4.472,1.387,1.37,2.003,1.686,2,5.152,4.416,-20,115.580249024,norm,0,10,10,10,1108.46,1108.475,1108.48121888,1108.482,1108.487,1108.491,up,0,1.11347657932,-10,001,317,1366_768,Intel(R) Core(TM) i5-4200U CPU @ 1.60GHz,orientation_search,GRVLAPTOP8,Intel(R) HD Graphics 4400,2018_nov_08_1351,testMonitor,
119.7,110.3,105.9,115.2,36,20,107.3,101.8,104.7,108.9,7.735,7.738,8.058,8.237,8.134,8.259,7.986,5.076,-5.024,-8.483,1.283,-1.381,8.16,5.204,-5.29,-7.652,112.0,118.4,-8.049,106.5,108.7,107.7,104.4,104.9,36,99.7,1,5,probe,5,0,73,norm,36,-5.119,down,norm,109.729665905,106.9,111.7,1.536,109.1,0,110.0,108.6,118.7,10,5,8.477,4.885,1.338,-1.508,-5.141,-8.354,110.6,2,36.7,-7.864,-8.272,-80,-7.709,-8.281,-4.727,-4.909,-4.648,-4.88,4.824,8.07,6,-1.188,1.615,4.89,8.137,-7.644,-7.683,-1.277,1.958,110.3,114.4,103.2,115.3,111.2,108.2,110.7,,117.5,114.3,0,norm,1.829,1.813,-1.746,-1.299,-4.608,-4.889,-1.3,-1.601,-1.959,-1.802,1.882,-1.188,119.2,104.8,-4.41,-7.883,113.7,-1.171,8.345,4.474,-4.81,-8.15,3,4.8,5.123,4.843,4.372,1.138,1.292,2.054,1.535,3,4.479,5.051,-80,108.000275409,norm,0,11,11,11,1110.635,1110.64,1110.6495138,1110.65,1110.652,1110.655,down,1,1.51177738697,8.48822261303,001,317,1366_768,Intel(R) Core(TM) i5-4200U CPU @ 1.60GHz,orientation_search,GRVLAPTOP8,Intel(R) HD Graphics 4400,2018_nov_08_1351,testMonitor,
126.6,120.5,130.5,125.3,36,20,122.5,123.0,116.8,120.7,7.594,8.213,8.439,8.499,7.789,8.376,8.444,4.686,-5.173,-8.314,1.829,-1.103,7.976,4.84,-4.924,-7.564,117.2,122.0,-8.212,123.9,114.9,126.3,118.8,120.5,36,126.4,2,5,probe,5,0,86,norm,36,-4.952,up,norm,122.729665905,128.9,,1.585,117.7,4,121.2,117.7,124.7,10,5,7.807,4.709,1.288,-1.795,-5.017,-8.327,118.0,2,36.7,-7.703,-7.701,-80,-8.258,-8.134,-4.875,-5.071,-4.809,-4.775,4.517,8.143,16,-1.329,1.227,4.963,7.717,-8.285,-7.899,-1.445,1.494,119.0,114.5,112.7,123.3,119.5,119.9,132.7,116.2,123.6,125.0,1,norm,1.83,1.876,-2.016,-1.893,-5.173,-4.424,-1.863,-1.422,-1.934,-1.554,1.472,-1.935,120.7,127.5,-4.959,-8.356,121.3,-1.685,8.26,5.193,-4.78,-8.313,3,4.526,4.868,4.638,4.455,1.614,1.873,1.947,1.88,3,4.776,4.681,-80,108.000275409,norm,0,12,12,12,1112.186,1112.198,1112.20076021,1112.201,1112.204,1112.207,up,1,1.60638560394,8.39361439606,001,317,1366_768,Intel(R) Core(TM) i5-4200U CPU @ 1.60GHz,orientation_search,GRVLAPTOP8,Intel(R) HD Graphics 4400,2018_nov_08_1351,testMonitor,
116.9,131.9,125.4,136.5,36,80,128.2,136.4,133.0,139.7,7.717,7.524,7.945,7.99,8.079,8.176,8.263,5.212,-4.959,-7.88,1.648,-1.437,7.649,4.46,-4.992,-7.962,134.1,115.5,-7.564,,137.7,144.1,137.5,137.6,36,144.5,5,5,prime,10,0,98,norm,36,-5.031,down,norm,135.504446309,140.7,123.4,1.662,135.1,1,133.3,137.1,122.2,10,5,7.935,5.179,1.536,-1.424,-5.107,-8.116,118.9,5,233.5,-7.584,-8.474,80,-7.501,-7.933,-4.58,-5.246,-4.929,-4.896,4.928,8.232,31,-1.892,1.971,4.933,8.125,-7.61,-7.505,-1.514,1.814,139.3,124.3,125.2,134.2,134.6,126.7,122.7,135.1,141.3,135.2,0,norm,1.622,1.18,-1.848,-1.738,-4.88,-5.135,-1.812,-1.625,-2.047,-1.883,1.417,-1.574,140.3,155.5,-5.279,-7.866,124.4,-1.716,8.16,4.609,-4.747,-7.791,4,5.136,5.009,4.783,4.632,1.563,2.024,1.502,1.492,4,4.887,4.774,20,108.000275409,norm,0,13,13,13,1113.833,1113.847,1113.85160292,1113.852,1113.855,1113.858,down,1,0.819353603631,9.18064639637,001,317,1366_768,Intel(R) Core(TM) i5-4200U CPU @ 1.60GHz,orientation_search,GRVLAPTOP8,Intel(R) HD Graphics 4400,2018_nov_08_1351,testMonitor,
116.0,131.5,134.2,131.4,36,80,137.7,131.8,123.6,143.5,8.326,8.03,7.667,8.258,8.379,7.637,7.811,5.18,-4.823,-7.589,1.765,-1.436,7.508,5.279,-4.377,-8.226,141.3,121.6,-8.498,155.5,124.6,149.8,130.1,121.4,36,117.6,3,5,prime,10,0,100,norm,36,-5.049,down,norm,135.504446309,121.7,115.5,2.092,131.9,1,130.9,146.8,142.4,10,5,8.0,5.174,1.603,-1.533,-4.847,-8.383,139.5,5,235.5,-7.655,-8.162,80,-8.07,-8.05,-4.397,-4.953,-5.149,-4.888,4.635,8.275,19,-2.051,1.272,4.723,8.254,-8.262,-7.61,-1.487,1.615,139.6,125.9,124.2,146.1,130.3,134.6,116.1,130.8,149.1,149.0,1,norm,1.817,1.707,-1.828,-1.489,-5.201,-4.46,-1.693,-1.564,-1.343,-1.423,1.351,-1.834,,135.4,-4.601,-7.551,142.1,-1.228,8.342,4.304,-4.948,-8.412,4,5.092,4.735,4.76,4.386,2.014,1.892,1.422,1.756,4,4.487,5.241,20,108.000275409,norm,0,14,14,14,1114.698,1114.711,1114.71745918,1114.718,1114.724,1114.727,up,0,0.865370309963,-10,001,317,1366_768,Intel(R) Core(TM) i5-4200U CPU @ 1.60GHz,orientation_search,GRVLAPTOP8,Intel(R) HD Graphics 4400,2018_nov_08_1351,testMonitor,
136.2,141.4,143.6,138.2,36,80,134.2,127.2,127.9,116.9,8.188,8.046,7.669,7.925,8.035,7.878,7.673,4.426,-4.901,-8.32,1.968,-1.16,7.69,5.166,-4.684,-8.446,117.4,155.5,-8.117,133.1,135.1,135.3,125.3,144.4,36,147.6,1,5,prime,10,0,106,norm,36,-4.626,down,norm,135.504446309,130.0,124.9,2.094,116.6,1,127.8,132.3,152.4,10,5,8.207,4.549,1.7,-1.372,-4.611,-8.067,133.2,5,241.5,-8.287,-7.756,80,-7.534,-8.203,-4.348,-5.087,-4.392,-5.192,5.139,8.019,7,-1.618,1.107,4.493,7.756,-8.148,-7.988,-1.735,1.603,132.8,148.7,131.8,144.9,140.4,141.5,,125.5,131.2,115.5,2,norm,2.021,1.476,-1.276,-1.204,-5.093,-4.582,-1.11,-1.275,-1.334,-1.594,1.53,-1.985,133.8,134.6,-4.815,-8.33,135.0,-1.444,8.29,4.786,-4.774,-8.411,4,4.987,4.992,4.335,5.269,1.947,1.978,1.225,1.67,4,4.971,4.316,20,108.000275409,norm,0,15,15,15,1116.625,1116.63,1116.63756349,1116.638,1116.64,1116.643,down,1,1.19564273497,8.80435726503,001,317,1366_768,Intel(R) Core(TM) i5-4200U CPU @ 1.60GHz,orientation_search,GRVLAPTOP8,Intel(R) HD Graphics 4400,2018_nov_08_1351,testMonitor,
148.1,131.4,144.4,131.3,36,80,135.1,139.5,143.1,127.4,8.175,8.09,7.844,8.362,7.859,7.623,8.332,4.822,-4.557,-7.576,1.529,-2.026,7.777,4.523,-4.999,-8.451,132.8,155.5,-8.042,146.1,120.0,133.4,140.7,153.6,36,,4,5,prime,10,0,75,norm,36,-5.073,up,norm,135.504446309,126.9,149.1,1.211,141.0,3,141.2,129.5,115.5,10,5,8.016,5.271,1.392,-1.229,-5.078,-7.583,138.0,5,210.5,-8.158,-7.892,80,-8.218,-8.1,-4.976,-4.914,-4.969,-4.451,4.973,7.853,27,-1.155,1.429,4.477,7.865,-8.408,-8.498,-1.511,1.754,145.7,125.0,146.4,126.2,133.4,151.8,141.2,153.0,123.8,149.0,3,norm,1.324,1.651,-1.492,-1.351,-4.877,-4.342,-1.22,-1.425,-1.661,-2.063,1.889,-1.195,127.9,145.0,-4.539,-8.455,150.1,-1.592,7.558,4.883,-4.65,-7.59,4,4.977,5.284,4.865,5.283,1.275,1.323,1.633,1.908,4,5.229,4.919,20,108.000275409,norm,0,16,16,16,1117.858,1117.872,1117.87642947,1117.877,1117.88,1117.883,up,1,1.10270791768,8.89729208232,001,317,1366_768,Intel(R) Core(TM) i5-4200U CPU @ 1.60GHz,orientation_search,GRVLAPTOP8,Intel(R) HD Graphics 4400,2018_nov_08_1351,testMonitor,
129.1,131.1,128.3,136.6,36,80,119.5,126.1,122.4,142.4,8.383,8.456,8.318,8.231,7.53,8.266,8.392,4.308,-4.571,-7.73,1.795,-1.722,8.437,4.824,-4.462,-8.491,136.2,135.7,-7.591,120.7,139.1,117.1,128.0,140.9,36,127.7,2,5,prime,10,0,69,norm,36,-5.201,up,norm,135.504446309,138.0,,2.086,136.2,4,138.6,133.2,141.6,10,5,7.989,4.425,1.75,-1.737,-4.301,-8.35,127.0,5,204.5,-8.374,-7.95,80,-8.48,-8.107,-4.414,-5.057,-5.107,-4.903,4.587,7.848,16,-1.324,1.878,4.802,7.504,-7.688,-7.5,-1.127,1.291,141.4,136.4,138.2,143.0,115.5,139.6,127.2,142.0,118.7,119.8,4,norm,1.574,2.08,-1.739,-1.333,-4.89,-4.445,-1.959,-1.203,-1.213,-1.146,1.598,-1.103,126.9,127.5,-5.298,-8.373,155.5,-1.205,8.275,5.122,-4.572,-8.19,4,5.126,4.671,4.385,5.217,1.297,1.903,1.205,1.917,4,4.947,4.578,20,108.000275409,norm,0,17,17,17,1119.006,1119.016,1119.03240416,1119.033,1119.036,1119.039,up,1,0.928573500401,9.0714264996,001,317,1366_768,Intel(R) Core(TM) i5-4200U CPU @ 1.60GHz,orientation_search,GRVLAPTOP8,Intel(R) HD Graphics 4400,2018_nov_08_1351,testMonitor,
276.5,280.4,271.8,282.3,36,-80,279.0,290.3,280.8,282.1,7.502,8.475,8.45,8.129,8.492,7.68,7.55,4.582,-4.768,-8.045,1.171,-1.865,7.744,4.604,-4.92,-7.971,282.8,281.1,-7.727,281.4,278.1,283.2,282.9,280.7,36,285.8,1,5,probe,5,0,76,norm,36,-5.016,up,norm,281.758483549,291.7,275.4,1.22,288.8,3,282.6,278.8,285.8,10,5,8.183,4.789,1.531,-1.992,-4.439,-7.984,273.2,1,205.8,-7.755,-8.112,80,-7.568,-7.663,-4.624,-4.931,-4.502,-4.722,4.694,7.893,9,-1.843,1.705,4.863,8.218,-7.517,-8.39,-1.684,1.852,,286.8,291.8,284.3,281.5,291.5,278.5,282.8,272.7,276.5,0,norm,1.992,1.246,-1.221,-1.723,-5.105,-4.731,-1.907,-1.634,-1.215,-1.598,1.248,-1.966,285.4,286.5,-4.933,-7.544,283.5,-1.736,7.615,4.728,-4.484,-7.948,5,5.294,4.574,4.999,5.14,1.529,1.196,1.477,1.749,5,5.13,5.034,80,135.504446309,norm,0,18,18,18,1119.988,1119.999,1120.01384549,1120.014,1120.017,1120.02,down,0,0.778843944099,-10,001,317,1366_768,Intel(R) Core(TM) i5-4200U CPU @ 1.60GHz,orientation_search,GRVLAPTOP8,Intel(R) HD Graphics 4400,2018_nov_08_1351,testMonitor,
53.4,54.6,57.7,41.0,36,-40,35.3,37.1,34.7,62.6,8.141,8.139,7.866,8.272,8.336,8.21,7.762,4.777,-5.105,-7.87,1.351,-1.781,8.166,4.699,-4.896,-8.125,28.2,30.9,-7.828,64.3,50.4,53.4,47.0,32.7,36,59.0,1,5,prime,10,0,79,norm,36,-5.105,down,norm,48.2120280678,42.4,47.9,1.2,61.9,0,42.3,53.3,68.2,10,6,7.788,5.136,1.627,-1.469,-5.28,-8.084,51.4,6,127.2,-7.913,-7.977,-40,-8.276,-8.483,-4.773,-4.802,-4.779,-4.887,5.076,8.355,6,-1.313,1.475,4.934,7.707,-7.948,-8.254,-1.378,1.126,42.7,55.8,32.0,57.1,38.2,42.4,42.3,,33.3,43.9,0,norm,1.648,1.743,-1.54,-1.181,-4.54,-4.809,-1.58,-1.293,-1.998,-2.045,1.575,-1.688,45.9,47.1,-5.182,-7.638,52.0,-1.926,8.148,4.9,-5.028,-7.625,6,4.617,5.121,4.431,4.46,1.766,1.23,1.283,1.561,6,4.781,4.736,-80,135.504446309,norm,0,19,19,19,1121.836,1121.841,1121.85997661,1121.86,1121.862,1121.865,down,1,1.27958090932,8.72041909068,001,317,1366_768,Intel(R) Core(TM) i5-4200U CPU @ 1.60GHz,orientation_search,GRVLAPTOP8,Intel(R) HD Graphics 4400,2018_nov_08_1351,testMonitor,
41.8,39.1,37.7,48.3,36,-40,60.1,55.2,41.6,54.3,8.197,7.828,7.612,7.777,8.367,7.948,8.291,4.891,-4.319,-7.919,1.577,-1.551,7.794,4.862,-4.899,-8.007,59.9,,-7.839,48.6,43.6,42.6,39.5,55.9,36,57.3,5,5,prime,10,0,63,norm,36,-5.194,up,norm,48.2120280678,37.8,58.1,1.199,51.4,4,32.9,56.6,65.9,10,6,8.395,4.598,1.334,-1.638,-4.808,-8.158,48.6,6,111.2,-8.005,-8.194,-40,-8.423,-8.311,-4.606,-4.483,-5.219,-4.975,4.777,7.636,34,-1.308,1.848,5.053,7.84,-8.428,-7.565,-2.066,1.895,28.2,52.3,61.2,50.3,43.8,53.1,44.2,58.6,51.8,42.5,1,norm,1.59,1.524,-1.456,-1.389,-4.735,-5.268,-1.711,-1.611,-1.143,-1.226,1.179,-1.943,68.2,44.9,-5.282,-8.415,51.4,-1.443,7.976,4.338,-5.028,-7.564,6,4.724,4.41,4.891,5.171,1.555,1.797,2.093,2.067,6,4.831,5.227,-80,135.504446309,norm,0,20,20,20,1123.164,1123.178,1123.18096323,1123.181,1123.184,1123.187,up,1,0.988225959827,9.01177404017,001,317,1366_768,Intel(R) Core(TM) i5-4200U CPU @ 1.60GHz,orientation_search,GRVLAPTOP8,Intel(R) HD Graphics 4400,2018_nov_08_1351,testMonitor,
40.0,68.2,47.7,46.7,36,-40,55.3,43.8,45.7,58.3,7.931,7.67,8.134,7.633,8.151,8.244,8.357,4.848,-5.067,-7.981,1.649,-1.476,8.295,5.097,-4.662,-8.367,,52.2,-7.821,43.6,38.4,59.2,42.7,37.1,36,44.6,5,5,prime,10,0,94,norm,36,-5.292,up,norm,48.2120280678,45.1,57.8,1.327,45.6,5,67.3,40.6,60.3,10,6,8.494,4.904,1.932,-1.196,-4.702,-8.171,59.5,6,142.2,-8.412,-7.903,-40,-7.868,-8.433,-4.694,-5.112,-5.007,-4.756,5.269,8.498,35,-1.856,1.817,5.14,8.091,-8.232,-7.563,-2.04,1.424,56.3,50.8,40.0,57.1,55.5,60.6,47.8,49.9,48.1,42.2,2,norm,1.985,1.506,-1.611,-2.083,-4.562,-4.574,-1.177,-1.257,-1.23,-1.467,2.0,-1.417,64.0,41.4,-4.854,-7.567,54.6,-1.266,8.365,4.773,-5.246,-8.213,6,4.735,4.653,4.508,5.034,1.223,1.569,1.523,1.955,6,4.749,4.646,-80,135.504446309,norm,0,21,21,21,1124.194,1124.2,1124.20599015,1124.206,1124.209,1124.212,up,1,0.778423139858,9.22157686014,001,317,1366_768,Intel(R) Core(TM) i5-4200U CPU @ 1.60GHz,orientation_search,GRVLAPTOP8,Intel(R) HD Graphics 4400,2018_nov_08_1351,testMonitor,
34.7,48.1,46.5,54.0,36,-40,57.4,38.5,43.0,49.7,8.229,7.706,8.405,8.322,8.275,7.546,7.975,4.574,-5.291,-7.699,1.213,-1.172,8.399,4.923,-5.032,-7.63,,44.1,-7.677,50.1,45.6,54.3,42.1,52.3,36,47.3,5,5,prime,10,0,90,norm,36,-4.31,up,norm,48.2120280678,32.8,51.6,1.422,41.5,5,51.0,28.2,43.2,10,6,8.45,4.319,1.539,-1.516,-5.139,-8.26,49.5,6,138.2,-7.732,-8.357,-40,-7.513,-8.246,-4.521,-4.492,-5.071,-4.963,4.741,8.465,35,-1.841,1.418,4.973,8.094,-8.384,-7.974,-1.909,1.136,53.5,51.1,34.2,47.5,42.6,68.2,62.7,62.1,47.9,54.1,3,norm,1.262,1.235,-1.179,-1.849,-4.511,-5.165,-1.696,-1.274,-1.717,-1.421,1.925,-1.494,54.5,40.8,-5.102,-7.844,48.2,-1.851,8.491,4.462,-4.616,-7.788,6,5.198,4.868,4.986,4.372,2.056,1.638,1.175,1.832,6,4.888,4.708,-80,135.504446309,norm,0,22,22,22,1125.011,1125.024,1125.03011316,1125.031,1125.036,1125.04,up,1,0.81561946802,9.18438053198,001,317,1366_768,Intel(R) Core(TM) i5-4200U CPU @ 1.60GHz,orientation_search,GRVLAPTOP8,Intel(R) HD Graphics 4400,2018_nov_08_1351,testMonitor,
55.3,33.4,45.3,56.9,36,-40,34.9,62.0,47.8,36.1,7.523,7.892,7.959,7.653,7.735,8.367,7.863,5.262,-4.412,-7.545,1.569,-1.22,7.902,4.444,-4.846,-8.064,49.4,60.6,-7.68,68.2,47.0,38.7,34.7,43.1,36,28.2,0,5,prime,10,0,90,norm,36,-4.809,down,norm,48.2120280678,48.8,43.5,1.953,47.5,2,56.1,59.5,28.3,10,6,8.294,4.451,1.7,-1.439,-4.969,-8.41,64.1,6,138.2,-7.826,-7.95,-40,-7.839,-7.771,-4.761,-5.062,-4.703,-4.964,4.895,7.98,2,-1.993,1.684,4.888,8.396,-7.722,-8.134,-1.49,1.671,40.7,44.2,55.5,,47.4,53.4,58.3,58.4,62.3,43.8,4,norm,1.733,1.753,-1.113,-1.196,-5.283,-4.827,-1.702,-1.749,-2.047,-1.434,1.425,-1.352,47.8,40.8,-4.382,-8.479,50.5,-1.908,8.175,5.27,-5.115,-7.677,6,4.911,4.636,4.516,4.81,1.191,1.219,1.798,1.742,6,4.674,4.318,-80,135.504446309,norm,0,23,23,23,1125.876,1125.883,1125.90226989,1125.903,1125.906,1125.909,down,1,0.910976029329,9.08902397067,001,317,1366_768,Intel(R) Core(TM) i5-4200U CPU @ 1.60GHz,orientation_search,GRVLAPTOP8,Intel(R) HD Graphics 4400,2018_nov_08_1351,testMonitor,
52.7,45.7,28.2,40.2,36,-40,57.4,49.8,49.7,39.7,8.112,7.79,7.926,7.542,8.383,8.1,7.589,4.77,-4.689,-8.097,1.898,-1.371,7.514,4.793,-4.455,-8.156,30.2,52.5,-7.556,38.7,38.8,41.9,48.5,49.1,36,42.6,1,5,prime,10,0,61,norm,36,-4.746,up,norm,48.2120280678,54.8,57.7,1.171,60.2,3,39.2,40.5,62.1,10,6,7.853,4.472,1.94,-1.106,-4.768,-7.958,42.1,6,109.2,-8.47,-7.525,-40,-7.893,-8.35,-5.049,-5.106,-4.808,-4.913,4.998,7.618,9,-1.143,1.419,4.826,7.874,-8.382,-7.855,-1.755,1.519,,62.1,59.8,45.8,51.5,53.6,54.6,44.0,42.2,65.2,5,norm,1.471,1.739,-1.741,-1.196,-5.226,-5.077,-1.439,-1.684,-1.333,-1.677,1.318,-1.185,56.0,36.6,-4.325,-7.978,43.0,-2.037,7.565,5.146,-5.169,-8.151,6,4.397,4.59,5.047,4.384,1.766,1.192,1.916,1.28,6,4.369,5.081,-80,135.504446309,norm,0,24,24,24,1126.841,1126.85,1126.86705263,1126.867,1126.87,1126.874,up,1,0.711306425364,9.28869357464,001,317,1366_768,Intel(R) Core(TM) i5-4200U CPU @ 1.60GHz,orientation_search,GRVLAPTOP8,Intel(R) HD Graphics 4400,2018_nov_08_1351,testMonitor,
67.2,77.1,,64.3,36,40,69.9,59.7,64.0,61.7,7.798,7.799,8.028,8.164,7.575,7.904,7.57,5.193,-4.727,-7.732,2.066,-1.538,8.079,4.98,-4.942,-7.898,63.0,65.6,-7.885,61.4,64.4,66.4,67.5,73.1,36,65.6,3,5,probe,5,0,65,norm,36,-4.348,down,norm,67.1005100082,64.2,71.7,1.96,60.7,2,70.2,70.1,69.6,10,6,8.389,4.382,1.934,-1.164,-5.117,-8.394,58.2,1,2.1,-8.368,-8.277,-40,-8.165,-7.911,-4.67,-4.468,-4.32,-5.056,5.057,8.198,20,-1.247,1.621,4.95,8.345,-8.479,-7.506,-1.23,1.524,64.8,70.7,70.8,66.3,57.1,65.9,58.3,64.8,68.1,67.5,0,norm,2.016,1.456,-1.965,-1.737,-4.62,-4.531,-1.365,-2.028,-1.412,-1.3,1.11,-1.124,67.2,69.4,-4.669,-7.767,65.0,-1.991,8.027,4.375,-4.563,-8.437,7,4.742,4.914,4.403,4.607,1.911,2.068,2.004,2.007,7,4.991,4.926,-40,48.2120280678,norm,0,25,25,25,1127.606,1127.62,1127.6250902,1127.625,1127.628,1127.631,down,1,0.76918106497,9.23081893503,001,317,1366_768,Intel(R) Core(TM) i5-4200U CPU @ 1.60GHz,orientation_search,GRVLAPTOP8,Intel(R) HD Graphics 4400,2018_nov_08_1351,testMonitor,
120.5,88.3,97.4,81.2,36,60,84.7,108.5,106.6,121.2,8.465,8.068,7.908,7.511,8.228,8.166,8.355,5.245,-4.866,-7.786,2.03,-1.462,8.493,5.078,-4.495,-8.034,96.6,96.7,-8.165,107.4,109.7,119.9,94.9,111.5,36,89.4,1,5,prime,10,0,112,norm,36,-4.781,up,norm,101.153260386,92.4,100.3,1.9,91.1,3,99.4,101.1,99.6,10,6,8.348,4.877,2.06,-2.002,-4.81,-7.844,103.6,6,213.2,-8.465,-7.72,60,-8.342,-7.744,-5.01,-4.858,-5.095,-4.378,4.728,7.501,9,-1.538,1.198,4.368,8.024,-7.571,-8.066,-1.997,1.351,,98.4,109.2,110.0,91.8,114.7,81.8,103.2,99.4,107.0,0,norm,1.932,1.177,-1.42,-1.341,-5.127,-4.667,-1.246,-1.773,-1.881,-1.518,1.776,-1.751,100.8,103.1,-5.228,-7.617,119.5,-1.889,8.166,5.081,-4.431,-8.371,8,5.097,4.979,4.84,4.895,1.453,1.226,2.048,1.554,8,4.728,4.934,40,48.2120280678,norm,0,26,26,26,1128.421,1128.435,1128.43800367,1128.438,1128.441,1128.445,up,1,0.67101319219,9.32898680781,001,317,1366_768,Intel(R) Core(TM) i5-4200U CPU @ 1.60GHz,orientation_search,GRVLAPTOP8,Intel(R) HD Graphics 4400,2018_nov_08_1351,testMonitor,
119.2,86.7,108.3,112.2,36,60,97.1,,111.4,107.1,8.202,7.532,7.942,8.079,8.202,8.029,8.183,4.747,-5.171,-7.881,1.292,-1.474,8.045,4.663,-4.888,-8.247,105.6,81.2,-8.391,107.1,108.7,110.2,121.2,88.5,36,100.6,4,5,prime,10,0,108,norm,36,-5.033,down,norm,101.153260386,95.8,94.2,1.676,94.6,1,107.5,90.5,106.3,10,6,8.478,5.272,1.118,-1.399,-4.372,-7.62,101.8,6,209.2,-7.929,-7.796,60,-8.499,-8.116,-5.259,-4.713,-5.079,-5.287,5.268,7.628,25,-1.417,1.783,4.52,7.529,-7.561,-7.781,-1.364,1.961,97.8,119.9,106.8,92.5,91.1,94.2,95.1,102.0,93.4,100.6,1,norm,1.93,1.464,-1.592,-1.532,-5.065,-4.854,-1.354,-1.164,-1.957,-1.305,1.218,-1.622,114.5,87.6,-4.639,-7.613,107.4,-1.647,7.692,4.419,-5.008,-7.872,8,4.659,4.998,4.908,4.647,1.821,1.534,1.655,1.872,8,4.375,4.373,40,48.2120280678,norm,0,27,27,27,1129.136,1129.154,1129.15684842,1129.157,1129.16,1129.163,down,1,0.867633192574,9.13236680743,001,317,1366_768,Intel(R) Core(TM) i5-4200U CPU @ 1.60GHz,orientation_search,GRVLAPTOP8,Intel(R) HD Graphics 4400,2018_nov_08_1351,testMonitor,
120.9,109.2,89.4,115.5,36,60,94.9,110.8,96.2,109.4,7.817,8.374,7.929,8.124,8.278,7.801,8.405,5.066,-4.443,-8.046,1.341,-1.852,8.316,4.712,-4.951,-7.859,86.0,81.2,-8.337,107.2,103.0,103.5,108.4,100.6,36,92.8,0,5,prime,10,0,96,norm,36,-5.036,up,norm,101.153260386,110.9,99.6,1.985,109.9,4,96.0,104.9,97.6,10,6,7.881,4.476,1.499,-1.536,-4.403,-7.835,103.6,6,197.2,-8.306,-7.769,60,-7.971,-7.556,-4.302,-4.621,-4.399,-4.419,4.768,7.54,4,-1.352,2.04,4.68,7.557,-7.773,-8.027,-1.95,1.184,108.6,99.6,90.7,96.8,111.2,94.9,89.6,91.8,109.6,,2,norm,2.036,2.067,-1.287,-1.145,-4.746,-4.745,-1.438,-1.219,-1.304,-1.777,1.925,-1.387,102.1,106.8,-5.176,-7.712,121.2,-1.668,7.806,4.596,-5.183,-7.813,8,4.649,4.346,4.462,4.37,1.526,1.333,1.345,1.564,8,4.729,4.526,40,48.2120280678,norm,0,28,28,28,1130.047,1130.053,1130.0610425,1130.061,1130.065,1130.068,up,1,0.777633741447,9.22236625855,001,317,1366_768,Intel(R) Core(TM) i5-4200U CPU @ 1.60GHz,orientation_search,GRVLAPTOP8,Intel(R) HD Graphics 4400,2018_nov_08_1351,testMonitor,
96.1,,104.5,95.3,36,60,92.7,115.0,89.0,84.3,8.086,8.405,8.211,8.082,7.581,7.855,7.534,4.914,-5.247,-7.799,1.781,-1.317,8.249,5.008,-4.595,-7.518,97.4,97.7,-7.929,93.6,103.8,101.5,100.1,89.6,36,99.3,3,5,prime,10,0,69,norm,36,-5.268,up,norm,101.153260386,112.1,104.1,2.03,99.1,5,113.6,115.6,92.8,10,6,8.055,4.738,1.932,-1.259,-4.923,-7.587,121.2,6,170.2,-8.014,-7.982,60,-7.75,-8.363,-4.94,-5.045,-5.19,-4.593,5.036,8.029,23,-1.833,1.119,4.517,7.784,-7.987,-7.681,-1.91,1.673,113.0,102.3,118.3,81.2,96.2,94.0,115.7,98.0,109.8,100.7,3,norm,1.737,1.843,-1.331,-1.256,-4.558,-4.5,-1.728,-1.584,-1.957,-1.562,1.12,-1.597,114.2,103.4,-4.437,-8.182,97.5,-1.155,8.193,4.515,-4.742,-8.494,8,5.147,5.133,5.145,4.553,1.982,1.543,1.979,1.406,8,5.081,5.081,40,48.2120280678,norm,0,29,29,29,1130.866,1130.879,1130.88509501,1130.885,1130.888,1130.892,up,1,1.1015722371,8.8984277629,001,317,1366_768,Intel(R) Core(TM) i5-4200U CPU @ 1.60GHz,orientation_search,GRVLAPTOP8,Intel(R) HD Graphics 4400,2018_nov_08_1351,testMonitor,
,86.1,97.7,97.3,36,60,88.4,117.9,104.0,114.9,7.936,8.418,7.836,8.367,7.685,7.582,8.22,5.091,-4.523,-7.912,1.369,-1.156,8.199,4.53,-4.563,-8.483,96.0,121.2,-7.66,107.4,91.5,105.1,85.5,95.2,36,97.4,3,5,prime,10,0,71,norm,36,-4.889,up,norm,101.153260386,93.9,86.1,1.179,89.2,4,116.0,101.7,93.2,10,6,7.946,4.903,1.988,-1.337,-4.982,-8.472,93.6,6,172.2,-7.87,-8.495,60,-8.024,-7.764,-4.746,-5.012,-5.08,-5.057,4.542,7.991,22,-1.114,1.621,4.832,7.997,-7.524,-7.893,-1.495,1.633,99.6,98.0,106.1,93.8,81.2,108.7,115.1,94.6,86.9,105.6,4,norm,1.599,1.436,-2.045,-1.853,-5.271,-4.517,-1.659,-1.935,-1.676,-1.502,1.96,-2.055,103.9,118.9,-4.558,-8.251,116.8,-1.846,7.976,4.884,-4.399,-8.229,8,4.532,4.886,4.396,4.766,1.961,1.495,1.379,1.704,8,4.891,4.739,40,48.2120280678,norm,0,30,30,30,1132.013,1132.025,1132.02812516,1132.028,1132.031,1132.035,down,0,0.906949160333,-10,001,317,1366_768,Intel(R) Core(TM) i5-4200U CPU @ 1.60GHz,orientation_search,GRVLAPTOP8,Intel(R) HD Graphics 4400,2018_nov_08_1351,testMonitor,
91.9,104.0,97.6,,36,60,105.8,87.7,100.9,104.9,8.118,7.777,7.59,8.107,7.766,8.397,7.78,5.227,-4.959,-7.919,1.491,-1.788,8.32,5.148,-5.266,-8.303,91.9,106.9,-7.714,95.7,107.9,99.5,83.6,103.6,36,107.7,3,5,prime,10,0,116,norm,36,-4.316,up,norm,101.153260386,108.0,105.2,1.758,106.5,3,104.8,104.7,98.8,10,6,7.522,4.463,1.837,-1.145,-4.696,-7.829,101.6,6,217.2,-7.644,-8.324,60,-8.134,-7.553,-4.664,-5.153,-4.846,-4.489,5.16,7.537,21,-1.389,1.799,4.829,7.693,-7.622,-8.311,-1.979,1.567,95.6,113.0,121.2,105.0,108.1,83.3,97.6,81.2,106.2,96.0,5,norm,1.979,1.517,-1.562,-1.444,-5.297,-5.171,-1.193,-1.198,-1.743,-1.878,1.769,-1.831,102.6,109.5,-5.143,-8.455,101.6,-1.694,8.147,4.304,-4.464,-8.288,8,4.663,4.611,4.911,4.7,1.831,1.588,1.115,1.884,8,5.07,4.831,40,48.2120280678,norm,0,31,31,31,1133.972,1133.977,1133.98623841,1133.986,1133.989,1133.991,up,1,1.12949659229,8.87050340771,001,317,1366_768,Intel(R) Core(TM) i5-4200U CPU @ 1.60GHz,orientation_search,GRVLAPTOP8,Intel(R) HD Graphics 4400,2018_nov_08_1351,testMonitor,
253.6,261.3,258.0,259.0,36,-20,259.6,248.0,251.9,,7.956,7.778,7.767,8.121,7.89,8.41,8.068,4.429,-5.016,-8.072,1.768,-1.808,7.683,4.553,-5.028,-8.243,250.8,250.2,-8.144,256.8,259.3,263.0,250.6,261.0,36,259.1,4,5,probe,5,0,98,norm,36,-5.098,up,norm,255.802701327,253.7,256.4,1.932,256.6,5,261.9,251.2,252.9,10,6,7.855,5.18,1.285,-1.925,-5.143,-7.781,257.0,2,157.8,-7.792,-7.593,60,-7.65,-8.496,-4.555,-5.01,-5.087,-4.486,4.472,7.943,29,-1.542,1.271,5.039,7.773,-7.938,-8.122,-1.923,1.23,249.9,247.9,254.2,263.7,251.6,253.1,253.5,254.0,261.4,245.8,0,norm,1.934,1.781,-1.851,-1.486,-4.692,-4.836,-1.905,-1.613,-1.492,-1.392,1.24,-1.4,265.8,254.2,-4.868,-7.57,251.8,-1.24,7.53,4.497,-4.319,-7.56,9,5.238,5.048,4.944,4.543,1.621,1.579,1.675,1.485,9,4.746,4.547,60,101.153260386,norm,0,32,32,32,1135.141,1135.149,1135.167182,1135.168,1135.171,1135.175,up,1,0.877304550264,9.12269544974,001,317,1366_768,Intel(R) Core(TM) i5-4200U CPU @ 1.60GHz,orientation_search,GRVLAPTOP8,Intel(R) HD Graphics 4400,2018_nov_08_1351,testMonitor,
269.2,274.6,269.9,274.3,36,-20,,270.6,265.8,270.6,7.738,8.337,7.936,7.631,7.537,7.858,7.619,4.75,-4.692,-7.846,1.633,-1.91,8.122,4.458,-4.797,-8.384,271.3,268.8,-7.867,270.5,277.5,269.9,268.3,270.5,36,272.1,4,5,probe,5,0,113,norm,36,-5.055,down,norm,270.802701327,264.1,267.0,1.302,273.1,0,280.8,275.2,269.6,10,6,8.028,4.426,1.628,-1.349,-4.544,-8.052,277.0,2,157.8,-8.413,-7.854,60,-7.949,-8.213,-4.557,-4.428,-4.638,-4.514,5.207,7.742,24,-1.741,1.111,5.167,7.768,-8.424,-7.602,-1.453,1.851,277.6,271.0,274.7,267.5,271.2,270.5,271.2,268.7,272.0,265.2,1,norm,1.523,1.214,-2.073,-1.521,-4.786,-4.426,-1.501,-1.767,-1.613,-1.992,1.243,-1.243,267.3,279.7,-4.431,-7.515,270.9,-2.075,8.181,4.369,-4.499,-7.549,9,4.938,5.02,5.261,4.568,1.727,2.057,1.434,1.223,9,5.179,4.816,60,101.153260386,norm,0,33,33,33,1136.072,1136.083,1136.09831201,1136.099,1136.101,1136.104,down,1,0.978880357277,9.02111964272,001,317,1366_768,Intel(R) Core(TM) i5-4200U CPU @ 1.60GHz,orientation_search,GRVLAPTOP8,Intel(R) HD Graphics 4400,2018_nov_08_1351,testMonitor,
129.0,121.8,112.5,96.4,36,10,117.6,113.5,113.8,101.1,8.452,7.84,7.571,8.133,8.184,8.101,7.697,5.275,-5.175,-8.429,1.954,-1.385,7.878,5.136,-5.139,-8.415,114.1,125.6,-7.737,106.7,105.0,113.6,117.7,102.7,36,119.7,0,5,prime,10,0,64,norm,36,-4.917,down,norm,116.379760082,126.0,108.6,1.163,136.4,0,118.0,113.5,127.8,10,6,7.568,4.983,2.095,-1.993,-5.135,-7.942,118.0,6,180.4,-8.446,-8.366,10,-8.468,-7.516,-4.656,-4.485,-5.289,-5.292,4.406,8.009,0,-1.929,1.212,4.542,7.982,-7.54,-7.542,-1.335,1.21,116.6,130.4,117.6,126.5,121.4,,112.1,103.4,128.2,107.2,0,norm,1.498,1.649,-1.866,-1.3,-4.449,-4.762,-1.429,-1.296,-1.102,-1.803,1.345,-1.593,129.7,122.7,-4.614,-7.945,100.9,-1.708,8.476,5.237,-4.815,-8.054,10,4.332,4.922,4.398,4.817,1.597,1.911,1.648,1.475,10,5.269,4.33,-20,101.153260386,norm,0,34,34,34,1137.104,1137.118,1137.12345941,1137.124,1137.127,1137.131,up,0,0.916809277507,-10,001,317,1366_768,Intel(R) Core(TM) i5-4200U CPU @ 1.60GHz,orientation_search,GRVLAPTOP8,Intel(R) HD Graphics 4400,2018_nov_08_1351,testMonitor,
136.4,109.0,134.1,108.9,36,10,109.1,115.9,102.9,118.7,8.367,8.029,8.196,7.705,7.644,8.354,8.021,4.708,-4.866,-8.142,1.138,-1.319,8.235,4.833,-4.35,-7.867,124.4,96.4,-7.656,134.9,111.0,125.8,110.8,101.9,36,125.2,2,5,prime,10,0,99,norm,36,-4.789,up,norm,116.379760082,,102.5,1.121,115.8,5,110.7,124.6,105.2,10,6,7.507,4.847,2.003,-1.869,-5.054,-8.423,101.5,6,215.4,-7.624,-7.543,10,-7.962,-7.86,-5.179,-4.32,-4.76,-4.618,4.56,8.442,17,-1.222,1.915,5.128,7.65,-8.138,-8.359,-1.9,1.791,131.0,115.7,118.2,111.2,121.9,106.7,122.5,116.4,124.9,131.0,1,norm,1.731,1.521,-2.1,-1.697,-5.05,-4.938,-1.283,-2.047,-2.087,-1.72,1.345,-1.909,109.5,111.6,-5.223,-7.526,105.4,-1.691,8.432,4.831,-4.678,-7.803,10,5.155,5.037,4.919,5.022,1.31,1.456,1.232,1.762,10,5.086,4.5,-20,101.153260386,norm,0,35,35,35,1139.089,1139.094,1139.10882542,1139.109,1139.111,1139.114,up,1,0.897371959265,9.10262804073,001,317,1366_768,Intel(R) Core(TM) i5-4200U CPU @ 1.60GHz,orientation_search,GRVLAPTOP8,Intel(R) HD Graphics 4400,2018_nov_08_1351,testMonitor,
129.5,96.4,122.5,118.8,36,10,136.4,117.6,132.0,118.8,7.549,8.105,7.604,7.834,8.201,8.39,8.279,4.671,-4.776,-8.203,1.139,-1.453,8.441,4.74,-4.408,-7.81,125.9,104.1,-8.025,113.5,107.9,127.0,103.5,129.0,36,119.3,2,5,prime,10,0,101,norm,36,-4.325,down,norm,116.379760082,116.1,122.6,1.552,,2,106.8,110.6,122.0,10,6,7.608,4.369,1.392,-1.622,-4.411,-7.66,112.4,6,217.4,-8.257,-7.658,10,-7.821,-7.845,-4.448,-4.383,-4.812,-4.593,4.87,7.881,14,-1.231,1.166,4.384,8.377,-7.926,-8.42,-2.03,1.699,118.4,124.2,109.6,112.6,125.6,124.3,112.6,122.5,114.3,112.2,2,norm,1.191,1.975,-1.147,-1.479,-4.387,-4.523,-1.548,-1.872,-1.144,-1.871,1.923,-1.142,116.0,121.5,-5.289,-7.894,108.1,-1.482,7.6,4.426,-4.672,-8.23,10,5.145,4.748,4.37,4.405,1.994,1.967,1.199,1.309,10,4.697,4.353,-20,101.153260386,norm,0,36,36,36,1140.031,1140.043,1140.04633488,1140.047,1140.049,1140.052,down,1,0.856609281702,9.1433907183,001,317,1366_768,Intel(R) Core(TM) i5-4200U CPU @ 1.60GHz,orientation_search,GRVLAPTOP8,Intel(R) HD Graphics 4400,2018_nov_08_1351,testMonitor,
113.2,132.9,120.1,114.0,36,10,105.9,119.5,119.6,134.4,7.66,8.244,7.736,7.501,7.816,7.623,8.023,5.215,-4.86,-8.038,1.165,-1.44,7.607,4.426,-4.625,-7.827,119.1,133.1,-8.15,122.0,117.7,135.5,125.7,118.1,36,124.2,0,5,prime,10,0,75,norm,36,-4.463,up,norm,116.379760082,98.4,117.1,1.692,116.8,3,123.6,119.1,117.7,10,6,7.603,4.53,2.037,-2.077,-4.378,-8.423,119.8,6,191.4,-7.514,-8.117,10,-7.787,-7.647,-5.013,-4.59,-5.192,-4.706,4.986,7.926,3,-1.582,1.128,4.81,8.05,-7.766,-8.187,-1.737,1.39,121.7,111.0,,128.8,119.1,119.4,136.4,112.3,132.8,112.3,3,norm,1.276,2.055,-1.912,-1.342,-5.256,-4.413,-2.024,-1.8,-1.366,-1.855,1.461,-1.637,117.0,123.5,-4.956,-7.842,96.4,-1.543,8.474,4.95,-4.72,-7.629,10,4.961,5.29,4.627,4.765,1.888,1.729,1.285,2.08,10,4.958,4.471,-20,101.153260386,norm,0,37,37,37,1140.929,1140.943,1140.94792202,1140.948,1140.951,1140.955,up,1,1.25134597114,8.74865402886,001,317,1366_768,Intel(R) Core(TM) i5-4200U CPU @ 1.60GHz,orientation_search,GRVLAPTOP8,Intel(R) HD Graphics 4400,2018_nov_08_1351,testMonitor,
106.9,121.0,110.8,106.1,36,10,136.4,118.1,115.8,96.4,8.164,7.9,8.372,8.112,8.289,8.127,8.492,4.978,-4.837,-8.254,1.421,-1.969,7.809,4.393,-4.679,-7.993,130.8,122.4,-7.797,135.4,109.3,118.2,124.6,110.3,36,125.6,2,5,prime,10,0,61,norm,36,-5.295,down,norm,116.379760082,116.7,121.7,1.866,115.2,0,120.6,125.3,,10,6,8.198,4.69,1.107,-1.656,-4.578,-7.604,107.4,6,177.4,-7.588,-7.806,10,-7.777,-7.503,-4.642,-4.341,-4.972,-4.68,5.185,7.578,12,-1.811,1.789,5.021,8.15,-7.84,-8.23,-2.079,2.007,119.5,122.9,114.3,103.7,117.2,118.7,113.7,112.2,111.6,115.8,4,norm,1.625,1.948,-1.681,-1.693,-5.213,-4.56,-1.936,-1.532,-2.095,-1.837,1.455,-1.246,104.7,112.3,-4.422,-7.717,128.3,-1.581,7.843,4.806,-5.172,-7.735,10,4.841,4.919,5.205,4.441,1.374,1.702,1.607,1.717,10,5.197,4.395,-20,101.153260386,norm,0,38,38,38,1142.226,1142.234,1142.25312468,1142.254,1142.257,1142.262,down,1,0.909265145492,9.09073485451,001,317,1366_768,Intel(R) Core(TM) i5-4200U CPU @ 1.60GHz,orientation_search,GRVLAPTOP8,Intel(R) HD Graphics 4400,2018_nov_08_1351,testMonitor,
109.6,110.9,97.6,118.9,36,10,135.2,114.1,102.4,96.4,7.618,7.654,7.538,8.213,8.354,8.378,8.203,4.954,-5.142,-8.023,1.229,-1.95,7.738,4.377,-5.188,-8.107,96.4,111.8,-8.002,123.5,111.3,109.6,102.9,115.3,36,120.6,0,5,prime,10,0,64,norm,36,-4.447,up,norm,116.379760082,136.4,111.8,1.896,117.0,5,113.7,106.0,127.8,10,6,7.548,5.279,1.241,-1.924,-4.91,-7.934,122.3,6,180.4,-7.568,-7.53,10,-7.939,-7.721,-4.973,-4.748,-5.262,-4.658,4.302,7.658,5,-2.099,1.757,4.897,7.57,-7.787,-7.708,-1.736,2.03,122.6,116.5,121.6,127.3,125.4,99.1,121.7,119.3,,114.1,5,norm,1.716,1.531,-1.805,-1.2,-4.941,-4.42,-1.873,-1.423,-2.091,-1.521,2.034,-1.833,112.3,121.1,-4.365,-8.148,106.2,-1.424,7.933,5.288,-4.621,-8.339,10,5.077,4.342,4.812,4.716,1.704,1.302,1.964,1.962,10,5.248,4.542,-20,101.153260386,norm,0,39,39,39,1143.191,1143.198,1143.21775615,1143.218,1143.222,1143.226,up,1,0.793352988716,9.20664701128,001,317,1366_768,Intel(R) Core(TM) i5-4200U CPU @ 1.60GHz,orientation_search,GRVLAPTOP8,Intel(R) HD Graphics 4400,2018_nov_08_1351,testMonitor,
189.6,184.0,187.7,195.7,36,30,185.5,186.4,185.1,192.5,7.928,8.032,7.501,8.123,8.197,7.52,7.931,4.831,-5.126,-7.864,1.997,-1.414,7.605,4.436,-4.936,-7.961,186.9,185.9,-8.482,190.6,187.0,194.1,186.1,194.4,36,185.5,0,5,probe,5,0,61,norm,36,-4.613,up,norm,189.83738217,187.2,189.9,1.866,182.1,5,193.2,185.9,197.4,10,6,8.311,4.635,1.849,-1.559,-4.633,-7.773,192.5,1,128.8,-8.232,-7.811,10,-7.761,-7.527,-4.532,-4.944,-4.89,-4.531,5.157,7.767,5,-1.985,1.517,5.189,7.617,-8.386,-7.567,-1.231,1.545,187.1,199.8,187.3,186.7,179.8,185.2,189.7,193.2,,199.1,0,norm,1.147,1.553,-1.101,-1.247,-5.284,-5.118,-1.27,-2.033,-1.261,-1.399,1.174,-1.567,189.8,188.2,-4.731,-7.88,190.4,-2.028,7.908,4.678,-4.428,-8.255,11,4.399,5.285,4.365,4.787,2.011,1.614,1.457,1.263,11,4.917,4.42,10,116.379760082,norm,0,40,40,40,1144.04,1144.054,1144.05952707,1144.06,1144.066,1144.07,up,1,1.04755489532,8.95244510468,001,317,1366_768,Intel(R) Core(TM) i5-4200U CPU @ 1.60GHz,orientation_search,GRVLAPTOP8,Intel(R) HD Graphics 4400,2018_nov_08_1351,testMonitor,
290.2,290.7,275.3,290.5,36,-40,298.9,280.4,289.6,300.4,8.138,7.723,8.069,7.725,7.839,7.83,7.942,4.773,-4.59,-7.928,2.034,-1.433,8.078,4.807,-4.63,-7.851,315.3,285.3,-8.046,300.4,294.1,304.9,292.4,287.4,36,302.3,1,5,prime,10,0,94,norm,36,-4.313,down,norm,295.266378379,286.6,297.3,1.979,296.5,0,290.7,289.7,293.0,10,5,7.798,4.615,1.944,-1.913,-4.995,-8.073,289.2,5,389.3,-7.863,-7.666,-40,-7.847,-7.883,-4.582,-4.52,-4.777,-4.719,5.271,8.11,6,-1.686,1.369,4.341,7.944,-7.716,-7.991,-1.183,1.952,294.6,306.3,303.9,284.9,303.0,301.8,304.3,,301.9,287.0,0,norm,1.309,1.481,-1.132,-1.204,-4.7,-4.369,-2.074,-1.672,-1.778,-1.519,2.042,-1.944,288.0,296.3,-4.799,-7.646,286.8,-1.151,8.329,5.115,-5.128,-8.157,12,4.905,4.59,5.056,4.429,2.072,1.925,1.366,1.794,12,4.743,4.35,30,116.379760082,norm,0,41,41,41,1145.137,1145.147,1145.16389187,1145.164,1145.167,1145.171,down,1,1.22733737121,8.77266262879,001,317,1366_768,Intel(R) Core(TM) i5-4200U CPU @ 1.60GHz,orientation_search,GRVLAPTOP8,Intel(R) HD Graphics 4400,2018_nov_08_1351,testMonitor,
301.0,310.6,311.2,292.8,36,-40,298.7,307.2,278.1,278.4,7.787,8.372,8.202,8.377,8.042,7.743,8.394,4.364,-5.017,-7.591,1.899,-1.633,8.106,5.061,-4.669,-7.564,278.2,297.8,-7.611,292.5,294.8,300.3,302.4,293.7,36,296.1,0,5,prime,10,0,90,norm,36,-4.524,up,norm,295.266378379,292.6,290.1,1.507,299.0,4,296.6,302.7,315.3,10,5,8.261,4.793,1.55,-2.058,-5.124,-8.424,288.4,5,385.3,-8.14,-8.068,-40,-7.583,-8.49,-4.743,-5.272,-4.993,-4.677,4.64,7.647,4,-1.14,1.877,5.265,8.449,-8.088,-8.4,-1.585,1.375,282.9,298.9,282.4,307.1,303.0,303.6,297.3,284.5,296.5,,1,norm,1.203,1.171,-1.595,-1.609,-5.249,-5.204,-1.828,-2.035,-1.562,-1.755,1.82,-1.357,291.1,295.2,-5.053,-8.179,275.3,-1.222,7.563,5.193,-4.613,-8.068,12,4.546,4.906,4.409,4.927,1.663,2.053,1.102,1.876,12,4.658,4.694,30,116.379760082,norm,0,42,42,42,1146.418,1146.426,1146.44458927,1146.445,1146.448,1146.451,up,1,0.811594830222,9.18840516978,001,317,1366_768,Intel(R) Core(TM) i5-4200U CPU @ 1.60GHz,orientation_search,GRVLAPTOP8,Intel(R) HD Graphics 4400,2018_nov_08_1351,testMonitor,
277.5,315.3,300.4,289.8,36,-40,301.8,293.4,288.7,276.9,8.405,8.447,8.126,7.753,8.296,7.778,7.971,4.741,-5.088,-8.258,1.574,-1.372,8.328,5.211,-4.914,-8.366,311.5,291.9,-8.043,303.3,286.2,281.7,298.3,307.4,36,297.5,2,5,prime,10,0,71,norm,36,-4.876,down,norm,295.266378379,276.2,305.9,1.25,295.8,0,291.3,297.3,,10,5,7.661,4.788,1.105,-1.545,-4.657,-8.22,281.2,5,366.3,-8.483,-8.202,-40,-7.735,-7.643,-4.82,-4.434,-4.698,-5.209,4.744,8.439,12,-1.356,1.248,4.566,7.59,-7.56,-7.859,-1.757,1.23,286.8,282.9,293.3,291.1,290.0,275.3,277.6,313.7,307.0,303.4,2,norm,1.918,1.466,-2.044,-1.641,-4.704,-5.017,-1.537,-1.216,-1.203,-1.72,1.663,-1.349,283.4,300.0,-4.397,-8.236,297.4,-1.21,8.181,4.897,-4.43,-7.747,12,4.581,5.264,4.509,4.53,1.807,1.478,1.535,1.958,12,4.519,4.604,30,116.379760082,norm,0,43,43,43,1147.283,1147.296,1147.29905973,1147.299,1147.302,1147.305,down,1,0.856221499216,9.14377850078,001,317,1366_768,Intel(R) Core(TM) i5-4200U CPU @ 1.60GHz,orientation_search,GRVLAPTOP8,Intel(R) HD Graphics 4400,2018_nov_08_1351,testMonitor,
284.5,306.6,297.4,288.6,36,-40,283.0,298.1,276.7,275.3,8.369,7.597,7.511,7.566,8.341,8.263,8.384,4.708,-4.858,-8.211,1.539,-1.355,7.603,4.394,-4.715,-7.917,294.7,294.2,-8.191,308.0,282.7,282.2,306.8,290.7,36,280.6,1,5,prime,10,0,61,norm,36,-4.788,down,norm,295.266378379,293.8,289.9,1.703,275.3,2,288.3,294.7,285.6,10,5,7.536,4.964,1.175,-1.449,-5.03,-7.675,315.3,5,356.3,-8.053,-7.711,-40,-7.939,-8.367,-4.841,-5.13,-4.379,-4.415,5.097,7.951,8,-1.522,1.88,4.624,8.215,-7.756,-7.703,-1.488,1.185,299.2,,292.4,300.4,282.5,310.8,309.8,294.4,296.0,286.7,3,norm,1.411,1.705,-1.121,-1.374,-4.519,-4.709,-1.82,-1.625,-1.218,-1.271,1.841,-1.819,287.8,295.7,-5.179,-8.046,294.8,-1.411,7.725,4.396,-4.968,-7.813,12,5.069,4.548,4.83,4.483,1.294,1.693,1.981,1.983,12,4.483,4.433,30,116.379760082,norm,0,44,44,44,1148.182,1148.195,1148.20094942,1148.201,1148.204,1148.207,down,1,1.61708108224,8.38291891776,001,317,1366_768,Intel(R) Core(TM) i5-4200U CPU @ 1.60GHz,orientation_search,GRVLAPTOP8,Intel(R) HD Graphics 4400,2018_nov_08_1351,testMonitor,
310.4,298.0,284.8,289.0,36,-40,289.7,276.7,315.3,290.1,7.944,8.323,8.426,7.895,8.356,7.781,8.052,4.779,-4.857,-7.595,1.269,-1.517,7.907,5.103,-5.063,-7.966,298.0,299.6,-7.718,286.6,300.2,,291.0,283.8,36,296.7,5,5,prime,10,0,114,norm,36,-4.877,up,norm,295.266378379,293.3,294.6,1.655,296.7,3,293.3,292.7,297.6,10,5,7.65,4.545,1.111,-1.224,-4.56,-8.065,308.9,5,409.3,-7.607,-7.876,-40,-8.469,-7.598,-4.522,-4.655,-4.669,-4.979,4.643,8.419,33,-1.331,1.685,4.491,7.585,-7.901,-8.486,-1.515,1.564,295.9,281.6,310.4,297.2,282.3,290.0,287.4,297.9,297.9,275.3,4,norm,1.23,2.006,-1.503,-1.685,-5.089,-4.325,-1.643,-1.565,-1.595,-1.461,1.261,-1.739,294.4,295.6,-4.35,-7.986,302.8,-1.252,8.044,4.794,-4.942,-7.788,12,4.682,4.487,5.209,5.268,1.53,1.48,1.703,1.605,12,5.198,4.596,30,116.379760082,norm,0,45,45,45,1149.845,1149.86,1149.86597229,1149.867,1149.873,1149.882,up,1,1.10613191655,8.89386808345,001,317,1366_768,Intel(R) Core(TM) i5-4200U CPU @ 1.60GHz,orientation_search,GRVLAPTOP8,Intel(R) HD Graphics 4400,2018_nov_08_1351,testMonitor,
327.2,329.7,331.7,317.8,36,-60,328.4,336.8,323.1,324.2,7.88,8.483,8.152,7.833,8.05,8.415,7.648,4.939,-5.002,-8.487,1.788,-1.46,8.165,5.199,-4.441,-7.647,328.7,326.0,-8.207,328.7,325.2,325.2,325.2,323.4,36,325.4,0,5,probe,5,0,74,norm,36,-5.282,down,norm,327.784639459,319.5,329.1,2.037,325.4,0,324.2,333.9,319.9,10,5,7.528,5.029,1.276,-2.085,-4.582,-8.454,333.2,2,253.8,-7.527,-7.876,-40,-7.876,-7.886,-4.786,-4.68,-4.801,-4.898,5.162,7.643,0,-1.455,2.012,5.017,8.232,-8.194,-8.214,-1.657,1.488,335.3,337.8,325.5,333.4,326.9,,321.7,333.9,330.6,334.4,0,norm,1.675,1.91,-1.768,-1.418,-4.511,-4.612,-1.454,-1.747,-1.672,-1.794,1.615,-1.944,333.7,321.6,-5.112,-7.854,331.2,-1.29,8.12,5.116,-4.776,-7.91,13,4.728,4.738,5.195,4.48,1.958,1.493,1.399,2.015,13,4.638,5.181,-40,295.266378379,norm,0,46,46,46,1151.01,1151.024,1151.02705642,1151.027,1151.031,1151.035,down,1,1.33422700314,8.66577299686,001,317,1366_768,Intel(R) Core(TM) i5-4200U CPU @ 1.60GHz,orientation_search,GRVLAPTOP8,Intel(R) HD Graphics 4400,2018_nov_08_1351,testMonitor,
338.8,348.4,353.4,353.7,36,-60,349.2,342.4,343.5,353.0,8.358,7.61,8.319,7.805,7.759,8.081,7.81,4.439,-5.095,-8.418,1.268,-2.043,7.749,4.614,-4.694,-7.907,341.9,352.4,-8.318,352.9,339.6,358.8,352.3,343.7,36,353.7,0,5,probe,5,0,95,norm,36,-4.333,down,norm,348.784639459,349.7,347.7,1.636,356.0,1,349.7,348.9,353.6,10,5,7.695,5.273,1.997,-1.717,-4.686,-7.759,349.3,2,253.8,-7.581,-8.154,-40,-7.831,-8.014,-4.947,-4.578,-4.759,-4.303,4.669,8.052,1,-1.662,1.342,4.598,8.336,-7.689,-7.715,-1.903,1.498,346.3,348.9,348.1,345.0,,347.2,356.9,348.3,350.7,350.5,1,norm,1.78,1.48,-1.122,-1.551,-5.206,-4.939,-1.634,-1.133,-1.416,-1.417,1.131,-1.61,353.2,352.8,-4.555,-8.086,351.7,-1.93,8.153,4.97,-5.161,-8.162,13,4.724,4.999,4.904,4.316,1.408,1.937,1.648,1.677,13,4.655,4.752,-40,295.266378379,norm,0,47,47,47,1152.389,1152.399,1152.41598173,1152.416,1152.419,1152.422,down,1,1.86012788344,8.13987211656,001,317,1366_768,Intel(R) Core(TM) i5-4200U CPU @ 1.60GHz,orientation_search,GRVLAPTOP8,Intel(R) HD Graphics 4400,2018_nov_08_1351,testMonitor,
45.3,51.8,43.2,,36,10,42.4,25.4,49.4,16.3,8.162,8.325,8.026,8.46,8.34,8.332,8.023,4.67,-4.513,-7.955,1.28,-1.259,8.126,5.205,-4.339,-8.428,25.8,29.3,-7.617,26.1,42.6,23.4,25.6,40.4,36,30.8,3,5,prime,10,0,119,norm,36,-4.764,up,norm,36.3265318308,48.8,43.2,2.015,56.3,3,42.4,37.2,39.4,10,5,8.337,5.126,1.624,-1.763,-4.833,-8.078,51.5,5,155.3,-7.933,-8.207,10,-8.052,-7.984,-5.205,-4.64,-5.23,-5.133,4.423,7.952,21,-1.882,2.074,4.314,7.729,-8.436,-7.602,-1.936,2.094,35.3,53.3,32.5,36.8,32.6,24.1,20.6,35.4,48.5,44.7,0,norm,1.37,1.228,-1.798,-1.356,-5.224,-5.199,-2.022,-1.523,-1.701,-1.139,1.58,-1.147,33.2,43.4,-4.47,-7.607,32.6,-1.65,7.759,4.45,-4.593,-8.322,14,5.294,5.216,4.414,4.94,1.389,1.715,1.342,1.944,14,4.806,4.972,-60,295.266378379,norm,0,48,48,48,1154.302,1154.316,1154.31933285,1154.32,1154.322,1154.326,up,1,1.3036738486,8.6963261514,001,317,1366_768,Intel(R) Core(TM) i5-4200U CPU @ 1.60GHz,orientation_search,GRVLAPTOP8,Intel(R) HD Graphics 4400,2018_nov_08_1351,testMonitor,
35.5,55.1,17.7,26.8,36,10,53.6,42.3,23.8,22.0,8.367,7.526,7.726,8.166,8.226,8.187,8.227,4.39,-4.49,-7.527,1.374,-1.266,8.013,5.27,-4.537,-7.807,48.8,49.5,-7.999,47.4,,51.2,42.9,38.9,36,45.4,5,5,prime,10,0,61,norm,36,-4.537,down,norm,36.3265318308,21.6,42.5,1.335,35.6,0,25.2,29.2,30.8,10,5,8.036,4.467,1.539,-1.473,-4.897,-7.963,39.1,5,97.3,-7.862,-8.445,10,-8.469,-7.634,-4.65,-4.742,-5.223,-4.866,4.797,8.102,30,-1.975,1.94,4.599,8.149,-7.85,-7.848,-1.894,1.787,30.2,42.8,25.2,28.3,34.0,56.3,32.7,38.9,16.3,25.9,1,norm,1.394,1.537,-1.882,-1.413,-4.99,-4.667,-1.204,-1.927,-1.538,-1.597,1.649,-1.273,52.3,46.8,-4.602,-7.973,44.0,-1.997,7.717,5.069,-4.914,-8.385,14,4.567,4.728,5.151,4.984,1.614,1.918,1.504,1.859,14,5.106,4.829,-60,295.266378379,norm,0,49,49,49,1155.65,1155.663,1155.66907026,1155.67,1155.674,1155.678,down,1,1.36541024843,8.63458975157,001,317,1366_768,Intel(R) Core(TM) i5-4200U CPU @ 1.60GHz,orientation_search,GRVLAPTOP8,Intel(R) HD Graphics 4400,2018_nov_08_1351,testMonitor,
29.3,27.7,35.3,17.3,36,10,41.9,24.1,46.9,38.9,7.605,8.32,7.776,8.096,8.381,7.751,8.036,5.209,-4.998,-8.347,1.978,-2.012,8.292,5.281,-4.383,-8.019,32.8,20.4,-7.769,19.7,16.3,24.7,56.3,44.0,36,36.0,0,5,prime,10,0,85,norm,36,-5.237,down,norm,36.3265318308,39.8,33.6,1.188,36.2,1,19.5,37.9,21.9,10,5,7.874,4.428,1.73,-1.103,-5.286,-7.89,56.1,5,121.3,-8.472,-7.83,10,-7.635,-8.277,-4.957,-4.542,-4.746,-4.367,4.836,7.628,1,-1.687,1.737,4.826,8.333,-7.548,-7.726,-2.056,1.671,52.3,29.4,34.7,29.7,,37.3,35.5,49.1,46.0,55.4,2,norm,1.915,2.095,-1.108,-1.661,-5.244,-4.831,-1.679,-1.695,-1.164,-1.991,1.388,-1.623,48.3,34.1,-5.245,-8.377,54.7,-1.986,8.323,4.983,-4.38,-7.567,14,4.89,4.925,5.292,4.32,1.19,1.127,1.424,1.717,14,5.246,4.618,-60,295.266378379,norm,0,50,50,50,1157.064,1157.077,1157.07994343,1157.08,1157.083,1157.087,down,1,1.63655633087,8.36344366913,001,317,1366_768,Intel(R) Core(TM) i5-4200U CPU @ 1.60GHz,orientation_search,GRVLAPTOP8,Intel(R) HD Graphics 4400,2018_nov_08_1351,testMonitor,
34.3,54.5,17.9,33.6,36,10,38.1,45.4,26.8,20.9,7.63,8.045,8.168,8.333,7.719,8.184,7.927,4.902,-4.655,-7.536,1.874,-1.783,8.272,4.766,-4.893,-7.817,35.1,37.1,-8.31,25.2,40.9,30.7,29.9,40.8,36,30.8,1,5,prime,10,0,94,norm,36,-4.886,up,norm,36.3265318308,33.8,27.2,1.532,21.8,3,18.6,40.4,49.9,10,5,8.178,5.044,2.06,-1.425,-5.036,-7.899,40.1,5,130.3,-7.921,-7.929,10,-7.575,-7.553,-4.529,-4.376,-4.773,-4.624,5.282,8.151,9,-1.663,1.692,4.387,7.669,-7.577,-8.217,-2.066,1.92,,34.6,30.9,32.8,42.6,39.4,36.4,16.3,18.2,56.3,3,norm,1.766,1.945,-1.488,-1.723,-4.612,-5.248,-1.731,-1.338,-1.109,-1.536,1.891,-1.414,30.9,26.9,-4.447,-7.659,33.8,-1.394,7.888,4.954,-5.247,-7.613,14,4.765,5.031,5.198,4.881,1.58,1.51,1.852,1.309,14,4.816,4.896,-60,295.266378379,norm,0,51,51,51,1158.744,1158.758,1158.76298502,1158.763,1158.766,1158.769,down,0,1.01869209758,-10,001,317,1366_768,Intel(R) Core(TM) i5-4200U CPU @ 1.60GHz,orientation_search,GRVLAPTOP8,Intel(R) HD Graphics 4400,2018_nov_08_1351,testMonitor,
42.0,26.7,,31.1,36,10,39.7,41.6,23.1,25.0,7.841,7.711,8.45,8.35,7.654,7.838,8.367,4.484,-4.697,-8.392,1.11,-1.664,7.934,4.848,-4.873,-8.351,46.9,32.4,-7.589,30.1,42.0,31.9,38.0,35.6,36,40.4,3,5,prime,10,0,114,norm,36,-4.875,down,norm,36.3265318308,44.3,46.7,1.48,51.0,2,45.8,56.3,51.9,10,5,7.953,4.661,1.137,-1.62,-4.563,-8.424,25.4,5,150.3,-8.352,-8.464,10,-8.475,-8.209,-4.551,-4.641,-4.501,-4.451,4.648,7.711,20,-1.329,1.115,4.569,8.181,-7.532,-7.81,-1.947,1.596,46.5,36.2,26.3,22.4,16.3,34.9,39.5,37.4,42.7,48.5,4,norm,1.29,1.48,-1.23,-1.262,-4.77,-4.53,-1.661,-1.169,-2.09,-2.091,1.515,-1.491,36.8,25.8,-4.312,-7.809,22.1,-1.182,8.223,4.885,-4.311,-7.837,14,4.648,4.615,5.058,4.667,1.649,1.47,1.84,1.978,14,5.133,4.663,-60,295.266378379,norm,0,52,52,52,1160.819,1160.824,1160.83268457,1160.833,1160.835,1160.838,up,0,0.763296499204,-10,001,317,1366_768,Intel(R) Core(TM) i5-4200U CPU @ 1.60GHz,orientation_search,GRVLAPTOP8,Intel(R) HD Graphics 4400,2018_nov_08_1351,testMonitor,
111.0,109.7,108.9,112.2,36,80,103.9,112.6,110.5,110.3,7.599,8.034,8.215,8.26,8.182,8.304,7.875,5.199,-5.238,-7.71,1.536,-1.27,7.742,4.355,-4.365,-8.197,106.3,113.2,-8.484,112.5,105.5,109.1,115.7,,36,113.5,4,5,probe,5,0,61,norm,36,-5.171,down,norm,110.34467136,100.3,112.1,1.462,106.5,2,109.5,118.8,111.6,10,5,8.146,5.203,1.952,-1.204,-5.158,-8.127,111.8,2,49.3,-7.691,-7.76,10,-8.23,-7.729,-4.604,-5.032,-4.348,-5.139,4.741,7.828,26,-1.5,1.158,5.233,7.976,-8.267,-8.17,-1.625,1.181,120.3,110.3,102.0,103.3,118.0,113.9,107.8,118.9,106.0,109.1,0,norm,1.512,1.497,-1.847,-1.141,-4.896,-4.553,-1.159,-1.76,-1.65,-1.507,1.111,-1.939,110.3,110.8,-4.528,-7.613,103.6,-1.824,8.361,4.825,-4.589,-7.666,15,4.353,5.159,4.31,4.862,2.051,1.633,1.772,1.335,15,4.519,4.56,10,36.3265318308,norm,0,53,53,53,1162.645,1162.65,1162.66182824,1162.662,1162.664,1162.667,down,1,0.630768599171,9.36923140083,001,317,1366_768,Intel(R) Core(TM) i5-4200U CPU @ 1.60GHz,orientation_search,GRVLAPTOP8,Intel(R) HD Graphics 4400,2018_nov_08_1351,testMonitor,
114.3,103.4,103.1,101.9,36,80,110.5,111.6,107.4,114.7,8.181,7.922,7.983,7.768,8.264,8.297,7.788,4.401,-5.028,-7.895,1.75,-1.82,8.266,4.441,-4.606,-8.011,120.3,107.1,-8.424,110.7,101.4,104.7,116.3,118.6,36,109.5,3,5,probe,5,0,61,norm,36,-5.291,down,norm,110.34467136,105.7,103.6,1.346,108.4,1,106.3,111.9,107.2,10,5,8.151,4.339,1.118,-1.908,-5.0,-7.699,107.5,2,49.3,-7.52,-7.595,10,-8.394,-8.214,-5.001,-4.895,-5.012,-4.534,4.842,8.205,19,-1.123,1.526,5.259,8.097,-7.675,-7.636,-2.054,1.921,113.9,112.1,106.5,108.7,105.6,115.0,109.2,100.3,113.8,113.7,1,norm,1.975,1.232,-1.302,-1.974,-4.503,-5.134,-1.962,-1.361,-1.412,-1.691,1.451,-1.889,,101.7,-5.193,-8.432,107.4,-2.006,7.541,5.19,-4.588,-8.016,15,5.042,4.631,4.638,4.775,1.648,1.324,2.082,1.507,15,4.611,5.118,10,36.3265318308,norm,0,54,54,54,1163.317,1163.325,1163.34435888,1163.345,1163.349,1163.354,down,1,0.758386075173,9.24161392483,001,317,1366_768,Intel(R) Core(TM) i5-4200U CPU @ 1.60GHz,orientation_search,GRVLAPTOP8,Intel(R) HD Graphics 4400,2018_nov_08_1351,testMonitor,
178.7,176.5,177.5,177.6,36,40,179.5,175.3,180.3,164.8,7.972,8.399,7.555,8.246,8.484,7.57,7.659,4.34,-4.965,-7.75,1.93,-1.52,8.474,4.541,-4.681,-8.014,174.5,175.5,-7.869,163.5,180.9,177.5,164.4,181.6,36,,4,5,prime,10,0,73,norm,36,-4.458,up,norm,175.488200931,174.9,195.5,1.991,180.5,3,165.3,178.9,178.7,10,5,8.073,4.523,1.521,-1.807,-5.023,-7.91,190.4,5,248.5,-8.125,-7.832,40,-7.847,-7.521,-5.285,-4.905,-4.874,-4.624,4.942,7.596,27,-1.901,1.1,4.359,7.728,-8.185,-8.048,-1.475,2.074,175.8,159.8,169.2,160.7,170.3,155.5,179.6,178.5,187.0,170.5,0,norm,1.785,2.072,-1.944,-1.225,-4.502,-5.127,-1.798,-1.667,-1.272,-1.806,1.12,-1.774,180.6,161.5,-4.926,-8.478,172.0,-1.334,8.005,4.956,-5.195,-8.287,16,4.421,4.858,4.94,4.594,1.909,1.258,1.917,1.892,16,4.354,4.947,80,36.3265318308,norm,0,55,55,55,1164.133,1164.148,1164.15411476,1164.155,1164.16,1164.164,up,1,1.04676415819,8.95323584181,001,317,1366_768,Intel(R) Core(TM) i5-4200U CPU @ 1.60GHz,orientation_search,GRVLAPTOP8,Intel(R) HD Graphics 4400,2018_nov_08_1351,testMonitor,
177.7,179.2,174.0,179.1,36,40,189.0,171.5,170.7,177.9,8.236,7.987,7.662,7.568,8.208,8.074,8.048,5.264,-4.828,-7.975,1.274,-1.819,7.687,4.331,-5.072,-8.102,160.2,191.5,-7.696,178.2,178.9,161.8,170.5,184.1,36,,4,5,prime,10,0,80,norm,36,-4.908,up,norm,175.488200931,180.4,181.9,1.786,168.4,3,173.8,158.1,175.1,10,5,8.406,4.637,1.285,-1.324,-4.589,-7.81,174.4,5,255.5,-7.965,-8.25,40,-7.728,-7.539,-4.833,-4.325,-4.686,-4.64,4.617,8.04,27,-1.662,1.341,4.624,8.398,-8.283,-7.939,-1.174,1.657,181.9,171.7,187.0,179.0,155.5,160.3,175.7,189.0,178.1,181.7,1,norm,1.308,1.886,-1.534,-1.33,-5.221,-4.538,-1.377,-1.935,-1.447,-1.711,1.297,-1.197,177.4,193.9,-5.047,-8.471,163.6,-1.573,8.101,5.269,-4.866,-8.372,16,4.445,4.548,4.832,4.808,1.426,1.454,1.114,1.945,16,5.281,4.322,80,36.3265318308,norm,0,56,56,56,1165.231,1165.241,1165.25722072,1165.258,1165.262,1165.266,up,1,0.692629499939,9.30737050006,001,317,1366_768,Intel(R) Core(TM) i5-4200U CPU @ 1.60GHz,orientation_search,GRVLAPTOP8,Intel(R) HD Graphics 4400,2018_nov_08_1351,testMonitor,
182.8,167.7,171.6,191.3,36,40,177.2,,180.3,161.9,7.845,8.186,7.801,7.703,7.744,8.2,8.164,4.531,-4.478,-8.147,1.617,-1.895,8.308,4.674,-4.729,-8.455,177.2,169.8,-7.915,163.7,170.2,168.4,170.9,173.5,36,185.6,4,5,prime,10,0,63,norm,36,-5.09,down,norm,175.488200931,167.0,188.1,1.48,168.0,1,169.9,167.1,158.1,10,5,7.692,4.761,1.648,-1.601,-4.934,-7.515,175.9,5,238.5,-8.482,-7.752,40,-8.462,-8.477,-4.711,-4.805,-5.118,-4.816,4.616,7.663,25,-1.909,1.531,5.064,7.773,-7.645,-8.139,-1.193,1.563,161.5,161.1,168.9,168.5,178.0,195.5,181.9,173.4,171.0,184.9,2,norm,2.045,2.07,-1.424,-1.453,-4.714,-4.399,-1.684,-1.445,-1.958,-1.508,1.57,-1.43,180.2,155.5,-5.124,-8.198,175.1,-2.065,7.757,4.314,-4.366,-7.616,16,4.526,4.664,4.476,4.659,1.248,1.386,2.033,1.782,16,4.802,4.974,80,36.3265318308,norm,0,57,57,57,1165.979,1165.988,1166.00565118,1166.006,1166.009,1166.013,down,1,1.42656519766,8.57343480234,001,317,1366_768,Intel(R) Core(TM) i5-4200U CPU @ 1.60GHz,orientation_search,GRVLAPTOP8,Intel(R) HD Graphics 4400,2018_nov_08_1351,testMonitor,
170.5,165.7,184.2,166.8,36,40,191.3,176.2,185.9,174.3,8.298,8.219,7.73,8.335,8.466,8.237,7.888,4.32,-4.64,-7.81,1.193,-1.145,7.798,4.48,-4.662,-8.343,162.5,,-7.722,172.6,176.0,167.2,167.3,191.9,36,174.0,5,5,prime,10,0,113,norm,36,-5.157,up,norm,175.488200931,180.6,195.5,1.974,165.8,4,167.3,156.9,174.2,10,5,8.203,5.232,1.439,-1.376,-4.746,-8.101,182.2,5,288.5,-7.673,-8.377,40,-8.286,-8.392,-4.515,-5.14,-4.401,-5.274,4.507,8.263,34,-1.258,1.589,4.501,8.124,-8.161,-7.52,-1.275,1.658,176.8,171.9,171.3,171.5,170.0,159.7,179.6,172.9,177.7,173.6,3,norm,1.542,1.76,-1.878,-1.445,-4.839,-4.932,-1.221,-1.634,-1.631,-1.258,1.176,-1.58,189.3,155.5,-5.228,-7.739,176.9,-1.981,7.784,5.246,-5.292,-7.996,16,4.45,4.309,5.217,4.54,1.402,1.843,2.015,1.384,16,4.861,4.986,80,36.3265318308,norm,0,58,58,58,1167.46,1167.469,1167.48590797,1167.486,1167.489,1167.493,up,1,4.07180357233,5.92819642767,001,317,1366_768,Intel(R) Core(TM) i5-4200U CPU @ 1.60GHz,orientation_search,GRVLAPTOP8,Intel(R) HD Graphics 4400,2018_nov_08_1351,testMonitor,
155.5,167.4,177.9,183.3,36,40,184.0,162.7,182.0,173.1,7.746,8.28,7.788,7.879,8.465,8.373,7.887,5.143,-4.307,-8.227,1.934,-1.742,8.261,4.723,-4.361,-8.284,177.1,171.8,-8.034,192.4,171.1,175.2,176.5,,36,171.6,4,5,prime,10,0,87,norm,36,-4.449,down,norm,175.488200931,174.0,189.7,1.928,194.6,2,170.5,160.0,172.3,10,5,8.107,4.393,1.761,-1.465,-5.178,-7.885,163.8,5,262.5,-7.522,-8.079,40,-8.337,-8.132,-5.091,-4.609,-4.871,-4.702,5.018,7.867,26,-1.581,1.145,4.469,7.939,-8.477,-7.553,-1.296,1.372,173.8,191.2,181.5,178.3,164.5,183.5,163.8,171.1,177.4,173.7,4,norm,1.403,1.698,-1.219,-1.119,-4.688,-4.398,-1.252,-1.965,-1.364,-1.361,1.373,-1.703,190.0,195.5,-4.95,-8.401,187.4,-1.944,7.991,4.721,-4.703,-8.31,16,4.449,5.138,4.324,4.934,1.118,1.334,1.199,1.465,16,5.181,5.205,80,36.3265318308,norm,0,59,59,59,1171.584,1171.598,1171.60163761,1171.602,1171.605,1171.608,down,1,1.8191911723,8.1808088277,001,317,1366_768,Intel(R) Core(TM) i5-4200U CPU @ 1.60GHz,orientation_search,GRVLAPTOP8,Intel(R) HD Graphics 4400,2018_nov_08_1351,testMonitor,
289.3,286.8,295.6,299.6,36,30,292.7,299.5,301.6,290.8,7.996,7.892,8.17,7.902,8.291,8.333,7.829,4.647,-4.736,-8.121,1.588,-1.368,7.539,4.683,-5.107,-8.22,289.7,293.5,-7.925,298.9,289.4,306.8,304.5,297.2,36,303.8,0,5,probe,5,0,78,norm,36,-4.338,down,norm,296.791183322,298.2,290.4,1.253,294.5,1,300.7,302.4,299.9,10,5,8.459,5.22,2.067,-1.148,-5.03,-8.118,302.5,1,218.8,-7.625,-7.634,40,-7.619,-7.51,-4.999,-4.693,-4.94,-5.059,4.305,7.913,1,-1.553,1.502,4.324,7.72,-7.523,-7.899,-1.878,1.568,290.1,292.1,294.9,297.3,,297.1,304.4,298.3,298.5,296.9,0,norm,1.164,2.033,-1.733,-1.727,-5.203,-4.838,-1.768,-2.085,-1.215,-1.546,2.021,-1.597,294.1,288.1,-4.935,-7.864,301.0,-1.537,7.521,4.962,-4.595,-7.878,17,4.494,4.902,4.976,5.247,1.277,1.61,1.62,1.862,17,4.729,5.016,40,175.488200931,norm,0,60,60,60,1173.447,1173.459,1173.47395855,1173.474,1173.477,1173.481,down,1,1.06109515307,8.93890484693,001,317,1366_768,Intel(R) Core(TM) i5-4200U CPU @ 1.60GHz,orientation_search,GRVLAPTOP8,Intel(R) HD Graphics 4400,2018_nov_08_1351,testMonitor,
92.7,88.3,105.9,94.5,36,0,78.2,73.9,71.2,87.3,8.309,8.339,8.483,8.479,8.149,7.662,8.241,5.222,-4.813,-7.645,1.89,-1.412,8.066,5.008,-4.773,-7.774,87.8,77.3,-8.097,79.3,96.9,86.0,96.5,65.9,36,94.2,0,5,prime,10,0,99,norm,36,-4.829,down,norm,85.8626067362,90.3,97.7,1.935,67.5,1,86.2,81.5,92.3,10,5,7.915,4.716,1.585,-1.125,-4.529,-7.935,89.9,5,184.9,-8.244,-7.681,0,-8.164,-7.922,-4.902,-4.521,-5.17,-5.098,5.295,8.452,1,-1.292,1.717,5.23,8.113,-8.392,-7.559,-1.895,1.292,89.9,71.5,71.4,96.4,,89.9,78.0,94.2,78.1,76.0,0,norm,1.309,1.795,-1.621,-1.603,-5.073,-4.878,-1.397,-1.211,-1.149,-1.699,1.478,-1.351,85.0,90.3,-4.322,-8.134,87.3,-1.195,7.554,4.717,-4.962,-7.986,18,4.357,4.82,4.978,4.395,2.049,1.52,1.462,1.813,18,4.414,4.412,30,175.488200931,norm,0,61,61,61,1174.561,1186.076,1186.08240846,1186.083,1186.085,1186.087,down,1,2.19375112397,7.80624887603,001,317,1366_768,Intel(R) Core(TM) i5-4200U CPU @ 1.60GHz,orientation_search,GRVLAPTOP8,Intel(R) HD Graphics 4400,2018_nov_08_1351,testMonitor,
99.1,83.8,81.1,95.6,36,0,93.5,65.9,93.7,105.9,8.178,8.217,8.348,8.13,7.808,7.633,7.783,4.962,-4.544,-8.233,1.104,-2.019,8.236,5.143,-4.895,-7.617,78.5,80.3,-8.059,84.4,102.3,74.7,86.8,82.3,36,85.9,0,5,prime,10,0,90,norm,36,-4.898,down,norm,85.8626067362,67.4,98.5,1.23,92.4,2,88.0,78.1,94.8,10,5,8.069,4.347,1.283,-1.357,-4.444,-7.772,80.5,5,175.9,-8.094,-7.935,0,-7.73,-7.539,-4.542,-4.603,-5.148,-4.434,4.527,7.97,2,-1.666,1.683,5.013,7.541,-7.946,-7.968,-1.886,1.198,84.8,79.0,102.5,,82.4,73.4,67.1,79.3,83.2,102.0,1,norm,1.56,1.959,-1.344,-1.856,-4.381,-4.684,-1.152,-1.304,-1.805,-2.093,1.928,-1.242,89.2,95.0,-4.381,-8.279,87.4,-2.083,8.302,4.532,-5.28,-7.906,18,4.462,4.812,4.758,4.893,1.573,1.54,1.857,1.839,18,4.767,5.003,30,175.488200931,norm,0,62,62,62,1188.3,1188.31,1188.32769227,1188.328,1188.331,1188.335,down,1,0.893907352562,9.10609264744,001,317,1366_768,Intel(R) Core(TM) i5-4200U CPU @ 1.60GHz,orientation_search,GRVLAPTOP8,Intel(R) HD Graphics 4400,2018_nov_08_1351,testMonitor,
87.3,90.0,101.1,75.9,36,0,,94.0,87.9,85.7,8.263,8.067,7.752,8.022,8.239,7.879,7.522,5.29,-5.088,-7.551,1.233,-1.727,8.477,4.942,-4.899,-7.877,83.5,93.7,-7.848,91.9,95.1,80.0,92.7,75.3,36,81.2,4,5,prime,10,0,60,norm,36,-5.238,down,norm,85.8626067362,82.5,90.7,1.983,84.3,0,81.3,78.0,77.5,10,5,8.235,4.633,1.737,-1.226,-4.919,-8.028,99.0,5,145.9,-8.343,-8.368,0,-8.063,-8.256,-4.336,-4.315,-4.391,-5.049,4.573,8.279,24,-1.98,1.724,5.036,8.267,-7.768,-7.569,-1.958,1.177,73.0,101.4,105.9,77.5,87.7,82.1,88.2,90.0,98.5,80.9,2,norm,1.585,1.367,-2.072,-2.082,-4.538,-5.262,-1.642,-1.284,-1.689,-2.02,1.486,-1.85,101.4,90.5,-4.46,-7.985,86.4,-1.397,7.506,4.41,-5.255,-7.753,18,5.137,4.36,4.886,4.689,1.774,1.204,2.048,1.7,18,4.651,5.166,30,175.488200931,norm,0,63,63,63,1189.256,1189.269,1189.276758,1189.277,1189.28,1189.283,down,1,0.694245780913,9.30575421909,001,317,1366_768,Intel(R) Core(TM) i5-4200U CPU @ 1.60GHz,orientation_search,GRVLAPTOP8,Intel(R) HD Graphics 4400,2018_nov_08_1351,testMonitor,
87.1,81.3,94.6,83.4,36,0,81.8,96.9,105.9,72.9,7.505,8.073,8.383,8.479,8.026,8.347,8.341,5.048,-4.355,-7.553,1.353,-2.053,7.913,4.339,-4.634,-8.408,92.9,75.2,-8.147,,92.5,84.9,103.3,83.9,36,96.0,5,5,prime,10,0,109,norm,36,-4.32,down,norm,85.8626067362,87.9,88.0,1.89,79.0,1,82.9,74.7,78.9,10,5,7.932,4.511,1.788,-1.256,-4.801,-7.931,79.8,5,194.9,-7.844,-7.739,0,-8.328,-7.591,-5.153,-5.186,-5.16,-5.073,4.658,8.003,31,-1.868,1.815,4.764,7.8,-8.472,-7.763,-1.823,1.495,90.0,77.2,87.6,90.4,65.9,100.9,89.8,98.4,78.0,76.2,3,norm,1.338,1.63,-1.162,-1.767,-5.278,-5.139,-2.017,-1.463,-1.529,-1.334,1.717,-2.014,77.2,71.4,-5.146,-7.751,83.2,-1.696,8.336,5.296,-4.692,-8.199,18,5.293,4.416,4.85,4.911,1.781,1.721,1.972,1.532,18,4.364,4.346,30,175.488200931,norm,0,64,64,64,1189.998,1190.012,1190.01810306,1190.019,1190.025,1190.028,down,1,0.531411943255,9.46858805674,001,317,1366_768,Intel(R) Core(TM) i5-4200U CPU @ 1.60GHz,orientation_search,GRVLAPTOP8,Intel(R) HD Graphics 4400,2018_nov_08_1351,testMonitor,
74.0,86.8,,76.3,36,0,86.2,94.8,89.1,80.9,7.859,7.594,7.572,8.294,8.445,8.346,7.543,4.356,-4.491,-7.546,1.665,-1.717,8.01,4.605,-5.285,-8.411,78.5,75.2,-8.005,83.7,76.2,72.7,90.0,81.0,36,75.5,3,5,prime,10,0,79,norm,36,-5.142,down,norm,85.8626067362,78.8,70.6,1.7,94.7,2,84.1,75.8,90.8,10,5,8.243,4.991,1.679,-1.981,-5.163,-7.769,87.7,5,164.9,-7.989,-8.215,0,-7.933,-7.976,-4.307,-4.352,-5.087,-4.709,4.601,8.439,20,-1.989,1.415,4.961,8.151,-7.63,-8.337,-1.764,1.242,84.7,74.3,73.3,103.1,78.7,78.3,91.7,93.2,67.8,94.8,4,norm,1.18,1.438,-1.649,-1.81,-4.963,-4.87,-1.903,-1.973,-1.15,-1.814,1.191,-1.726,97.4,78.1,-4.882,-8.132,105.9,-2.028,7.767,4.924,-4.622,-7.955,18,5.248,4.612,4.571,4.308,1.125,1.802,1.384,1.214,18,4.665,4.515,30,175.488200931,norm,0,65,65,65,1190.578,1190.587,1190.60642175,1190.607,1190.609,1190.613,down,1,0.413114187886,9.58688581211,001,317,1366_768,Intel(R) Core(TM) i5-4200U CPU @ 1.60GHz,orientation_search,GRVLAPTOP8,Intel(R) HD Graphics 4400,2018_nov_08_1351,testMonitor,
184.8,182.1,,191.4,36,0,175.4,172.8,182.4,184.6,8.204,7.822,8.381,7.769,8.38,7.515,7.601,4.558,-4.789,-7.638,1.857,-1.472,7.961,4.923,-4.885,-7.662,183.1,183.6,-8.444,183.8,176.1,175.3,179.9,172.5,36,171.4,3,5,probe,5,0,92,norm,36,-4.35,down,norm,181.371973902,191.3,185.6,1.749,179.4,2,185.1,181.5,180.8,10,5,8.305,4.953,1.222,-1.337,-5.245,-7.999,176.0,1,89.4,-7.994,-8.358,0,-8.237,-8.23,-4.78,-4.612,-4.953,-4.968,5.179,8.328,20,-1.963,2.091,4.622,8.325,-7.929,-8.437,-1.436,1.342,175.9,182.9,177.2,177.4,189.8,185.8,177.5,175.2,179.6,180.3,0,norm,1.131,2.089,-1.671,-1.817,-4.388,-5.299,-1.777,-1.564,-1.408,-1.94,1.343,-1.562,182.9,181.9,-4.494,-8.043,181.2,-1.255,8.034,4.898,-5.033,-8.043,19,4.463,4.868,4.782,4.956,1.848,1.164,1.559,1.443,19,5.296,4.655,0,85.8626067362,norm,0,66,66,66,1191.046,1191.06,1191.06559771,1191.066,1191.07,1191.074,down,1,0.417341418604,9.5826585814,001,317,1366_768,Intel(R) Core(TM) i5-4200U CPU @ 1.60GHz,orientation_search,GRVLAPTOP8,Intel(R) HD Graphics 4400,2018_nov_08_1351,testMonitor,
68.1,60.4,48.6,66.2,36,60,54.8,66.5,71.2,49.2,8.12,7.69,8.307,7.726,8.451,7.954,8.003,4.651,-4.498,-7.666,1.619,-1.393,7.642,5.101,-4.829,-8.12,60.7,49.9,-8.346,79.7,62.5,73.6,52.0,77.4,36,54.9,2,5,prime,10,0,101,norm,36,-5.197,up,norm,59.7004893295,53.2,57.6,1.151,55.1,3,70.8,68.4,62.6,10,5,8.156,4.71,2.007,-1.676,-4.431,-8.264,68.0,5,160.7,-8.407,-7.661,60,-8.369,-7.935,-4.875,-4.305,-5.014,-4.75,4.56,7.803,15,-1.372,1.724,4.722,7.61,-8.465,-8.053,-1.329,1.585,47.8,77.4,48.5,70.4,47.9,56.9,49.3,54.8,73.6,39.7,0,norm,1.874,1.648,-1.484,-1.288,-4.884,-4.304,-1.401,-1.632,-1.329,-1.308,1.117,-1.871,71.9,56.8,-4.996,-8.422,,-2.074,8.165,5.294,-4.713,-7.902,20,4.331,4.97,4.544,4.669,1.8,1.631,1.57,1.686,20,4.967,4.434,0,85.8626067362,norm,0,67,67,67,1191.511,1191.523,1191.53769679,1191.538,1191.541,1191.544,down,0,0.644211576626,-10,001,317,1366_768,Intel(R) Core(TM) i5-4200U CPU @ 1.60GHz,orientation_search,GRVLAPTOP8,Intel(R) HD Graphics 4400,2018_nov_08_1351,testMonitor,
79.7,57.8,50.5,62.3,36,60,71.5,43.3,62.5,73.0,8.424,8.403,8.162,8.252,8.392,8.306,8.138,4.848,-5.18,-7.605,1.265,-1.115,7.904,4.648,-4.738,-7.761,50.6,39.7,-8.236,65.2,66.5,57.2,76.5,67.0,36,54.7,1,5,prime,10,0,77,norm,36,-4.318,down,norm,59.7004893295,61.7,70.1,1.373,59.8,1,53.3,60.1,66.5,10,5,7.624,4.891,1.882,-1.758,-5.084,-8.173,54.8,5,136.7,-7.86,-8.169,60,-7.867,-8.339,-4.797,-4.408,-4.408,-4.772,4.773,7.526,7,-1.349,1.227,5.174,7.535,-8.468,-8.202,-1.278,1.13,65.9,64.7,45.7,57.0,65.0,52.7,,50.5,58.3,46.2,1,norm,1.692,1.199,-1.924,-1.752,-4.748,-4.664,-1.616,-1.714,-1.367,-1.902,1.388,-2.012,65.2,58.7,-5.137,-7.864,63.6,-1.476,7.842,4.343,-4.431,-8.068,20,4.861,4.336,5.143,4.633,1.471,2.051,1.874,1.211,20,5.274,5.15,0,85.8626067362,norm,0,68,68,68,1193.22,1193.225,1193.23467579,1193.235,1193.237,1193.24,up,0,0.46423186269,-10,001,317,1366_768,Intel(R) Core(TM) i5-4200U CPU @ 1.60GHz,orientation_search,GRVLAPTOP8,Intel(R) HD Graphics 4400,2018_nov_08_1351,testMonitor,
67.9,66.0,53.1,49.7,36,60,70.1,79.7,49.8,79.7,7.941,7.667,8.151,7.629,7.889,8.058,8.209,4.762,-5.246,-8.125,1.518,-2.029,7.539,4.791,-5.081,-8.062,78.5,48.9,-8.01,56.8,49.4,,63.2,67.6,36,69.2,5,5,prime,10,0,69,norm,36,-5.189,up,norm,59.7004893295,64.8,49.1,1.609,47.9,3,76.1,48.4,51.0,10,5,7.95,5.183,1.132,-1.42,-5.252,-7.876,40.6,5,128.7,-8.492,-7.579,60,-7.973,-7.714,-4.599,-4.304,-5.071,-4.603,4.802,8.036,33,-1.672,2.018,4.552,8.151,-7.982,-8.084,-1.191,1.747,63.5,60.7,56.5,65.9,54.0,60.8,77.1,71.9,39.7,56.9,2,norm,1.273,1.305,-1.892,-1.53,-4.462,-4.935,-1.753,-1.411,-1.152,-1.603,1.969,-1.849,76.8,58.0,-4.986,-7.932,52.6,-1.811,7.575,4.62,-4.994,-7.613,20,4.64,4.625,4.459,4.74,1.961,1.151,1.389,1.252,20,4.682,5.226,0,85.8626067362,norm,0,69,69,69,1194.733,1194.738,1194.74832247,1194.749,1194.751,1194.754,up,1,1.0789425185,8.9210574815,001,317,1366_768,Intel(R) Core(TM) i5-4200U CPU @ 1.60GHz,orientation_search,GRVLAPTOP8,Intel(R) HD Graphics 4400,2018_nov_08_1351,testMonitor,
70.5,55.9,49.8,77.4,36,60,59.5,72.6,73.6,56.5,7.874,8.274,7.945,8.001,8.102,8.303,8.251,4.826,-5.109,-8.483,1.963,-1.786,8.221,5.268,-4.44,-7.734,63.5,57.3,-8.478,75.4,67.7,70.2,44.5,79.7,36,72.1,1,5,prime,10,0,61,norm,36,-4.496,down,norm,59.7004893295,74.4,43.0,2.017,56.6,2,61.7,52.9,57.1,10,5,7.732,5.026,1.822,-1.32,-4.332,-7.566,55.8,5,120.7,-7.667,-7.839,60,-7.945,-8.274,-4.352,-4.877,-4.658,-4.565,4.907,8.213,8,-1.594,1.742,4.734,7.643,-7.97,-7.853,-1.483,1.388,50.3,,66.3,39.7,64.6,44.6,58.0,59.6,55.8,52.7,3,norm,1.655,1.296,-1.743,-1.176,-5.203,-5.145,-1.769,-1.371,-1.761,-1.992,1.707,-1.805,60.5,59.2,-4.686,-8.119,76.4,-1.318,8.225,4.603,-4.661,-8.197,20,4.764,4.827,4.53,5.123,1.983,1.792,1.738,1.31,20,4.896,4.895,0,85.8626067362,norm,0,70,70,70,1195.853,1195.867,1195.87275246,1195.873,1195.877,1195.881,down,1,1.04971692771,8.95028307229,001,317,1366_768,Intel(R) Core(TM) i5-4200U CPU @ 1.60GHz,orientation_search,GRVLAPTOP8,Intel(R) HD Graphics 4400,2018_nov_08_1351,testMonitor,
53.4,52.3,39.7,53.1,36,60,42.7,59.9,47.6,56.0,8.472,8.456,7.924,8.272,8.306,8.201,7.763,4.805,-4.637,-8.107,1.969,-1.781,7.923,4.622,-4.828,-8.389,56.8,65.5,-7.64,61.6,65.2,56.8,65.5,56.6,36,79.7,3,5,prime,10,0,79,norm,36,-5.055,down,norm,59.7004893295,48.7,48.2,1.3,47.7,1,59.2,70.4,64.8,10,5,7.842,5.288,1.624,-1.774,-4.555,-8.4,71.3,5,138.7,-7.763,-7.639,60,-8.027,-7.772,-5.294,-4.806,-4.427,-5.152,4.395,8.183,19,-1.171,2.04,4.507,8.492,-8.438,-7.628,-1.903,1.352,47.6,61.7,74.8,42.6,77.6,68.8,47.2,60.1,57.4,65.4,4,norm,1.441,1.631,-1.944,-1.334,-5.014,-5.275,-1.753,-2.091,-1.119,-1.901,1.463,-1.195,,72.2,-5.266,-7.837,45.6,-1.267,7.863,5.075,-4.691,-7.877,20,4.993,4.747,4.963,4.777,1.89,2.091,1.796,1.819,20,4.762,4.884,0,85.8626067362,norm,0,71,71,71,1196.95,1196.958,1196.97722927,1196.978,1196.982,1196.986,down,1,0.859194795768,9.14080520423,001,317,1366_768,Intel(R) Core(TM) i5-4200U CPU @ 1.60GHz,orientation_search,GRVLAPTOP8,Intel(R) HD Graphics 4400,2018_nov_08_1351,testMonitor,
213.1,211.7,207.7,210.2,36,-10,210.9,208.7,214.0,203.7,7.995,8.497,8.213,8.061,8.317,8.136,7.806,4.836,-4.917,-8.016,1.533,-1.786,7.951,4.41,-5.215,-8.348,205.4,204.2,-8.396,203.5,206.7,214.9,210.1,208.1,36,207.0,3,5,probe,5,0,80,norm,36,-4.864,down,norm,207.406015753,204.2,211.7,1.991,202.0,1,205.1,209.7,212.3,10,5,8.382,5.147,1.27,-1.88,-5.208,-7.914,211.3,1,127.4,-8.321,-8.306,60,-8.357,-7.945,-4.747,-4.791,-5.173,-4.825,4.744,8.462,19,-2.077,1.664,4.47,7.824,-8.257,-8.347,-1.288,1.66,206.1,206.3,201.1,203.8,217.4,202.7,208.8,212.4,205.3,215.7,0,norm,1.705,1.885,-1.403,-1.331,-4.844,-5.122,-1.279,-1.883,-1.851,-1.869,1.916,-1.673,,197.4,-4.67,-7.561,208.8,-1.792,8.454,4.974,-4.67,-8.098,21,4.453,4.561,5.034,4.406,1.86,1.379,1.537,1.226,21,5.196,4.533,60,59.7004893295,norm,0,72,72,72,1197.866,1197.881,1197.88665819,1197.887,1197.89,1197.893,down,1,0.598684841723,9.40131515828,001,317,1366_768,Intel(R) Core(TM) i5-4200U CPU @ 1.60GHz,orientation_search,GRVLAPTOP8,Intel(R) HD Graphics 4400,2018_nov_08_1351,testMonitor,
214.0,,207.7,205.3,36,-60,228.7,240.1,227.6,238.0,8.02,8.498,7.966,7.752,8.418,8.421,8.294,4.954,-4.702,-8.41,1.303,-1.833,8.224,4.592,-5.212,-8.379,224.0,222.4,-7.649,226.2,219.8,233.5,232.2,218.0,36,224.5,3,5,prime,10,0,113,norm,36,-4.932,up,norm,220.076860777,215.1,213.2,1.397,200.1,5,238.8,224.4,220.0,10,5,8.478,5.262,1.328,-1.613,-4.93,-8.004,215.7,5,333.1,-7.841,-8.347,-60,-8.118,-7.649,-4.723,-4.505,-4.533,-4.502,4.474,7.771,23,-1.932,1.492,5.163,8.238,-7.762,-7.546,-1.979,2.023,228.4,213.1,233.3,223.3,219.8,211.4,216.5,231.5,224.4,236.9,0,norm,1.652,1.84,-1.456,-1.124,-5.259,-4.66,-1.759,-1.821,-1.325,-1.919,1.988,-1.621,226.1,216.4,-4.817,-7.587,207.7,-1.682,8.046,5.288,-4.387,-7.86,22,4.67,5.291,4.761,5.159,1.99,1.525,1.445,1.262,22,4.638,5.289,-10,59.7004893295,norm,0,73,73,73,1198.509,1198.52,1198.5248067,1198.525,1198.531,1198.537,up,1,0.671799913162,9.32820008684,001,317,1366_768,Intel(R) Core(TM) i5-4200U CPU @ 1.60GHz,orientation_search,GRVLAPTOP8,Intel(R) HD Graphics 4400,2018_nov_08_1351,testMonitor,
222.1,216.9,221.6,217.7,36,-60,207.4,200.1,217.3,223.7,8.108,7.834,7.916,7.969,7.557,8.26,8.425,4.683,-5.24,-7.649,1.67,-1.574,7.565,5.262,-4.716,-8.191,213.3,222.7,-7.694,240.1,213.4,223.3,218.7,227.7,36,236.6,3,5,prime,10,0,115,norm,36,-4.928,down,norm,220.076860777,204.3,227.2,1.512,215.4,0,234.1,224.5,209.7,10,5,8.461,5.071,2.026,-1.974,-5.19,-8.465,227.1,5,335.1,-7.705,-7.736,-60,-7.81,-8.149,-4.804,-4.655,-4.721,-4.467,5.061,8.083,18,-1.773,1.392,4.6,8.352,-8.319,-8.151,-1.196,1.231,227.0,232.6,231.1,231.7,214.1,226.9,216.1,233.6,223.5,220.9,1,norm,1.987,1.677,-1.717,-1.383,-5.023,-4.771,-1.323,-1.71,-1.847,-1.929,1.209,-1.594,207.7,,-4.737,-8.213,215.5,-1.9,7.773,5.201,-4.427,-7.952,22,4.6,4.495,4.717,4.694,1.665,1.794,1.986,1.984,22,5.223,4.796,-10,59.7004893295,norm,0,74,74,74,1199.228,1199.236,1199.25606228,1199.256,1199.262,1199.269,down,1,0.62235117564,9.37764882436,001,317,1366_768,Intel(R) Core(TM) i5-4200U CPU @ 1.60GHz,orientation_search,GRVLAPTOP8,Intel(R) HD Graphics 4400,2018_nov_08_1351,testMonitor,
234.1,216.9,211.3,216.4,36,-60,240.1,220.1,237.2,227.3,7.894,7.841,7.57,8.185,7.639,7.806,7.839,4.661,-4.603,-8.232,1.422,-1.212,8.397,5.267,-4.55,-7.527,226.0,217.4,-7.686,229.4,220.6,217.1,208.4,212.1,36,212.2,2,5,prime,10,0,72,norm,36,-5.26,down,norm,220.076860777,211.1,216.6,1.16,231.6,1,210.8,,225.7,10,5,8.127,4.5,1.997,-1.303,-5.215,-7.596,215.0,5,292.1,-8.427,-8.315,-60,-7.886,-8.468,-5.096,-5.129,-4.824,-5.104,5.158,7.617,13,-1.321,1.508,4.489,8.495,-7.649,-8.333,-1.394,1.774,210.5,223.0,211.7,229.4,226.3,226.9,219.8,200.1,204.7,211.8,2,norm,1.447,1.723,-1.636,-2.005,-5.174,-4.357,-2.057,-1.757,-1.134,-2.027,1.536,-1.92,221.0,235.6,-4.461,-7.637,235.8,-1.884,7.966,4.307,-4.651,-8.399,22,4.787,4.673,4.382,5.053,2.071,1.551,1.956,1.504,22,5.215,5.183,-10,59.7004893295,norm,0,75,75,75,1199.911,1199.92,1199.93790259,1199.938,1199.942,1199.946,down,1,1.35875458009,8.64124541991,001,317,1366_768,Intel(R) Core(TM) i5-4200U CPU @ 1.60GHz,orientation_search,GRVLAPTOP8,Intel(R) HD Graphics 4400,2018_nov_08_1351,testMonitor,
221.6,216.7,219.7,240.1,36,-60,221.6,214.6,224.6,213.8,8.424,7.864,7.996,8.495,8.028,7.625,7.718,4.611,-4.432,-8.183,1.147,-2.061,8.0,4.529,-4.564,-7.82,230.3,231.4,-8.035,216.8,212.5,236.4,234.7,224.7,36,220.6,2,5,prime,10,0,88,norm,36,-5.085,up,norm,220.076860777,200.1,226.5,1.743,226.7,3,207.0,234.4,223.7,10,5,7.919,5.103,2.035,-1.368,-4.403,-8.181,228.1,5,308.1,-7.753,-8.067,-60,-8.387,-8.13,-4.916,-4.329,-4.367,-4.447,4.349,7.594,15,-1.602,1.398,5.21,8.284,-7.905,-7.712,-1.198,1.107,211.5,219.5,227.4,226.1,213.4,221.3,217.8,217.9,213.1,219.9,3,norm,2.086,1.944,-1.717,-2.019,-5.124,-4.796,-1.242,-1.157,-1.977,-2.011,1.895,-1.323,201.4,229.3,-4.674,-7.722,,-1.247,8.078,4.348,-5.041,-8.118,22,4.511,4.93,4.515,4.831,1.203,1.291,1.948,1.332,22,5.222,4.395,-10,59.7004893295,norm,0,76,76,76,1201.326,1201.335,1201.35163973,1201.352,1201.355,1201.358,up,1,1.12834216963,8.87165783037,001,317,1366_768,Intel(R) Core(TM) i5-4200U CPU @ 1.60GHz,orientation_search,GRVLAPTOP8,Intel(R) HD Graphics 4400,2018_nov_08_1351,testMonitor,
229.0,224.6,219.5,240.1,36,-60,229.2,214.4,231.9,234.5,7.962,7.547,8.395,8.052,8.065,8.123,8.352,4.816,-4.494,-7.694,1.607,-1.153,8.275,5.058,-4.89,-8.268,219.6,223.3,-8.376,226.7,227.4,207.8,220.0,235.2,36,,4,5,prime,10,0,72,norm,36,-4.86,up,norm,220.076860777,200.1,219.1,1.653,221.8,3,224.5,225.0,206.8,10,5,8.041,4.572,1.897,-1.859,-4.952,-8.099,233.0,5,292.1,-8.095,-8.104,-60,-8.228,-7.947,-5.202,-5.05,-5.058,-4.906,4.887,7.888,27,-1.922,1.141,4.505,7.594,-7.657,-7.964,-2.024,1.749,214.2,216.9,215.0,208.0,227.7,205.2,222.5,209.2,217.7,221.4,4,norm,1.187,1.823,-1.188,-1.974,-5.299,-4.419,-1.833,-1.428,-1.578,-1.638,1.91,-1.102,213.1,223.2,-4.998,-7.515,214.9,-1.956,7.858,4.946,-5.208,-7.572,22,5.175,4.377,4.576,5.063,1.621,1.834,1.13,1.247,22,4.951,4.468,-10,59.7004893295,norm,0,77,77,77,1202.505,1202.513,1202.53285419,1202.533,1202.538,1202.543,up,1,1.09055903598,8.90944096402,001,317,1366_768,Intel(R) Core(TM) i5-4200U CPU @ 1.60GHz,orientation_search,GRVLAPTOP8,Intel(R) HD Graphics 4400,2018_nov_08_1351,testMonitor,
239.6,233.9,230.5,237.5,36,20,249.5,238.0,234.2,242.1,7.754,7.65,8.114,8.471,8.104,8.399,8.133,4.52,-4.479,-7.811,1.397,-1.888,7.873,5.172,-4.749,-7.79,245.6,,-8.349,232.4,248.2,236.5,235.3,237.8,36,245.1,5,5,probe,5,0,74,norm,36,-4.769,up,norm,239.451853702,241.1,239.0,1.333,233.4,4,244.0,243.4,247.7,10,5,7.575,4.863,1.77,-1.146,-4.769,-7.621,236.6,2,165.5,-8.469,-7.776,-60,-7.95,-8.356,-4.922,-4.733,-4.702,-4.939,5.109,8.476,34,-1.379,1.933,4.335,8.348,-7.574,-8.116,-1.119,1.265,236.3,245.8,240.1,243.8,238.4,229.5,238.8,239.3,234.6,239.7,0,norm,1.231,1.694,-1.522,-1.25,-4.36,-4.51,-1.698,-1.194,-1.553,-2.01,1.726,-1.451,233.6,233.9,-4.93,-7.659,245.3,-2.093,8.412,4.922,-4.36,-7.827,23,4.308,4.328,4.774,4.78,1.732,1.274,2.065,1.219,23,4.797,4.711,-60,220.076860777,norm,0,78,78,78,1203.654,1203.668,1203.67387136,1203.674,1203.677,1203.681,up,1,1.35040275384,8.64959724616,001,317,1366_768,Intel(R) Core(TM) i5-4200U CPU @ 1.60GHz,orientation_search,GRVLAPTOP8,Intel(R) HD Graphics 4400,2018_nov_08_1351,testMonitor,
282.7,273.8,269.2,281.9,36,20,278.6,284.9,268.5,272.6,8.03,8.489,7.581,7.946,7.601,8.399,7.603,4.485,-4.573,-7.933,2.018,-1.746,8.493,4.48,-5.211,-7.833,279.0,281.4,-8.224,280.4,288.5,280.3,272.3,275.1,36,279.8,1,5,probe,5,0,113,norm,36,-4.51,down,norm,278.451853702,279.3,276.0,1.479,282.2,2,283.1,278.0,281.3,10,5,8.385,5.225,1.707,-1.344,-4.418,-7.857,277.0,2,165.5,-7.793,-8.022,-60,-7.995,-8.231,-5.299,-5.291,-4.878,-4.84,4.69,7.957,8,-1.636,1.954,4.679,7.631,-8.171,-8.124,-1.988,1.873,282.5,,279.5,277.4,278.8,276.3,280.5,272.7,274.4,274.9,1,norm,1.359,1.19,-1.473,-1.909,-5.006,-4.382,-1.735,-1.513,-1.841,-1.376,1.223,-2.082,288.4,281.3,-4.535,-7.712,281.4,-1.592,8.027,5.289,-4.916,-8.26,23,4.351,4.659,5.047,5.162,1.371,2.013,1.723,1.824,23,5.003,4.466,-60,220.076860777,norm,0,79,79,79,1205.052,1205.067,1205.07273889,1205.073,1205.079,1205.082,down,1,0.730286347691,9.26971365231,001,317,1366_768,Intel(R) Core(TM) i5-4200U CPU @ 1.60GHz,orientation_search,GRVLAPTOP8,Intel(R) HD Graphics 4400,2018_nov_08_1351,testMonitor,
65.3,77.6,84.6,81.5,36,-30,91.3,89.3,86.4,83.4,8.387,7.559,8.205,7.63,7.911,7.765,7.691,5.278,-4.8,-7.984,1.94,-1.818,7.967,4.553,-4.721,-7.526,70.6,105.3,-8.284,95.9,73.9,71.5,98.1,83.1,36,73.0,1,5,prime,10,0,104,norm,36,-4.68,down,norm,85.299795525,90.1,100.7,1.571,88.2,1,93.9,91.5,92.4,10,5,8.462,4.458,1.131,-1.936,-4.419,-7.614,83.8,5,189.3,-7.73,-7.583,-30,-7.959,-7.582,-4.605,-5.105,-4.655,-5.087,4.373,7.569,7,-1.627,1.601,5.16,8.48,-7.712,-7.727,-1.699,1.775,81.8,104.8,87.1,72.1,78.5,90.5,,84.5,87.1,76.3,0,norm,1.205,1.567,-1.951,-1.94,-4.606,-5.2,-2.075,-1.738,-1.182,-1.947,1.577,-1.967,89.7,93.2,-4.537,-7.619,78.2,-1.391,8.266,4.7,-5.181,-8.107,24,4.965,5.162,4.334,4.707,1.112,1.531,1.952,1.561,24,4.347,4.331,20,220.076860777,norm,0,80,80,80,1205.833,1205.847,1205.85292245,1205.854,1205.859,1205.862,up,0,1.01540152444,-10,001,317,1366_768,Intel(R) Core(TM) i5-4200U CPU @ 1.60GHz,orientation_search,GRVLAPTOP8,Intel(R) HD Graphics 4400,2018_nov_08_1351,testMonitor,
89.3,72.2,93.9,100.1,36,-30,87.6,72.6,76.1,86.8,7.764,7.758,7.527,7.697,7.688,8.351,8.155,4.834,-5.244,-8.243,1.841,-1.96,8.327,4.954,-5.193,-8.425,82.6,81.5,-7.508,82.5,71.5,84.0,67.6,65.3,36,105.3,0,5,prime,10,0,102,norm,36,-4.972,up,norm,85.299795525,78.9,88.3,1.714,80.7,5,96.9,90.2,75.8,10,5,7.57,4.329,1.803,-2.005,-4.373,-8.124,69.9,5,187.3,-8.067,-7.879,-30,-7.762,-7.511,-4.602,-4.828,-4.32,-4.5,4.314,7.747,5,-1.308,1.674,4.457,8.086,-8.264,-7.571,-1.263,1.967,76.4,89.4,73.3,74.1,83.5,96.2,99.7,97.2,,87.6,1,norm,1.853,1.474,-1.462,-1.404,-4.615,-4.816,-1.427,-1.495,-1.266,-1.39,2.029,-1.246,94.1,103.6,-4.505,-7.752,87.2,-1.725,7.612,4.599,-4.425,-8.003,24,5.05,5.234,4.706,4.844,1.402,1.203,1.719,1.112,24,5.099,5.169,20,220.076860777,norm,0,81,81,81,1207.915,1207.92,1207.9381806,1207.938,1207.941,1207.943,up,1,1.06312197477,8.93687802523,001,317,1366_768,Intel(R) Core(TM) i5-4200U CPU @ 1.60GHz,orientation_search,GRVLAPTOP8,Intel(R) HD Graphics 4400,2018_nov_08_1351,testMonitor,
87.6,81.8,93.1,86.6,36,-30,91.2,87.0,83.8,83.0,8.128,8.328,8.204,7.949,7.562,7.922,8.234,4.4,-4.743,-8.251,1.456,-1.382,7.869,4.45,-5.029,-8.174,80.8,81.7,-8.397,92.8,80.1,69.3,75.1,77.0,36,105.1,1,5,prime,10,0,112,norm,36,-4.335,down,norm,85.299795525,68.7,100.3,1.888,93.7,1,65.3,84.5,99.0,10,5,8.256,4.506,1.538,-1.8,-4.83,-7.645,85.0,5,197.3,-8.092,-8.369,-30,-7.783,-8.201,-5.062,-4.988,-4.324,-4.546,4.707,8.361,7,-1.35,1.137,5.092,7.583,-7.982,-7.572,-1.543,1.881,75.7,105.3,75.1,104.2,68.6,84.8,,87.9,94.2,98.9,2,norm,1.736,1.162,-2.049,-1.541,-4.392,-4.427,-1.463,-1.536,-2.089,-1.358,1.69,-1.888,78.7,83.9,-5.084,-8.373,86.6,-1.893,8.416,4.784,-4.478,-7.692,24,5.276,4.439,4.961,5.086,1.173,1.672,1.769,1.346,24,4.552,4.656,20,220.076860777,norm,0,82,82,82,1209.028,1209.04,1209.04299388,1209.043,1209.046,1209.05,up,0,0.721766288982,-10,001,317,1366_768,Intel(R) Core(TM) i5-4200U CPU @ 1.60GHz,orientation_search,GRVLAPTOP8,Intel(R) HD Graphics 4400,2018_nov_08_1351,testMonitor,
103.6,,67.9,96.1,36,-30,74.2,93.6,68.1,77.1,7.899,8.456,7.616,7.67,7.775,7.759,7.632,4.637,-4.369,-8.333,1.74,-1.114,8.098,4.731,-5.175,-7.925,90.1,92.9,-7.92,99.5,80.9,72.5,105.3,76.8,36,89.8,3,5,prime,10,0,98,norm,36,-4.439,up,norm,85.299795525,76.4,84.1,1.413,84.0,5,84.4,78.6,93.4,10,5,7.57,4.409,1.674,-1.926,-4.635,-8.128,71.8,5,183.3,-7.968,-8.017,-30,-8.024,-8.33,-4.999,-4.968,-5.123,-4.57,4.995,8.312,23,-1.5,1.208,5.043,7.542,-8.174,-7.904,-1.628,1.173,91.1,87.2,70.4,94.2,68.2,79.0,65.3,98.5,82.2,98.9,3,norm,1.463,1.752,-1.123,-1.668,-5.243,-5.292,-1.47,-1.975,-1.195,-1.124,1.443,-2.063,89.6,88.2,-5.011,-7.855,88.4,-1.334,8.414,4.452,-4.952,-7.502,24,5.23,5.062,4.584,5.272,1.109,1.535,1.825,1.566,24,4.523,4.325,20,220.076860777,norm,0,83,83,83,1210.801,1210.805,1210.81623394,1210.816,1210.819,1210.821,up,1,2.01098374928,7.98901625072,001,317,1366_768,Intel(R) Core(TM) i5-4200U CPU @ 1.60GHz,orientation_search,GRVLAPTOP8,Intel(R) HD Graphics 4400,2018_nov_08_1351,testMonitor,
81.9,66.2,82.6,85.6,36,-30,85.0,78.2,76.2,82.3,8.221,7.996,7.591,7.809,7.832,8.274,7.78,4.672,-4.764,-8.382,1.886,-1.405,7.767,4.935,-4.425,-8.338,74.3,96.3,-8.149,83.7,81.0,91.0,102.8,105.3,36,99.5,0,5,prime,10,0,65,norm,36,-4.644,down,norm,85.299795525,96.1,87.0,1.59,99.5,2,84.0,76.3,77.0,10,5,8.03,4.644,1.262,-1.627,-4.805,-8.219,81.6,5,150.3,-7.679,-8.41,-30,-8.274,-7.634,-4.56,-5.008,-4.92,-4.824,4.492,7.846,2,-1.74,1.635,4.851,8.247,-7.89,-8.198,-1.276,1.541,87.4,76.5,95.6,,96.8,85.3,88.6,65.3,86.3,98.4,4,norm,1.379,1.331,-1.923,-1.284,-4.726,-4.907,-1.617,-1.141,-1.47,-1.356,1.598,-1.753,100.1,69.8,-4.984,-7.579,75.4,-1.521,7.627,4.795,-4.49,-7.767,24,5.155,5.211,5.241,4.341,1.607,1.157,1.633,1.831,24,4.696,4.487,20,220.076860777,norm,0,84,84,84,1212.853,1212.867,1212.87234816,1212.873,1212.878,1212.882,down,1,1.76344152718,8.23655847282,001,317,1366_768,Intel(R) Core(TM) i5-4200U CPU @ 1.60GHz,orientation_search,GRVLAPTOP8,Intel(R) HD Graphics 4400,2018_nov_08_1351,testMonitor,
138.6,123.7,128.9,131.9,36,-30,133.2,137.2,132.5,142.9,8.496,7.998,8.065,8.421,8.339,8.455,8.086,4.994,-4.921,-7.587,1.996,-1.293,7.946,4.623,-4.775,-7.515,,134.9,-7.545,129.5,136.4,141.8,132.2,130.8,36,135.0,5,5,probe,5,0,78,norm,36,-4.631,up,norm,132.853225775,127.0,137.3,1.442,132.3,5,122.9,136.6,133.8,10,5,7.515,4.866,1.387,-1.918,-4.765,-7.94,123.0,1,54.9,-8.072,-8.024,-30,-7.832,-8.123,-4.539,-4.92,-4.536,-4.991,4.724,8.001,35,-1.576,1.198,4.855,8.347,-7.666,-8.472,-1.538,1.205,134.1,128.3,132.2,134.4,141.1,138.9,135.6,136.7,133.5,138.1,0,norm,1.348,1.579,-1.609,-1.101,-4.86,-4.92,-1.373,-2.055,-1.165,-1.81,1.3,-1.957,138.9,128.1,-4.661,-8.129,136.3,-1.467,7.692,4.822,-5.204,-7.732,25,5.246,4.637,5.25,4.997,2.035,1.917,1.203,1.769,25,4.455,4.538,-30,85.299795525,norm,0,85,85,85,1214.666,1214.674,1214.69152193,1214.692,1214.694,1214.698,up,1,1.04527282439,8.95472717561,001,317,1366_768,Intel(R) Core(TM) i5-4200U CPU @ 1.60GHz,orientation_search,GRVLAPTOP8,Intel(R) HD Graphics 4400,2018_nov_08_1351,testMonitor,
304.0,302.5,304.7,294.3,36,-30,274.8,306.2,292.0,302.5,7.531,7.985,7.606,7.768,8.294,8.419,8.386,4.407,-4.538,-8.209,1.561,-1.826,7.534,4.795,-5.234,-8.274,304.4,292.5,-7.863,308.6,294.2,280.9,,301.4,36,308.9,5,5,prime,10,0,97,norm,36,-4.452,down,norm,294.805169443,298.4,291.2,2.038,306.1,2,290.5,286.4,308.0,10,6,8.391,4.62,1.589,-1.163,-5.121,-7.989,295.7,6,391.8,-7.684,-7.858,-30,-7.604,-7.573,-4.808,-4.419,-4.457,-4.885,4.943,7.56,32,-1.992,1.273,4.859,8.381,-8.431,-7.82,-1.915,1.241,302.0,301.5,299.2,293.2,277.2,289.9,295.3,296.9,298.0,286.8,0,norm,1.81,1.837,-1.594,-1.325,-4.459,-5.162,-2.028,-1.91,-1.416,-1.992,1.192,-1.158,314.8,291.6,-4.85,-8.078,299.6,-1.842,8.312,4.568,-5.211,-8.155,26,4.797,4.649,4.346,5.133,1.406,1.71,1.191,1.804,26,5.067,4.529,-30,85.299795525,norm,0,86,86,86,1215.763,1215.77,1215.78967686,1215.79,1215.794,1215.799,down,1,0.858708840504,9.1412911595,001,317,1366_768,Intel(R) Core(TM) i5-4200U CPU @ 1.60GHz,orientation_search,GRVLAPTOP8,Intel(R) HD Graphics 4400,2018_nov_08_1351,testMonitor,
293.9,289.3,304.3,278.2,36,-30,291.0,313.4,302.6,296.3,8.195,8.383,8.269,8.103,8.117,7.506,8.108,4.601,-4.413,-7.665,1.964,-1.769,7.695,5.112,-5.249,-8.265,309.3,306.2,-8.086,295.5,307.1,308.7,307.8,294.8,36,295.7,2,5,prime,10,0,92,norm,36,-4.682,up,norm,294.805169443,288.7,,1.469,287.6,4,308.8,292.9,294.5,10,6,8.211,4.662,1.543,-1.509,-4.504,-7.507,300.8,6,386.8,-7.857,-7.878,-30,-8.024,-8.268,-4.711,-4.946,-4.801,-4.905,5.034,8.325,16,-1.87,2.046,5.246,7.651,-8.472,-8.069,-1.628,1.341,309.7,289.4,289.2,274.8,278.2,297.0,294.1,301.4,280.0,312.4,1,norm,1.978,2.041,-1.237,-2.059,-5.102,-4.774,-2.092,-1.435,-1.561,-1.445,1.117,-1.401,280.2,308.1,-4.732,-7.631,313.3,-1.941,8.085,5.12,-5.207,-8.129,26,5.052,5.273,5.252,4.716,1.773,1.877,1.446,1.173,26,4.847,4.52,-30,85.299795525,norm,0,87,87,87,1216.677,1216.687,1216.70438658,1216.705,1216.708,1216.712,up,1,0.593299172182,9.40670082782,001,317,1366_768,Intel(R) Core(TM) i5-4200U CPU @ 1.60GHz,orientation_search,GRVLAPTOP8,Intel(R) HD Graphics 4400,2018_nov_08_1351,testMonitor,
288.9,298.1,288.7,288.4,36,-30,303.0,304.2,,290.9,7.508,8.47,7.718,7.759,8.004,7.721,7.937,4.798,-4.791,-7.634,1.284,-2.083,8.469,4.902,-4.405,-8.193,287.1,297.3,-8.1,280.9,283.7,295.7,301.0,292.5,36,302.7,4,5,prime,10,0,109,norm,36,-5.193,up,norm,294.805169443,305.6,284.0,1.306,298.5,4,305.9,274.8,291.2,10,6,8.219,4.764,1.204,-1.272,-5.136,-7.634,300.0,6,403.8,-8.487,-8.267,-30,-8.151,-8.291,-4.577,-4.537,-5.055,-4.853,4.363,7.929,28,-1.306,2.001,4.43,8.481,-7.684,-7.88,-1.966,2.078,291.7,303.5,277.4,296.9,298.0,295.9,297.2,296.3,314.8,294.0,2,norm,1.916,1.125,-1.525,-2.014,-4.98,-4.7,-2.013,-1.172,-1.356,-1.473,1.375,-1.677,282.8,284.8,-4.645,-7.557,277.2,-1.751,7.699,4.311,-4.584,-8.299,26,4.581,4.653,5.008,5.188,1.777,1.685,1.62,1.391,26,4.313,4.347,-30,85.299795525,norm,0,88,88,88,1217.322,1217.33,1217.3369812,1217.337,1217.342,1217.346,up,1,1.65683481135,8.34316518865,001,317,1366_768,Intel(R) Core(TM) i5-4200U CPU @ 1.60GHz,orientation_search,GRVLAPTOP8,Intel(R) HD Graphics 4400,2018_nov_08_1351,testMonitor,
312.1,287.7,286.6,,36,-30,305.9,293.4,314.8,284.7,7.845,7.608,7.515,7.937,7.912,7.851,8.018,5.289,-4.963,-8.264,1.643,-1.234,8.139,4.866,-4.546,-8.122,298.5,304.8,-8.336,292.6,287.5,312.2,293.3,290.9,36,287.5,3,5,prime,10,0,96,norm,36,-5.022,up,norm,294.805169443,291.1,300.7,1.389,313.4,3,303.7,293.3,305.1,10,6,8.497,4.653,1.347,-1.829,-4.772,-8.388,289.1,6,390.8,-8.107,-8.254,-30,-8.399,-7.631,-4.448,-5.086,-4.415,-5.267,4.537,7.923,21,-1.494,1.31,5.177,8.491,-7.67,-8.44,-1.481,2.032,286.5,296.1,303.4,302.3,292.4,288.6,307.2,296.0,274.8,283.6,3,norm,1.383,1.129,-1.656,-1.518,-4.819,-4.775,-1.472,-1.889,-1.146,-1.943,1.287,-1.571,295.5,288.9,-4.384,-7.823,286.8,-1.306,7.563,5.078,-4.641,-7.952,26,5.247,5.046,4.738,5.025,2.054,1.42,1.751,1.495,26,4.401,5.17,-30,85.299795525,norm,0,89,89,89,1219.023,1219.03,1219.04979859,1219.05,1219.054,1219.058,up,1,1.19253869012,8.80746130988,001,317,1366_768,Intel(R) Core(TM) i5-4200U CPU @ 1.60GHz,orientation_search,GRVLAPTOP8,Intel(R) HD Graphics 4400,2018_nov_08_1351,testMonitor,
281.9,280.4,289.3,300.1,36,-30,308.5,300.6,295.9,290.2,7.747,8.203,8.057,7.721,8.059,7.792,8.253,5.06,-4.578,-8.14,1.645,-1.402,8.121,4.417,-5.284,-7.998,301.7,308.0,-8.219,285.8,300.4,297.6,297.3,295.5,36,308.2,2,5,prime,10,0,97,norm,36,-5.079,down,norm,294.805169443,285.0,304.0,1.645,314.8,1,294.2,,292.3,10,6,7.681,4.554,1.301,-1.242,-5.007,-8.276,296.8,6,391.8,-8.246,-8.24,-30,-7.84,-8.25,-5.287,-5.102,-4.38,-4.871,4.329,8.161,13,-1.762,1.582,4.99,8.272,-7.531,-7.971,-1.197,1.858,309.8,310.1,288.6,300.6,297.3,292.2,274.8,286.2,283.8,305.5,4,norm,1.248,2.027,-1.411,-1.695,-4.613,-4.813,-1.566,-1.326,-1.414,-2.018,1.326,-1.69,304.9,311.5,-5.078,-7.89,297.3,-1.519,8.137,4.488,-5.275,-7.658,26,4.323,5.011,4.89,4.575,1.155,1.536,1.697,1.665,26,4.486,4.383,-30,85.299795525,norm,0,90,90,90,1220.271,1220.285,1220.28921746,1220.289,1220.292,1220.296,down,1,0.736328882391,9.26367111761,001,317,1366_768,Intel(R) Core(TM) i5-4200U CPU @ 1.60GHz,orientation_search,GRVLAPTOP8,Intel(R) HD Graphics 4400,2018_nov_08_1351,testMonitor,
285.8,293.0,299.2,293.7,36,-30,299.5,304.0,301.2,291.6,8.133,7.973,8.272,7.564,7.613,8.107,7.617,4.901,-5.194,-7.987,1.529,-1.727,7.51,4.631,-4.975,-7.766,300.7,301.8,-8.205,311.3,283.0,296.1,293.1,298.7,36,301.1,0,5,prime,10,0,87,norm,36,-4.977,down,norm,294.805169443,289.6,274.8,1.587,293.2,1,283.3,289.2,306.1,10,6,8.179,5.267,1.244,-2.062,-5.165,-7.718,299.6,6,381.8,-7.522,-7.538,-30,-8.487,-8.25,-5.069,-4.994,-5.134,-4.459,4.727,8.287,1,-1.354,1.232,4.825,7.65,-7.51,-8.301,-1.145,1.898,294.0,301.5,290.9,290.9,,300.8,289.8,307.6,295.8,298.5,5,norm,1.244,1.757,-1.199,-1.145,-4.584,-5.218,-1.691,-2.056,-1.989,-1.881,1.583,-1.287,300.5,314.8,-4.693,-7.972,298.1,-1.369,8.358,5.265,-4.875,-7.699,26,4.709,4.303,5.062,5.015,1.3,1.65,1.19,1.722,26,4.369,4.488,-30,85.299795525,norm,0,91,91,91,1221.052,1221.067,1221.06974641,1221.07,1221.073,1221.076,up,0,1.53650800309,-10,001,317,1366_768,Intel(R) Core(TM) i5-4200U CPU @ 1.60GHz,orientation_search,GRVLAPTOP8,Intel(R) HD Graphics 4400,2018_nov_08_1351,testMonitor,
351.7,355.2,350.8,348.7,36,-30,352.9,343.6,349.9,350.2,7.941,8.228,7.874,7.936,8.137,7.804,8.288,4.308,-5.251,-8.392,1.161,-1.459,7.749,4.789,-5.245,-7.755,345.5,345.9,-7.697,356.5,358.3,359.3,348.9,349.2,36,347.7,2,5,probe,5,0,89,norm,36,-4.757,down,norm,351.362345747,351.4,349.1,1.681,,2,355.4,348.4,351.5,10,6,8.24,4.307,1.311,-1.299,-4.873,-8.234,353.7,2,262.4,-8.184,-8.147,-30,-7.614,-8.451,-4.545,-5.164,-4.336,-4.891,4.503,8.354,14,-1.909,1.69,4.508,7.715,-7.727,-8.442,-1.429,1.574,348.1,351.0,361.4,345.2,349.8,357.1,344.9,345.4,353.7,341.4,0,norm,1.608,1.507,-1.62,-1.655,-4.905,-5.006,-1.743,-1.378,-1.284,-1.358,1.884,-1.11,359.0,343.6,-4.782,-8.183,361.1,-1.395,8.334,4.981,-4.996,-7.588,27,4.6,4.485,4.951,4.636,1.597,1.503,1.519,1.857,27,4.921,5.03,-30,294.805169443,norm,0,92,92,92,1223.655,1223.66,1223.67344832,1223.674,1223.676,1223.679,down,1,1.36221517064,8.63778482936,001,317,1366_768,Intel(R) Core(TM) i5-4200U CPU @ 1.60GHz,orientation_search,GRVLAPTOP8,Intel(R) HD Graphics 4400,2018_nov_08_1351,testMonitor,
369.9,370.9,367.2,370.9,36,-30,370.4,363.5,368.8,374.7,8.282,7.645,7.633,7.577,8.431,8.41,8.018,4.535,-4.521,-7.547,1.833,-1.795,8.489,4.741,-5.246,-8.334,370.1,,-7.96,368.7,369.8,371.6,368.7,381.4,36,375.6,5,5,probe,5,0,109,norm,36,-4.713,up,norm,371.362345747,366.3,374.6,1.924,377.9,4,362.1,374.0,371.8,10,6,7.721,5.183,1.122,-1.85,-4.878,-8.299,373.3,2,262.4,-8.362,-8.335,-30,-8.387,-7.837,-4.311,-5.047,-5.25,-4.662,4.673,7.709,34,-1.198,1.184,5.258,8.468,-7.828,-8.391,-1.439,1.308,368.2,372.4,364.7,374.5,366.1,361.4,370.3,369.0,369.8,366.1,1,norm,1.454,1.779,-1.814,-1.63,-4.579,-4.751,-1.721,-1.254,-1.56,-1.786,1.618,-1.824,378.5,374.0,-4.992,-7.979,377.4,-1.765,8.337,4.672,-4.616,-7.702,27,4.953,4.856,4.724,4.786,1.782,1.975,1.383,1.766,27,4.551,4.321,-30,294.805169443,norm,0,93,93,93,1225.061,1225.069,1225.08784054,1225.088,1225.092,1225.097,up,1,0.742492348101,9.2575076519,001,317,1366_768,Intel(R) Core(TM) i5-4200U CPU @ 1.60GHz,orientation_search,GRVLAPTOP8,Intel(R) HD Graphics 4400,2018_nov_08_1351,testMonitor,
233.2,222.1,244.5,244.1,36,20,233.5,241.6,,233.5,7.856,8.415,8.296,7.921,8.013,8.328,8.305,4.599,-4.762,-8.301,1.396,-1.549,8.362,5.048,-4.414,-8.291,241.2,218.9,-7.819,221.1,234.8,242.6,240.8,247.2,36,232.1,4,5,prime,10,0,87,norm,36,-4.73,up,norm,235.845482501,215.8,248.4,1.601,239.7,4,220.2,255.8,222.7,10,5,7.963,4.964,2.07,-1.543,-5.157,-8.049,219.1,5,322.8,-8.486,-7.642,20,-8.068,-8.459,-4.553,-5.068,-5.259,-5.096,5.057,7.686,28,-1.3,1.935,5.202,8.304,-8.201,-8.484,-1.773,1.514,246.0,240.0,233.2,238.8,238.2,244.9,244.3,236.3,230.3,216.0,0,norm,1.44,1.102,-1.165,-1.542,-4.54,-5.008,-1.167,-1.876,-2.001,-1.521,1.526,-1.815,233.3,225.2,-4.55,-8.334,229.9,-1.179,7.759,4.737,-4.534,-7.837,28,4.322,4.729,4.862,4.513,1.216,1.611,1.624,1.438,28,5.286,5.229,-30,294.805169443,norm,0,94,94,94,1225.86,1225.873,1225.87579135,1225.876,1225.879,1225.882,up,1,0.921871869348,9.07812813065,001,317,1366_768,Intel(R) Core(TM) i5-4200U CPU @ 1.60GHz,orientation_search,GRVLAPTOP8,Intel(R) HD Graphics 4400,2018_nov_08_1351,testMonitor,
252.4,231.3,231.5,233.9,36,20,240.7,223.1,226.2,238.8,7.577,8.306,8.422,7.906,8.167,8.278,7.773,4.998,-4.751,-8.182,1.666,-1.559,8.429,5.115,-4.586,-7.981,218.2,255.8,-8.364,232.9,246.4,237.0,235.0,,36,232.4,4,5,prime,10,0,81,norm,36,-4.403,down,norm,235.845482501,218.1,242.2,1.291,215.8,2,247.9,239.6,255.2,10,5,8.309,5.091,1.751,-1.28,-5.051,-7.523,225.3,5,316.8,-8.481,-7.915,20,-8.253,-8.383,-4.789,-5.296,-4.627,-5.217,5.113,7.966,26,-1.289,1.595,4.949,7.566,-7.648,-8.471,-1.302,1.37,234.1,231.0,228.3,225.7,247.3,236.3,242.1,242.0,234.9,242.1,1,norm,1.801,1.193,-1.734,-1.147,-4.831,-4.538,-2.093,-1.317,-1.203,-1.875,1.494,-1.487,244.0,225.1,-4.79,-8.036,232.2,-1.366,7.984,5.252,-5.294,-8.417,28,4.383,4.461,5.282,4.728,1.994,1.762,1.129,1.579,28,4.862,4.87,-30,294.805169443,norm,0,95,95,95,1226.824,1226.832,1226.85098666,1226.851,1226.855,1226.86,down,1,0.792482820878,9.20751717912,001,317,1366_768,Intel(R) Core(TM) i5-4200U CPU @ 1.60GHz,orientation_search,GRVLAPTOP8,Intel(R) HD Graphics 4400,2018_nov_08_1351,testMonitor,
