d_ori_22,d_ori_23,d_ori_20,d_ori_21,set_size,ctpd,d_ori_24,d_ori_25,d_ori_28,d_ori_29,stim_pos_x_30,stim_pos_x_31,stim_pos_x_32,stim_pos_x_33,stim_pos_x_34,stim_pos_x_35,stim_pos_y_11,stim_pos_y_10,stim_pos_y_13,stim_pos_y_12,stim_pos_y_15,stim_pos_y_14,stim_pos_y_17,stim_pos_y_16,stim_pos_y_19,stim_pos_y_18,d_ori_35,d_ori_34,stim_pos_x_3,d_ori_31,d_ori_30,d_ori_33,d_ori_32,d_ori_26,test_set_size,d_ori_27,targetCol,dsd_test,seq_type,dsd,blockRepN,targetDist,dtype_test,prime_set_size,stim_pos_y_25,correctResponse,dtype,distrMean,d_ori_17,d_ori_16,d_ori_15,d_ori_14,targetRow,d_ori_11,d_ori_13,d_ori_12,dsd_prime,streak_length_prime,stim_pos_y_35,stim_pos_y_34,stim_pos_y_33,stim_pos_y_32,stim_pos_y_31,stim_pos_y_30,d_ori_10,nextProbe,targetOri,stim_pos_x_1,stim_pos_x_2,ctpd_prime,stim_pos_x_4,stim_pos_x_5,stim_pos_x_6,stim_pos_x_7,stim_pos_x_8,stim_pos_x_9,stim_pos_y_28,stim_pos_y_29,targetPos,stim_pos_y_20,stim_pos_y_21,stim_pos_y_22,stim_pos_y_23,stim_pos_y_24,stim_pos_x_0,stim_pos_y_26,stim_pos_y_27,d_ori_9,d_ori_8,d_ori_3,d_ori_2,d_ori_1,d_ori_0,d_ori_7,d_ori_6,d_ori_5,d_ori_4,trialN,dtype_prime,stim_pos_x_18,stim_pos_x_19,stim_pos_x_12,stim_pos_x_13,stim_pos_x_10,stim_pos_x_11,stim_pos_x_16,stim_pos_x_17,stim_pos_x_14,stim_pos_x_15,stim_pos_y_9,stim_pos_y_8,d_ori_19,d_ori_18,stim_pos_y_1,stim_pos_y_0,stim_pos_y_3,stim_pos_y_2,stim_pos_y_5,stim_pos_y_4,stim_pos_y_7,stim_pos_y_6,totBlockN,stim_pos_x_27,stim_pos_x_26,stim_pos_x_25,stim_pos_x_24,stim_pos_x_23,stim_pos_x_22,stim_pos_x_21,stim_pos_x_20,blockN,stim_pos_x_29,stim_pos_x_28,prevDistrCTPD,prevDistrMean,prevDistrType,trials.thisRepN,trials.thisTrialN,trials.thisN,trials.thisIndex,timeStart,timeBeforeDraw,timeDraw,timeAfterSaving,timeAfterWritingToTemp,timeAfterPreparingNext,answer,correct,rt,trialScore,session,participant,resolution,cpu_info,expName,pc_name,graphic_card,date,monitorName,
153.7,131.2,131.5,135.8,36,-30,137.1,140.0,140.3,136.0,7.51,7.875,8.143,7.774,8.139,7.907,8.138,4.324,-4.765,-8.134,2.066,-1.333,8.068,4.809,-5.055,-7.842,156.3,124.0,-8.262,140.2,146.8,143.4,143.9,,36,138.9,4,5,prime,10,0,82,norm,36,-4.834,down,norm,136.309827115,139.1,134.5,144.8,130.8,2,130.9,133.1,134.0,10,6,8.005,4.996,1.745,-1.316,-5.171,-7.915,135.0,6,218.3,-8.046,-8.374,-30,-8.006,-8.032,-4.308,-4.677,-4.528,-4.549,5.198,7.916,26,-1.42,1.721,5.228,8.109,-8.119,-8.237,-1.677,1.26,146.3,136.3,140.3,145.5,125.4,131.0,129.4,140.1,130.6,154.7,0,norm,1.688,1.62,-1.572,-1.774,-5.094,-4.363,-2.086,-1.936,-2.063,-1.464,1.682,-1.788,116.3,138.5,-4.602,-7.878,1.127,-1.971,8.33,5.041,-5.044,-7.547,0,4.656,4.84,4.675,4.494,1.598,1.357,2.099,1.517,0,4.936,4.651,,,,0,0,0,0,219.549,219.586,219.605870609,219.606,219.606,219.609,down,1,0.868485996587,9.13151400341,001,327,1920_1200,Intel(R) Core(TM) i5-3570 CPU @ 3.40GHz,orientation_search,LEPPC096,Intel(R) HD Graphics 2500,2019_Jan_18_1727,testMonitor,
140.5,143.1,153.0,144.2,36,-30,135.8,132.7,127.6,156.3,7.706,7.511,8.425,7.97,7.773,8.369,8.333,4.359,-5.067,-8.045,1.282,-1.564,8.285,4.819,-5.171,-7.714,144.3,126.7,-8.248,133.9,141.5,134.2,139.0,121.1,36,139.3,1,5,prime,10,0,111,norm,36,-4.415,up,norm,136.309827115,134.3,135.4,140.9,129.1,3,132.2,124.8,152.8,10,6,8.286,5.234,1.686,-1.147,-4.525,-7.886,134.4,6,247.3,-7.519,-7.575,-30,-8.437,-8.262,-5.198,-5.252,-5.158,-4.503,4.94,8.021,9,-1.112,2.056,4.486,8.17,-7.948,-8.324,-1.539,1.127,,140.3,124.9,116.3,138.9,148.9,139.5,126.3,122.4,125.4,1,norm,1.55,1.811,-2.004,-1.915,-4.498,-4.636,-1.34,-1.748,-1.438,-1.924,1.733,-1.157,123.2,136.7,-4.816,-8.292,1.842,-1.722,8.308,4.445,-4.3,-7.776,0,4.324,4.48,5.113,4.359,1.557,1.683,1.381,1.428,0,4.373,4.937,,,,0,1,1,1,220.511,220.524,220.544333225,220.545,220.546,220.549,up,1,1.17213455688,8.82786544312,001,327,1920_1200,Intel(R) Core(TM) i5-3570 CPU @ 3.40GHz,orientation_search,LEPPC096,Intel(R) HD Graphics 2500,2019_Jan_18_1727,testMonitor,
131.9,156.3,137.9,140.0,36,-30,125.3,116.3,135.6,146.8,7.713,8.274,8.161,7.503,8.044,8.189,7.802,4.32,-4.697,-7.741,2.01,-1.771,7.56,5.192,-5.263,-8.057,140.8,144.9,-8.152,146.8,138.1,144.7,149.0,129.0,36,142.6,2,5,prime,10,0,77,norm,36,-4.961,up,norm,136.309827115,141.5,,142.4,125.4,4,124.2,135.0,139.0,10,6,7.693,5.262,1.793,-1.331,-4.885,-7.691,144.8,6,213.3,-7.759,-8.339,-30,-7.577,-8.073,-5.123,-4.449,-5.219,-4.524,4.802,8.484,16,-1.315,1.286,4.726,7.681,-8.055,-8.465,-1.489,1.617,139.3,139.2,147.1,145.8,146.1,125.8,140.9,142.4,127.5,135.4,2,norm,1.883,1.338,-1.715,-2.055,-4.788,-4.32,-1.869,-1.223,-1.133,-1.793,1.447,-1.705,117.1,130.9,-4.807,-8.128,1.349,-1.324,7.805,4.568,-4.482,-7.855,0,4.612,4.821,4.692,5.004,1.648,1.482,1.312,2.091,0,4.861,5.12,,,,0,2,2,2,221.753,221.763,221.771159362,221.771,221.773,221.776,up,1,0.738462796915,9.26153720309,001,327,1920_1200,Intel(R) Core(TM) i5-3570 CPU @ 3.40GHz,orientation_search,LEPPC096,Intel(R) HD Graphics 2500,2019_Jan_18_1727,testMonitor,
121.7,125.5,140.0,127.4,36,-30,144.8,127.3,121.1,140.4,8.042,8.435,8.484,7.911,8.387,7.914,7.949,4.704,-5.294,-7.855,2.008,-1.604,8.258,4.634,-4.737,-7.785,145.5,,-7.805,137.2,135.1,116.3,129.0,127.5,36,156.3,5,5,prime,10,0,105,norm,36,-4.805,up,norm,136.309827115,139.8,128.2,126.3,128.3,4,145.7,146.3,125.9,10,6,8.341,5.091,1.49,-1.747,-4.938,-8.288,141.4,6,241.3,-8.117,-8.237,-30,-7.689,-8.108,-4.442,-4.553,-4.952,-4.334,4.739,7.799,34,-1.172,1.139,4.331,7.888,-7.871,-8.373,-1.989,1.563,127.2,154.4,148.6,131.5,136.6,121.0,151.1,149.1,150.2,131.0,3,norm,1.479,1.26,-1.131,-1.974,-4.309,-4.951,-1.142,-1.176,-1.393,-1.297,1.573,-1.43,132.8,145.5,-4.938,-8.417,1.577,-1.683,8.228,5.133,-4.87,-7.665,0,4.578,5.142,4.851,4.586,1.424,1.361,1.961,1.378,0,4.988,5.125,,,,0,3,3,3,222.552,222.562,222.569268797,222.569,222.571,222.574,up,1,0.73717785026,9.26282214974,001,327,1920_1200,Intel(R) Core(TM) i5-3570 CPU @ 3.40GHz,orientation_search,LEPPC096,Intel(R) HD Graphics 2500,2019_Jan_18_1727,testMonitor,
116.3,122.8,140.0,130.2,36,-30,,124.6,135.0,128.0,7.61,7.801,7.543,7.626,8.253,7.785,7.722,4.55,-5.049,-8.347,1.891,-1.649,7.845,4.759,-5.275,-8.497,120.9,135.6,-8.376,129.6,135.9,123.2,124.3,138.4,36,117.7,4,5,prime,10,0,98,norm,36,-5.048,down,norm,136.309827115,151.6,153.7,132.2,156.3,0,147.4,133.5,121.6,10,6,7.552,4.509,1.775,-1.264,-5.02,-7.584,133.0,6,234.3,-8.084,-7.513,-30,-8.004,-8.068,-5.08,-4.846,-4.92,-5.074,4.841,8.172,24,-1.807,1.177,4.706,8.388,-8.249,-8.001,-1.347,1.79,133.3,126.0,152.6,127.9,116.9,138.8,138.4,132.1,134.0,144.8,4,norm,1.321,1.581,-2.085,-1.899,-4.683,-4.51,-1.582,-1.281,-1.428,-1.108,1.217,-2.096,131.9,150.8,-5.05,-8.213,1.653,-1.774,7.993,5.062,-5.201,-8.493,0,4.406,5.19,4.723,4.891,1.762,1.908,2.064,2.052,0,5.011,4.854,,,,0,4,4,4,223.344,223.354,223.362407176,223.363,223.364,223.367,down,1,0.740792724853,9.25920727515,001,327,1920_1200,Intel(R) Core(TM) i5-3570 CPU @ 3.40GHz,orientation_search,LEPPC096,Intel(R) HD Graphics 2500,2019_Jan_18_1727,testMonitor,
131.4,134.2,135.0,138.1,36,-30,136.8,152.1,132.2,138.4,8.06,8.075,8.13,7.675,8.398,7.937,8.396,5.288,-4.858,-7.986,1.359,-2.03,8.071,5.157,-4.819,-7.512,127.6,128.8,-8.422,141.9,116.3,156.3,131.4,143.9,36,119.8,2,5,prime,10,0,97,norm,36,-4.864,down,norm,136.309827115,128.5,127.3,134.2,135.4,1,139.7,,131.1,10,6,7.562,5.017,1.796,-1.728,-4.381,-8.257,140.0,6,233.3,-7.723,-8.004,-30,-7.773,-8.006,-4.975,-4.716,-5.293,-4.48,4.779,8.232,13,-1.566,1.821,4.46,7.525,-8.359,-7.557,-1.632,1.332,145.1,143.8,136.8,125.3,149.0,146.1,133.2,130.3,145.1,130.0,5,norm,2.07,1.895,-1.843,-1.209,-5.146,-5.231,-1.381,-1.367,-1.499,-1.529,1.384,-2.039,145.2,144.8,-5.126,-8.272,1.591,-1.851,8.286,4.645,-4.722,-8.015,0,5.283,4.983,4.527,4.499,1.405,1.811,1.473,1.488,0,4.433,5.168,,,,0,5,5,5,224.144,224.165,224.176300597,224.177,224.181,224.186,down,1,0.607169139064,9.39283086094,001,327,1920_1200,Intel(R) Core(TM) i5-3570 CPU @ 3.40GHz,orientation_search,LEPPC096,Intel(R) HD Graphics 2500,2019_Jan_18_1727,testMonitor,
201.7,212.4,205.1,204.6,36,-80,202.2,204.5,211.3,206.8,7.958,8.397,8.415,7.987,7.586,7.891,7.805,4.904,-5.028,-7.912,1.859,-1.828,8.446,4.398,-4.417,-7.635,203.7,199.2,-7.618,204.6,196.1,203.1,216.0,207.1,36,201.2,1,5,probe,5,0,104,norm,36,-4.795,up,norm,206.080016165,211.4,213.2,199.0,197.8,3,201.9,197.0,199.0,10,6,8.034,4.821,1.239,-1.108,-5.29,-8.043,201.2,1,102.1,-8.226,-8.427,-30,-7.898,-8.107,-4.932,-4.632,-5.112,-4.706,5.127,8.296,9,-1.426,1.579,4.425,8.101,-8.082,-7.891,-1.69,1.318,,206.4,207.2,203.1,204.1,214.0,205.4,203.9,199.1,211.2,0,norm,1.363,2.076,-1.13,-1.404,-4.794,-5.238,-1.795,-2.021,-1.821,-1.423,2.011,-1.241,203.4,216.1,-4.54,-7.885,1.64,-1.803,7.876,5.269,-4.552,-8.227,1,4.824,4.476,4.637,4.478,1.668,1.188,1.306,1.781,1,4.725,4.978,-30,136.309827115,norm,0,6,6,6,224.829,224.838,224.846696537,224.847,224.849,224.851,up,1,0.718830611009,9.28116938899,001,327,1920_1200,Intel(R) Core(TM) i5-3570 CPU @ 3.40GHz,orientation_search,LEPPC096,Intel(R) HD Graphics 2500,2019_Jan_18_1727,testMonitor,
98.9,82.2,87.2,88.4,36,-80,97.5,89.9,84.0,91.4,7.953,8.467,8.44,8.452,8.366,7.972,8.168,4.849,-5.093,-8.224,1.139,-1.171,8.308,4.513,-5.169,-8.426,93.2,113.5,-8.265,94.0,73.5,98.0,87.4,110.5,36,109.9,1,5,prime,10,0,94,norm,36,-4.898,down,norm,93.4564537897,90.7,92.7,95.1,90.5,0,109.4,75.1,88.0,10,6,8.411,4.457,1.384,-1.899,-5.127,-8.291,98.4,6,187.5,-7.726,-7.592,-80,-7.881,-8.161,-4.548,-5.06,-4.382,-4.721,5.261,7.51,6,-1.974,1.975,4.924,8.305,-7.875,-8.415,-1.558,1.349,80.9,91.7,109.9,100.2,105.8,86.9,87.5,,102.2,101.7,0,norm,1.991,1.734,-1.61,-1.32,-4.405,-5.054,-1.528,-1.293,-1.226,-1.531,1.33,-1.432,90.0,112.6,-4.648,-8.258,1.617,-1.639,8.201,4.962,-4.417,-8.228,2,4.637,4.74,4.679,4.421,1.324,1.502,1.704,2.005,2,5.175,5.293,-80,136.309827115,norm,0,7,7,7,225.609,225.618,225.627772657,225.628,225.63,225.632,down,1,1.32886122395,8.67113877605,001,327,1920_1200,Intel(R) Core(TM) i5-3570 CPU @ 3.40GHz,orientation_search,LEPPC096,Intel(R) HD Graphics 2500,2019_Jan_18_1727,testMonitor,
99.2,90.7,93.5,105.9,36,-80,89.6,77.0,85.9,100.7,8.194,8.219,8.324,8.445,7.965,7.841,8.215,4.807,-4.96,-7.624,2.078,-1.711,7.668,4.569,-4.959,-7.836,104.2,112.3,-8.204,87.1,101.0,89.4,100.2,89.6,36,99.9,3,5,prime,10,0,65,norm,36,-4.674,down,norm,93.4564537897,99.0,111.8,112.0,95.8,0,93.3,78.1,91.9,10,6,8.022,4.713,1.626,-1.215,-4.37,-8.184,113.5,6,158.5,-8.08,-7.654,-80,-8.437,-8.171,-4.446,-5.063,-4.614,-5.201,4.302,8.303,18,-1.391,1.282,4.776,7.86,-7.653,-7.575,-1.101,1.997,99.8,91.0,73.5,84.7,91.8,100.1,86.5,95.4,86.2,94.8,1,norm,1.827,2.006,-1.719,-1.47,-4.542,-4.631,-2.074,-1.584,-1.613,-1.766,2.006,-1.746,110.2,,-4.501,-7.676,1.895,-1.826,8.417,4.397,-4.818,-8.236,2,5.218,4.959,4.934,5.073,1.204,1.55,1.282,1.316,2,4.955,5.137,-80,136.309827115,norm,0,8,8,8,226.998,227.007,227.013847058,227.014,227.016,227.018,down,1,3.05980088005,6.94019911995,001,327,1920_1200,Intel(R) Core(TM) i5-3570 CPU @ 3.40GHz,orientation_search,LEPPC096,Intel(R) HD Graphics 2500,2019_Jan_18_1727,testMonitor,
79.8,85.2,86.2,89.1,36,-80,76.5,78.8,87.4,80.0,7.838,7.55,7.902,8.0,8.282,7.658,7.673,4.87,-4.332,-7.626,1.884,-1.479,8.409,5.078,-5.229,-7.739,97.4,85.4,-8.287,92.3,100.5,92.9,87.4,101.5,36,85.7,1,5,prime,10,0,64,norm,36,-4.801,up,norm,93.4564537897,98.2,83.3,75.5,103.3,5,,79.2,113.5,10,6,7.505,4.609,1.629,-1.299,-4.441,-8.49,94.0,6,157.5,-7.719,-7.52,-80,-8.321,-7.608,-5.289,-4.542,-4.959,-4.741,4.616,7.818,11,-1.437,1.985,4.405,8.489,-8.195,-7.702,-1.245,1.527,106.0,95.0,73.5,86.5,84.9,94.0,91.1,93.0,93.1,79.5,2,norm,1.594,1.675,-2.047,-1.421,-4.586,-4.923,-1.307,-1.423,-1.53,-1.81,1.144,-1.75,90.6,99.7,-4.642,-8.254,1.828,-1.28,8.101,4.839,-5.184,-7.902,2,4.872,4.326,4.955,4.405,1.214,1.995,1.688,1.197,2,4.56,4.71,-80,136.309827115,norm,0,9,9,9,230.117,230.127,230.133543597,230.134,230.135,230.138,up,1,1.03465673482,8.96534326518,001,327,1920_1200,Intel(R) Core(TM) i5-3570 CPU @ 3.40GHz,orientation_search,LEPPC096,Intel(R) HD Graphics 2500,2019_Jan_18_1727,testMonitor,
108.5,91.1,92.1,112.4,36,-80,91.7,97.5,92.1,76.2,7.984,8.064,7.599,8.239,8.237,7.759,7.536,4.344,-5.148,-7.666,1.433,-1.672,8.279,4.454,-4.358,-7.712,104.2,90.3,-7.526,73.5,93.4,100.0,113.5,87.5,36,99.3,0,5,prime,10,0,98,norm,36,-5.185,up,norm,93.4564537897,100.3,94.9,95.3,95.5,4,93.4,91.0,81.9,10,6,7.932,4.652,1.36,-1.595,-4.936,-8.073,99.4,6,191.5,-7.765,-7.625,-80,-7.82,-8.139,-4.865,-4.86,-5.273,-4.617,5.14,8.081,4,-1.167,1.573,4.471,7.739,-8.291,-7.526,-1.214,1.9,94.5,93.8,83.3,89.9,88.1,91.1,92.1,95.1,94.5,,3,norm,1.264,1.661,-1.106,-1.427,-5.208,-4.395,-1.136,-2.09,-1.723,-1.747,1.87,-1.739,103.2,94.9,-4.917,-8.356,1.92,-1.224,7.801,5.136,-4.841,-7.551,2,4.745,5.05,5.014,5.286,2.095,1.349,2.004,1.582,2,4.948,4.678,-80,136.309827115,norm,0,10,10,10,231.189,231.2,231.208867671,231.209,231.211,231.213,down,0,0.96657901139,-10,001,327,1920_1200,Intel(R) Core(TM) i5-3570 CPU @ 3.40GHz,orientation_search,LEPPC096,Intel(R) HD Graphics 2500,2019_Jan_18_1727,testMonitor,
97.0,84.1,95.9,101.8,36,-80,103.1,90.8,86.1,91.5,8.048,8.226,8.284,8.253,8.103,8.18,8.158,5.299,-5.075,-8.021,1.63,-1.113,7.585,5.142,-4.693,-7.654,106.3,97.4,-8.32,80.6,113.5,79.4,96.6,74.3,36,90.3,0,5,prime,10,0,77,norm,36,-5.03,down,norm,93.4564537897,107.1,101.0,84.3,77.3,1,102.3,99.1,94.4,10,6,7.914,4.616,1.866,-1.695,-5.127,-7.778,95.6,6,170.5,-8.152,-8.019,-80,-8.455,-7.523,-4.359,-5.09,-5.118,-5.296,5.219,8.258,1,-1.802,1.895,5.043,7.785,-8.328,-7.874,-1.28,2.005,88.4,83.3,90.8,100.7,,84.6,82.7,86.9,97.2,99.1,4,norm,1.175,2.094,-1.987,-1.661,-5.234,-5.256,-1.184,-1.354,-2.04,-1.605,1.92,-1.196,98.9,76.5,-4.988,-7.639,1.114,-1.862,7.96,4.944,-4.301,-7.534,2,4.595,4.791,4.667,5.246,1.145,2.067,1.495,1.285,2,4.949,5.141,-80,136.309827115,norm,0,11,11,11,233.247,233.257,233.267930243,233.268,233.27,233.272,down,1,0.847366629057,9.15263337094,001,327,1920_1200,Intel(R) Core(TM) i5-3570 CPU @ 3.40GHz,orientation_search,LEPPC096,Intel(R) HD Graphics 2500,2019_Jan_18_1727,testMonitor,
101.3,92.6,96.4,93.3,36,-80,86.7,91.6,90.4,89.0,7.72,8.406,7.687,8.17,8.264,8.287,8.101,5.052,-4.564,-7.551,2.023,-1.107,7.613,4.762,-5.298,-8.157,86.4,92.8,-8.421,95.0,98.4,88.7,99.8,73.5,36,,4,5,prime,10,0,91,norm,36,-5.093,up,norm,93.4564537897,90.7,107.2,82.9,80.2,3,74.4,107.8,79.1,10,6,7.795,4.675,1.554,-2.021,-5.133,-8.164,90.6,6,184.5,-8.363,-7.78,-80,-7.928,-7.725,-4.583,-4.887,-4.312,-4.687,4.904,7.59,27,-1.312,1.127,4.918,8.17,-8.282,-8.177,-1.752,1.298,93.5,107.8,96.7,105.0,103.0,108.2,93.3,95.2,94.3,101.1,5,norm,1.315,1.492,-1.175,-1.861,-4.962,-5.059,-1.57,-1.855,-1.247,-1.12,1.727,-1.285,90.6,113.5,-4.63,-8.134,1.847,-1.654,8.379,4.333,-4.494,-8.06,2,4.501,4.569,4.845,4.961,1.934,1.849,2.005,1.323,2,4.579,5.016,-80,136.309827115,norm,0,12,12,12,234.158,234.167,234.173805561,234.174,234.176,234.178,up,1,0.754664534446,9.24533546555,001,327,1920_1200,Intel(R) Core(TM) i5-3570 CPU @ 3.40GHz,orientation_search,LEPPC096,Intel(R) HD Graphics 2500,2019_Jan_18_1727,testMonitor,
96.3,96.4,96.9,92.3,36,-10,97.4,100.8,100.8,95.0,7.576,7.874,8.49,7.578,8.257,7.733,8.219,4.494,-4.876,-8.098,1.572,-1.489,8.422,4.91,-4.44,-8.031,96.1,106.4,-8.222,89.5,107.1,102.2,102.3,101.5,36,100.2,0,5,probe,5,0,80,norm,36,-4.604,up,norm,99.4837973034,103.5,97.6,93.0,94.9,3,102.3,102.1,104.8,10,6,8.119,4.846,1.684,-1.993,-5.133,-7.955,98.5,1,19.5,-8.26,-8.448,-80,-8.146,-7.775,-4.562,-5.286,-4.537,-4.495,4.905,7.819,3,-1.919,1.222,4.444,8.239,-7.592,-7.706,-1.677,1.225,92.3,101.0,,105.7,104.4,100.6,101.9,98.4,109.5,98.0,0,norm,2.069,1.445,-1.93,-2.044,-4.69,-4.887,-2.026,-1.9,-1.886,-1.292,1.374,-1.665,102.8,98.1,-4.925,-7.514,1.623,-1.462,7.592,4.768,-5.111,-7.958,3,5.059,4.461,4.587,4.321,2.067,1.193,1.775,1.187,3,5.294,5.297,-80,93.4564537897,norm,0,13,13,13,234.969,234.978,234.987072054,234.987,234.989,234.992,up,1,0.634571071705,9.36542892829,001,327,1920_1200,Intel(R) Core(TM) i5-3570 CPU @ 3.40GHz,orientation_search,LEPPC096,Intel(R) HD Graphics 2500,2019_Jan_18_1727,testMonitor,
29.7,30.1,37.8,31.0,36,-20,39.5,44.7,29.5,35.4,7.902,8.296,7.53,8.098,7.807,7.881,8.221,4.334,-5.134,-8.289,1.801,-1.592,8.422,4.775,-4.362,-7.99,,26.1,-7.615,41.7,23.5,25.4,13.1,25.2,36,40.6,5,5,prime,10,0,66,norm,36,-4.614,up,norm,33.0160046991,23.6,38.9,28.4,25.9,5,31.1,29.5,38.0,10,5,7.67,4.308,1.857,-1.327,-4.917,-8.453,31.7,5,99.0,-8.167,-7.565,-20,-7.568,-7.799,-4.322,-5.112,-4.635,-4.302,4.672,8.206,35,-1.791,1.558,4.827,8.223,-8.438,-8.302,-1.997,1.757,38.1,49.4,28.8,34.8,35.2,53.0,50.7,28.6,13.0,47.9,0,norm,1.531,1.648,-1.153,-1.514,-4.522,-4.457,-1.866,-1.937,-1.973,-1.816,1.233,-1.634,36.5,23.4,-4.718,-8.038,1.553,-1.95,8.204,4.48,-4.655,-7.763,4,4.921,5.19,5.068,4.431,1.715,1.482,1.354,1.287,4,5.098,4.716,-10,93.4564537897,norm,0,14,14,14,235.659,235.669,235.685709655,235.686,235.688,235.69,up,1,0.838481873408,9.16151812659,001,327,1920_1200,Intel(R) Core(TM) i5-3570 CPU @ 3.40GHz,orientation_search,LEPPC096,Intel(R) HD Graphics 2500,2019_Jan_18_1727,testMonitor,
39.1,44.5,38.7,25.2,36,-20,16.4,35.3,38.5,19.6,8.274,8.009,8.047,7.949,8.452,7.74,8.361,4.645,-5.115,-8.344,1.432,-2.08,7.549,4.849,-5.21,-7.736,42.2,30.2,-8.27,31.3,44.4,26.0,39.5,25.4,36,34.1,0,5,prime,10,0,101,norm,36,-4.841,down,norm,33.0160046991,45.6,16.3,53.0,48.6,0,13.0,26.5,38.6,10,5,8.232,4.453,1.632,-1.941,-4.442,-7.846,41.4,5,134.0,-8.077,-7.627,-20,-7.937,-8.032,-4.717,-5.104,-4.983,-4.606,5.189,7.925,0,-1.892,1.246,4.462,8.419,-7.896,-8.335,-2.025,1.164,21.9,44.7,17.0,23.2,14.8,,39.2,31.6,38.0,19.8,1,norm,2.032,1.414,-1.762,-1.551,-4.56,-5.019,-1.328,-1.185,-1.431,-1.702,1.365,-1.416,30.2,30.7,-4.582,-8.436,2.094,-1.713,7.728,5.15,-4.386,-8.294,4,4.365,5.197,5.235,4.886,1.34,1.55,1.412,1.46,4,5.115,5.053,-10,93.4564537897,norm,0,15,15,15,236.546,236.555,236.574895155,236.575,236.577,236.579,down,1,0.809194024228,9.19080597577,001,327,1920_1200,Intel(R) Core(TM) i5-3570 CPU @ 3.40GHz,orientation_search,LEPPC096,Intel(R) HD Graphics 2500,2019_Jan_18_1727,testMonitor,
33.6,47.1,28.4,23.0,36,-20,19.0,24.0,19.7,45.1,7.94,7.848,8.426,7.671,8.226,8.243,8.387,4.345,-5.167,-7.981,1.685,-2.047,7.626,4.803,-4.52,-7.91,19.2,49.1,-7.849,13.0,30.7,38.5,40.4,37.2,36,44.7,0,5,prime,10,0,80,norm,36,-4.578,up,norm,33.0160046991,39.7,35.6,42.5,33.6,3,47.2,47.4,28.6,10,5,7.767,4.925,1.442,-1.16,-5.031,-7.637,41.1,5,113.0,-7.804,-7.894,-20,-8.001,-8.357,-5.003,-4.993,-4.774,-5.269,4.426,8.396,3,-1.972,1.26,5.079,8.306,-8.385,-7.618,-1.189,1.948,38.6,34.3,,25.6,34.8,26.6,19.4,30.5,16.6,37.2,2,norm,1.92,1.388,-1.495,-2.058,-5.226,-4.397,-1.415,-1.753,-1.777,-1.671,1.564,-1.634,35.7,53.0,-4.825,-7.632,1.303,-1.721,7.975,5.183,-4.479,-7.83,4,4.935,4.33,4.791,4.377,1.124,1.839,1.707,1.581,4,4.554,4.96,-10,93.4564537897,norm,0,16,16,16,237.422,237.431,237.448389636,237.449,237.45,237.453,up,1,0.840742075558,9.15925792444,001,327,1920_1200,Intel(R) Core(TM) i5-3570 CPU @ 3.40GHz,orientation_search,LEPPC096,Intel(R) HD Graphics 2500,2019_Jan_18_1727,testMonitor,
39.2,20.0,40.4,30.8,36,-20,38.1,27.3,27.5,33.8,7.781,8.045,8.197,8.305,7.645,8.181,7.534,4.602,-4.479,-7.959,1.902,-1.755,7.508,4.665,-4.492,-8.378,23.0,44.2,-7.86,31.5,,53.0,49.9,43.4,36,43.3,5,5,prime,10,0,91,norm,36,-5.135,down,norm,33.0160046991,38.6,13.2,37.7,47.3,0,30.6,29.9,29.1,10,5,8.066,4.498,1.143,-1.9,-4.499,-8.33,14.4,5,124.0,-7.767,-7.583,-20,-8.376,-7.974,-4.855,-4.718,-5.129,-5.109,4.83,8.396,30,-2.033,1.946,4.422,8.088,-8.333,-7.51,-2.062,1.939,13.0,29.3,22.3,27.6,29.6,36.9,27.9,31.2,24.2,40.7,3,norm,1.451,1.967,-1.571,-1.449,-4.956,-5.111,-1.356,-1.476,-1.89,-2.025,1.404,-1.285,40.0,16.1,-4.476,-8.031,2.085,-1.197,8.471,4.57,-4.396,-8.341,4,4.612,5.113,4.488,4.912,1.782,1.987,2.054,1.472,4,4.977,4.435,-10,93.4564537897,norm,0,17,17,17,238.327,238.336,238.353072674,238.353,238.355,238.358,down,1,0.755756301431,9.24424369857,001,327,1920_1200,Intel(R) Core(TM) i5-3570 CPU @ 3.40GHz,orientation_search,LEPPC096,Intel(R) HD Graphics 2500,2019_Jan_18_1727,testMonitor,
39.2,43.2,46.9,25.4,36,-20,32.8,33.8,31.7,49.7,7.847,8.092,8.425,8.256,8.434,7.557,8.272,5.003,-4.939,-7.759,1.343,-1.666,8.346,4.785,-5.197,-8.416,33.5,23.5,-8.32,53.0,24.4,37.2,39.9,38.5,36,,4,5,prime,10,0,71,norm,36,-5.277,up,norm,33.0160046991,35.5,29.9,34.2,29.5,3,30.9,50.2,28.2,10,5,7.792,4.818,2.015,-1.964,-5.145,-7.542,33.1,5,104.0,-8.196,-7.934,-20,-7.756,-8.212,-4.589,-4.347,-4.63,-4.647,4.707,7.806,27,-1.508,1.126,4.474,8.436,-7.919,-7.717,-1.927,1.43,42.3,26.9,15.2,30.5,25.6,32.2,35.3,45.9,31.4,35.6,4,norm,1.273,1.347,-1.192,-1.102,-5.069,-5.161,-2.03,-1.129,-1.827,-1.799,1.953,-1.187,13.0,44.2,-5.285,-8.233,1.185,-1.243,7.629,5.225,-4.597,-8.251,4,5.095,4.713,5.056,5.242,1.885,1.417,1.452,1.596,4,4.832,4.313,-10,93.4564537897,norm,0,18,18,18,239.147,239.16,239.180503462,239.181,239.185,239.191,up,1,0.713308389008,9.28669161099,001,327,1920_1200,Intel(R) Core(TM) i5-3570 CPU @ 3.40GHz,orientation_search,LEPPC096,Intel(R) HD Graphics 2500,2019_Jan_18_1727,testMonitor,
92.8,75.9,85.5,89.4,36,30,90.6,90.8,89.2,83.1,8.288,7.751,8.335,8.14,7.839,8.095,8.202,4.72,-4.383,-7.512,1.748,-1.2,8.458,4.986,-5.206,-8.069,80.7,78.9,-8.19,88.4,92.4,86.0,90.5,85.8,36,80.6,0,5,probe,5,0,72,norm,36,-4.331,down,norm,85.9219901349,87.2,81.6,82.7,80.4,2,87.7,80.9,89.3,10,5,8.372,4.832,1.175,-1.208,-4.69,-8.253,81.3,2,13.9,-7.521,-7.88,-20,-7.818,-8.144,-5.192,-4.477,-5.234,-4.848,5.206,7.68,2,-1.835,1.31,5.03,8.031,-7.538,-7.647,-1.844,1.731,81.5,95.9,84.8,,84.2,82.8,78.6,79.2,85.4,91.4,0,norm,1.919,2.071,-1.331,-1.702,-4.592,-4.747,-1.68,-1.857,-1.814,-1.34,1.804,-2.021,85.4,78.2,-4.783,-8.261,1.316,-1.259,8.123,4.321,-5.16,-7.665,5,4.759,4.901,4.358,5.056,1.581,2.094,1.21,1.31,5,4.874,4.695,-20,33.0160046991,norm,0,19,19,19,239.946,239.961,239.978144135,239.978,239.98,239.983,down,1,1.6581238994,8.3418761006,001,327,1920_1200,Intel(R) Core(TM) i5-3570 CPU @ 3.40GHz,orientation_search,LEPPC096,Intel(R) HD Graphics 2500,2019_Jan_18_1727,testMonitor,
70.5,71.1,65.9,72.5,36,30,,76.4,74.3,74.5,8.074,8.147,8.078,8.276,8.107,7.944,7.588,4.478,-4.651,-8.024,1.322,-1.513,7.962,4.99,-4.481,-8.44,66.8,75.3,-8.256,68.4,73.3,74.8,66.2,69.9,36,69.3,4,5,probe,5,0,60,norm,36,-5.006,down,norm,73.9219901349,72.7,77.2,73.8,63.9,0,79.7,83.9,72.8,10,5,8.221,4.505,1.916,-1.497,-4.66,-8.206,72.1,2,13.9,-7.613,-8.452,-20,-8.337,-8.217,-5.299,-4.532,-4.465,-4.833,4.68,8.169,24,-1.117,1.479,4.78,8.254,-7.607,-8.091,-1.308,1.676,77.2,78.3,76.8,82.1,75.4,69.9,66.6,78.7,71.5,74.0,1,norm,1.229,1.356,-1.309,-1.281,-4.51,-4.858,-2.093,-1.564,-1.466,-1.803,1.891,-1.671,79.4,72.1,-4.381,-7.995,1.268,-1.83,7.502,5.02,-5.024,-8.032,5,4.473,5.162,4.873,4.467,1.536,2.046,1.86,1.569,5,4.439,5.264,-20,33.0160046991,norm,0,20,20,20,241.676,241.688,241.692608885,241.693,241.695,241.698,down,1,1.25405692401,8.74594307599,001,327,1920_1200,Intel(R) Core(TM) i5-3570 CPU @ 3.40GHz,orientation_search,LEPPC096,Intel(R) HD Graphics 2500,2019_Jan_18_1727,testMonitor,
70.2,74.8,70.2,68.9,36,30,58.2,64.8,53.6,64.8,8.474,7.937,8.031,7.569,7.991,8.389,8.254,5.118,-4.9,-8.352,1.996,-1.681,7.566,4.803,-4.851,-8.114,71.3,56.2,-7.996,56.9,54.4,56.1,66.5,60.3,36,67.1,2,5,prime,10,0,65,norm,36,-4.6,down,norm,63.5823228993,55.8,69.5,58.0,,2,46.4,43.6,81.3,10,5,7.662,4.494,1.153,-1.165,-4.998,-7.632,60.8,5,128.6,-7.893,-8.078,30,-7.647,-7.546,-4.336,-4.814,-4.732,-4.836,5.105,8.066,14,-1.571,1.622,4.958,7.945,-8.033,-8.461,-1.442,2.034,67.9,83.6,61.5,76.2,69.2,71.6,61.7,80.4,57.9,48.9,0,norm,1.351,1.138,-2.082,-1.659,-5.27,-4.404,-1.94,-1.939,-1.469,-1.168,1.59,-1.139,68.1,65.2,-4.882,-8.43,1.963,-1.68,8.183,4.799,-5.085,-7.513,6,5.148,4.685,4.799,4.876,1.422,1.883,1.524,1.419,6,4.397,4.901,30,33.0160046991,norm,0,21,21,21,242.987,242.996,243.002979796,243.003,243.005,243.007,down,1,0.911681574704,9.0883184253,001,327,1920_1200,Intel(R) Core(TM) i5-3570 CPU @ 3.40GHz,orientation_search,LEPPC096,Intel(R) HD Graphics 2500,2019_Jan_18_1727,testMonitor,
48.3,82.4,66.0,68.7,36,30,62.9,77.2,53.3,53.4,8.099,7.501,8.277,7.825,8.239,8.363,7.968,4.546,-4.484,-8.261,1.506,-1.123,7.504,4.448,-4.363,-7.654,60.6,59.8,-7.526,67.8,48.4,65.2,56.9,73.2,36,64.8,1,5,prime,10,0,61,norm,36,-4.956,up,norm,63.5823228993,68.5,54.5,68.8,49.9,4,58.9,43.6,58.3,10,5,8.296,4.336,1.123,-1.851,-4.571,-7.955,,5,124.6,-8.013,-7.571,30,-8.032,-7.754,-4.696,-4.925,-5.123,-4.873,4.526,7.795,10,-1.563,1.898,5.101,7.66,-7.757,-7.699,-1.909,2.068,73.1,69.3,48.8,69.2,62.9,83.6,66.4,59.4,62.5,61.1,1,norm,1.425,1.111,-1.815,-1.187,-4.344,-4.412,-1.541,-1.542,-1.535,-1.88,1.226,-1.26,60.8,47.7,-5.208,-7.586,1.332,-1.971,8.278,4.995,-4.711,-8.021,6,4.591,4.518,4.592,4.729,1.376,1.996,1.413,1.41,6,4.411,4.693,30,33.0160046991,norm,0,22,22,22,243.938,243.948,243.95462451,243.955,243.957,243.959,up,1,0.718491037369,9.28150896263,001,327,1920_1200,Intel(R) Core(TM) i5-3570 CPU @ 3.40GHz,orientation_search,LEPPC096,Intel(R) HD Graphics 2500,2019_Jan_18_1727,testMonitor,
65.3,54.5,50.6,55.7,36,30,66.9,51.1,83.6,56.0,7.915,8.342,7.669,8.445,7.808,7.827,7.546,4.956,-4.494,-8.474,1.517,-1.106,8.198,4.445,-4.472,-8.172,69.9,60.6,-8.45,64.4,66.4,64.4,46.3,57.3,36,43.6,0,5,prime,10,0,76,norm,36,-5.276,up,norm,63.5823228993,67.1,79.3,63.9,63.3,3,60.6,53.9,53.4,10,5,8.125,5.299,1.75,-1.322,-4.962,-8.352,45.2,5,139.6,-8.081,-8.441,30,-8.199,-7.76,-5.273,-4.938,-5.129,-5.068,5.276,8.4,3,-1.759,1.304,4.966,8.37,-8.417,-8.168,-1.673,1.232,59.4,63.5,,65.1,62.9,82.2,71.5,69.8,56.4,50.0,2,norm,1.831,1.576,-1.929,-1.313,-5.168,-4.691,-1.927,-1.851,-1.907,-1.858,1.124,-2.085,61.1,53.4,-4.334,-7.896,1.238,-1.188,8.323,5.06,-4.757,-7.518,6,5.287,5.09,4.62,4.421,1.369,1.303,1.508,2.03,6,5.138,4.46,30,33.0160046991,norm,0,23,23,23,244.718,244.728,244.734565095,244.735,244.736,244.739,up,1,0.776959883224,9.22304011678,001,327,1920_1200,Intel(R) Core(TM) i5-3570 CPU @ 3.40GHz,orientation_search,LEPPC096,Intel(R) HD Graphics 2500,2019_Jan_18_1727,testMonitor,
67.1,69.3,83.6,52.5,36,30,57.8,44.5,,62.2,8.173,7.684,8.113,7.725,7.896,8.468,8.405,5.29,-4.582,-7.803,1.38,-1.98,7.795,4.85,-4.375,-8.039,60.5,68.8,-7.748,43.6,82.6,54.7,63.6,60.2,36,60.8,4,5,prime,10,0,71,norm,36,-4.363,up,norm,63.5823228993,61.4,73.5,70.5,62.2,4,75.6,63.7,82.6,10,5,7.894,5.165,1.636,-1.464,-5.154,-7.645,53.3,5,134.6,-8.431,-8.276,30,-7.876,-8.045,-4.388,-4.687,-4.497,-5.288,5.088,7.71,28,-1.785,1.635,4.47,7.9,-8.308,-7.996,-1.484,1.646,62.6,72.1,68.7,68.1,56.2,61.7,59.1,65.3,61.8,65.2,3,norm,2.063,1.695,-1.323,-2.02,-4.507,-4.734,-1.922,-1.505,-1.818,-2.025,1.851,-1.687,51.0,56.6,-4.69,-8.232,1.654,-1.181,8.001,4.888,-4.811,-8.274,6,4.327,4.833,5.212,4.804,1.11,1.208,1.796,2.01,6,4.487,5.202,30,33.0160046991,norm,0,24,24,24,245.549,245.558,245.575521178,245.576,245.577,245.58,up,1,0.755808822152,9.24419117785,001,327,1920_1200,Intel(R) Core(TM) i5-3570 CPU @ 3.40GHz,orientation_search,LEPPC096,Intel(R) HD Graphics 2500,2019_Jan_18_1727,testMonitor,
73.6,57.8,62.2,66.1,36,30,,55.1,56.0,52.3,7.638,7.672,8.204,7.899,7.928,7.671,8.12,4.828,-4.736,-8.048,1.55,-1.805,7.977,5.219,-4.947,-8.007,48.8,76.7,-8.206,58.4,70.2,83.6,63.0,52.9,36,71.0,4,5,prime,10,0,102,norm,36,-4.685,down,norm,63.5823228993,62.4,73.2,82.1,57.9,0,71.8,63.6,50.2,10,5,8.162,4.498,1.488,-1.233,-5.124,-8.181,71.3,5,165.6,-8.053,-7.761,30,-7.912,-8.445,-4.785,-5.068,-5.046,-4.618,4.815,7.592,24,-1.961,1.918,4.317,7.663,-8.28,-7.864,-1.237,1.773,61.8,57.0,58.9,75.5,78.2,51.0,64.0,44.6,75.9,59.6,4,norm,1.577,1.65,-1.842,-1.328,-4.976,-5.061,-2.01,-1.831,-1.786,-1.166,1.972,-2.011,43.6,65.8,-5.107,-7.718,1.332,-1.349,8.392,4.84,-4.848,-7.686,6,4.842,5.076,4.315,4.426,1.221,1.387,2.083,1.73,6,4.402,4.598,30,33.0160046991,norm,0,25,25,25,246.37,246.38,246.386668429,246.387,246.389,246.391,down,1,0.753686260519,9.24631373948,001,327,1920_1200,Intel(R) Core(TM) i5-3570 CPU @ 3.40GHz,orientation_search,LEPPC096,Intel(R) HD Graphics 2500,2019_Jan_18_1727,testMonitor,
204.2,203.5,206.4,210.5,36,40,209.1,200.8,201.6,210.3,7.991,7.61,7.546,8.438,8.46,8.141,7.663,4.852,-4.829,-7.559,1.147,-2.058,8.491,4.915,-4.983,-7.758,211.5,208.9,-8.13,203.0,206.2,206.7,206.8,210.4,36,207.8,2,5,probe,5,0,112,norm,36,-4.566,up,norm,206.291592601,212.9,,207.8,204.9,4,215.8,204.9,216.3,10,5,8.025,4.399,1.727,-1.245,-4.608,-7.968,208.3,1,94.3,-7.768,-8.139,30,-7.865,-7.804,-4.85,-4.435,-4.814,-4.968,4.919,8.298,16,-1.199,1.248,4.489,8.212,-7.89,-7.819,-1.338,1.776,210.8,206.6,203.3,209.2,215.2,207.1,196.3,209.5,210.0,214.5,0,norm,1.179,1.706,-1.981,-1.101,-5.245,-4.422,-2.043,-1.99,-1.311,-1.674,1.637,-1.852,201.9,210.6,-5.038,-8.307,1.641,-1.387,8.331,4.312,-4.566,-7.825,7,4.305,4.482,5.201,4.429,1.174,1.674,1.257,1.279,7,4.304,4.728,30,63.5823228993,norm,0,26,26,26,247.183,247.193,247.199102439,247.199,247.201,247.204,up,1,0.738263882224,9.26173611778,001,327,1920_1200,Intel(R) Core(TM) i5-3570 CPU @ 3.40GHz,orientation_search,LEPPC096,Intel(R) HD Graphics 2500,2019_Jan_18_1727,testMonitor,
325.0,342.8,347.5,334.0,36,20,336.4,333.1,334.4,317.6,7.783,8.285,8.363,7.59,8.237,8.242,8.15,4.364,-4.854,-8.172,2.04,-1.723,7.883,4.616,-4.776,-8.416,356.7,338.2,-7.701,336.1,340.6,334.2,355.5,357.6,36,348.8,2,5,prime,10,0,79,norm,36,-4.757,up,norm,337.592461137,348.8,,338.2,348.8,4,341.4,323.9,342.3,10,6,8.135,5.181,1.4,-1.749,-5.014,-7.644,349.4,6,416.6,-8.476,-7.981,20,-7.544,-7.796,-4.429,-4.914,-4.367,-4.341,5.274,7.702,16,-1.286,1.939,4.313,8.448,-8.448,-7.995,-1.785,1.373,317.7,323.2,350.1,340.3,340.9,341.5,329.8,338.2,349.7,346.6,0,norm,1.614,1.688,-1.258,-1.493,-4.538,-5.001,-1.57,-1.42,-1.134,-1.462,1.837,-1.889,353.4,344.1,-4.498,-8.274,1.327,-2.005,7.912,5.018,-4.701,-7.883,8,4.598,4.751,4.393,4.863,1.185,1.355,1.735,1.564,8,4.451,4.846,40,63.5823228993,norm,0,27,27,27,247.975,247.984,247.993483808,247.994,247.996,247.998,up,1,0.761031615664,9.23896838434,001,327,1920_1200,Intel(R) Core(TM) i5-3570 CPU @ 3.40GHz,orientation_search,LEPPC096,Intel(R) HD Graphics 2500,2019_Jan_18_1727,testMonitor,
342.6,348.0,317.6,330.9,36,20,350.9,330.4,341.6,353.5,7.681,7.907,7.82,7.842,7.738,8.345,7.658,4.315,-5.156,-7.527,1.628,-1.429,8.06,4.405,-4.467,-8.284,327.3,331.8,-7.543,323.5,,341.5,337.6,324.6,36,331.0,5,5,prime,10,0,61,norm,36,-4.485,down,norm,337.592461137,329.7,333.7,329.5,330.3,0,323.8,336.6,357.6,10,6,8.021,5.029,1.713,-1.143,-4.391,-7.772,343.1,6,398.6,-8.191,-8.002,20,-8.363,-7.606,-4.702,-4.397,-4.565,-4.638,4.522,7.851,30,-1.7,1.938,4.576,8.229,-7.541,-7.696,-2.024,1.493,335.6,341.1,343.4,325.2,340.4,325.1,334.5,339.8,332.4,350.8,1,norm,1.597,1.212,-1.128,-1.236,-4.731,-4.693,-1.224,-1.881,-1.279,-2.017,1.505,-1.362,330.1,332.2,-5.135,-8.492,1.995,-2.007,8.484,4.62,-5.242,-8.3,8,5.26,4.857,4.451,4.41,2.078,1.867,1.749,1.327,8,4.467,4.68,40,63.5823228993,norm,0,28,28,28,248.792,248.803,248.808485296,248.809,248.811,248.814,down,1,1.09905740394,8.90094259606,001,327,1920_1200,Intel(R) Core(TM) i5-3570 CPU @ 3.40GHz,orientation_search,LEPPC096,Intel(R) HD Graphics 2500,2019_Jan_18_1727,testMonitor,
342.8,348.4,344.8,339.3,36,20,327.0,335.9,324.8,355.6,8.086,8.086,8.461,7.741,7.614,7.977,7.738,4.949,-4.51,-7.953,1.407,-1.921,7.759,4.637,-5.298,-7.6,341.4,317.6,-8.105,340.9,339.6,350.4,324.7,333.0,36,337.6,0,5,prime,10,0,75,norm,36,-4.507,down,norm,337.592461137,321.5,336.4,357.6,348.2,0,345.1,339.0,338.9,10,6,8.261,4.658,1.448,-1.393,-4.691,-8.118,340.4,6,412.6,-7.751,-8.334,20,-7.758,-7.701,-4.881,-4.583,-5.181,-4.677,4.77,7.608,0,-1.817,1.739,4.317,8.459,-7.603,-7.809,-1.44,1.137,327.6,335.4,340.3,333.1,322.0,,340.2,335.1,346.8,323.7,2,norm,1.526,1.828,-1.139,-2.066,-4.845,-5.08,-1.468,-2.004,-1.756,-1.599,1.471,-1.857,355.3,344.5,-4.873,-8.044,1.686,-1.8,7.89,4.492,-4.877,-8.282,8,4.729,4.491,4.944,5.116,1.994,1.693,1.628,1.688,8,5.084,4.547,40,63.5823228993,norm,0,29,29,29,249.93,249.941,249.94589792,249.946,249.948,249.951,down,1,0.704701932822,9.29529806718,001,327,1920_1200,Intel(R) Core(TM) i5-3570 CPU @ 3.40GHz,orientation_search,LEPPC096,Intel(R) HD Graphics 2500,2019_Jan_18_1727,testMonitor,
326.3,351.0,,344.9,36,20,321.4,342.7,329.0,339.6,7.648,7.523,7.593,8.161,7.676,8.306,8.468,5.159,-5.152,-8.408,2.087,-1.343,7.896,4.883,-4.782,-7.812,335.8,346.7,-8.498,343.8,342.2,353.7,347.3,342.6,36,339.1,3,5,prime,10,0,89,norm,36,-5.056,down,norm,337.592461137,357.6,333.2,318.2,327.9,2,345.7,354.4,319.8,10,6,8.109,4.419,1.525,-1.927,-4.444,-8.474,349.9,6,426.6,-8.341,-7.61,20,-7.512,-7.869,-5.005,-4.491,-4.371,-5.052,5.029,7.734,20,-1.475,1.726,4.937,8.186,-7.96,-7.572,-1.337,1.14,356.2,326.3,349.3,338.8,323.5,339.7,317.6,342.3,331.1,346.4,3,norm,1.405,1.272,-1.228,-1.775,-4.8,-4.394,-1.973,-2.01,-1.747,-1.845,1.919,-2.071,347.6,324.3,-5.012,-7.906,1.393,-1.955,7.688,4.422,-4.954,-7.883,8,5.05,4.361,4.893,4.839,1.506,1.493,1.325,2.015,8,4.615,4.647,40,63.5823228993,norm,0,30,30,30,250.693,250.702,250.708906307,250.709,250.711,250.713,down,1,0.984729750697,9.0152702493,001,327,1920_1200,Intel(R) Core(TM) i5-3570 CPU @ 3.40GHz,orientation_search,LEPPC096,Intel(R) HD Graphics 2500,2019_Jan_18_1727,testMonitor,
324.5,340.3,326.3,341.5,36,20,342.1,343.3,334.5,345.3,8.404,7.667,8.477,8.172,7.724,7.726,7.611,5.258,-5.277,-7.947,2.044,-1.67,8.276,4.535,-4.568,-7.784,345.1,325.1,-7.9,355.6,333.7,336.6,327.1,324.2,36,344.8,3,5,prime,10,0,85,norm,36,-5.277,down,norm,337.592461137,323.8,335.1,331.8,317.6,0,357.6,317.8,328.5,10,6,8.128,4.917,1.875,-1.886,-4.965,-7.882,326.6,6,422.6,-8.047,-8.17,20,-8.41,-7.609,-5.156,-4.583,-4.937,-4.369,4.619,8.172,18,-1.188,1.93,4.644,7.944,-8.017,-8.202,-1.892,1.314,354.1,340.6,341.0,321.8,326.2,327.5,327.8,325.3,334.5,344.6,4,norm,1.923,1.118,-1.278,-1.444,-4.898,-4.474,-1.244,-1.267,-1.729,-1.519,2.004,-1.644,344.6,,-4.975,-7.829,1.153,-1.534,7.86,4.594,-4.834,-8.365,8,4.476,4.516,4.479,4.791,1.663,1.18,1.632,1.161,8,4.447,4.572,40,63.5823228993,norm,0,31,31,31,251.738,251.749,251.754152306,251.754,251.756,251.759,down,1,0.810820657427,9.18917934257,001,327,1920_1200,Intel(R) Core(TM) i5-3570 CPU @ 3.40GHz,orientation_search,LEPPC096,Intel(R) HD Graphics 2500,2019_Jan_18_1727,testMonitor,
327.9,324.3,333.7,337.3,36,20,320.0,333.7,333.3,331.9,7.533,7.728,8.339,7.639,8.216,7.677,7.656,5.062,-5.256,-8.006,1.559,-1.554,8.383,4.991,-4.919,-7.56,340.7,347.4,-7.623,317.6,328.6,336.1,357.6,319.6,36,341.2,2,5,prime,10,0,95,norm,36,-4.411,up,norm,337.592461137,,329.1,331.8,344.1,5,337.5,349.0,327.4,10,6,8.405,4.652,1.619,-2.019,-4.327,-8.42,330.7,6,432.6,-8.258,-7.533,20,-7.686,-8.133,-5.051,-4.348,-4.846,-4.313,5.223,8.129,17,-1.598,1.359,5.151,8.167,-7.896,-8.204,-1.969,1.357,326.7,346.3,323.0,325.2,341.5,333.6,327.1,332.5,335.3,338.4,5,norm,1.122,1.896,-1.465,-1.679,-4.442,-5.107,-1.589,-1.11,-2.015,-1.621,1.45,-1.69,349.2,352.2,-4.947,-7.889,1.562,-1.4,8.267,5.274,-4.418,-8.463,8,5.003,5.2,5.049,5.21,1.368,1.403,1.402,1.795,8,4.947,4.821,40,63.5823228993,norm,0,32,32,32,252.611,252.621,252.628017753,252.628,252.63,252.632,up,1,0.670029200315,9.32997079968,001,327,1920_1200,Intel(R) Core(TM) i5-3570 CPU @ 3.40GHz,orientation_search,LEPPC096,Intel(R) HD Graphics 2500,2019_Jan_18_1727,testMonitor,
460.6,463.8,462.8,461.6,36,-10,454.1,462.4,470.3,456.2,7.703,7.917,7.967,8.366,8.02,7.868,8.14,5.243,-4.519,-8.013,1.961,-2.06,7.728,4.62,-5.056,-7.994,468.0,472.3,-7.61,467.7,463.3,461.4,459.5,461.9,36,452.3,1,5,probe,5,0,109,norm,36,-4.578,down,norm,462.32785563,471.3,463.4,455.5,458.4,2,460.7,454.9,459.3,10,6,7.761,5.256,1.114,-1.442,-4.467,-8.38,458.0,2,353.3,-7.566,-8.351,20,-7.818,-7.968,-5.052,-5.204,-4.83,-4.775,4.972,8.273,8,-1.308,2.055,4.784,7.788,-7.716,-7.523,-1.997,1.737,453.1,,457.6,464.3,453.6,459.4,462.3,462.0,460.4,466.6,0,norm,1.301,1.784,-1.585,-1.793,-4.673,-4.401,-2.093,-1.734,-1.922,-1.639,1.998,-1.42,464.2,461.3,-4.617,-8.26,1.581,-1.949,8.17,4.398,-4.342,-8.057,9,4.896,4.827,4.702,4.557,2.02,1.524,1.521,1.34,9,4.935,5.201,20,337.592461137,norm,0,33,33,33,253.345,253.367,253.377817782,253.378,253.38,253.383,down,1,0.962049551794,9.03795044821,001,327,1920_1200,Intel(R) Core(TM) i5-3570 CPU @ 3.40GHz,orientation_search,LEPPC096,Intel(R) HD Graphics 2500,2019_Jan_18_1727,testMonitor,
458.7,464.2,456.2,463.2,36,-10,461.1,465.1,457.1,461.5,7.768,8.016,8.362,7.746,8.206,7.601,7.724,4.486,-4.5,-7.541,1.982,-1.743,8.375,5.1,-4.383,-8.404,461.4,464.4,-7.668,458.2,471.3,463.0,459.1,457.6,36,459.6,0,5,probe,5,0,108,norm,36,-4.545,up,norm,461.32785563,461.4,467.8,461.5,455.3,5,454.7,452.2,451.3,10,6,8.183,5.151,1.144,-1.131,-4.319,-7.799,462.3,2,353.3,-7.662,-8.128,20,-7.608,-8.356,-4.422,-4.82,-4.433,-4.792,4.564,7.703,5,-1.326,1.424,5.122,8.0,-8.186,-7.569,-1.572,1.484,461.5,460.7,459.5,466.1,459.4,457.2,458.9,458.9,,459.4,1,norm,1.807,1.515,-1.621,-1.302,-5.289,-4.823,-1.723,-1.792,-1.633,-1.282,2.05,-1.638,457.4,466.0,-4.497,-8.328,2.041,-1.722,7.985,4.86,-4.6,-7.938,9,4.438,4.687,4.401,4.368,1.196,1.692,1.738,1.793,9,4.969,4.308,20,337.592461137,norm,0,34,34,34,254.378,254.388,254.404629611,254.405,254.407,254.409,up,1,0.690108717896,9.3098912821,001,327,1920_1200,Intel(R) Core(TM) i5-3570 CPU @ 3.40GHz,orientation_search,LEPPC096,Intel(R) HD Graphics 2500,2019_Jan_18_1727,testMonitor,
209.2,209.2,231.3,239.7,36,60,214.6,226.4,220.4,227.3,7.958,8.194,8.445,8.312,7.662,8.475,7.938,4.348,-4.621,-8.112,1.915,-1.202,8.123,5.048,-4.412,-8.342,212.6,245.6,-7.818,218.9,219.9,233.2,244.0,211.6,36,228.5,3,5,prime,10,0,101,norm,36,-4.826,down,norm,225.587610496,208.2,225.0,228.6,223.2,1,226.4,217.5,205.6,10,6,8.095,4.658,1.164,-1.223,-4.546,-8.449,237.4,6,326.6,-8.465,-7.589,60,-7.948,-7.553,-4.851,-4.86,-4.35,-4.486,4.707,7.714,19,-1.344,1.535,5.172,8.278,-8.188,-8.401,-1.538,1.546,219.7,222.1,235.6,218.5,222.5,227.7,228.6,223.2,212.0,224.3,0,norm,1.452,1.453,-1.58,-1.349,-4.656,-4.331,-2.092,-1.769,-1.843,-1.871,2.082,-1.254,,219.3,-4.937,-7.518,1.935,-1.957,8.058,4.468,-4.724,-8.291,10,4.778,4.66,4.532,4.452,1.201,1.553,1.531,1.862,10,5.052,4.727,-10,337.592461137,norm,0,35,35,35,255.138,255.148,255.15487667,255.155,255.157,255.159,down,1,0.761665788303,9.2383342117,001,327,1920_1200,Intel(R) Core(TM) i5-3570 CPU @ 3.40GHz,orientation_search,LEPPC096,Intel(R) HD Graphics 2500,2019_Jan_18_1727,testMonitor,
225.5,230.2,226.9,237.9,36,60,223.7,225.7,222.4,211.0,7.738,8.333,8.483,8.173,8.163,7.743,8.499,4.694,-5.004,-8.178,1.355,-1.397,8.117,4.975,-5.257,-8.261,242.1,226.8,-7.503,226.7,215.4,214.0,215.9,225.4,36,224.4,0,5,prime,10,0,110,norm,36,-4.699,down,norm,225.587610496,220.2,219.2,208.8,232.5,1,208.2,222.8,228.7,10,6,8.212,5.233,2.022,-2.005,-4.33,-8.301,219.2,6,335.6,-7.784,-7.5,60,-8.289,-8.134,-4.933,-4.68,-4.945,-4.727,5.139,7.836,1,-1.804,2.021,4.492,7.717,-8.337,-7.721,-1.509,1.818,219.6,215.5,205.6,237.0,,224.6,217.1,224.1,234.0,228.1,1,norm,1.325,1.513,-1.463,-2.027,-4.775,-4.406,-1.465,-1.745,-1.539,-1.2,1.126,-1.543,230.0,222.7,-4.894,-7.702,1.541,-1.618,8.393,4.657,-4.707,-8.051,10,4.407,5.194,5.236,5.248,1.836,2.03,1.931,1.219,10,5.084,4.763,-10,337.592461137,norm,0,36,36,36,255.953,255.963,255.980199386,255.98,255.982,255.985,down,1,0.670113112734,9.32988688727,001,327,1920_1200,Intel(R) Core(TM) i5-3570 CPU @ 3.40GHz,orientation_search,LEPPC096,Intel(R) HD Graphics 2500,2019_Jan_18_1727,testMonitor,
223.1,220.6,215.2,231.2,36,60,232.8,223.3,239.9,,8.174,8.064,7.609,7.902,8.424,8.051,7.968,5.242,-4.605,-8.419,1.157,-2.086,7.641,4.336,-4.508,-8.105,234.6,220.1,-7.681,226.1,222.2,213.8,220.6,205.6,36,221.4,4,5,prime,10,0,71,norm,36,-4.555,up,norm,225.587610496,214.3,226.2,237.7,226.7,5,234.5,226.8,221.0,10,6,7.639,4.556,1.647,-1.851,-4.786,-7.786,226.2,6,296.6,-8.071,-7.993,60,-8.07,-8.039,-4.731,-5.038,-4.674,-4.458,4.795,7.782,29,-1.356,1.927,4.941,8.253,-8.284,-8.035,-2.01,1.865,229.0,226.6,238.0,245.6,231.6,215.4,226.8,222.8,225.8,232.6,2,norm,1.961,1.946,-1.462,-1.121,-5.107,-4.507,-1.455,-1.424,-1.321,-1.943,1.902,-1.606,210.4,229.4,-4.3,-7.777,1.284,-1.592,7.64,5.051,-4.886,-8.329,10,5.066,4.569,4.302,4.486,1.262,1.204,1.282,1.985,10,4.528,4.84,-10,337.592461137,norm,0,37,37,37,256.688,256.698,256.71333314,256.714,256.715,256.718,up,1,0.656089777838,9.34391022216,001,327,1920_1200,Intel(R) Core(TM) i5-3570 CPU @ 3.40GHz,orientation_search,LEPPC096,Intel(R) HD Graphics 2500,2019_Jan_18_1727,testMonitor,
218.3,222.2,212.8,239.9,36,60,227.5,218.6,231.3,236.2,8.082,7.612,7.791,7.591,7.939,8.357,7.614,4.934,-4.474,-7.683,1.517,-1.279,8.029,4.615,-4.365,-8.114,223.0,240.9,-7.714,225.3,218.5,217.1,217.1,218.0,36,230.5,3,5,prime,10,0,63,norm,36,-4.594,down,norm,225.587610496,233.7,243.4,212.2,232.7,1,230.1,229.6,229.1,10,6,8.36,4.77,1.228,-1.718,-5.15,-8.206,222.2,6,288.6,-7.558,-8.292,60,-7.804,-7.943,-5.153,-4.402,-4.643,-5.276,4.635,7.924,19,-1.69,1.292,4.972,7.562,-7.862,-8.076,-1.635,1.252,245.6,239.3,205.6,237.6,220.0,241.2,240.1,228.3,216.8,213.1,3,norm,1.863,1.402,-2.058,-1.409,-5.055,-4.441,-1.592,-2.051,-1.163,-1.683,1.721,-1.272,,214.5,-4.945,-7.623,1.136,-1.25,7.922,4.732,-4.734,-8.139,10,4.563,4.609,5.048,4.827,1.643,1.853,1.678,1.79,10,5.022,4.426,-10,337.592461137,norm,0,38,38,38,257.416,257.425,257.432594481,257.433,257.434,257.437,down,1,0.705386211439,9.29461378856,001,327,1920_1200,Intel(R) Core(TM) i5-3570 CPU @ 3.40GHz,orientation_search,LEPPC096,Intel(R) HD Graphics 2500,2019_Jan_18_1727,testMonitor,
215.3,238.7,222.9,218.9,36,60,212.3,234.5,241.0,235.8,8.019,8.476,7.947,8.445,7.661,7.588,7.815,4.671,-4.373,-7.947,1.304,-1.383,7.561,5.18,-4.321,-7.648,208.7,205.6,-8.437,226.2,206.5,226.5,229.1,,36,207.8,4,5,prime,10,0,94,norm,36,-4.395,down,norm,225.587610496,245.6,235.3,223.8,223.8,2,220.8,228.5,244.2,10,6,8.162,4.378,2.047,-2.067,-4.352,-8.425,225.1,6,319.6,-7.719,-8.128,60,-8.431,-7.575,-4.71,-4.357,-4.64,-4.896,4.385,8.162,26,-2.011,1.237,4.346,8.168,-7.887,-7.583,-2.098,1.652,232.2,229.5,232.4,232.0,223.7,241.2,212.4,213.5,234.6,230.9,4,norm,1.367,1.367,-1.961,-1.72,-4.933,-4.662,-1.319,-1.816,-1.123,-1.485,1.894,-1.109,214.3,221.3,-5.226,-8.477,1.659,-1.295,8.289,4.96,-4.412,-7.883,10,4.702,4.631,4.587,4.636,1.386,1.58,1.892,1.456,10,4.772,4.578,-10,337.592461137,norm,0,39,39,39,258.176,258.185,258.195333322,258.195,258.197,258.2,down,1,0.599144636639,9.40085536336,001,327,1920_1200,Intel(R) Core(TM) i5-3570 CPU @ 3.40GHz,orientation_search,LEPPC096,Intel(R) HD Graphics 2500,2019_Jan_18_1727,testMonitor,
218.1,223.6,227.5,226.7,36,60,228.5,210.2,208.7,223.0,8.035,7.831,7.829,8.496,7.719,7.587,7.926,5.059,-4.541,-8.018,1.761,-1.389,8.174,5.238,-4.6,-7.738,224.7,221.9,-7.717,238.3,232.0,233.3,217.5,239.9,36,219.3,1,5,prime,10,0,96,norm,36,-4.68,down,norm,225.587610496,216.7,235.0,222.6,212.5,2,224.2,232.0,224.1,10,6,8.047,4.493,1.332,-1.467,-5.13,-8.39,229.0,6,321.6,-7.606,-8.146,60,-7.616,-8.295,-4.62,-5.002,-4.874,-5.073,4.355,8.147,8,-1.797,1.292,4.668,8.335,-8.003,-7.872,-1.941,1.352,222.7,,239.0,228.5,230.3,222.4,218.8,205.6,245.6,214.3,5,norm,1.547,1.886,-1.29,-1.9,-5.046,-4.332,-1.146,-1.233,-1.276,-1.612,1.956,-1.703,222.1,215.9,-4.473,-7.995,1.541,-1.624,7.906,4.799,-4.318,-7.997,10,4.737,4.917,4.918,5.228,1.882,1.181,1.56,1.71,10,5.194,4.367,-10,337.592461137,norm,0,40,40,40,258.832,258.842,258.850377213,258.851,258.852,258.855,down,1,0.674429772851,9.32557022715,001,327,1920_1200,Intel(R) Core(TM) i5-3570 CPU @ 3.40GHz,orientation_search,LEPPC096,Intel(R) HD Graphics 2500,2019_Jan_18_1727,testMonitor,
353.8,349.9,347.7,352.2,36,20,342.1,347.9,349.8,351.3,8.106,7.934,8.475,8.318,7.62,7.607,8.496,5.162,-5.236,-7.596,1.609,-1.9,7.664,4.745,-5.175,-8.253,343.3,357.8,-7.979,345.1,353.9,341.9,356.9,344.4,36,352.7,1,5,probe,5,0,63,norm,36,-5.112,down,norm,350.568201405,352.9,352.1,351.0,342.6,1,347.6,346.7,343.7,10,6,8.039,4.963,1.787,-2.015,-4.779,-8.44,360.0,2,287.6,-8.337,-7.968,60,-7.954,-7.536,-5.057,-4.891,-4.846,-4.653,4.849,8.177,7,-2.006,1.615,4.743,8.414,-7.589,-8.192,-1.927,1.809,342.1,354.7,348.2,346.9,349.2,340.6,,353.6,348.7,354.8,0,norm,1.837,1.947,-1.317,-1.91,-5.026,-5.024,-1.611,-1.287,-1.261,-1.282,1.304,-1.16,354.9,357.3,-5.178,-7.567,1.261,-1.698,8.194,5.093,-4.535,-8.413,11,4.838,4.536,4.718,5.245,1.489,2.056,1.608,1.929,11,5.228,4.498,60,225.587610496,norm,0,41,41,41,259.569,259.578,259.58492782,259.585,259.587,259.589,down,1,1.01963460065,8.98036539935,001,327,1920_1200,Intel(R) Core(TM) i5-3570 CPU @ 3.40GHz,orientation_search,LEPPC096,Intel(R) HD Graphics 2500,2019_Jan_18_1727,testMonitor,
368.0,379.3,373.8,373.1,36,20,366.8,376.2,374.3,370.7,8.062,8.402,8.434,8.09,7.859,7.958,7.552,4.339,-4.687,-8.469,1.501,-1.794,8.08,4.792,-4.657,-8.375,365.5,364.0,-7.968,368.2,365.3,,370.1,363.1,36,367.4,5,5,probe,5,0,84,norm,36,-4.963,up,norm,371.568201405,370.7,368.3,367.8,361.6,3,377.8,372.4,367.3,10,6,8.45,4.733,1.153,-2.096,-4.526,-7.688,381.6,2,287.6,-7.905,-8.363,60,-8.469,-7.614,-5.149,-4.368,-5.084,-4.81,4.498,7.768,33,-1.242,1.744,4.724,8.213,-7.753,-8.029,-1.5,1.298,372.0,379.0,371.3,373.2,365.0,373.1,374.2,373.4,370.0,375.6,1,norm,1.895,1.77,-1.551,-1.23,-4.898,-4.747,-1.191,-1.614,-1.253,-1.234,1.863,-1.176,371.8,373.7,-4.302,-8.004,1.755,-1.964,8.323,5.004,-5.222,-8.375,11,4.984,4.887,4.52,4.571,1.176,1.716,1.377,1.932,11,5.108,4.992,60,225.587610496,norm,0,42,42,42,260.645,260.655,260.661217491,260.661,260.663,260.666,up,1,0.861621779559,9.13837822044,001,327,1920_1200,Intel(R) Core(TM) i5-3570 CPU @ 3.40GHz,orientation_search,LEPPC096,Intel(R) HD Graphics 2500,2019_Jan_18_1727,testMonitor,
143.9,139.5,130.3,,36,60,147.0,143.1,122.5,129.1,8.036,8.398,8.336,7.53,8.113,7.811,7.787,4.953,-5.124,-8.406,1.977,-2.074,7.769,4.997,-4.385,-7.811,121.5,149.6,-7.77,122.3,116.6,145.6,142.1,132.5,36,148.7,3,5,prime,10,0,75,norm,36,-4.837,up,norm,136.566491425,143.5,152.3,153.5,136.9,3,129.9,118.3,153.8,10,5,7.804,4.73,1.204,-1.512,-5.259,-7.581,148.7,5,211.6,-8.402,-7.55,60,-7.535,-8.41,-5.072,-5.291,-4.394,-4.393,4.5,8.106,21,-1.25,1.944,4.327,7.855,-7.868,-8.487,-1.979,1.546,139.1,124.4,139.4,117.8,127.1,156.6,127.7,127.8,127.6,151.9,0,norm,1.512,1.153,-1.327,-1.248,-4.804,-4.884,-2.074,-1.399,-1.615,-1.941,1.382,-1.536,144.3,136.3,-5.184,-7.999,2.078,-1.303,7.974,4.5,-4.654,-7.53,12,4.899,5.147,4.624,4.349,1.691,1.313,1.795,1.887,12,4.516,4.386,20,225.587610496,norm,0,43,43,43,261.561,261.57,261.580321089,261.58,261.582,261.585,up,1,0.824973784915,9.17502621509,001,327,1920_1200,Intel(R) Core(TM) i5-3570 CPU @ 3.40GHz,orientation_search,LEPPC096,Intel(R) HD Graphics 2500,2019_Jan_18_1727,testMonitor,
136.0,131.7,126.2,148.6,36,60,126.8,140.6,156.6,144.6,7.868,8.197,7.939,7.556,7.72,7.948,8.36,4.324,-4.352,-8.45,1.994,-1.605,7.881,4.582,-4.526,-7.663,128.4,116.6,-8.083,132.8,123.4,150.9,140.8,125.2,36,119.5,2,5,prime,10,0,75,norm,36,-4.863,up,norm,136.566491425,136.3,124.1,,148.4,3,138.8,137.8,136.3,10,5,7.552,4.87,1.293,-1.273,-4.875,-8.221,121.6,5,211.6,-7.913,-7.961,60,-7.698,-7.651,-4.644,-4.361,-4.403,-4.368,4.542,8.078,15,-1.578,2.055,4.931,8.343,-8.042,-7.785,-1.662,1.93,128.3,147.4,127.6,118.0,123.3,142.8,119.7,152.7,140.6,122.5,1,norm,1.191,1.716,-1.508,-1.1,-4.445,-4.345,-1.856,-1.236,-1.363,-1.693,1.817,-1.211,146.1,137.5,-4.413,-8.45,1.581,-1.656,7.81,4.455,-4.87,-7.718,12,5.113,4.664,4.604,4.372,1.866,1.141,1.37,1.627,12,4.593,5.234,20,225.587610496,norm,0,44,44,44,262.443,262.452,262.469463425,262.47,262.471,262.474,up,1,0.546666775332,9.45333322467,001,327,1920_1200,Intel(R) Core(TM) i5-3570 CPU @ 3.40GHz,orientation_search,LEPPC096,Intel(R) HD Graphics 2500,2019_Jan_18_1727,testMonitor,
152.7,142.1,142.7,136.3,36,60,122.9,133.6,136.3,139.4,8.219,8.186,8.309,8.193,7.653,8.063,7.914,4.417,-4.956,-8.172,1.967,-1.481,8.37,4.569,-5.276,-7.558,153.2,128.6,-7.599,127.4,138.5,139.9,142.5,129.1,36,136.3,0,5,prime,10,0,102,norm,36,-5.196,up,norm,136.566491425,127.0,124.3,125.9,121.4,3,139.5,124.4,120.0,10,5,7.959,4.654,1.165,-1.384,-4.731,-8.5,128.7,5,238.6,-7.768,-7.923,60,-7.733,-8.131,-4.889,-5.109,-4.664,-5.233,4.624,8.246,3,-1.828,1.752,4.64,7.904,-7.52,-8.303,-1.27,1.15,121.7,135.3,,156.6,138.8,133.9,128.2,124.5,140.2,142.7,2,norm,1.304,1.115,-1.572,-1.116,-4.609,-4.439,-1.943,-2.055,-1.286,-1.101,1.437,-1.993,129.3,142.7,-5.294,-7.766,1.657,-1.48,7.792,4.473,-5.244,-7.564,12,4.836,5.062,4.303,5.156,1.669,1.591,1.46,1.633,12,5.263,5.056,20,225.587610496,norm,0,45,45,45,263.063,263.085,263.096086663,263.096,263.098,263.101,up,1,0.601921594407,9.39807840559,001,327,1920_1200,Intel(R) Core(TM) i5-3570 CPU @ 3.40GHz,orientation_search,LEPPC096,Intel(R) HD Graphics 2500,2019_Jan_18_1727,testMonitor,
137.5,140.7,138.5,148.0,36,60,128.0,146.8,142.1,141.2,8.48,8.288,8.461,8.188,8.309,8.175,7.887,5.237,-5.222,-8.339,1.23,-1.417,7.787,4.841,-4.397,-8.077,139.3,136.9,-8.365,127.9,137.0,131.1,,148.3,36,130.9,5,5,prime,10,0,94,norm,36,-4.532,down,norm,136.566491425,128.5,131.1,123.4,129.2,2,156.6,138.2,127.1,10,5,8.372,4.948,1.325,-1.976,-5.221,-7.663,145.4,5,230.6,-8.46,-7.767,60,-8.222,-8.427,-4.646,-5.261,-4.763,-5.179,5.149,8.349,32,-1.27,1.597,5.086,7.899,-7.714,-8.118,-1.516,1.255,147.6,125.4,130.3,123.0,116.6,138.8,140.6,148.3,135.0,127.6,3,norm,2.011,1.48,-2.009,-1.893,-4.47,-4.847,-1.119,-2.0,-1.747,-1.71,1.591,-1.842,135.1,151.4,-4.49,-7.515,1.287,-1.259,7.905,5.152,-4.373,-8.461,12,4.568,4.656,4.476,4.391,1.312,1.314,1.123,1.67,12,5.179,4.822,20,225.587610496,norm,0,46,46,46,263.736,263.747,263.764209723,263.764,263.766,263.769,down,1,0.909816485349,9.09018351465,001,327,1920_1200,Intel(R) Core(TM) i5-3570 CPU @ 3.40GHz,orientation_search,LEPPC096,Intel(R) HD Graphics 2500,2019_Jan_18_1727,testMonitor,
139.2,153.2,139.7,116.6,36,60,144.8,151.0,148.3,132.9,7.868,8.227,8.241,8.477,8.417,7.52,8.321,5.262,-5.194,-8.151,1.151,-2.098,8.153,5.128,-5.231,-7.959,151.4,124.6,-8.279,136.0,142.0,150.1,136.9,154.5,36,138.3,0,5,prime,10,0,118,norm,36,-4.906,down,norm,136.566491425,133.9,144.1,128.9,139.8,0,128.4,132.6,132.7,10,5,7.732,4.536,1.798,-1.107,-4.353,-8.032,139.3,5,254.6,-8.153,-7.732,60,-7.811,-7.724,-4.669,-4.704,-4.684,-4.969,4.387,8.219,0,-2.018,1.156,4.712,7.836,-8.253,-7.788,-1.465,1.444,136.7,133.6,153.6,120.2,151.3,,145.7,136.7,138.6,142.1,4,norm,1.514,1.883,-1.934,-1.877,-4.893,-4.341,-1.329,-1.348,-1.681,-1.524,1.442,-1.604,156.6,156.3,-4.888,-7.6,1.318,-1.669,7.669,5.157,-4.855,-7.569,12,4.888,4.886,5.28,4.986,1.779,1.334,1.214,1.703,12,4.355,4.717,20,225.587610496,norm,0,47,47,47,264.712,264.722,264.731266552,264.731,264.733,264.736,down,1,0.635820702702,9.3641792973,001,327,1920_1200,Intel(R) Core(TM) i5-3570 CPU @ 3.40GHz,orientation_search,LEPPC096,Intel(R) HD Graphics 2500,2019_Jan_18_1727,testMonitor,
297.4,298.3,291.8,302.5,36,-60,,293.6,306.3,304.9,7.99,7.718,8.232,8.103,7.566,8.162,8.318,4.911,-4.666,-7.729,1.782,-1.584,8.019,4.906,-4.897,-8.026,293.7,304.3,-7.763,288.6,294.5,289.9,295.5,302.7,36,295.8,4,5,probe,5,0,107,norm,36,-4.88,down,norm,296.420829948,293.6,296.7,295.2,290.5,0,295.6,295.7,287.6,10,5,7.557,4.741,1.385,-1.257,-4.764,-8.079,293.6,2,189.4,-7.852,-8.129,60,-7.836,-7.758,-4.947,-4.953,-4.748,-4.83,4.687,8.155,24,-1.568,1.626,4.457,7.925,-8.311,-8.489,-1.226,1.883,306.4,303.6,297.1,286.4,301.1,305.4,287.1,295.6,297.6,287.7,0,norm,1.527,1.504,-1.487,-1.179,-4.337,-4.694,-1.405,-2.017,-1.734,-1.968,1.112,-1.337,291.8,295.6,-5.214,-8.387,1.682,-1.479,8.038,5.19,-4.739,-7.743,13,4.391,4.605,4.866,4.892,1.212,1.489,2.089,1.105,13,4.566,4.743,60,136.566491425,norm,0,48,48,48,265.403,265.414,265.418990407,265.419,265.421,265.424,down,1,0.587691195051,9.41230880495,001,327,1920_1200,Intel(R) Core(TM) i5-3570 CPU @ 3.40GHz,orientation_search,LEPPC096,Intel(R) HD Graphics 2500,2019_Jan_18_1727,testMonitor,
248.9,256.0,250.2,242.1,36,-60,246.9,251.3,247.0,256.7,7.607,8.056,8.099,8.139,7.976,8.113,8.149,4.425,-4.469,-7.984,1.214,-1.339,7.575,4.513,-4.738,-7.633,247.4,242.7,-8.374,251.6,256.6,243.9,240.4,250.5,36,249.4,0,5,probe,5,0,61,norm,36,-4.607,down,norm,250.420829948,256.1,251.2,244.6,254.2,1,250.3,257.0,250.8,10,5,8.169,4.83,1.483,-1.384,-5.234,-7.512,255.6,2,189.4,-8.337,-8.401,60,-7.997,-8.145,-4.724,-4.975,-4.391,-4.552,4.72,8.002,1,-1.637,2.018,4.719,8.408,-8.167,-7.558,-1.894,1.144,250.0,250.0,253.7,246.8,,251.5,247.6,244.6,250.2,251.9,1,norm,1.202,1.774,-1.369,-1.767,-4.608,-4.551,-1.95,-1.49,-1.891,-1.675,1.711,-1.583,258.3,260.4,-4.853,-8.415,1.172,-1.893,7.599,4.715,-5.156,-7.793,13,4.527,4.887,4.465,4.467,2.007,1.832,2.029,1.167,13,4.69,4.651,60,136.566491425,norm,0,49,49,49,266.045,266.056,266.088376077,266.089,266.093,266.099,down,1,0.748767121304,9.2512328787,001,327,1920_1200,Intel(R) Core(TM) i5-3570 CPU @ 3.40GHz,orientation_search,LEPPC096,Intel(R) HD Graphics 2500,2019_Jan_18_1727,testMonitor,
258.9,245.9,250.7,,36,10,251.2,262.6,240.1,230.7,7.504,8.079,7.694,7.725,8.343,8.371,8.341,4.605,-4.442,-8.42,1.916,-1.806,8.057,4.671,-4.332,-7.868,257.2,254.5,-7.834,254.0,268.5,264.3,260.9,248.6,36,260.6,3,5,prime,10,0,108,norm,36,-4.969,up,norm,250.653817456,256.2,263.0,257.0,253.7,3,255.6,261.9,254.9,10,5,8.475,5.157,1.558,-2.007,-4.58,-8.287,251.9,5,358.7,-7.535,-7.75,10,-8.18,-7.548,-4.354,-4.764,-5.104,-4.509,5.229,7.812,21,-1.311,1.815,5.12,7.696,-8.352,-8.457,-1.994,1.998,233.4,268.6,270.7,268.2,245.0,256.3,254.4,254.7,257.6,249.9,0,norm,1.535,1.388,-1.298,-1.901,-4.762,-4.875,-2.033,-1.583,-1.643,-1.545,1.193,-1.795,231.5,253.8,-5.249,-7.596,2.065,-1.186,8.299,4.356,-4.65,-7.547,14,5.073,5.21,4.849,5.054,1.137,1.893,1.135,1.633,14,4.962,4.591,-60,136.566491425,norm,0,50,50,50,266.881,266.891,266.899548986,266.9,266.901,266.904,up,1,0.705657870352,9.29434212965,001,327,1920_1200,Intel(R) Core(TM) i5-3570 CPU @ 3.40GHz,orientation_search,LEPPC096,Intel(R) HD Graphics 2500,2019_Jan_18_1727,testMonitor,
241.9,245.7,246.2,243.3,36,10,247.6,265.3,253.3,247.4,7.741,8.09,8.291,7.9,8.117,7.518,7.575,4.39,-5.28,-7.524,2.054,-1.744,7.63,4.696,-4.352,-8.476,239.2,258.8,-7.747,244.6,263.8,256.5,257.0,243.2,36,242.6,1,5,prime,10,0,101,norm,36,-5.078,down,norm,250.653817456,262.6,255.3,230.7,266.4,0,255.8,260.2,248.6,10,5,7.572,5.019,2.095,-1.91,-5.032,-7.918,243.9,5,351.7,-7.927,-7.751,10,-7.742,-7.747,-4.92,-4.9,-4.731,-4.611,4.887,8.326,6,-1.338,1.231,4.797,7.968,-8.146,-7.551,-1.326,1.414,240.0,235.7,248.3,270.7,258.6,239.9,251.1,,269.1,254.3,1,norm,1.492,1.618,-1.951,-1.497,-4.92,-4.516,-2.088,-1.427,-1.385,-1.859,1.693,-1.71,246.9,252.1,-4.313,-7.963,1.323,-1.68,7.884,4.808,-4.491,-7.536,14,4.7,5.268,4.896,5.063,1.936,1.172,1.265,1.443,14,4.998,4.667,-60,136.566491425,norm,0,51,51,51,267.65,267.672,267.682124059,267.682,267.684,267.687,down,1,0.654815395696,9.3451846043,001,327,1920_1200,Intel(R) Core(TM) i5-3570 CPU @ 3.40GHz,orientation_search,LEPPC096,Intel(R) HD Graphics 2500,2019_Jan_18_1727,testMonitor,
253.8,246.4,267.8,241.6,36,10,251.2,267.6,265.1,231.7,7.746,8.085,7.934,7.565,8.451,8.283,7.893,4.844,-4.409,-8.197,1.5,-1.186,8.396,5.081,-4.527,-8.265,248.8,257.1,-8.257,251.4,234.3,242.6,252.4,249.5,36,244.7,0,5,prime,10,0,70,norm,36,-4.972,down,norm,250.653817456,251.6,260.6,246.2,247.3,0,245.9,247.0,248.5,10,5,8.12,4.303,1.253,-1.529,-4.952,-8.03,243.5,5,320.7,-8.287,-8.334,10,-7.644,-8.013,-5.149,-4.328,-4.832,-4.712,5.042,7.805,0,-1.436,2.064,4.462,8.389,-8.051,-8.218,-1.618,1.724,258.6,270.7,250.4,246.7,270.4,,230.7,245.8,270.6,235.0,2,norm,1.117,1.275,-1.123,-1.804,-4.599,-4.441,-1.123,-2.04,-1.211,-1.828,1.895,-2.02,234.7,251.6,-5.034,-8.107,1.32,-2.031,8.069,4.56,-5.012,-8.279,14,5.248,4.465,4.874,4.957,1.362,2.078,1.104,1.675,14,4.72,4.654,-60,136.566491425,norm,0,52,52,52,268.383,268.403,268.415409037,268.416,268.418,268.421,down,1,1.70835423598,8.29164576402,001,327,1920_1200,Intel(R) Core(TM) i5-3570 CPU @ 3.40GHz,orientation_search,LEPPC096,Intel(R) HD Graphics 2500,2019_Jan_18_1727,testMonitor,
259.0,232.9,240.8,248.3,36,10,242.7,259.5,243.8,,8.161,8.425,7.835,7.675,8.425,8.412,8.153,4.986,-4.375,-7.942,1.99,-1.427,8.124,5.196,-4.907,-8.27,238.9,237.7,-7.625,246.0,253.3,255.2,241.9,258.2,36,237.5,4,5,prime,10,0,66,norm,36,-5.227,up,norm,250.653817456,247.8,270.7,270.5,239.2,5,268.2,230.7,248.8,10,5,7.611,5.125,1.268,-2.092,-4.635,-7.752,233.8,5,316.7,-8.367,-7.711,10,-7.64,-7.865,-4.988,-5.288,-5.043,-4.828,5.26,8.266,29,-1.786,1.879,4.864,8.145,-7.525,-7.702,-1.168,1.733,240.0,259.6,259.0,233.0,245.4,261.2,241.3,249.2,261.8,250.7,3,norm,1.925,1.343,-1.201,-1.598,-5.249,-4.438,-2.081,-2.01,-1.951,-1.687,1.827,-1.355,247.2,240.3,-4.801,-7.516,1.21,-1.586,8.017,5.278,-4.536,-7.619,14,4.377,4.833,4.728,5.121,1.786,2.032,1.27,1.347,14,4.603,4.462,-60,136.566491425,norm,0,53,53,53,270.146,270.156,270.175457851,270.176,270.177,270.18,up,1,0.670455704807,9.32954429519,001,327,1920_1200,Intel(R) Core(TM) i5-3570 CPU @ 3.40GHz,orientation_search,LEPPC096,Intel(R) HD Graphics 2500,2019_Jan_18_1727,testMonitor,
236.2,256.5,244.4,240.9,36,10,257.6,230.7,236.9,237.8,8.116,7.557,7.724,8.39,8.399,7.619,7.677,4.674,-4.576,-7.878,1.34,-1.574,8.499,4.626,-4.517,-8.045,246.3,253.4,-8.356,257.2,240.4,249.1,259.1,254.1,36,260.8,1,5,prime,10,0,61,norm,36,-4.96,down,norm,250.653817456,232.4,254.4,249.7,232.1,1,256.4,257.4,264.9,10,5,7.795,4.523,1.172,-1.854,-5.043,-8.108,253.0,5,311.7,-8.374,-8.233,10,-7.752,-7.672,-4.836,-4.676,-5.05,-4.694,5.168,8.204,7,-1.253,2.013,4.492,8.49,-7.921,-8.067,-1.335,1.788,249.2,258.5,249.0,245.1,270.7,255.1,,257.9,246.9,235.5,4,norm,1.236,1.251,-1.739,-1.939,-5.032,-4.701,-2.062,-1.702,-1.517,-1.19,1.528,-1.63,253.5,256.4,-4.482,-8.053,1.365,-1.283,7.958,5.185,-4.782,-7.888,14,5.265,4.349,4.766,4.643,1.107,1.63,1.883,1.811,14,5.065,4.772,-60,136.566491425,norm,0,54,54,54,270.884,270.896,270.916633011,270.917,270.918,270.921,down,1,0.7117759309,9.2882240691,001,327,1920_1200,Intel(R) Core(TM) i5-3570 CPU @ 3.40GHz,orientation_search,LEPPC096,Intel(R) HD Graphics 2500,2019_Jan_18_1727,testMonitor,
347.1,340.7,348.9,352.8,36,80,353.8,351.8,337.8,353.9,8.018,7.84,7.578,7.606,7.673,7.959,8.271,4.92,-4.781,-7.945,1.231,-1.399,8.003,4.948,-4.964,-7.926,350.1,353.1,-8.464,346.5,350.1,336.1,348.3,337.2,36,350.9,1,5,probe,5,0,87,norm,36,-4.4,up,norm,346.147750196,354.8,348.1,348.2,341.4,5,,353.6,339.4,10,5,8.171,4.623,1.726,-2.08,-5.154,-7.533,349.2,1,259.1,-7.618,-7.986,10,-7.779,-8.048,-4.941,-4.97,-5.218,-4.653,4.377,8.244,11,-1.503,2.097,4.936,7.964,-7.639,-7.602,-2.075,1.55,342.9,347.5,341.9,356.1,350.5,343.3,343.7,340.1,338.5,347.5,0,norm,1.31,1.29,-1.864,-1.226,-4.963,-5.012,-1.797,-1.527,-1.85,-1.147,1.79,-1.37,354.3,352.2,-5.253,-7.953,1.456,-1.59,8.369,5.196,-4.92,-7.864,15,4.69,5.027,4.491,4.759,2.052,1.374,1.977,1.423,15,4.828,5.218,10,250.653817456,norm,0,55,55,55,271.674,271.695,271.706922895,271.707,271.711,271.717,up,1,0.827194747444,9.17280525256,001,327,1920_1200,Intel(R) Core(TM) i5-3570 CPU @ 3.40GHz,orientation_search,LEPPC096,Intel(R) HD Graphics 2500,2019_Jan_18_1727,testMonitor,
187.2,183.5,198.8,192.1,36,-40,205.0,197.3,205.1,194.9,8.306,7.834,7.889,8.009,7.875,8.012,8.376,5.224,-4.757,-7.947,1.203,-1.512,8.279,5.098,-4.342,-7.983,201.3,174.0,-7.981,191.2,197.6,186.5,214.0,181.0,36,198.9,1,5,prime,10,0,81,norm,36,-4.317,up,norm,193.966629155,196.8,199.7,174.1,195.4,3,195.6,180.1,189.4,10,6,8.146,5.061,1.638,-1.262,-5.215,-8.393,206.6,6,275.0,-7.582,-8.104,-40,-7.769,-8.08,-5.283,-4.939,-4.588,-5.268,4.588,7.95,9,-1.105,1.117,4.718,8.303,-7.765,-7.508,-2.011,1.625,,199.6,198.1,200.3,177.8,178.1,201.0,195.3,187.5,205.7,0,norm,1.186,1.275,-1.326,-1.932,-4.326,-4.608,-1.108,-1.915,-1.566,-1.733,1.931,-1.716,194.0,212.5,-4.484,-7.743,1.525,-1.28,7.654,4.722,-4.352,-7.717,16,4.466,4.78,4.907,4.881,1.874,1.355,1.425,1.172,16,4.976,4.847,80,250.653817456,norm,0,56,56,56,272.578,272.59,272.624443929,272.625,272.627,272.63,up,1,1.38524554042,8.61475445958,001,327,1920_1200,Intel(R) Core(TM) i5-3570 CPU @ 3.40GHz,orientation_search,LEPPC096,Intel(R) HD Graphics 2500,2019_Jan_18_1727,testMonitor,
192.2,204.1,190.2,195.8,36,-40,197.8,198.0,194.9,189.0,8.395,8.137,7.524,8.287,7.675,8.166,7.674,4.714,-4.667,-7.516,1.223,-1.659,8.343,4.718,-4.331,-7.947,202.8,186.0,-7.615,189.9,197.7,186.0,198.9,203.2,36,,4,5,prime,10,0,103,norm,36,-4.368,up,norm,193.966629155,212.5,188.4,200.6,191.9,3,211.8,202.2,179.0,10,6,8.146,5.171,1.101,-1.316,-4.4,-8.172,201.7,6,297.0,-8.48,-7.724,-40,-7.74,-7.535,-4.778,-4.942,-5.13,-4.542,4.406,7.869,27,-1.58,2.065,4.448,8.195,-7.531,-8.292,-1.158,2.033,200.3,174.0,180.9,193.5,194.6,197.0,201.7,193.4,194.4,214.0,1,norm,1.457,1.877,-1.311,-1.962,-5.006,-4.531,-1.413,-1.611,-1.125,-1.225,1.274,-1.177,183.7,177.9,-4.346,-8.186,1.699,-1.439,7.777,4.915,-4.662,-7.55,16,4.518,4.949,4.791,4.516,1.731,1.778,1.491,1.976,16,5.043,5.014,80,250.653817456,norm,0,57,57,57,274.048,274.058,274.075087429,274.075,274.077,274.08,down,0,0.827756175864,-10,001,327,1920_1200,Intel(R) Core(TM) i5-3570 CPU @ 3.40GHz,orientation_search,LEPPC096,Intel(R) HD Graphics 2500,2019_Jan_18_1727,testMonitor,
190.9,178.4,211.8,175.6,36,-40,189.5,205.2,185.9,174.0,8.007,8.085,8.014,7.859,7.651,7.555,8.257,5.122,-5.234,-8.375,1.898,-1.13,7.923,5.197,-4.751,-7.592,193.1,188.8,-8.006,187.6,194.0,201.3,186.4,190.1,36,196.9,0,5,prime,10,0,104,norm,36,-5.043,up,norm,193.966629155,179.2,195.5,210.5,210.6,4,200.8,184.7,200.4,10,6,7.521,4.497,1.949,-1.516,-4.823,-7.928,181.6,6,298.0,-7.783,-8.274,-40,-8.457,-7.927,-5.246,-4.402,-4.866,-5.23,4.694,8.479,4,-2.02,1.289,4.443,7.747,-8.251,-7.569,-1.305,1.789,214.0,199.4,176.4,211.9,182.1,206.5,184.7,201.2,190.7,,2,norm,1.368,1.622,-1.166,-1.573,-4.447,-4.443,-1.356,-2.034,-1.28,-1.986,1.216,-1.319,199.7,212.5,-4.419,-8.281,1.404,-1.629,7.506,5.171,-4.788,-7.775,16,4.896,4.521,5.025,4.826,1.3,1.424,1.11,1.553,16,5.225,4.733,80,250.653817456,norm,0,58,58,58,275.983,275.993,276.009540359,276.01,276.011,276.014,up,1,0.932132963153,9.06786703685,001,327,1920_1200,Intel(R) Core(TM) i5-3570 CPU @ 3.40GHz,orientation_search,LEPPC096,Intel(R) HD Graphics 2500,2019_Jan_18_1727,testMonitor,
193.2,194.4,197.4,199.8,36,-40,200.9,,174.0,194.8,8.303,7.915,8.403,8.199,8.417,7.917,8.49,5.172,-5.099,-7.513,2.027,-2.081,8.295,4.531,-5.025,-8.223,198.2,185.7,-8.214,184.2,206.0,203.3,196.7,196.4,36,199.6,4,5,prime,10,0,74,norm,36,-4.588,down,norm,193.966629155,192.6,193.3,195.4,205.2,1,195.9,182.1,203.4,10,6,7.91,4.351,2.075,-1.906,-4.802,-8.108,187.0,6,268.0,-8.008,-7.572,-40,-7.548,-7.869,-4.648,-4.874,-5.122,-4.718,5.058,7.895,25,-1.892,1.133,5.134,8.46,-7.959,-7.612,-1.873,1.848,196.7,179.7,182.1,174.0,182.6,193.6,190.2,188.3,212.1,187.1,3,norm,1.715,2.083,-1.844,-1.829,-5.267,-4.885,-1.121,-1.796,-1.973,-2.048,1.571,-1.837,198.1,205.7,-4.308,-7.982,1.349,-1.935,8.205,5.11,-4.358,-7.601,16,5.221,4.736,4.468,4.592,1.668,1.683,1.56,1.979,16,4.732,5.252,80,250.653817456,norm,0,59,59,59,276.963,276.974,276.97914384,276.979,276.981,276.985,down,1,1.09206339432,8.90793660568,001,327,1920_1200,Intel(R) Core(TM) i5-3570 CPU @ 3.40GHz,orientation_search,LEPPC096,Intel(R) HD Graphics 2500,2019_Jan_18_1727,testMonitor,
199.2,206.7,198.8,184.5,36,-40,199.7,196.3,174.0,195.7,8.009,7.676,8.208,7.976,7.72,7.805,7.986,4.497,-4.595,-8.385,1.621,-1.202,8.444,4.333,-4.389,-7.674,197.3,206.1,-7.542,202.5,192.2,193.4,183.4,,36,197.1,4,5,prime,10,0,72,norm,36,-5.146,down,norm,193.966629155,200.8,193.1,188.8,205.3,2,195.5,185.6,206.4,10,6,7.831,4.569,1.233,-1.574,-4.54,-8.288,214.0,6,266.0,-8.198,-8.454,-40,-7.608,-7.767,-4.591,-4.382,-4.834,-5.228,5.056,8.157,26,-1.328,1.746,4.985,8.085,-7.616,-7.915,-1.211,1.712,183.5,208.5,198.2,194.3,197.3,184.3,195.9,197.3,194.7,188.4,4,norm,1.212,1.346,-1.49,-2.078,-4.464,-4.759,-1.37,-1.412,-1.132,-2.081,1.923,-1.147,199.6,192.7,-4.34,-8.377,1.533,-1.618,7.823,4.953,-4.891,-8.325,16,4.671,4.772,5.037,4.373,1.393,1.813,1.894,1.553,16,4.764,4.716,80,250.653817456,norm,0,60,60,60,278.116,278.125,278.132305738,278.133,278.134,278.137,up,0,0.654732086963,-10,001,327,1920_1200,Intel(R) Core(TM) i5-3570 CPU @ 3.40GHz,orientation_search,LEPPC096,Intel(R) HD Graphics 2500,2019_Jan_18_1727,testMonitor,
174.0,189.7,189.0,195.5,36,-40,195.7,,191.6,186.6,7.818,8.094,7.667,8.15,7.856,8.109,8.152,4.444,-4.737,-7.568,1.177,-1.762,8.319,4.492,-4.524,-7.615,191.0,192.0,-7.932,188.9,213.4,175.8,187.8,199.4,36,183.0,4,5,prime,10,0,65,norm,36,-5.111,down,norm,193.966629155,203.6,203.4,181.1,200.7,1,202.2,181.7,205.4,10,6,7.685,5.28,1.471,-1.584,-5.284,-8.287,193.3,6,259.0,-7.826,-7.995,-40,-8.457,-7.555,-4.549,-4.34,-4.501,-5.065,4.441,7.938,25,-1.938,2.093,4.335,8.123,-8.142,-7.631,-1.253,2.062,190.2,193.8,196.0,214.0,189.8,193.2,174.3,192.6,188.7,203.3,5,norm,1.161,1.8,-1.262,-1.635,-4.647,-4.543,-1.329,-2.047,-1.688,-2.002,1.629,-2.055,196.6,198.9,-4.514,-7.552,1.504,-1.817,7.783,4.49,-4.695,-8.385,16,5.279,4.355,4.609,4.786,1.595,1.127,2.017,1.324,16,4.417,4.893,80,250.653817456,norm,0,61,61,61,279.867,279.877,279.893728241,279.894,279.896,279.898,up,0,3.05842085278,-10,001,327,1920_1200,Intel(R) Core(TM) i5-3570 CPU @ 3.40GHz,orientation_search,LEPPC096,Intel(R) HD Graphics 2500,2019_Jan_18_1727,testMonitor,
232.8,233.1,222.7,230.3,36,-40,223.9,230.1,239.9,228.4,8.075,8.119,8.451,7.943,8.495,7.873,8.083,4.919,-5.044,-8.247,1.794,-1.916,7.838,4.561,-4.814,-7.918,237.8,233.5,-8.263,226.9,223.7,230.9,227.0,,36,235.1,4,5,probe,5,0,74,norm,36,-5.165,down,norm,229.898087871,230.2,228.4,227.6,238.1,2,235.5,228.9,232.4,10,6,7.645,4.794,1.345,-1.697,-4.399,-8.116,226.4,2,155.9,-8.307,-7.885,-40,-7.876,-8.475,-5.043,-5.218,-4.923,-5.014,5.07,7.896,26,-1.334,1.733,4.398,7.769,-8.18,-8.247,-1.137,1.268,226.1,226.1,223.4,225.7,230.2,219.9,233.5,238.8,228.5,228.2,0,norm,1.776,1.151,-1.171,-2.028,-4.435,-5.047,-2.011,-1.978,-2.063,-1.685,1.308,-1.736,236.8,225.6,-4.991,-7.55,1.193,-1.983,7.608,4.751,-5.051,-7.505,17,5.06,4.924,4.824,5.257,1.167,2.024,1.239,1.209,17,5.12,4.744,-40,193.966629155,norm,0,62,62,62,284.032,284.042,284.058694323,284.059,284.061,284.063,down,1,0.341294750524,9.65870524948,001,327,1920_1200,Intel(R) Core(TM) i5-3570 CPU @ 3.40GHz,orientation_search,LEPPC096,Intel(R) HD Graphics 2500,2019_Jan_18_1727,testMonitor,
221.7,223.3,221.8,216.7,36,-40,222.2,220.5,224.7,223.4,7.648,8.31,7.864,7.685,8.39,7.797,7.908,4.834,-4.79,-7.544,1.629,-1.466,8.401,4.57,-4.811,-8.154,220.5,225.5,-8.367,225.5,217.4,218.4,218.7,225.3,36,223.4,2,5,probe,5,0,66,norm,36,-4.958,down,norm,221.898087871,219.1,219.8,215.6,223.7,0,224.7,231.9,,10,6,7.711,4.708,1.426,-1.833,-5.034,-8.41,218.0,2,155.9,-7.737,-8.465,-40,-8.208,-7.931,-4.831,-4.447,-4.511,-4.354,4.348,7.698,12,-1.938,1.123,5.122,7.88,-8.152,-8.21,-1.311,1.847,224.9,225.2,221.1,211.9,215.8,213.7,230.1,221.0,229.4,221.2,1,norm,1.68,1.99,-1.754,-1.453,-5.254,-5.089,-2.008,-1.163,-1.368,-1.713,1.212,-1.238,220.7,228.0,-4.729,-7.702,1.891,-1.174,7.896,5.136,-5.21,-8.368,17,4.482,4.663,4.903,5.269,1.876,1.955,1.504,1.954,17,4.349,4.446,-40,193.966629155,norm,0,63,63,63,284.438,284.447,284.464349597,284.465,284.466,284.469,down,1,0.63898432166,9.36101567834,001,327,1920_1200,Intel(R) Core(TM) i5-3570 CPU @ 3.40GHz,orientation_search,LEPPC096,Intel(R) HD Graphics 2500,2019_Jan_18_1727,testMonitor,
6.9,-6.2,19.1,-12.1,36,-30,6.3,8.1,22.9,10.2,8.212,7.511,8.404,8.345,7.67,8.215,8.137,4.414,-4.497,-8.295,1.504,-1.854,8.219,4.324,-4.336,-8.209,0.5,6.8,-8.302,12.7,26.6,-4.4,16.5,7.9,36,25.0,2,5,prime,10,0,84,norm,36,-4.618,down,norm,6.57145181321,-4.5,-10.3,0.9,7.7,1,6.4,,-7.6,10,5,8.116,4.663,1.305,-1.169,-4.991,-8.22,7.1,5,90.6,-7.927,-8.009,-30,-7.632,-8.272,-5.094,-5.111,-4.894,-4.668,5.098,7.984,13,-1.565,1.218,4.951,7.585,-7.781,-8.008,-2.074,1.517,1.4,-1.0,6.3,-1.2,-5.3,6.3,-13.4,6.5,11.8,-9.0,0,norm,1.725,2.092,-1.663,-1.961,-4.55,-4.709,-1.453,-1.932,-1.22,-1.795,1.404,-1.503,16.0,17.7,-5.045,-7.504,1.442,-2.042,7.588,4.351,-4.765,-8.271,18,5.283,5.277,4.975,5.006,1.634,1.806,1.281,2.085,18,4.394,4.728,-40,193.966629155,norm,0,64,64,64,285.142,289.607,289.627549293,289.628,289.63,289.632,down,1,0.892691711204,9.1073082888,001,327,1920_1200,Intel(R) Core(TM) i5-3570 CPU @ 3.40GHz,orientation_search,LEPPC096,Intel(R) HD Graphics 2500,2019_Jan_18_1727,testMonitor,
3.4,11.2,-5.0,19.5,36,-30,-13.4,-0.5,-11.3,2.3,8.26,8.16,8.186,7.596,7.829,8.176,7.844,5.031,-5.036,-8.241,1.575,-1.233,7.923,5.116,-5.21,-8.285,8.6,20.0,-8.252,15.1,-13.2,15.6,17.5,5.0,36,7.7,1,5,prime,10,0,63,norm,36,-4.408,down,norm,6.57145181321,17.9,2.4,8.7,-6.8,0,9.5,16.6,26.6,10,5,7.679,4.804,2.091,-1.675,-5.154,-8.159,-9.2,5,69.6,-7.778,-8.365,-30,-8.335,-8.453,-5.077,-4.702,-4.957,-5.097,5.059,8.378,6,-2.072,1.243,4.596,8.12,-7.675,-7.919,-1.104,1.207,8.1,18.7,24.5,-8.5,-8.7,-1.7,2.1,,-1.2,7.4,1,norm,1.572,1.638,-1.498,-1.814,-4.639,-4.961,-1.206,-1.532,-1.508,-1.618,1.973,-1.975,18.8,5.2,-4.67,-7.721,1.441,-1.72,7.917,4.795,-5.023,-7.908,18,4.348,5.268,5.073,5.18,1.669,1.224,1.445,1.176,18,4.305,4.325,-40,193.966629155,norm,0,65,65,65,290.564,290.573,290.582483192,290.583,290.585,290.587,down,1,1.87510451322,8.12489548678,001,327,1920_1200,Intel(R) Core(TM) i5-3570 CPU @ 3.40GHz,orientation_search,LEPPC096,Intel(R) HD Graphics 2500,2019_Jan_18_1727,testMonitor,
-1.4,13.0,13.5,12.0,36,-30,11.7,12.2,25.4,-9.5,7.709,7.685,8.162,7.919,7.767,8.104,7.712,4.634,-4.724,-7.893,1.249,-1.702,7.887,4.434,-4.912,-8.166,-8.6,-2.6,-8.273,21.9,22.1,3.1,6.8,8.8,36,-3.0,0,5,prime,10,0,94,norm,36,-4.847,up,norm,6.57145181321,18.3,10.7,10.6,26.6,5,4.9,7.3,-13.4,10,5,8.041,5.066,1.379,-1.212,-5.031,-8.032,18.0,5,100.6,-7.525,-7.62,-30,-7.827,-8.367,-5.167,-4.765,-4.323,-5.275,5.183,7.785,5,-1.446,1.341,5.015,7.542,-8.093,-7.555,-1.656,1.55,-0.6,-2.5,3.5,4.2,-10.9,-1.3,5.4,16.3,,13.8,2,norm,1.168,2.046,-1.607,-2.007,-4.869,-4.982,-2.082,-1.451,-1.631,-1.708,1.813,-1.619,6.2,-12.7,-4.866,-7.501,1.506,-1.653,8.279,4.506,-4.364,-8.055,18,4.764,4.631,5.17,4.709,1.93,2.039,1.422,1.238,18,4.57,5.025,-40,193.966629155,norm,0,66,66,66,292.499,292.516,292.531633775,292.532,292.534,292.537,up,1,0.686747391623,9.31325260838,001,327,1920_1200,Intel(R) Core(TM) i5-3570 CPU @ 3.40GHz,orientation_search,LEPPC096,Intel(R) HD Graphics 2500,2019_Jan_18_1727,testMonitor,
-5.1,18.4,-13.4,-0.7,36,-30,16.1,-5.3,17.5,,8.354,7.561,7.759,7.717,8.051,8.162,8.154,4.971,-4.787,-7.552,1.809,-1.453,8.47,5.22,-4.772,-8.491,1.9,9.1,-8.484,8.3,-0.8,5.5,19.3,-2.1,36,10.4,4,5,prime,10,0,103,norm,36,-4.853,up,norm,6.57145181321,14.5,4.7,5.7,26.6,5,-7.5,9.7,18.9,10,5,7.729,4.915,1.631,-1.799,-4.347,-7.684,4.3,5,109.6,-8.015,-7.781,-30,-7.622,-8.277,-4.5,-4.633,-4.612,-4.896,5.067,7.821,29,-1.877,1.293,4.454,7.6,-8.454,-8.029,-1.408,1.837,-0.9,6.9,19.1,2.9,21.5,4.3,-1.2,11.1,23.9,-2.5,3,norm,1.593,1.601,-1.427,-1.165,-4.471,-4.435,-2.045,-1.209,-1.468,-1.987,2.015,-1.848,4.1,11.6,-4.313,-7.889,2.014,-1.386,7.598,4.45,-4.598,-8.441,18,5.199,4.581,4.936,4.559,1.345,1.435,1.999,1.154,18,4.721,4.991,-40,193.966629155,norm,0,67,67,67,293.263,293.273,293.29325157,293.293,293.295,293.298,up,1,0.77867676755,9.22132323245,001,327,1920_1200,Intel(R) Core(TM) i5-3570 CPU @ 3.40GHz,orientation_search,LEPPC096,Intel(R) HD Graphics 2500,2019_Jan_18_1727,testMonitor,
-2.0,6.0,23.2,2.3,36,-30,8.7,24.2,1.0,16.7,7.668,8.335,8.172,8.301,7.873,8.165,7.75,4.597,-4.917,-8.041,1.425,-1.601,7.523,5.136,-5.036,-8.281,7.2,4.7,-7.568,16.4,-5.3,6.2,,18.0,36,26.6,5,5,prime,10,0,84,norm,36,-5.194,down,norm,6.57145181321,19.6,-1.3,-3.2,2.9,2,19.6,13.8,-4.7,10,5,8.177,4.835,1.165,-1.685,-5.143,-8.125,13.6,5,90.6,-7.729,-8.479,-30,-7.996,-8.462,-4.983,-5.195,-4.416,-5.064,5.195,7.93,32,-1.938,1.343,4.938,7.937,-7.521,-7.69,-2.013,2.076,-8.8,-1.2,15.7,18.5,1.7,8.9,5.1,-12.2,13.5,-2.1,4,norm,1.717,1.15,-2.015,-1.425,-4.428,-4.598,-1.863,-1.107,-1.894,-2.051,1.7,-1.57,14.3,-13.4,-4.778,-8.099,1.773,-2.015,8.438,5.183,-4.91,-7.852,18,4.31,4.773,4.42,4.954,1.383,1.479,1.557,1.978,18,5.201,4.811,-40,193.966629155,norm,0,68,68,68,294.11,294.123,294.142355005,294.143,294.144,294.147,down,1,0.964168189466,9.03583181053,001,327,1920_1200,Intel(R) Core(TM) i5-3570 CPU @ 3.40GHz,orientation_search,LEPPC096,Intel(R) HD Graphics 2500,2019_Jan_18_1727,testMonitor,
84.3,79.4,86.7,88.0,36,0,85.4,86.6,89.4,86.9,7.95,7.989,8.301,7.914,7.999,8.113,7.714,5.097,-5.273,-7.901,2.046,-1.969,7.765,4.737,-4.801,-7.632,84.4,80.9,-7.617,78.1,82.2,73.1,89.2,82.9,36,82.0,0,5,probe,5,0,103,norm,36,-5.289,down,norm,83.1468039784,77.8,84.6,89.2,88.7,1,75.8,89.1,82.4,10,5,7.838,5.091,1.605,-1.881,-5.032,-7.831,85.8,1,-19.9,-8.114,-7.799,-30,-8.043,-7.782,-4.766,-4.349,-4.689,-4.9,4.431,8.475,1,-1.899,1.69,4.406,7.911,-8.336,-7.736,-1.336,1.165,77.9,93.1,87.0,85.0,,75.0,84.9,90.5,86.0,83.5,0,norm,2.039,1.516,-1.813,-1.728,-5.197,-4.938,-1.453,-1.256,-1.555,-1.817,1.823,-1.645,85.3,87.2,-4.761,-8.334,1.19,-1.751,8.419,4.87,-4.682,-7.863,19,5.269,4.54,4.759,4.804,1.956,1.208,1.759,1.817,19,4.971,4.877,-30,6.57145181321,norm,0,69,69,69,295.15,295.16,295.166617164,295.167,295.169,295.171,down,1,0.933311962834,9.06668803717,001,327,1920_1200,Intel(R) Core(TM) i5-3570 CPU @ 3.40GHz,orientation_search,LEPPC096,Intel(R) HD Graphics 2500,2019_Jan_18_1727,testMonitor,
302.7,307.7,337.9,323.9,36,-20,324.9,336.2,316.2,308.7,7.523,7.929,7.729,7.841,7.691,8.184,7.649,5.289,-5.051,-8.335,1.694,-1.439,8.302,4.678,-5.08,-8.47,333.8,322.4,-7.894,328.4,316.6,305.2,321.8,301.7,36,328.1,0,5,prime,10,0,92,norm,36,-4.388,down,norm,317.894061409,317.1,324.8,309.0,314.3,2,332.0,308.9,297.9,10,6,7.895,4.703,1.491,-1.503,-5.104,-7.902,337.4,6,409.9,-7.581,-7.525,-20,-8.035,-8.485,-4.306,-5.255,-4.913,-4.305,4.863,8.029,2,-2.047,1.637,4.643,7.795,-8.377,-7.854,-2.092,1.665,316.6,327.7,327.9,,305.8,311.7,315.6,325.9,314.5,320.1,0,norm,1.307,1.637,-1.327,-1.931,-4.614,-5.126,-1.41,-1.267,-1.545,-2.006,2.093,-1.966,312.3,331.9,-4.925,-8.041,1.944,-1.805,7.785,4.995,-4.704,-7.916,20,5.232,5.258,4.625,4.908,2.034,1.595,1.766,1.798,20,4.829,4.618,0,6.57145181321,norm,0,70,70,70,296.137,296.148,296.179171428,296.18,296.184,296.19,down,1,0.868046512836,9.13195348716,001,327,1920_1200,Intel(R) Core(TM) i5-3570 CPU @ 3.40GHz,orientation_search,LEPPC096,Intel(R) HD Graphics 2500,2019_Jan_18_1727,testMonitor,
328.9,301.0,303.0,337.9,36,-20,324.4,325.3,312.6,316.9,8.349,7.929,7.808,8.336,7.959,7.934,8.009,4.631,-4.973,-8.27,1.423,-1.901,8.377,4.302,-4.558,-8.401,308.7,318.6,-8.148,323.4,328.8,323.1,311.0,318.6,36,299.0,3,5,prime,10,0,106,norm,36,-4.921,down,norm,317.894061409,318.6,315.2,306.4,318.9,1,314.0,318.0,306.1,10,6,8.171,4.442,1.743,-1.759,-4.782,-8.155,297.9,6,423.9,-7.914,-8.431,-20,-7.92,-8.129,-4.573,-5.277,-4.306,-4.751,4.479,7.742,19,-1.285,1.587,4.905,8.164,-7.72,-7.787,-1.345,1.272,329.2,300.5,314.1,331.0,312.6,318.2,311.4,311.3,313.9,322.5,1,norm,1.201,1.712,-1.293,-1.298,-5.068,-4.811,-1.371,-1.393,-1.553,-1.176,2.09,-1.749,,320.8,-4.626,-8.068,1.678,-1.623,7.894,5.254,-5.279,-8.427,20,4.856,5.021,5.124,5.206,1.655,1.685,1.838,1.977,20,5.121,4.611,0,6.57145181321,norm,0,71,71,71,297.1,297.11,297.117512401,297.118,297.119,297.122,down,1,0.701846797654,9.29815320235,001,327,1920_1200,Intel(R) Core(TM) i5-3570 CPU @ 3.40GHz,orientation_search,LEPPC096,Intel(R) HD Graphics 2500,2019_Jan_18_1727,testMonitor,
318.3,330.2,324.4,312.6,36,-20,317.2,317.9,302.9,312.9,7.961,8.345,7.672,7.928,8.14,8.243,7.656,4.363,-4.306,-7.997,1.641,-2.067,8.321,5.287,-4.569,-7.714,320.3,303.6,-7.797,311.2,328.8,297.9,315.8,314.0,36,314.1,0,5,prime,10,0,67,norm,36,-4.934,up,norm,317.894061409,330.4,311.9,308.7,312.0,4,300.9,322.2,315.6,10,6,8.271,4.345,1.829,-1.278,-4.598,-8.185,311.0,6,384.9,-7.876,-7.951,-20,-7.569,-7.947,-5.117,-4.349,-4.685,-4.436,4.973,8.204,4,-1.25,1.607,4.521,8.417,-7.79,-7.675,-1.357,1.667,323.5,308.4,321.1,315.1,305.7,309.9,321.1,329.3,337.9,,2,norm,1.351,1.467,-1.304,-2.077,-4.743,-4.578,-1.287,-1.818,-1.149,-1.366,1.982,-1.398,326.7,317.2,-5.155,-7.519,1.605,-1.513,7.55,4.608,-5.285,-7.791,20,4.886,4.656,4.98,4.4,2.027,1.246,1.223,2.032,20,4.474,4.672,0,6.57145181321,norm,0,72,72,72,297.865,297.886,297.897686311,297.898,297.9,297.903,down,0,0.579995701752,-10,001,327,1920_1200,Intel(R) Core(TM) i5-3570 CPU @ 3.40GHz,orientation_search,LEPPC096,Intel(R) HD Graphics 2500,2019_Jan_18_1727,testMonitor,
306.0,303.0,315.8,306.7,36,-20,298.0,304.9,,308.4,7.805,7.569,8.147,7.597,8.444,7.999,8.339,5.161,-4.685,-8.456,1.72,-1.618,8.181,4.902,-5.292,-8.13,311.5,320.9,-8.405,305.8,313.9,334.6,318.8,305.4,36,303.1,4,5,prime,10,0,70,norm,36,-4.358,up,norm,317.894061409,297.9,314.9,337.9,317.9,4,309.3,319.0,327.9,10,6,8.245,5.296,2.027,-1.435,-4.328,-7.591,312.0,6,387.9,-8.125,-7.558,-20,-8.474,-7.684,-4.364,-4.435,-4.665,-4.783,4.439,8.111,28,-1.497,1.831,4.876,7.574,-7.595,-8.009,-1.205,1.549,305.3,320.2,325.7,312.7,313.9,327.2,308.7,330.7,316.0,308.2,3,norm,2.086,1.474,-1.418,-1.834,-4.895,-5.13,-1.836,-1.752,-1.138,-1.55,1.127,-1.775,323.4,316.7,-4.929,-7.842,1.925,-1.693,8.481,4.792,-5.142,-8.231,20,4.398,4.585,4.658,4.87,1.922,1.125,1.553,1.806,20,4.37,5.108,0,6.57145181321,norm,0,73,73,73,299.552,299.562,299.579785317,299.58,299.582,299.584,up,1,0.997937807013,9.00206219299,001,327,1920_1200,Intel(R) Core(TM) i5-3570 CPU @ 3.40GHz,orientation_search,LEPPC096,Intel(R) HD Graphics 2500,2019_Jan_18_1727,testMonitor,
328.5,307.1,319.7,307.3,36,-20,310.1,319.3,328.3,310.5,7.846,7.92,8.304,7.761,7.626,8.04,7.749,4.565,-4.441,-7.572,1.277,-1.729,7.807,4.455,-4.336,-8.315,309.6,321.5,-8.14,337.9,314.9,315.3,313.8,307.7,36,317.1,0,5,prime,10,0,85,norm,36,-4.806,up,norm,317.894061409,326.4,322.0,328.6,315.6,3,327.4,310.6,297.9,10,6,7.784,4.871,1.237,-1.483,-5.245,-8.26,316.7,6,402.9,-8.439,-8.168,-20,-7.866,-8.288,-4.785,-4.766,-4.689,-5.157,5.281,7.851,3,-1.506,1.486,4.623,8.336,-7.881,-8.463,-2.095,1.685,317.2,322.8,,317.7,322.9,314.2,316.7,310.3,324.6,308.8,4,norm,1.388,1.611,-1.936,-1.833,-4.899,-4.868,-1.884,-1.125,-1.904,-1.181,1.172,-1.589,317.1,320.2,-4.812,-7.94,1.972,-1.667,7.533,5.16,-5.037,-8.215,20,4.803,5.139,5.015,5.091,1.194,1.954,1.68,1.681,20,4.944,4.556,0,6.57145181321,norm,0,74,74,74,300.616,300.628,300.648496609,300.649,300.65,300.653,up,1,0.711875841011,9.28812415899,001,327,1920_1200,Intel(R) Core(TM) i5-3570 CPU @ 3.40GHz,orientation_search,LEPPC096,Intel(R) HD Graphics 2500,2019_Jan_18_1727,testMonitor,
337.5,332.6,315.3,323.0,36,-20,,308.4,337.9,319.8,8.249,7.886,7.981,8.16,7.646,8.022,7.811,4.605,-4.994,-8.302,1.496,-1.783,7.667,4.745,-5.091,-7.665,318.4,330.1,-8.473,328.3,321.1,322.0,309.8,322.0,36,302.6,4,5,prime,10,0,115,norm,36,-5.154,down,norm,317.894061409,310.9,311.7,303.4,299.1,0,315.4,308.0,314.3,10,6,8.124,4.357,1.376,-1.257,-5.268,-7.525,304.9,6,432.9,-8.315,-7.557,-20,-7.992,-8.087,-4.413,-4.549,-4.393,-4.449,4.803,7.826,24,-2.0,1.746,4.598,7.54,-7.68,-8.348,-1.391,1.76,313.7,324.8,309.9,326.7,313.0,321.1,297.9,323.7,328.1,329.5,5,norm,1.294,1.809,-1.38,-1.268,-4.325,-4.853,-1.222,-1.425,-1.435,-1.611,1.909,-1.776,324.7,315.4,-4.816,-8.393,1.78,-1.122,7.684,4.314,-4.722,-8.379,20,4.831,4.64,4.556,4.687,1.472,1.987,1.997,1.374,20,5.084,5.006,0,6.57145181321,norm,0,75,75,75,301.407,301.427,301.438735482,301.439,301.441,301.444,down,1,0.61893408287,9.38106591713,001,327,1920_1200,Intel(R) Core(TM) i5-3570 CPU @ 3.40GHz,orientation_search,LEPPC096,Intel(R) HD Graphics 2500,2019_Jan_18_1727,testMonitor,
410.7,415.0,411.9,414.2,36,40,414.5,417.7,420.4,407.6,8.056,8.059,7.636,7.765,7.733,8.275,7.815,4.632,-4.713,-7.855,1.864,-1.375,8.347,4.796,-4.716,-8.448,408.8,404.3,-7.814,404.8,406.1,413.7,404.6,401.6,36,409.1,0,5,probe,5,0,117,norm,36,-4.856,down,norm,410.417940659,408.8,403.5,417.0,405.5,1,419.1,400.4,411.4,10,6,8.261,4.952,1.191,-1.517,-4.377,-7.948,414.5,2,293.4,-7.868,-7.683,-20,-7.794,-7.84,-5.143,-4.929,-5.235,-4.634,4.63,7.688,1,-1.377,1.119,4.644,8.057,-7.913,-7.764,-1.693,1.84,402.8,407.7,406.6,419.7,,410.3,402.2,404.8,407.3,407.4,0,norm,1.406,1.55,-1.855,-1.326,-5.219,-4.654,-1.33,-1.476,-1.874,-1.853,1.799,-1.266,407.5,414.4,-5.113,-8.356,1.916,-1.472,7.659,4.445,-4.518,-8.133,21,5.163,4.7,4.62,5.214,1.852,2.08,1.576,1.671,21,5.275,4.462,-20,317.894061409,norm,0,76,76,76,302.096,302.105,302.122446029,302.123,302.124,302.127,down,1,0.581971869418,9.41802813058,001,327,1920_1200,Intel(R) Core(TM) i5-3570 CPU @ 3.40GHz,orientation_search,LEPPC096,Intel(R) HD Graphics 2500,2019_Jan_18_1727,testMonitor,
363.2,361.8,366.3,364.0,36,40,374.5,358.1,364.1,366.5,8.285,8.093,8.04,7.594,7.706,8.282,8.185,4.766,-4.581,-8.45,1.541,-1.682,7.612,4.894,-4.746,-8.415,367.9,374.5,-7.886,375.2,367.5,364.5,370.2,355.4,36,357.9,2,5,probe,5,0,72,norm,36,-5.166,down,norm,365.417940659,367.6,364.7,367.2,,2,375.4,362.9,360.3,10,6,7.661,5.017,1.408,-1.749,-4.722,-8.177,363.7,2,293.4,-7.761,-8.408,-20,-7.715,-7.929,-4.42,-5.062,-5.016,-4.718,4.353,8.15,14,-1.789,1.566,5.242,7.906,-7.536,-8.044,-1.56,1.806,366.7,362.7,366.7,361.8,364.3,369.5,361.8,368.8,370.3,363.9,1,norm,1.539,1.199,-1.159,-1.174,-5.016,-4.771,-1.214,-1.127,-1.773,-1.844,1.705,-1.571,365.8,362.5,-4.892,-8.343,1.256,-1.616,8.312,5.073,-4.589,-7.636,21,4.561,5.168,4.903,5.147,1.366,1.49,1.661,1.212,21,4.553,4.704,-20,317.894061409,norm,0,77,77,77,302.748,302.77,302.780253295,302.78,302.782,302.785,down,1,0.702320993378,9.29767900662,001,327,1920_1200,Intel(R) Core(TM) i5-3570 CPU @ 3.40GHz,orientation_search,LEPPC096,Intel(R) HD Graphics 2500,2019_Jan_18_1727,testMonitor,
338.3,349.3,366.6,348.9,36,80,349.6,338.8,349.7,338.4,8.145,7.553,7.551,8.351,8.236,8.472,8.22,4.831,-4.785,-8.256,1.861,-1.884,8.229,4.878,-4.897,-7.584,329.9,359.2,-8.051,358.4,,349.5,337.5,340.1,36,357.4,5,5,prime,10,0,112,norm,36,-4.865,down,norm,346.582365164,344.5,344.6,345.8,365.9,0,359.2,342.7,351.9,10,5,8.147,4.597,1.851,-1.774,-4.66,-7.643,344.3,5,458.6,-7.745,-7.99,80,-8.471,-7.928,-4.862,-4.924,-4.79,-4.611,5.003,8.192,30,-2.096,1.892,4.61,7.91,-7.652,-7.707,-2.047,1.181,329.4,344.8,340.3,354.4,337.0,326.6,336.7,351.3,355.6,345.8,0,norm,1.629,1.554,-1.707,-1.862,-5.012,-5.169,-2.004,-1.683,-1.583,-2.066,2.009,-1.93,350.8,349.6,-5.088,-8.309,1.485,-2.039,8.106,4.719,-5.26,-7.836,22,4.852,4.323,4.375,4.702,1.898,1.28,1.511,1.647,22,4.378,5.266,40,317.894061409,norm,0,78,78,78,303.528,303.55,303.560207161,303.56,303.562,303.565,down,1,0.737461884746,9.26253811525,001,327,1920_1200,Intel(R) Core(TM) i5-3570 CPU @ 3.40GHz,orientation_search,LEPPC096,Intel(R) HD Graphics 2500,2019_Jan_18_1727,testMonitor,
326.6,356.6,342.3,344.0,36,80,352.6,360.6,348.1,341.1,8.031,7.647,7.511,8.128,7.514,7.748,7.695,5.218,-4.831,-8.277,1.317,-1.872,7.909,4.79,-4.947,-8.219,359.2,333.7,-7.863,366.6,353.6,353.1,339.7,349.2,36,336.9,0,5,prime,10,0,115,norm,36,-5.214,up,norm,346.582365164,341.2,339.6,339.0,348.3,4,341.0,332.1,335.5,10,5,8.291,4.631,1.37,-1.953,-5.222,-8.479,362.3,5,461.6,-8.102,-7.75,80,-7.572,-8.117,-4.771,-5.004,-5.107,-4.425,5.234,8.071,4,-1.97,1.14,5.127,8.009,-7.783,-7.756,-1.417,1.134,342.3,353.1,345.9,354.6,347.2,349.6,361.9,353.9,342.4,,1,norm,1.563,1.281,-1.127,-1.535,-4.956,-5.086,-1.668,-2.083,-1.741,-1.331,2.043,-1.883,338.2,361.4,-4.67,-8.179,1.633,-1.797,7.849,4.86,-4.482,-8.002,22,4.684,4.79,4.617,4.66,1.374,1.734,1.989,1.637,22,4.468,4.839,40,317.894061409,norm,0,79,79,79,304.322,304.332,304.3388957,304.339,304.341,304.343,down,0,0.910244197215,-10,001,327,1920_1200,Intel(R) Core(TM) i5-3570 CPU @ 3.40GHz,orientation_search,LEPPC096,Intel(R) HD Graphics 2500,2019_Jan_18_1727,testMonitor,
366.6,350.6,341.8,337.0,36,80,350.9,337.1,338.3,359.4,7.825,8.426,8.398,7.952,8.182,7.513,7.521,5.294,-4.667,-8.487,1.984,-1.901,8.063,4.84,-4.566,-8.338,348.3,340.5,-7.63,344.1,358.1,331.4,354.8,352.0,36,343.1,1,5,prime,10,0,75,norm,36,-4.888,up,norm,346.582365164,349.8,337.2,364.6,357.4,3,363.1,341.4,326.6,10,5,8.138,5.009,1.996,-1.418,-4.775,-7.596,351.2,5,421.6,-7.668,-8.087,80,-8.271,-7.522,-4.715,-4.679,-4.322,-4.552,4.521,7.721,9,-1.173,1.608,4.588,8.239,-8.282,-8.468,-1.381,1.809,,350.7,348.4,341.7,345.6,352.3,356.7,356.9,350.9,357.9,2,norm,1.613,1.791,-1.747,-1.728,-5.205,-4.431,-1.273,-1.613,-1.728,-1.641,1.617,-1.365,334.2,357.5,-4.698,-8.409,1.148,-1.107,7.645,4.399,-4.374,-8.346,22,4.927,4.504,4.315,4.877,1.336,1.945,1.598,2.031,22,4.656,4.435,40,317.894061409,norm,0,80,80,80,306.324,306.334,306.349854119,306.35,306.352,306.354,up,1,0.65200915913,9.34799084087,001,327,1920_1200,Intel(R) Core(TM) i5-3570 CPU @ 3.40GHz,orientation_search,LEPPC096,Intel(R) HD Graphics 2500,2019_Jan_18_1727,testMonitor,
347.6,349.5,347.9,338.9,36,80,353.3,344.7,342.5,357.6,7.725,8.352,8.444,7.841,7.643,7.672,8.218,5.198,-5.119,-8.029,1.214,-1.759,7.969,4.583,-5.213,-8.465,339.5,336.0,-8.352,353.6,346.3,340.8,351.2,328.9,36,,4,5,prime,10,0,119,norm,36,-5.064,up,norm,346.582365164,356.0,349.4,338.2,354.1,3,345.6,344.6,366.6,10,5,7.92,4.651,1.654,-2.079,-4.565,-7.95,326.6,5,465.6,-8.169,-7.76,80,-7.565,-7.629,-4.383,-5.173,-4.347,-4.698,4.727,7.697,27,-1.564,1.475,5.069,7.933,-7.593,-8.092,-1.508,1.955,338.2,332.5,348.4,348.8,337.6,365.7,332.9,346.6,353.4,345.2,3,norm,1.419,1.443,-1.266,-1.604,-4.542,-4.768,-1.111,-2.081,-1.174,-1.83,1.793,-1.668,331.9,356.3,-4.649,-7.831,1.39,-1.975,7.652,4.674,-4.859,-7.506,22,5.155,5.23,4.435,4.909,1.873,1.751,1.595,1.421,22,4.982,4.897,40,317.894061409,norm,0,81,81,81,307.04,307.051,307.055707886,307.056,307.058,307.061,up,1,3.28479060229,6.71520939771,001,327,1920_1200,Intel(R) Core(TM) i5-3570 CPU @ 3.40GHz,orientation_search,LEPPC096,Intel(R) HD Graphics 2500,2019_Jan_18_1727,testMonitor,
359.8,351.5,340.2,351.9,36,80,343.5,352.7,358.4,,8.365,7.823,7.761,8.285,8.13,8.119,8.089,5.106,-4.935,-8.449,1.723,-1.464,8.021,4.334,-4.574,-7.727,337.8,351.6,-7.784,326.6,348.2,357.5,346.7,335.9,36,338.6,4,5,prime,10,0,113,norm,36,-5.047,up,norm,346.582365164,342.3,354.1,350.6,331.3,5,342.2,343.0,348.4,10,5,8.476,4.917,1.535,-1.443,-4.708,-8.323,353.3,5,459.6,-8.429,-8.158,80,-7.713,-7.645,-5.21,-4.45,-5.093,-5.12,4.807,8.164,29,-1.256,1.494,4.789,7.987,-8.468,-8.399,-1.254,1.816,340.2,352.2,339.5,327.9,351.8,339.7,341.3,355.2,366.6,331.9,4,norm,1.306,1.162,-1.668,-1.188,-4.748,-4.552,-2.052,-1.285,-1.949,-1.968,1.161,-1.461,350.4,334.8,-5.26,-7.621,1.856,-1.948,8.322,4.98,-4.994,-7.516,22,4.767,4.345,4.951,4.862,1.805,1.19,1.553,1.405,22,5.281,4.863,40,317.894061409,norm,0,82,82,82,310.379,310.39,310.395312918,310.396,310.397,310.4,up,1,1.8667763565,8.1332236435,001,327,1920_1200,Intel(R) Core(TM) i5-3570 CPU @ 3.40GHz,orientation_search,LEPPC096,Intel(R) HD Graphics 2500,2019_Jan_18_1727,testMonitor,
496.4,498.3,507.1,495.4,36,-60,498.0,500.3,497.8,498.1,8.132,8.028,7.916,8.112,8.445,7.831,7.563,5.221,-4.372,-8.067,1.802,-1.823,7.831,4.904,-5.009,-7.883,498.3,500.3,-8.114,505.5,502.8,498.8,496.2,502.1,36,490.8,0,5,probe,5,0,69,norm,36,-4.392,down,norm,500.818228032,502.7,503.9,506.0,502.8,1,496.4,495.6,507.4,10,5,8.109,4.925,1.256,-1.119,-4.86,-8.252,498.7,2,431.8,-7.575,-7.934,80,-7.539,-7.889,-4.361,-4.376,-5.193,-4.917,4.668,8.35,1,-1.615,1.351,4.391,8.06,-7.588,-7.9,-2.061,1.376,505.3,508.7,503.0,496.2,,503.3,494.7,501.4,495.5,492.3,0,norm,2.07,1.425,-2.091,-1.833,-4.751,-5.149,-1.611,-1.987,-2.098,-1.204,1.729,-1.395,499.5,510.8,-5.147,-7.559,1.649,-1.295,7.74,4.38,-5.206,-7.553,23,4.932,4.865,4.726,4.701,1.709,1.191,1.682,1.678,23,5.021,4.562,80,346.582365164,norm,0,83,83,83,312.309,312.319,312.325642971,312.326,312.328,312.33,down,1,0.68854275519,9.31145724481,001,327,1920_1200,Intel(R) Core(TM) i5-3570 CPU @ 3.40GHz,orientation_search,LEPPC096,Intel(R) HD Graphics 2500,2019_Jan_18_1727,testMonitor,
533.0,538.3,540.7,535.6,36,-60,540.2,537.5,541.1,540.6,7.837,7.605,7.876,7.637,7.976,8.414,8.151,5.227,-4.737,-8.379,1.753,-1.109,8.469,4.411,-5.218,-8.083,537.5,542.1,-7.98,542.7,536.2,537.1,530.8,548.8,36,537.8,1,5,probe,5,0,107,norm,36,-4.821,down,norm,538.818228032,540.7,540.2,534.2,542.2,2,544.6,539.2,534.3,10,5,8.19,4.551,1.461,-1.821,-4.972,-8.45,543.9,2,431.8,-8.15,-7.912,80,-7.982,-7.627,-5.165,-4.422,-4.482,-4.426,5.214,8.001,8,-1.931,2.099,4.9,7.623,-7.857,-7.597,-1.249,2.031,541.7,,528.8,537.3,540.3,536.2,543.7,535.3,537.8,536.3,1,norm,1.458,1.31,-1.902,-1.541,-4.517,-4.319,-1.892,-1.801,-1.379,-1.254,1.191,-1.321,536.2,541.4,-5.3,-7.827,1.318,-1.257,8.137,4.82,-4.839,-8.335,23,4.53,4.636,4.308,4.44,1.123,1.961,1.963,1.13,23,4.649,5.031,80,346.582365164,norm,0,84,84,84,313.058,313.067,313.076376601,313.077,313.078,313.081,down,1,1.11581000538,8.88418999462,001,327,1920_1200,Intel(R) Core(TM) i5-3570 CPU @ 3.40GHz,orientation_search,LEPPC096,Intel(R) HD Graphics 2500,2019_Jan_18_1727,testMonitor,
163.0,143.0,137.1,124.2,36,10,,163.5,137.5,123.5,8.352,7.555,7.68,8.42,8.111,8.474,7.651,4.728,-4.617,-7.689,1.182,-2.009,8.343,5.199,-5.164,-7.605,142.8,142.1,-7.968,149.0,146.5,149.6,132.0,144.0,36,153.3,4,5,prime,10,0,90,norm,36,-5.019,down,norm,143.476649938,136.8,126.8,146.5,137.2,0,147.7,144.1,133.7,10,6,8.061,4.991,1.49,-1.285,-4.408,-7.928,127.8,6,233.5,-8.129,-7.708,10,-7.995,-7.662,-5.245,-4.507,-4.551,-5.135,4.791,7.707,24,-1.887,1.776,5.25,8.097,-7.877,-8.061,-1.296,1.545,152.8,142.9,137.7,154.5,149.9,133.0,136.1,147.8,134.4,149.0,0,norm,1.606,1.337,-1.15,-1.791,-4.443,-5.209,-1.228,-1.621,-2.071,-1.76,1.618,-1.279,143.6,139.9,-4.893,-7.867,1.464,-2.009,7.959,4.88,-4.443,-7.768,24,5.257,5.177,4.72,4.37,1.942,1.324,1.294,1.953,24,4.796,5.201,-60,346.582365164,norm,0,85,85,85,314.214,314.223,314.242941547,314.243,314.245,314.247,down,1,0.632437945558,9.36756205444,001,327,1920_1200,Intel(R) Core(TM) i5-3570 CPU @ 3.40GHz,orientation_search,LEPPC096,Intel(R) HD Graphics 2500,2019_Jan_18_1727,testMonitor,
132.1,138.5,133.7,152.2,36,10,123.5,133.8,140.0,147.9,7.846,7.936,8.275,7.886,7.678,8.086,8.241,4.322,-4.572,-7.632,1.615,-1.838,7.628,5.223,-5.08,-7.568,135.3,138.1,-7.868,149.7,136.8,147.5,149.9,132.1,36,150.8,0,5,prime,10,0,80,norm,36,-4.633,up,norm,143.476649938,147.3,134.3,141.7,126.3,3,156.2,156.1,139.5,10,6,7.595,5.037,1.945,-1.509,-5.257,-8.309,134.8,6,223.5,-7.93,-8.124,10,-7.796,-7.935,-4.686,-4.692,-4.424,-5.18,5.084,7.789,3,-1.157,1.533,5.007,8.462,-8.23,-7.514,-2.033,1.365,154.8,143.4,,150.7,156.8,163.5,155.9,151.9,143.3,132.2,1,norm,1.252,1.47,-1.876,-1.103,-4.338,-5.072,-1.327,-1.453,-1.677,-1.575,1.928,-2.072,150.9,158.4,-4.698,-7.569,2.017,-1.745,7.554,4.83,-4.529,-8.403,24,4.806,5.281,5.219,4.332,1.914,1.824,1.402,1.189,24,4.896,4.994,-60,346.582365164,norm,0,86,86,86,314.914,314.924,314.930605938,314.931,314.933,314.935,up,1,0.63789406389,9.36210593611,001,327,1920_1200,Intel(R) Core(TM) i5-3570 CPU @ 3.40GHz,orientation_search,LEPPC096,Intel(R) HD Graphics 2500,2019_Jan_18_1727,testMonitor,
153.0,132.6,156.2,140.4,36,10,163.5,157.1,155.7,149.1,8.423,7.723,8.153,8.074,7.581,7.561,7.927,4.665,-4.768,-8.216,2.081,-1.401,7.906,4.579,-5.113,-7.71,148.2,159.6,-7.87,139.1,123.5,157.8,141.1,152.8,36,140.8,2,5,prime,10,0,119,norm,36,-4.675,down,norm,143.476649938,156.5,144.0,156.7,142.6,0,127.7,140.4,,10,6,7.709,5.18,1.313,-1.809,-4.47,-8.044,137.9,6,262.5,-7.916,-7.578,10,-8.061,-8.159,-4.362,-5.136,-4.493,-5.049,4.508,7.681,12,-2.013,2.081,4.404,7.579,-7.871,-8.498,-1.972,1.4,141.8,139.7,131.7,151.5,149.6,152.5,141.3,147.5,159.5,151.1,2,norm,1.132,1.549,-1.612,-1.913,-4.931,-4.557,-1.337,-1.705,-2.058,-1.304,2.076,-1.274,154.3,138.6,-5.174,-7.821,1.954,-1.306,8.158,5.107,-5.271,-8.06,24,5.118,4.607,4.565,4.395,1.553,1.731,1.868,1.495,24,5.17,4.618,-60,346.582365164,norm,0,87,87,87,315.617,315.639,315.649551853,315.65,315.652,315.655,down,1,0.58210830256,9.41789169744,001,327,1920_1200,Intel(R) Core(TM) i5-3570 CPU @ 3.40GHz,orientation_search,LEPPC096,Intel(R) HD Graphics 2500,2019_Jan_18_1727,testMonitor,
141.5,146.6,156.4,153.2,36,10,131.1,137.9,129.6,142.7,7.6,7.551,8.406,8.107,7.798,7.878,7.764,5.031,-4.993,-8.102,1.106,-1.435,8.468,4.502,-4.967,-7.685,147.9,126.1,-7.767,142.8,149.8,139.0,138.1,142.4,36,147.9,2,5,prime,10,0,79,norm,36,-5.061,up,norm,143.476649938,123.5,153.4,,147.8,3,141.5,128.2,137.3,10,6,8.082,4.341,1.824,-2.087,-4.393,-7.681,141.5,6,222.5,-8.327,-8.064,10,-7.617,-7.552,-5.082,-4.693,-4.93,-4.649,4.645,7.804,15,-1.574,1.515,4.78,7.879,-7.738,-7.844,-1.776,1.232,135.3,145.2,141.0,163.5,136.2,145.3,155.6,158.8,130.8,129.5,3,norm,1.242,1.67,-1.585,-1.406,-4.817,-5.037,-1.436,-1.467,-1.512,-1.183,1.549,-1.982,134.7,142.6,-4.989,-7.529,1.682,-1.392,8.406,4.847,-4.908,-7.524,24,4.833,5.274,4.602,4.317,1.927,2.083,1.539,1.987,24,4.491,5.003,-60,346.582365164,norm,0,88,88,88,316.271,316.281,316.287630947,316.288,316.29,316.292,up,1,0.566749311345,9.43325068865,001,327,1920_1200,Intel(R) Core(TM) i5-3570 CPU @ 3.40GHz,orientation_search,LEPPC096,Intel(R) HD Graphics 2500,2019_Jan_18_1727,testMonitor,
137.6,,140.4,150.3,36,10,147.8,134.0,141.0,137.0,8.118,8.021,7.754,8.276,8.197,7.713,7.51,4.816,-4.675,-8.481,1.781,-1.552,7.801,4.337,-5.061,-8.458,141.1,145.4,-7.864,149.1,132.5,146.0,151.3,131.6,36,163.5,3,5,prime,10,0,61,norm,36,-5.259,up,norm,143.476649938,142.0,131.4,155.6,139.2,5,141.9,142.4,139.2,10,6,8.497,5.157,1.759,-1.542,-4.913,-8.193,138.5,6,204.5,-8.465,-7.642,10,-7.916,-8.33,-4.502,-5.172,-4.583,-4.845,4.9,7.826,23,-1.128,1.247,4.963,7.887,-7.989,-7.816,-1.399,1.945,153.4,146.8,140.3,140.5,132.4,148.2,148.0,137.9,134.4,131.0,4,norm,1.683,1.817,-1.381,-1.459,-5.2,-5.244,-1.775,-1.55,-2.022,-2.003,1.614,-1.297,123.5,140.5,-4.716,-8.465,1.322,-1.542,8.387,4.38,-5.13,-7.929,24,4.605,4.459,4.705,4.817,1.33,1.484,1.417,1.773,24,4.877,4.772,-60,346.582365164,norm,0,89,89,89,316.896,316.905,316.911640524,316.912,316.914,316.916,up,1,0.68866983119,9.31133016881,001,327,1920_1200,Intel(R) Core(TM) i5-3570 CPU @ 3.40GHz,orientation_search,LEPPC096,Intel(R) HD Graphics 2500,2019_Jan_18_1727,testMonitor,
138.1,128.9,150.2,146.3,36,10,139.8,132.1,132.2,143.8,8.079,8.421,8.39,8.055,7.553,8.447,7.511,4.426,-4.614,-8.095,1.822,-1.197,8.225,4.779,-5.1,-8.324,153.0,128.0,-8.372,128.4,142.5,139.5,140.1,,36,129.2,4,5,prime,10,0,60,norm,36,-5.057,down,norm,143.476649938,150.4,140.9,140.1,154.8,2,134.9,146.3,149.3,10,6,8.283,5.258,2.053,-1.215,-4.813,-8.163,143.8,6,203.5,-8.206,-8.499,10,-7.606,-8.091,-5.018,-4.824,-4.861,-4.417,4.399,7.816,26,-1.659,1.35,4.648,8.165,-8.363,-8.159,-1.425,1.943,123.5,145.4,137.6,138.9,147.4,145.9,128.7,152.7,131.0,145.6,5,norm,1.985,1.888,-1.209,-1.353,-4.987,-5.161,-1.333,-1.647,-1.588,-1.26,1.742,-1.67,144.2,163.5,-4.471,-8.435,2.035,-1.826,7.552,5.01,-5.26,-8.457,24,4.552,4.507,4.412,4.832,1.351,1.216,1.226,1.397,24,4.822,4.808,-60,346.582365164,norm,0,90,90,90,317.644,317.654,317.660723675,317.661,317.663,317.665,down,1,0.827258738211,9.17274126179,001,327,1920_1200,Intel(R) Core(TM) i5-3570 CPU @ 3.40GHz,orientation_search,LEPPC096,Intel(R) HD Graphics 2500,2019_Jan_18_1727,testMonitor,
235.5,248.4,243.5,242.9,36,0,245.9,249.4,236.8,247.1,8.077,8.137,7.711,8.188,8.019,7.738,8.124,4.356,-4.792,-7.709,1.821,-1.222,8.464,5.168,-5.164,-8.385,235.9,241.7,-8.219,242.8,244.4,234.6,240.0,239.1,36,236.6,2,5,probe,5,0,87,norm,36,-5.24,up,norm,243.044245393,,251.9,247.5,239.7,5,239.5,233.0,251.1,10,6,8.441,5.031,1.471,-1.756,-5.111,-7.919,244.4,2,156.0,-7.881,-7.805,10,-7.901,-8.089,-5.127,-5.238,-5.215,-4.324,4.572,7.987,17,-1.163,1.801,4.647,7.544,-8.419,-8.153,-1.445,2.083,241.2,236.3,248.4,247.9,239.4,253.0,246.3,243.8,238.3,243.6,0,norm,2.053,1.663,-1.32,-1.122,-5.062,-4.762,-1.375,-1.129,-1.207,-1.719,1.677,-1.409,242.2,243.2,-5.288,-7.838,1.33,-1.849,7.933,4.439,-4.921,-7.624,25,4.31,4.522,4.768,4.523,1.161,2.007,1.451,1.153,25,4.803,4.497,10,143.476649938,norm,0,91,91,91,318.534,318.556,318.566559452,318.567,318.569,318.572,up,1,0.651489988764,9.34851001124,001,327,1920_1200,Intel(R) Core(TM) i5-3570 CPU @ 3.40GHz,orientation_search,LEPPC096,Intel(R) HD Graphics 2500,2019_Jan_18_1727,testMonitor,
258.6,265.3,268.8,258.8,36,0,264.2,267.6,261.7,262.0,8.369,8.044,7.602,8.092,8.149,7.804,8.122,4.704,-5.154,-7.783,1.577,-1.172,8.355,4.593,-5.24,-7.919,265.1,272.1,-7.91,266.5,267.1,266.5,259.3,264.9,36,272.9,0,5,probe,5,0,110,norm,36,-4.437,down,norm,266.044245393,260.7,262.5,267.6,273.3,1,270.6,263.6,265.9,10,6,8.461,4.569,1.907,-1.719,-4.68,-7.92,266.7,2,156.0,-8.367,-8.403,10,-8.226,-8.024,-4.563,-4.966,-5.288,-4.522,4.433,8.345,1,-1.783,1.306,4.48,7.656,-8.302,-7.508,-2.062,1.107,259.1,266.6,261.5,270.5,,276.0,267.9,265.9,269.0,266.6,1,norm,1.827,1.472,-1.121,-1.524,-4.738,-4.564,-2.05,-1.191,-1.611,-1.145,1.699,-1.216,259.8,270.3,-5.147,-7.869,2.001,-1.532,7.602,5.219,-4.455,-8.082,25,4.818,4.614,4.727,4.677,1.578,1.211,1.991,2.087,25,5.2,4.724,10,143.476649938,norm,0,92,92,92,319.256,319.266,319.281392451,319.282,319.283,319.286,down,1,0.632115576982,9.36788442302,001,327,1920_1200,Intel(R) Core(TM) i5-3570 CPU @ 3.40GHz,orientation_search,LEPPC096,Intel(R) HD Graphics 2500,2019_Jan_18_1727,testMonitor,
151.7,138.1,135.2,158.0,36,0,149.6,,150.6,155.2,8.069,8.078,8.041,8.447,8.314,7.856,8.181,4.704,-4.843,-8.28,1.527,-1.7,8.342,4.777,-4.38,-7.64,147.5,168.5,-8.314,144.1,162.2,147.1,147.5,149.9,36,143.7,4,5,prime,10,0,86,norm,36,-4.337,down,norm,153.282873559,141.2,156.5,149.0,137.7,1,166.0,173.3,141.9,10,5,8.078,5.051,1.895,-1.37,-4.446,-7.946,162.7,5,239.3,-7.573,-8.122,0,-7.666,-8.109,-4.76,-4.741,-4.887,-4.503,5.232,8.251,25,-1.106,1.946,4.851,8.339,-7.565,-7.819,-1.613,2.012,143.8,151.1,151.3,166.7,136.4,141.5,148.9,133.3,144.4,150.0,0,norm,1.888,1.127,-1.897,-1.997,-4.55,-4.872,-1.519,-1.444,-1.841,-1.774,1.255,-1.597,159.0,147.4,-4.856,-7.66,1.337,-1.561,8.067,4.349,-4.459,-7.574,26,5.255,5.278,5.048,4.802,2.076,1.508,1.468,1.792,26,4.981,5.058,0,143.476649938,norm,0,93,93,93,319.937,319.947,319.953516444,319.954,319.955,319.958,down,1,1.63734893501,8.36265106499,001,327,1920_1200,Intel(R) Core(TM) i5-3570 CPU @ 3.40GHz,orientation_search,LEPPC096,Intel(R) HD Graphics 2500,2019_Jan_18_1727,testMonitor,
154.5,154.5,150.3,161.0,36,0,147.3,135.6,156.9,146.8,8.444,7.565,8.215,8.01,7.696,7.99,7.573,4.371,-5.257,-7.753,1.868,-1.685,8.439,5.14,-4.611,-8.355,165.7,170.9,-7.888,159.1,165.9,159.1,147.5,154.6,36,143.6,2,5,prime,10,0,88,norm,36,-4.633,down,norm,153.282873559,145.4,147.0,148.7,163.1,0,149.4,173.3,,10,5,7.665,4.74,1.69,-1.636,-4.411,-7.728,150.5,5,241.3,-7.538,-7.776,0,-7.531,-7.583,-4.675,-4.474,-4.546,-5.259,4.819,7.654,12,-1.246,1.638,4.889,7.731,-7.713,-7.78,-1.581,1.784,149.5,162.4,149.6,149.1,149.0,153.3,147.7,167.7,152.9,133.3,1,norm,1.572,1.818,-1.407,-1.993,-4.495,-4.961,-1.116,-1.689,-1.334,-2.014,1.676,-1.932,162.3,154.5,-5.038,-7.88,1.423,-1.383,7.569,4.724,-4.926,-8.187,26,5.246,5.167,4.872,4.729,1.858,1.673,1.76,1.638,26,5.034,4.439,0,143.476649938,norm,0,94,94,94,321.638,321.647,321.655833211,321.656,321.658,321.66,down,1,1.35950495295,8.64049504705,001,327,1920_1200,Intel(R) Core(TM) i5-3570 CPU @ 3.40GHz,orientation_search,LEPPC096,Intel(R) HD Graphics 2500,2019_Jan_18_1727,testMonitor,
157.2,,133.3,154.2,36,0,138.4,151.8,144.6,159.1,7.839,7.782,8.403,8.074,8.364,8.129,8.309,5.058,-5.002,-7.604,1.961,-1.632,8.409,4.775,-4.745,-7.954,140.5,153.1,-7.682,150.7,155.9,157.3,139.3,147.9,36,151.3,3,5,prime,10,0,92,norm,36,-4.9,up,norm,153.282873559,165.2,173.3,145.5,160.1,5,160.9,166.7,139.2,10,5,8.417,4.876,1.345,-1.47,-4.821,-7.537,144.9,5,245.3,-7.74,-7.821,0,-7.729,-8.167,-4.96,-4.741,-5.037,-4.309,4.93,8.304,23,-2.072,1.464,4.524,7.61,-8.094,-7.592,-1.753,1.141,157.0,143.8,147.1,151.5,164.5,146.6,146.4,158.2,144.0,140.8,2,norm,1.147,1.162,-1.596,-1.695,-5.117,-4.402,-2.087,-2.082,-2.052,-1.44,1.35,-1.369,154.5,155.0,-4.614,-8.068,2.068,-1.935,7.575,5.248,-4.576,-7.873,26,4.559,4.977,4.524,4.546,1.537,1.896,1.193,2.039,26,4.462,5.184,0,143.476649938,norm,0,95,95,95,323.051,323.061,323.072112462,323.072,323.074,323.077,up,1,0.708972410923,9.29102758908,001,327,1920_1200,Intel(R) Core(TM) i5-3570 CPU @ 3.40GHz,orientation_search,LEPPC096,Intel(R) HD Graphics 2500,2019_Jan_18_1727,testMonitor,
