d_ori_22,d_ori_23,d_ori_20,d_ori_21,set_size,ctpd,d_ori_24,d_ori_25,d_ori_28,d_ori_29,stim_pos_x_30,stim_pos_x_31,stim_pos_x_32,stim_pos_x_33,stim_pos_x_34,stim_pos_x_35,stim_pos_y_11,stim_pos_y_10,stim_pos_y_13,stim_pos_y_12,stim_pos_y_15,stim_pos_y_14,stim_pos_y_17,stim_pos_y_16,stim_pos_y_19,stim_pos_y_18,d_ori_35,d_ori_34,stim_pos_x_3,d_ori_31,d_ori_30,d_ori_33,d_ori_32,d_ori_26,test_set_size,d_ori_27,targetCol,dsd_test,seq_type,dsd,blockRepN,targetDist,dtype_test,prime_set_size,stim_pos_y_25,correctResponse,dtype,distrMean,d_ori_17,d_ori_16,d_ori_15,d_ori_14,targetRow,d_ori_11,d_ori_13,d_ori_12,dsd_prime,streak_length_prime,stim_pos_y_35,stim_pos_y_34,stim_pos_y_33,stim_pos_y_32,stim_pos_y_31,stim_pos_y_30,d_ori_10,nextProbe,targetOri,stim_pos_x_1,stim_pos_x_2,ctpd_prime,stim_pos_x_4,stim_pos_x_5,stim_pos_x_6,stim_pos_x_7,stim_pos_x_8,stim_pos_x_9,stim_pos_y_28,stim_pos_y_29,targetPos,stim_pos_y_20,stim_pos_y_21,stim_pos_y_22,stim_pos_y_23,stim_pos_y_24,stim_pos_x_0,stim_pos_y_26,stim_pos_y_27,d_ori_9,d_ori_8,d_ori_3,d_ori_2,d_ori_1,d_ori_0,d_ori_7,d_ori_6,d_ori_5,d_ori_4,trialN,dtype_prime,stim_pos_x_18,stim_pos_x_19,stim_pos_x_12,stim_pos_x_13,stim_pos_x_10,stim_pos_x_11,stim_pos_x_16,stim_pos_x_17,stim_pos_x_14,stim_pos_x_15,stim_pos_y_9,stim_pos_y_8,d_ori_19,d_ori_18,stim_pos_y_1,stim_pos_y_0,stim_pos_y_3,stim_pos_y_2,stim_pos_y_5,stim_pos_y_4,stim_pos_y_7,stim_pos_y_6,totBlockN,stim_pos_x_27,stim_pos_x_26,stim_pos_x_25,stim_pos_x_24,stim_pos_x_23,stim_pos_x_22,stim_pos_x_21,stim_pos_x_20,blockN,stim_pos_x_29,stim_pos_x_28,prevDistrCTPD,prevDistrMean,prevDistrType,trials.thisRepN,trials.thisTrialN,trials.thisN,trials.thisIndex,timeStart,timeBeforeDraw,timeDraw,timeAfterSaving,timeAfterWritingToTemp,timeAfterPreparingNext,answer,correct,rt,trialScore,session,participant,resolution,cpu_info,expName,pc_name,graphic_card,date,monitorName
159.1,161.6,145.7,146.4,36,60,173.1,,146.7,154.8,8.106,7.871,7.938,7.532,8.017,7.781,7.728,4.856,-4.301,-7.865,1.894,-1.948,7.751,5.27,-5.083,-7.994,167.9,155.7,-8.479,156.2,168.2,133.1,146,136.6,36,161.4,4,5,prime,10,0,61,norm,36,-5.081,down,norm,153.1462851,163.4,150.5,152.4,167.7,1,152.8,145,157,10,6,7.624,5.109,1.185,-1.602,-4.368,-8.36,144.8,6,214.1,-8.113,-7.685,60,-7.872,-7.872,-4.337,-5.034,-5.204,-4.739,5.139,8.176,25,-1.705,2,4.476,8.431,-8.112,-7.787,-1.597,1.868,144.5,155.3,151,149.2,164.7,155.7,162.9,145.6,159.5,146,0,norm,1.63,1.102,-1.326,-1.785,-4.567,-4.373,-1.126,-1.825,-1.383,-1.593,1.765,-1.124,157,162.3,-4.309,-8.448,1.694,-1.387,8.187,4.807,-5.155,-8.483,0,5.169,4.694,5.104,5.246,1.859,1.569,1.374,1.615,0,5.153,4.413,,,,0,0,0,0,214.92,214.951,214.9708801,214.971,214.971,214.974,down,1,1.281929675,8.718070325,1,324,1920_1200,Intel(R) Core(TM) i5-3570 CPU @ 3.40GHz,orientation_search,LEPPC096,Intel(R) HD Graphics 2500,2018_Dec_19_1442,testMonitor
154,139.1,169.2,138.1,36,60,156.7,158.9,148.7,149.4,7.589,8.016,7.688,8.367,7.9,8.141,8.193,4.462,-5.134,-7.661,1.276,-1.201,7.556,4.552,-5.163,-7.844,161,140.2,-8.12,145.5,134.4,,167.8,161.2,36,173.1,5,5,prime,10,0,103,norm,36,-4.329,up,norm,153.1462851,144.5,151,133.1,156.7,3,153.2,136.8,158.2,10,6,7.778,5.069,1.539,-1.875,-4.803,-7.596,154.6,6,256.1,-7.886,-7.524,60,-8.404,-7.992,-5.192,-5.207,-5.072,-4.795,5.239,7.8,33,-1.345,2.028,4.977,8.317,-8.329,-8.12,-1.213,1.403,146.5,141.9,168.1,144.5,153.5,169.5,152.8,161.9,156.6,168.3,1,norm,2.097,1.877,-1.493,-2.087,-5.274,-5.185,-1.659,-1.434,-1.23,-1.95,1.537,-1.22,153.8,160.6,-4.53,-8.415,1.291,-1.253,8.024,4.925,-4.703,-7.997,0,4.973,5.222,5.123,4.753,1.925,1.962,1.555,1.934,0,4.483,5.296,,,,0,1,1,1,216.293,216.304,216.3108196,216.311,216.312,216.315,down,0,1.669844456,-10,1,324,1920_1200,Intel(R) Core(TM) i5-3570 CPU @ 3.40GHz,orientation_search,LEPPC096,Intel(R) HD Graphics 2500,2018_Dec_19_1442,testMonitor
146.4,145.7,153.8,154.6,36,60,158.8,152.7,153.9,173.1,8.43,7.705,8.405,8.383,7.64,7.761,8.371,4.913,-4.69,-8.143,1.245,-1.935,8.207,4.775,-4.696,-7.822,152.6,151.8,-8.384,152.1,151.6,155.7,142.1,149.4,36,172.9,3,5,prime,10,0,112,norm,36,-4.506,down,norm,153.1462851,149.6,153,153.2,147.8,0,155.1,151.4,151,10,6,7.894,4.431,1.462,-1.604,-4.366,-8.262,150.6,6,265.1,-8.393,-7.623,60,-7.754,-8.33,-5.083,-5.032,-5.024,-4.36,4.657,7.861,18,-1.749,1.899,4.309,8.325,-7.833,-8.499,-1.493,1.588,154.7,157.7,143.4,139,149.1,136.7,149.5,147,151.8,133.1,2,norm,1.504,1.322,-1.462,-1.928,-4.663,-5.099,-1.17,-1.42,-1.942,-2.013,1.27,-1.925,160,,-4.62,-8.292,1.256,-1.791,7.658,4.747,-4.84,-8.487,0,4.899,4.586,4.731,4.893,1.739,1.658,1.396,1.82,0,5.239,4.87,,,,0,2,2,2,219.05,219.061,219.0696534,219.07,219.072,219.074,down,1,1.657876054,8.342123946,1,324,1920_1200,Intel(R) Core(TM) i5-3570 CPU @ 3.40GHz,orientation_search,LEPPC096,Intel(R) HD Graphics 2500,2018_Dec_19_1442,testMonitor
148.7,133.1,,163.9,36,60,159.2,161.8,137.2,149,8.391,7.532,8.46,8.177,8.482,7.927,8.413,4.942,-5.265,-7.672,1.986,-1.167,7.593,4.522,-4.902,-8.003,140.8,137.8,-7.743,153.9,153.7,159.9,157.7,139.2,36,155.4,3,5,prime,10,0,109,norm,36,-4.696,down,norm,153.1462851,161,169,142.1,150.2,2,156.8,159.7,146.1,10,6,7.903,4.359,1.585,-1.742,-4.376,-8.454,154.3,6,262.1,-8.427,-7.946,60,-7.651,-8.275,-4.678,-4.657,-4.671,-4.598,5.097,7.869,20,-1.691,1.291,4.531,7.722,-7.588,-8.438,-1.358,1.352,161.9,139.4,149.9,148,159.2,144.7,157.5,164.1,151.8,173.1,3,norm,1.799,1.46,-2.06,-1.741,-4.533,-5.121,-1.481,-1.371,-2.054,-1.307,1.5,-1.841,155.3,145.3,-4.465,-8.387,1.601,-1.652,8.199,4.841,-4.716,-8.059,0,4.607,4.355,4.507,4.451,1.152,1.428,1.102,1.978,0,5.154,5.184,,,,0,3,3,3,220.771,220.781,220.7865857,220.787,220.788,220.791,down,1,1.793031764,8.206968236,1,324,1920_1200,Intel(R) Core(TM) i5-3570 CPU @ 3.40GHz,orientation_search,LEPPC096,Intel(R) HD Graphics 2500,2018_Dec_19_1442,testMonitor
146.8,,159.7,138,36,60,168.1,161.6,157.1,153.5,8.43,8.418,7.653,8.052,7.799,8.135,8.318,4.692,-5.161,-7.764,1.866,-1.673,7.672,4.322,-5.045,-8.458,147.6,156,-7.623,139,173.1,164.3,133.1,152.2,36,156.9,3,5,prime,10,0,65,norm,36,-5.052,up,norm,153.1462851,146.4,152.4,136.5,160,5,136.6,171.1,151.9,10,6,8.459,4.626,1.624,-1.932,-4.551,-8.223,157.2,6,218.1,-7.657,-7.667,60,-8.072,-7.731,-5.195,-4.378,-5.003,-4.557,5.279,8.26,23,-2.027,1.835,5.268,8.147,-7.852,-7.523,-1.689,1.578,161.9,155.2,146.1,134.9,160.1,170.2,143.5,154.6,151.9,153.3,4,norm,1.781,2.014,-1.972,-1.214,-4.439,-4.722,-1.699,-1.715,-1.961,-1.912,1.538,-1.102,163.6,165.7,-4.581,-8.357,1.743,-1.83,7.707,5.013,-4.811,-7.717,0,4.858,4.882,4.602,4.439,1.743,1.96,1.144,1.948,0,4.622,4.34,,,,0,4,4,4,222.627,222.637,222.6439471,222.644,222.646,222.649,up,1,1.580824597,8.419175403,1,324,1920_1200,Intel(R) Core(TM) i5-3570 CPU @ 3.40GHz,orientation_search,LEPPC096,Intel(R) HD Graphics 2500,2018_Dec_19_1442,testMonitor
149.8,149.4,142.8,153.9,36,60,141.8,157.6,163.5,154,8.181,7.751,7.575,7.526,7.977,7.515,7.998,4.487,-4.963,-7.621,1.475,-1.397,8.14,4.674,-4.734,-7.962,162.1,146.3,-8.187,133.4,168,147.7,161.2,173.1,36,133.1,2,5,prime,10,0,104,norm,36,-4.914,up,norm,153.1462851,166.8,153.1,,149.6,3,163.6,149.3,169,10,6,8.287,4.796,2.075,-1.349,-4.807,-8.356,136.3,6,257.1,-7.821,-7.875,60,-8.394,-8.252,-5.098,-4.928,-5.264,-4.816,5.167,7.816,15,-1.632,1.393,5.083,7.916,-7.804,-8.397,-2.057,2.028,153.6,143.5,143.1,147.4,145.8,140.9,159.1,150.6,141,166,5,norm,1.559,1.343,-1.734,-1.554,-4.576,-5.007,-2.063,-1.396,-1.419,-2.066,1.127,-2.043,153.7,158.5,-5.03,-7.578,2.058,-1.938,8.404,4.478,-5.113,-8.251,0,5.198,4.477,4.995,5.152,1.798,1.162,1.935,1.381,0,4.754,4.806,,,,0,5,5,5,224.249,224.26,224.2653828,224.266,224.267,224.27,up,1,1.160314106,8.839685894,1,324,1920_1200,Intel(R) Core(TM) i5-3570 CPU @ 3.40GHz,orientation_search,LEPPC096,Intel(R) HD Graphics 2500,2018_Dec_19_1442,testMonitor
296.6,294.3,290.2,292.1,36,-60,284.4,296.4,291.9,288.1,8.316,7.975,7.84,8.249,8.118,7.669,7.639,5.014,-4.679,-7.765,1.12,-1.293,8.464,4.451,-5.189,-7.784,291.2,296.6,-7.601,,291.2,286.2,284.8,289.2,36,299.4,5,5,probe,5,0,71,norm,36,-4.38,down,norm,291.9967446,287.9,295.2,288.7,302,1,283.5,301,289.4,10,6,8.454,5.294,1.253,-1.67,-5.224,-8.196,300.1,1,221,-7.711,-7.863,60,-8.142,-8.271,-5.034,-4.856,-5.07,-5.148,4.329,8.455,31,-1.278,1.137,4.801,8.45,-8.134,-7.626,-1.676,1.225,286.3,297,287.1,292,294.4,290.7,300.2,293.8,282,283,0,norm,1.212,1.381,-2.03,-2.046,-4.452,-4.435,-1.812,-1.672,-1.247,-1.284,1.701,-1.539,289.9,289.3,-5.054,-7.799,1.55,-1.943,8.232,4.387,-4.759,-8.496,1,5.276,4.991,5.128,4.727,1.281,1.104,1.443,1.584,1,4.488,4.48,60,153.1462851,norm,0,6,6,6,225.45,225.46,225.4665851,225.467,225.469,225.471,down,1,1.484147678,8.515852322,1,324,1920_1200,Intel(R) Core(TM) i5-3570 CPU @ 3.40GHz,orientation_search,LEPPC096,Intel(R) HD Graphics 2500,2018_Dec_19_1442,testMonitor
80,72,55.3,67.3,36,-80,69.7,88.9,62.9,87.7,8.465,7.812,8.484,7.854,8.178,8.351,8.429,5.277,-4.829,-7.541,1.968,-1.885,8.229,4.477,-4.99,-7.801,86.3,72.6,-8.498,56.6,63.8,82.4,78,78.5,36,77.2,1,5,prime,10,0,97,norm,36,-4.916,up,norm,71.31696931,77.5,59.6,70.7,91.3,3,59,69,69.6,10,6,7.585,5.172,1.45,-1.151,-5.232,-8.431,73.9,6,168.3,-8.057,-7.879,-80,-8.205,-8.457,-4.788,-4.88,-4.92,-4.663,4.57,7.738,9,-1.577,1.953,4.699,8.481,-8.318,-8.003,-1.981,1.168,,80.8,66.5,81.4,71.9,61.9,79.2,68.4,76,81.9,0,norm,2.054,1.726,-1.93,-2.095,-5.19,-5.22,-1.422,-1.37,-1.263,-1.233,1.577,-1.583,82.7,51.3,-4.559,-8.048,1.936,-1.411,8.313,5.099,-4.992,-7.549,2,4.772,4.424,4.311,5.062,1.104,1.172,1.128,1.898,2,4.597,5.013,-60,153.1462851,norm,0,7,7,7,226.988,226.998,227.003762,227.004,227.006,227.008,up,1,1.861242299,8.138757701,1,324,1920_1200,Intel(R) Core(TM) i5-3570 CPU @ 3.40GHz,orientation_search,LEPPC096,Intel(R) HD Graphics 2500,2018_Dec_19_1442,testMonitor
74.9,86.2,62,63.7,36,-80,82,89.1,63.8,61.8,7.985,7.53,7.649,7.732,8.031,7.821,7.672,4.807,-4.719,-7.761,1.636,-1.259,8.131,5.211,-5.268,-8.474,72.3,76.4,-8.372,68.1,82.2,78.5,59,73.2,36,52,2,5,prime,10,0,114,norm,36,-5.127,up,norm,71.31696931,70.3,,91.3,77.5,4,65.5,67.7,73.7,10,6,7.568,5.086,1.32,-1.93,-4.738,-8.042,61.9,6,185.3,-7.974,-8.325,-80,-8.087,-8.295,-5.023,-4.969,-5.239,-4.704,4.512,7.549,16,-1.26,1.328,4.738,8.061,-8.053,-7.625,-1.27,1.629,75.4,81.3,51.3,66.8,62.8,87,60.2,73.7,80.2,70.2,1,norm,1.104,1.741,-1.541,-1.62,-5.011,-4.449,-1.125,-1.121,-2.016,-1.913,1.898,-1.219,68.6,73.4,-4.934,-7.733,2.001,-1.19,8.059,4.368,-5.163,-8.229,2,4.983,4.529,4.89,4.311,1.667,1.22,2.016,1.858,2,4.682,4.333,-60,153.1462851,norm,0,8,8,8,228.903,228.916,228.9347835,228.935,228.937,228.939,up,1,1.690050379,8.309949621,1,324,1920_1200,Intel(R) Core(TM) i5-3570 CPU @ 3.40GHz,orientation_search,LEPPC096,Intel(R) HD Graphics 2500,2018_Dec_19_1442,testMonitor
61,53.7,69.3,68.1,36,-80,59.2,64.8,67.4,74.3,7.747,8.117,7.953,7.504,8.432,7.57,7.913,4.921,-4.475,-8.048,1.641,-1.651,8.248,5.16,-5.06,-8.288,90,,-7.696,63.8,62.9,77.7,74.6,72.6,36,78.1,5,5,prime,10,0,102,norm,36,-5.185,up,norm,71.31696931,64.5,74.5,76.1,51.3,4,68,81.1,64.6,10,6,7.837,4.833,1.568,-1.226,-4.544,-8.153,88.1,6,173.3,-7.573,-8.363,-80,-8.433,-7.974,-4.597,-5.01,-4.984,-4.658,5.118,8.102,34,-1.317,1.947,4.975,7.926,-8.019,-7.891,-1.192,1.483,70.7,91.3,81.5,59.5,79,69,74.3,61.3,74,80.8,2,norm,1.132,1.42,-2.051,-1.543,-4.978,-4.791,-1.877,-1.614,-1.203,-2.073,1.716,-1.814,58.9,82,-4.693,-8.035,2.002,-2.081,8.201,4.547,-4.654,-7.665,2,4.635,4.821,4.843,4.398,2.082,1.687,1.368,1.158,2,5.133,4.992,-60,153.1462851,norm,0,9,9,9,230.646,230.655,230.6755721,230.676,230.677,230.68,up,1,1.251418852,8.748581148,1,324,1920_1200,Intel(R) Core(TM) i5-3570 CPU @ 3.40GHz,orientation_search,LEPPC096,Intel(R) HD Graphics 2500,2018_Dec_19_1442,testMonitor
68.8,58.1,68.8,86.3,36,-80,91.3,59.5,83,67.3,7.527,8.056,7.644,7.71,8.438,7.988,8.332,4.424,-5.141,-7.897,1.105,-1.477,8.336,5.266,-5.247,-8.253,73.3,72,-7.717,68,76,51.3,69,60.3,36,81.5,0,5,prime,10,0,70,norm,36,-4.961,down,norm,71.31696931,81.2,70.8,70.1,82.7,2,68.2,79.9,78.3,10,6,7.802,4.542,1.536,-1.89,-5.146,-8.176,80.9,6,141.3,-7.93,-7.762,-80,-8.059,-8.494,-4.497,-5.127,-4.796,-4.35,4.919,8.244,2,-1.328,1.235,4.357,7.958,-7.564,-8.102,-1.86,1.759,74.4,81,73.5,,85,75,77.2,64.5,70.1,87.6,3,norm,2.018,1.865,-1.513,-1.392,-4.324,-4.35,-1.46,-1.366,-1.842,-1.152,1.121,-1.307,64.5,68,-5.2,-8.27,1.673,-1.449,7.951,5.095,-4.715,-7.953,2,4.523,4.334,4.624,5.295,1.502,1.474,1.729,1.646,2,5.151,5.137,-60,153.1462851,norm,0,10,10,10,231.964,231.975,231.9799707,231.98,231.982,231.984,down,1,1.01728189,8.98271811,1,324,1920_1200,Intel(R) Core(TM) i5-3570 CPU @ 3.40GHz,orientation_search,LEPPC096,Intel(R) HD Graphics 2500,2018_Dec_19_1442,testMonitor
66.7,66.7,72.3,58.3,36,-80,63.9,51.3,62.8,72.5,7.61,8.372,8.048,7.565,8.154,7.834,7.892,4.885,-5.165,-7.776,1.467,-2.066,7.536,4.915,-4.842,-7.971,81.9,79,-7.698,71,81.6,63.8,68.1,66.4,36,65.5,2,5,prime,10,0,97,norm,36,-4.686,up,norm,71.31696931,75.9,,69.1,91.3,4,68.5,73.5,52.3,10,6,8.396,4.772,1.857,-1.61,-5.229,-7.967,68.4,6,168.3,-8.165,-8.263,-80,-7.629,-7.928,-4.729,-4.845,-4.349,-5.104,4.758,7.512,16,-1.831,1.719,5.103,7.674,-7.626,-7.794,-1.981,1.416,71,77.5,54.6,81.5,63.4,71.6,59.8,61.7,58.5,75.8,4,norm,1.405,1.725,-2.004,-1.54,-4.383,-4.353,-1.19,-1.788,-1.237,-1.981,1.189,-1.322,79.2,72.9,-5.119,-8.338,1.671,-1.561,8.402,5.032,-5.183,-8.34,2,5.283,5.002,4.558,4.88,2.005,1.722,1.249,1.922,2,5.083,4.829,-60,153.1462851,norm,0,11,11,11,233.018,233.028,233.046838,233.047,233.049,233.051,up,1,1.265842814,8.734157186,1,324,1920_1200,Intel(R) Core(TM) i5-3570 CPU @ 3.40GHz,orientation_search,LEPPC096,Intel(R) HD Graphics 2500,2018_Dec_19_1442,testMonitor
70.5,63.4,81.1,72,36,-80,74.5,62.9,74.4,60,8.277,8.203,7.569,7.777,7.93,8.466,8.232,4.633,-4.455,-7.82,1.157,-1.652,8.074,4.95,-4.606,-7.596,65.3,74,-8.043,66.2,81.9,63.7,,65,36,66.1,5,5,prime,10,0,69,norm,36,-4.587,down,norm,71.31696931,91.2,68.9,91.3,68.8,2,73.8,57.9,80.6,10,6,7.596,4.661,1.337,-1.86,-5.267,-7.66,52.4,6,140.3,-7.798,-7.682,-80,-8.435,-8.255,-5.046,-4.316,-4.875,-5.201,4.926,7.648,32,-1.774,1.572,4.573,7.616,-7.738,-8.237,-1.741,1.865,70.1,78,72.1,51.3,60.5,77.1,54.3,84,70,81.6,5,norm,1.966,1.396,-1.316,-1.604,-4.339,-4.81,-1.446,-1.411,-1.5,-2.005,1.723,-1.859,58.1,81.7,-5.185,-7.607,1.106,-1.367,7.578,5.085,-4.708,-7.943,2,4.455,4.466,4.355,4.944,1.234,1.237,1.67,1.276,2,5.126,4.351,-60,153.1462851,norm,0,12,12,12,234.358,234.367,234.3757028,234.376,234.378,234.38,down,1,0.956301296,9.043698704,1,324,1920_1200,Intel(R) Core(TM) i5-3570 CPU @ 3.40GHz,orientation_search,LEPPC096,Intel(R) HD Graphics 2500,2018_Dec_19_1442,testMonitor
64.4,55.5,52.8,57.3,36,-20,64.9,51.4,62.4,53.5,7.991,8.078,8.109,7.904,7.783,7.607,7.693,4.651,-4.753,-7.586,1.222,-1.777,7.553,4.63,-4.771,-8.357,64.1,59.9,-7.661,54.6,56.5,60.4,61.3,52,36,60,0,5,probe,5,0,73,norm,36,-4.301,up,norm,58.53509981,48.5,54.9,54.7,50.6,4,64,55.5,57.6,10,6,8.175,4.439,1.604,-1.623,-5.186,-7.715,68.5,1,-14.5,-7.507,-8.035,-80,-8.138,-8.031,-4.933,-4.807,-5.241,-4.355,4.365,8.424,4,-2.078,1.38,4.671,8.256,-7.849,-8.434,-1.895,1.796,62.2,60.1,63,54.2,55.3,58.1,58.8,56.3,58.5,,0,norm,1.58,1.852,-1.979,-1.52,-4.703,-5.103,-1.394,-1.792,-1.552,-1.586,1.473,-1.576,60.2,54.8,-5.177,-7.549,1.74,-1.229,7.552,5.183,-4.936,-7.825,3,4.837,4.658,4.742,4.936,1.975,1.679,1.126,1.661,3,4.327,4.351,-80,71.31696931,norm,0,13,13,13,235.372,235.381,235.3876147,235.388,235.39,235.392,up,1,1.370816719,8.629183281,1,324,1920_1200,Intel(R) Core(TM) i5-3570 CPU @ 3.40GHz,orientation_search,LEPPC096,Intel(R) HD Graphics 2500,2018_Dec_19_1442,testMonitor
152.1,157.1,161.7,128,36,60,150.5,144.1,152,126.9,8.152,7.992,7.571,8.417,8.297,8.089,8.337,5.223,-4.428,-7.511,1.355,-1.34,8.464,5.143,-5.099,-8.343,127.6,149.2,-7.503,136.4,137.7,125.9,134.9,137.5,36,153.7,3,5,prime,10,0,80,norm,36,-5.04,down,norm,141.6501069,121.7,140,142.4,139.1,0,154.9,127.5,143,10,5,8.449,5.249,1.138,-1.729,-4.729,-8.144,148.5,5,221.7,-7.773,-7.757,60,-8.04,-7.85,-4.904,-5.187,-4.788,-5.24,4.801,8.035,18,-1.136,1.532,5.007,8.032,-8.368,-8.471,-1.866,1.698,128.2,140.1,139.5,137,143.2,137.3,140.6,146.5,155.6,127.8,0,norm,1.56,1.954,-1.499,-1.424,-4.301,-5.124,-2.083,-1.802,-1.535,-1.489,1.185,-1.176,145.5,,-4.566,-7.999,1.202,-1.157,7.695,4.963,-4.869,-7.654,4,4.454,4.954,5.204,4.911,1.567,1.624,1.151,1.768,4,4.657,4.784,-20,71.31696931,norm,0,14,14,14,236.796,236.81,236.8282596,236.828,236.83,236.833,down,1,2.383678299,7.616321701,1,324,1920_1200,Intel(R) Core(TM) i5-3570 CPU @ 3.40GHz,orientation_search,LEPPC096,Intel(R) HD Graphics 2500,2018_Dec_19_1442,testMonitor
137,149.9,130.8,137.5,36,60,144.9,124.8,134.5,141,8.06,7.554,7.75,7.695,8.47,8.053,8.323,5.254,-5.156,-7.602,1.755,-1.732,7.83,5.06,-4.428,-8.284,146.1,148.6,-7.737,127.5,135,,146.5,143,36,132.3,5,5,prime,10,0,74,norm,36,-4.623,up,norm,141.6501069,139.7,141.3,141.8,145.4,3,147.8,131.1,161.7,10,5,8.352,4.414,1.874,-1.378,-5.118,-8.416,139,5,215.7,-7.978,-7.695,60,-8.41,-8.281,-4.981,-5.149,-4.843,-4.997,4.367,8.375,33,-2.083,1.205,5.092,7.535,-8.048,-7.769,-1.922,1.186,127.3,130.6,135.4,133.6,156.2,131.5,135.8,160.8,154,149.8,1,norm,1.951,1.111,-1.541,-1.966,-4.935,-4.891,-1.871,-2.042,-1.569,-1.107,1.439,-1.821,147.4,138.7,-4.464,-7.711,1.661,-1.337,7.879,4.919,-4.733,-7.737,4,5.028,4.975,5.121,4.924,1.248,1.78,1.392,1.219,4,4.882,5.061,-20,71.31696931,norm,0,15,15,15,239.249,239.26,239.2649684,239.265,239.267,239.269,down,0,1.150289928,-10,1,324,1920_1200,Intel(R) Core(TM) i5-3570 CPU @ 3.40GHz,orientation_search,LEPPC096,Intel(R) HD Graphics 2500,2018_Dec_19_1442,testMonitor
124.2,136.5,144.7,134.2,36,60,142.8,148,144.2,147.6,8.346,7.912,8.445,8.327,8.461,8.499,8.44,4.942,-5.02,-7.503,1.67,-1.803,7.652,4.339,-5.227,-8.458,126.5,132.4,-7.503,137.2,135.8,137.2,137.6,139.5,36,148.7,1,5,prime,10,0,92,norm,36,-4.607,up,norm,141.6501069,150.7,142.7,141.5,156.9,4,141.1,140.9,161.7,10,5,8.333,4.521,2.011,-1.841,-4.885,-7.527,,5,233.7,-7.943,-7.989,60,-8.224,-8.377,-5.15,-5.173,-4.725,-5.103,4.753,7.777,10,-1.76,1.324,4.571,7.907,-7.613,-8.058,-1.461,1.365,152.4,137.4,149.4,131,142.8,149.9,121.7,128.9,144.4,146.9,2,norm,1.107,1.481,-1.122,-1.709,-4.495,-4.983,-1.469,-1.997,-1.668,-1.361,1.287,-1.547,143.3,144,-4.724,-8.459,1.679,-1.459,8.008,5.214,-4.627,-7.842,4,5.192,4.786,5.093,5.061,1.717,1.165,1.695,1.587,4,4.364,4.72,-20,71.31696931,norm,0,16,16,16,241.469,241.479,241.48626,241.486,241.488,241.491,up,1,2.109099306,7.890900694,1,324,1920_1200,Intel(R) Core(TM) i5-3570 CPU @ 3.40GHz,orientation_search,LEPPC096,Intel(R) HD Graphics 2500,2018_Dec_19_1442,testMonitor
138.4,149,135,,36,60,141.8,148.1,129.7,144,8.177,8.032,7.593,7.845,8.378,7.898,7.952,4.944,-5.198,-8.019,1.293,-1.926,8.295,5.114,-4.842,-7.669,159.6,154,-8.277,148.4,134.6,153.3,144.7,137.5,36,139.8,3,5,prime,10,0,80,norm,36,-5.089,up,norm,141.6501069,139,150.1,148.5,134.4,3,148.9,142.4,144,10,5,7.988,4.566,2.002,-1.789,-4.412,-7.863,149,5,221.7,-8.394,-8.011,60,-7.881,-8.221,-5.236,-5.256,-5.288,-4.922,4.681,8.062,21,-1.805,1.553,4.452,8.104,-8.074,-7.724,-1.522,2.042,150.4,150,121.7,148.2,149.3,130.3,146.6,142.7,132.8,137.1,3,norm,1.954,1.604,-2.009,-1.686,-5.071,-4.83,-1.914,-1.845,-1.722,-1.714,1.469,-1.446,121.7,129.2,-4.869,-8.08,2.073,-1.584,8.046,4.808,-5.098,-7.93,4,4.324,4.549,4.416,5.039,1.48,1.545,1.962,1.609,4,5.142,4.546,-20,71.31696931,norm,0,17,17,17,243.632,243.643,243.6544992,243.655,243.657,243.659,up,1,1.722825388,8.277174612,1,324,1920_1200,Intel(R) Core(TM) i5-3570 CPU @ 3.40GHz,orientation_search,LEPPC096,Intel(R) HD Graphics 2500,2018_Dec_19_1442,testMonitor
134.5,138.7,126.8,124.6,36,60,,149.8,143.9,143.9,7.998,8.37,7.814,7.649,8.211,7.778,7.748,4.544,-5.229,-8.13,1.566,-1.995,8.354,4.436,-4.831,-7.757,127.9,139.4,-7.598,150.8,146.7,135.1,149.4,151.4,36,148.9,4,5,prime,10,0,71,norm,36,-4.424,down,norm,141.6501069,161.7,145.6,126,154.1,0,141.2,136.9,146.1,10,5,8.09,5.233,2.052,-1.233,-4.5,-8,148.8,5,212.7,-7.664,-8.445,60,-7.597,-7.569,-4.863,-5.157,-4.894,-5.213,5.177,7.51,24,-1.298,1.35,4.951,7.743,-7.531,-7.705,-1.566,1.211,146.8,132.3,139.6,135.1,151.8,144,127.5,146,138.6,121.7,4,norm,1.366,1.614,-2.011,-1.842,-4.841,-4.685,-1.206,-1.405,-1.964,-1.587,1.323,-1.896,137.3,159.9,-4.508,-8.379,1.337,-1.422,7.991,4.75,-4.813,-8.467,4,4.423,5.114,4.693,5.293,1.959,1.553,1.366,1.454,4,5.278,5.009,-20,71.31696931,norm,0,18,18,18,245.402,245.412,245.4182656,245.418,245.42,245.423,down,1,1.24930861,8.75069139,1,324,1920_1200,Intel(R) Core(TM) i5-3570 CPU @ 3.40GHz,orientation_search,LEPPC096,Intel(R) HD Graphics 2500,2018_Dec_19_1442,testMonitor
307.9,309,313.2,315.1,36,0,310.1,308,306.5,,7.503,7.515,8.152,7.777,8.364,7.599,8.312,4.466,-5.06,-8.077,1.259,-2.002,8.275,4.694,-4.445,-7.967,308.8,312.7,-7.717,304.8,307.7,309.5,314,313.5,36,311.7,4,5,probe,5,0,101,norm,36,-4.452,up,norm,310.3989108,320.3,315.6,320.4,305.6,5,300.4,310.4,306.4,10,5,7.574,4.922,1.256,-1.643,-4.335,-8.299,313,1,209.4,-7.63,-8.266,60,-8.136,-7.547,-4.388,-4.993,-4.51,-4.87,5.094,7.694,29,-1.925,1.736,4.818,8.423,-7.871,-7.741,-1.33,1.965,313,309.6,308.7,306.7,313,308.5,309.6,314.3,318.9,309.1,0,norm,1.718,1.172,-2.072,-1.817,-4.79,-5.118,-1.302,-1.73,-1.138,-1.575,1.963,-1.719,311.4,307.6,-5.005,-8.398,1.237,-1.262,7.724,4.755,-4.854,-7.708,5,5.29,5.28,5.165,4.653,2.072,1.535,1.602,1.579,5,4.617,5.289,60,141.6501069,norm,0,19,19,19,246.713,246.722,246.7286273,246.729,246.731,246.733,up,1,1.047520745,8.952479255,1,324,1920_1200,Intel(R) Core(TM) i5-3570 CPU @ 3.40GHz,orientation_search,LEPPC096,Intel(R) HD Graphics 2500,2018_Dec_19_1442,testMonitor
52.8,56.6,59.8,43.5,36,30,48.8,62.5,37.6,65.3,8.239,8.243,7.816,7.646,8.266,7.574,7.806,4.809,-4.812,-8.408,1.29,-1.238,8.396,5.229,-4.334,-7.57,75.2,58.3,-7.918,55.8,64.8,62.8,52.6,61.4,36,62.7,0,5,prime,10,0,71,norm,36,-4.691,down,norm,57.5813776,65.1,46.9,62.5,67.9,1,69.8,50.1,57.2,10,6,7.59,5.103,2.043,-1.382,-4.417,-8.011,66.7,6,128.6,-7.752,-8.413,30,-7.784,-7.906,-5.02,-5.012,-5.151,-5.075,5.13,7.501,1,-1.341,1.183,5.086,8.296,-7.781,-8.085,-1.262,1.441,42.4,66.4,70.6,58.7,,77.6,54.8,70.7,62.9,68.3,0,norm,1.549,1.933,-1.202,-2.01,-5.088,-4.728,-1.152,-2.096,-1.172,-1.687,1.433,-1.399,47.6,56.7,-4.89,-7.592,1.834,-2.002,8.314,5.238,-5.264,-8.252,6,4.428,5.249,4.615,4.931,1.857,1.41,1.392,1.416,6,4.871,4.625,0,141.6501069,norm,0,20,20,20,247.82,247.83,247.8360785,247.836,247.838,247.841,down,1,1.431170972,8.568829028,1,324,1920_1200,Intel(R) Core(TM) i5-3570 CPU @ 3.40GHz,orientation_search,LEPPC096,Intel(R) HD Graphics 2500,2018_Dec_19_1442,testMonitor
56.4,57.4,46.2,59.6,36,30,47,,47.6,48.9,7.848,8.278,7.677,8.101,8.325,7.535,8.272,4.639,-5.116,-8.197,1.259,-1.457,7.851,5.113,-4.32,-7.937,58.6,60.2,-8.123,42.6,57.7,54.2,54.9,70.2,36,64.7,4,5,prime,10,0,64,norm,36,-4.95,down,norm,57.5813776,69.2,48.9,50.7,66.4,1,55.7,47,68.3,10,6,7.613,5.202,1.932,-1.998,-4.916,-7.576,47.4,6,121.6,-7.719,-7.911,30,-8.132,-7.832,-4.406,-4.823,-5.088,-5.171,5.182,7.564,25,-1.504,1.301,4.621,8.183,-7.672,-7.793,-1.426,2.014,55.7,40.7,57.6,62.9,47,52.6,50.3,64,40.7,37.6,1,norm,1.674,1.987,-1.207,-2.059,-4.786,-4.975,-1.755,-1.167,-1.582,-1.108,1.679,-1.635,77.6,47.1,-4.529,-8.292,1.353,-1.313,8.315,4.347,-4.892,-8.421,6,4.926,5.041,5.15,5.004,2.014,1.554,1.542,1.269,6,4.708,4.778,0,141.6501069,norm,0,21,21,21,249.288,249.298,249.3171455,249.317,249.319,249.322,down,1,1.04504164,8.95495836,1,324,1920_1200,Intel(R) Core(TM) i5-3570 CPU @ 3.40GHz,orientation_search,LEPPC096,Intel(R) HD Graphics 2500,2018_Dec_19_1442,testMonitor
62,37.6,,56.8,36,30,62.4,43.4,41.5,37.7,7.515,7.64,8.07,8.211,7.638,7.722,8.355,4.537,-4.805,-7.688,1.844,-1.911,7.624,4.667,-4.303,-8.053,56.1,77.6,-8.238,48.7,59.4,75.3,75,49.4,36,38.8,3,5,prime,10,0,106,norm,36,-5.025,down,norm,57.5813776,63.4,52.5,53.5,58.9,2,43.1,55.2,63.3,10,6,8.399,4.476,1.551,-1.371,-5.168,-8.22,56.3,6,163.6,-8.131,-7.876,30,-8.351,-8.164,-4.358,-4.736,-4.93,-5.265,4.348,8.117,20,-1.255,1.769,5.059,8.061,-7.81,-7.592,-1.733,2.005,55.5,64.3,67.8,57.6,56.1,59.5,77.6,55,70.4,56.1,2,norm,1.759,2.049,-1.132,-1.618,-4.667,-5.166,-1.432,-1.105,-1.414,-1.658,1.374,-1.284,49.7,55.6,-4.891,-8.081,1.247,-1.464,7.668,5.18,-4.598,-8.358,6,4.453,5.239,4.757,5.028,1.218,1.321,2.094,1.154,6,5.039,4.903,0,141.6501069,norm,0,22,22,22,250.409,250.419,250.4260178,250.426,250.428,250.43,down,1,2.704414876,7.295585124,1,324,1920_1200,Intel(R) Core(TM) i5-3570 CPU @ 3.40GHz,orientation_search,LEPPC096,Intel(R) HD Graphics 2500,2018_Dec_19_1442,testMonitor
73.4,57,53.5,61.7,36,30,56.6,70.5,55.5,69.1,8.439,7.516,8.277,8.108,7.551,8.056,8.415,4.741,-4.484,-7.713,1.765,-1.802,8.352,4.937,-5.235,-7.961,57.2,46.6,-7.526,37.6,60.8,50.4,68.1,57.8,36,75.6,2,5,prime,10,0,116,norm,36,-4.402,up,norm,57.5813776,46.9,,73.3,46.6,4,66.5,64.7,56.3,10,6,7.81,4.491,1.237,-1.74,-4.776,-7.814,69.9,6,173.6,-7.637,-8.311,30,-7.748,-7.807,-4.489,-4.785,-5.195,-4.794,5.038,7.523,16,-1.312,1.225,5.088,8.437,-8.163,-7.969,-1.889,1.898,71.2,65.4,60.4,71.4,54.8,50.8,48.6,46.2,57.2,69.9,3,norm,1.827,1.404,-1.172,-1.423,-4.788,-5.197,-1.542,-2.037,-1.264,-2.008,1.608,-2.075,50.2,61.3,-4.363,-7.585,2.005,-1.245,8.064,5.059,-5.185,-7.686,6,4.428,5.173,5.08,5.284,1.229,1.428,1.32,1.386,6,5.168,4.325,0,141.6501069,norm,0,23,23,23,253.168,253.178,253.1857418,253.186,253.188,253.19,up,1,1.84187673,8.15812327,1,324,1920_1200,Intel(R) Core(TM) i5-3570 CPU @ 3.40GHz,orientation_search,LEPPC096,Intel(R) HD Graphics 2500,2018_Dec_19_1442,testMonitor
63.3,41.6,74.1,44.5,36,30,45.8,56.8,47.2,60,7.691,8.372,7.709,8.214,8.4,8.374,8.419,5.177,-4.733,-7.776,1.236,-1.144,7.638,4.561,-5.028,-7.698,62.8,58.1,-7.963,66,70.4,67.3,62.8,63.2,36,70.3,2,5,prime,10,0,93,norm,36,-4.359,up,norm,57.5813776,,37.6,45.9,54.4,5,41.4,74.6,46.4,10,6,7.967,5.172,1.409,-1.909,-4.48,-7.906,72.7,6,150.6,-7.508,-8.281,30,-7.505,-8.282,-4.624,-4.866,-5.223,-5.16,4.323,8.348,17,-1.527,1.839,4.835,8.108,-8.468,-8.086,-1.692,1.469,69.4,77.6,63.9,64.4,64.6,60,58.1,57.6,48.4,60.6,4,norm,1.478,1.971,-1.629,-1.299,-4.415,-5.158,-1.22,-1.513,-1.838,-1.756,1.567,-1.47,55,53.1,-4.882,-7.524,1.275,-1.26,7.672,5.122,-4.613,-7.779,6,4.782,4.729,4.74,4.83,1.552,2.043,1.863,2.016,6,5.207,4.408,0,141.6501069,norm,0,24,24,24,255.075,255.096,255.1066459,255.107,255.109,255.112,up,1,1.116740369,8.883259631,1,324,1920_1200,Intel(R) Core(TM) i5-3570 CPU @ 3.40GHz,orientation_search,LEPPC096,Intel(R) HD Graphics 2500,2018_Dec_19_1442,testMonitor
40.4,66.3,57,,36,30,46.1,61.7,59.5,59.1,7.998,7.522,7.945,8.124,7.577,8.253,7.957,4.737,-4.616,-7.501,1.278,-1.847,8.002,4.366,-5.031,-7.982,57.2,59.9,-7.868,41.1,58.8,62.3,55.5,69.9,36,60.3,3,5,prime,10,0,78,norm,36,-5.026,up,norm,57.5813776,40.8,77.6,66.1,58.7,3,49.7,58,64.6,10,6,8.448,4.576,1.351,-1.801,-5.281,-8.447,51.6,6,135.6,-8.49,-7.954,30,-7.967,-8.298,-4.427,-4.349,-4.376,-4.792,4.946,8.499,21,-1.736,1.259,4.796,8.14,-8.341,-8.168,-1.515,1.875,51.7,68.3,60.2,37.6,61.3,61.4,61.5,67.4,73.7,61.8,5,norm,1.209,1.51,-1.939,-1.756,-4.328,-5.035,-1.732,-1.558,-1.576,-1.314,2.021,-1.72,55.2,61.1,-4.703,-8.239,1.418,-1.467,7.818,4.992,-5.033,-7.965,6,4.893,4.845,4.404,4.894,1.227,1.161,1.743,1.548,6,4.643,5.115,0,141.6501069,norm,0,25,25,25,256.262,256.274,256.2943146,256.295,256.297,256.3,up,1,1.48334264,8.51665736,1,324,1920_1200,Intel(R) Core(TM) i5-3570 CPU @ 3.40GHz,orientation_search,LEPPC096,Intel(R) HD Graphics 2500,2018_Dec_19_1442,testMonitor
202.6,206.5,206.8,200.4,36,10,209.2,199.9,206.8,197.2,7.956,7.986,7.71,7.638,7.839,7.87,8.101,4.551,-4.553,-7.966,1.89,-1.354,8.013,4.816,-5.021,-8.116,194.5,197.7,-8.004,204.5,203.9,,201.7,214.5,36,206.9,5,5,probe,5,0,119,norm,36,-5.237,up,norm,204.4535821,199.9,195.5,198,205.9,3,211.1,199.9,207.3,10,6,7.742,4.834,1.128,-1.401,-5.266,-8.002,199.9,1,85.5,-8.407,-8.209,30,-8.386,-8.215,-4.757,-4.517,-4.378,-4.856,5.02,7.653,33,-1.849,1.314,5.013,8.481,-7.952,-7.514,-1.234,1.944,194.5,210.3,212.5,204,198.8,202,198.4,201.4,200.3,206.9,0,norm,1.478,1.44,-2.099,-1.469,-4.43,-4.365,-2.044,-1.997,-1.77,-1.375,1.247,-2.023,207.5,207.8,-4.815,-8.063,1.268,-1.562,8.103,4.944,-5.104,-8.037,7,4.442,4.435,4.555,4.744,1.754,1.635,1.69,1.851,7,4.926,4.362,30,57.5813776,norm,0,26,26,26,257.817,257.826,257.834411,257.835,257.836,257.839,up,1,2.215413732,7.784586268,1,324,1920_1200,Intel(R) Core(TM) i5-3570 CPU @ 3.40GHz,orientation_search,LEPPC096,Intel(R) HD Graphics 2500,2018_Dec_19_1442,testMonitor
203,208.3,210.3,211.3,36,0,,209.4,215.4,203.6,7.589,7.868,7.868,8.052,7.842,7.632,8.219,4.636,-4.692,-8.274,2.002,-1.6,7.919,4.719,-4.464,-7.58,204,196.3,-8.271,191.2,202,181.5,209.1,198.3,36,202.5,4,5,prime,10,0,60,norm,36,-4.917,down,norm,201.4605813,201.1,206.8,207,184.4,0,202.2,197.2,202.2,10,6,8.32,5.16,1.113,-1.765,-4.517,-7.712,221.5,6,261.5,-8.366,-7.611,0,-8.005,-7.957,-4.809,-4.848,-4.716,-4.747,4.824,8.337,24,-1.96,1.106,5.292,8.258,-7.895,-7.916,-1.544,1.337,185.2,204.7,205.3,186.6,208.1,208.5,205.3,199.6,198.4,208.7,0,norm,1.122,1.364,-1.809,-1.779,-5.086,-4.579,-1.783,-1.213,-1.498,-1.2,1.737,-2.032,207.8,191.5,-4.836,-7.622,1.792,-1.538,8.066,4.804,-4.903,-8.209,8,4.384,5.204,5.05,4.466,1.646,1.74,1.422,1.962,8,4.417,5.138,10,57.5813776,norm,0,27,27,27,260.097,260.107,260.1128353,260.113,260.115,260.117,down,1,2.313979637,7.686020363,1,324,1920_1200,Intel(R) Core(TM) i5-3570 CPU @ 3.40GHz,orientation_search,LEPPC096,Intel(R) HD Graphics 2500,2018_Dec_19_1442,testMonitor
,203,208.8,197.4,36,0,212.2,196.1,195.3,215.1,8.12,7.886,8.318,8.109,7.881,8.147,8.499,5.234,-5.143,-7.705,1.575,-2.043,7.873,4.973,-4.536,-7.695,197.3,197.2,-8.203,209,192.7,196.8,204.5,213.3,36,193.1,3,5,prime,10,0,60,norm,36,-4.935,up,norm,201.4605813,191.9,198.6,200.3,201.5,4,198.2,196.8,192.5,10,6,8.095,4.676,1.825,-1.587,-4.881,-7.807,219.3,6,261.5,-8.269,-8.249,0,-8.496,-8.227,-4.751,-5.111,-4.577,-4.801,4.519,8.493,22,-1.933,1.794,4.849,8.043,-8.226,-8.075,-1.583,1.249,192.1,192.3,221.5,188.5,181.7,204.7,199.1,211.3,207.3,181.5,1,norm,2.061,1.365,-1.585,-2.055,-4.685,-5.03,-1.238,-1.739,-1.354,-1.43,1.285,-1.85,211.7,215.5,-5.225,-8.386,1.201,-1.871,8.377,4.45,-4.326,-8.318,8,4.4,4.842,5.074,4.631,1.962,1.859,2.054,1.278,8,4.969,5.052,10,57.5813776,norm,0,28,28,28,262.464,262.474,262.4830749,262.483,262.485,262.488,up,1,2.361986966,7.638013034,1,324,1920_1200,Intel(R) Core(TM) i5-3570 CPU @ 3.40GHz,orientation_search,LEPPC096,Intel(R) HD Graphics 2500,2018_Dec_19_1442,testMonitor
201.8,193.9,204.6,193.9,36,0,195.9,204.6,208,202,8.259,7.883,8.046,7.941,8.429,7.949,8.172,4.587,-4.86,-8.238,2.021,-1.833,8.216,5.234,-4.411,-8.163,191.6,205.1,-7.995,202.8,202.3,210.1,183.1,191.8,36,208,3,5,prime,10,0,93,norm,36,-4.492,down,norm,201.4605813,193.8,218.7,195.4,181.5,1,199,192.9,198.2,10,6,7.609,4.564,2.066,-1.779,-5.126,-7.622,196.8,6,294.5,-7.766,-8.458,0,-7.768,-7.513,-4.54,-4.487,-4.774,-4.508,5.256,8.454,19,-1.965,1.546,5.269,8.205,-8.138,-8.121,-1.669,1.859,196.4,183.8,221.5,196.9,206.3,208.2,194.6,193.9,206.5,206.6,2,norm,1.468,1.583,-1.612,-1.286,-4.579,-4.357,-2.022,-1.72,-1.641,-1.778,1.752,-1.857,,193.8,-4.593,-8.088,1.166,-1.199,8.486,4.49,-5.028,-8.375,8,4.706,5.2,5.181,4.542,1.904,1.605,1.618,1.418,8,4.506,4.98,10,57.5813776,norm,0,29,29,29,264.882,264.892,264.9009922,264.901,264.903,264.906,up,0,1.1291374,-10,1,324,1920_1200,Intel(R) Core(TM) i5-3570 CPU @ 3.40GHz,orientation_search,LEPPC096,Intel(R) HD Graphics 2500,2018_Dec_19_1442,testMonitor
206.8,181.5,209,206.6,36,0,198.9,197.6,208.3,210.8,7.896,8.454,7.731,8.171,7.754,7.567,7.524,4.973,-4.912,-7.584,1.26,-1.506,7.889,4.769,-4.926,-7.88,202.3,217.4,-8.441,198.7,193.4,190.3,185.7,197.7,36,221.5,3,5,prime,10,0,76,norm,36,-4.733,down,norm,201.4605813,199.5,198.1,217.3,203.3,1,221.4,201.6,207.3,10,6,8.393,4.649,1.245,-1.236,-5.16,-7.711,208.1,6,277.5,-8.475,-7.598,0,-7.802,-7.764,-5.247,-5.019,-4.649,-4.475,4.514,7.94,19,-1.869,1.392,4.331,8.015,-8.127,-8.485,-1.263,1.509,215,195.6,205.2,203.4,200.4,213.1,218.6,190.7,217.9,194.7,3,norm,1.328,2.094,-1.647,-1.749,-4.676,-4.587,-1.52,-1.979,-1.796,-1.554,1.356,-1.716,,206.6,-5.213,-8.21,1.573,-1.979,8.252,4.586,-5.151,-8.215,8,4.536,4.642,4.523,4.731,1.225,2.063,2.05,1.516,8,4.697,4.376,10,57.5813776,norm,0,30,30,30,267.101,267.111,267.1171859,267.117,267.119,267.122,down,1,2.404326434,7.595673566,1,324,1920_1200,Intel(R) Core(TM) i5-3570 CPU @ 3.40GHz,orientation_search,LEPPC096,Intel(R) HD Graphics 2500,2018_Dec_19_1442,testMonitor
197.2,208.3,218.1,203.6,36,0,201.9,221.5,209.1,198.8,7.55,7.858,8.043,7.937,8.124,7.712,7.84,4.436,-5.062,-7.637,1.347,-1.127,7.682,4.431,-5.009,-7.628,206.6,201.8,-8.427,207,219.1,193.1,199.4,211.5,36,193.6,2,5,prime,10,0,88,norm,36,-4.995,up,norm,201.4605813,,194.4,209.6,202,5,194.2,199.2,196.9,10,6,8.281,4.503,1.876,-1.867,-4.577,-7.982,181.5,6,289.5,-8.097,-7.934,0,-7.922,-7.5,-4.815,-4.409,-4.919,-4.549,4.311,8.499,17,-2.093,2.077,4.467,7.909,-7.847,-7.95,-1.509,1.367,205.8,214.5,204.4,206.6,198.6,205.8,202.8,204.1,209.5,210.3,4,norm,1.743,1.925,-1.339,-1.843,-4.999,-5.07,-1.117,-1.876,-1.685,-1.169,1.625,-1.162,205.4,189.8,-4.682,-8.139,1.816,-1.269,8.094,4.879,-4.9,-8.216,8,4.493,4.767,4.703,5.295,1.289,2.066,1.918,1.136,8,5.171,4.331,10,57.5813776,norm,0,31,31,31,269.567,269.591,269.5986257,269.599,269.601,269.603,up,1,1.164053742,8.835946258,1,324,1920_1200,Intel(R) Core(TM) i5-3570 CPU @ 3.40GHz,orientation_search,LEPPC096,Intel(R) HD Graphics 2500,2018_Dec_19_1442,testMonitor
214.6,195.4,202.4,202.1,36,0,204.7,203.5,221.5,190.2,8.004,7.893,8.344,8.106,8.17,7.647,8.485,5.112,-4.807,-8.358,1.255,-1.483,8.369,5.059,-4.589,-7.793,199.5,194.1,-8.312,183.1,214.8,211.3,213.1,212.6,36,202.1,1,5,prime,10,0,105,norm,36,-4.688,up,norm,201.4605813,195.4,199,208,188.7,4,185.7,202,217.7,10,6,7.552,4.904,1.39,-1.395,-4.719,-8.026,,6,306.5,-7.528,-7.561,0,-7.736,-7.59,-4.702,-4.849,-4.855,-4.519,4.398,8.408,10,-1.916,1.513,4.929,7.922,-7.918,-8.467,-1.649,1.625,181.5,206.2,211.4,203.9,206.8,204.8,184.9,200.6,206.6,201.9,5,norm,1.736,1.898,-1.935,-1.982,-5.025,-4.835,-1.97,-1.931,-1.181,-1.72,1.128,-1.35,213.9,221.3,-5.088,-7.86,1.478,-1.557,7.732,4.837,-4.885,-7.924,8,5.285,4.637,4.457,4.818,1.38,1.571,1.892,1.587,8,4.328,4.368,10,57.5813776,norm,0,32,32,32,270.784,270.794,270.8133216,270.813,270.815,270.818,up,1,1.246986166,8.753013834,1,324,1920_1200,Intel(R) Core(TM) i5-3570 CPU @ 3.40GHz,orientation_search,LEPPC096,Intel(R) HD Graphics 2500,2018_Dec_19_1442,testMonitor
280,278.6,278.7,282.1,36,40,285.6,276.8,277.2,284.1,7.558,8.043,8.096,8.06,8.23,8.434,8.304,5.058,-5.037,-8.355,1.559,-1.806,8.096,5.248,-5.245,-8.398,272.6,278.3,-7.938,276.3,282.2,274.5,287.2,272,36,276.8,1,5,probe,5,0,84,norm,36,-5.158,down,norm,280.8508053,273.8,283.1,276.9,277.1,2,290.6,283.5,286.5,10,6,8.166,4.302,1.72,-1.857,-4.338,-7.521,273.2,2,196.9,-8.055,-8.426,0,-8.407,-8.312,-4.989,-5.059,-5.133,-4.935,4.552,8.478,8,-1.657,1.737,4.794,8.012,-8.405,-7.592,-1.104,1.759,274.9,,283.7,279.5,281.8,290.9,279.8,278,282.1,288.9,0,norm,1.855,1.652,-1.358,-1.191,-4.766,-5.021,-1.881,-2.045,-2.044,-1.371,1.938,-1.824,270.9,276.4,-4.759,-7.96,1.807,-1.783,8.34,5.22,-4.465,-8.111,9,4.957,5.126,5.045,4.844,2.028,2.062,1.914,1.263,9,5.149,4.777,0,201.4605813,norm,0,33,33,33,272.098,272.112,272.1300188,272.13,272.132,272.134,down,1,1.618079079,8.381920921,1,324,1920_1200,Intel(R) Core(TM) i5-3570 CPU @ 3.40GHz,orientation_search,LEPPC096,Intel(R) HD Graphics 2500,2018_Dec_19_1442,testMonitor
270.9,276.6,277.5,277.9,36,40,286.9,279.7,278,272.8,8.357,7.953,8.289,8.179,8.191,8.183,7.871,5.015,-5.174,-8.014,1.189,-1.609,7.672,4.807,-4.533,-7.675,275.1,273.2,-8.006,280.8,282,271.1,279.9,277.1,36,281.5,1,5,probe,5,0,80,norm,36,-4.701,down,norm,276.8508053,279.6,279.9,280.4,278.1,0,275.2,279.1,266.9,10,6,7.916,4.446,1.507,-1.389,-5.272,-8.259,271,2,196.9,-7.674,-7.772,0,-8.078,-8.228,-5.249,-4.427,-4.517,-4.306,5.24,7.668,6,-1.105,1.687,4.968,8.365,-8.264,-7.999,-2.074,1.732,283.5,274.8,277.8,277.3,280.8,283.5,283.8,,269.4,276.3,1,norm,2.043,1.541,-1.756,-1.663,-5.256,-4.792,-1.925,-2.014,-1.374,-1.168,1.113,-1.619,274.6,283,-4.707,-8.348,1.351,-1.164,7.512,5.048,-5.072,-8.293,9,4.375,5.26,4.557,5.153,1.958,1.853,1.822,1.74,9,4.986,4.739,0,201.4605813,norm,0,34,34,34,273.785,273.796,273.8011443,273.801,273.803,273.806,down,1,1.678600859,8.321399141,1,324,1920_1200,Intel(R) Core(TM) i5-3570 CPU @ 3.40GHz,orientation_search,LEPPC096,Intel(R) HD Graphics 2500,2018_Dec_19_1442,testMonitor
148.6,151.5,129.4,136.6,36,-10,155.3,137,,131.6,8.22,7.52,8.03,8.295,8.278,7.621,8.056,5.158,-5.246,-7.958,2.007,-1.286,8.468,5.283,-4.454,-8.481,146,157.6,-7.507,145.8,138.1,159.1,151.6,135.9,36,134.8,4,5,prime,10,0,73,norm,36,-5.206,up,norm,145.8234183,139.4,138.8,165.8,151.9,4,132.7,156.2,147.4,10,5,7.728,5.167,1.421,-1.383,-4.614,-7.732,163,5,218.8,-7.512,-8.208,-10,-8.279,-8.052,-4.759,-4.729,-5.262,-4.979,5.162,7.819,28,-1.201,1.539,4.389,7.584,-7.838,-7.727,-2.042,1.664,137.8,149.1,146.2,125.8,144,149,131.8,160.6,152.3,145,0,norm,1.269,1.804,-1.286,-1.853,-5.185,-5.264,-1.779,-1.784,-1.599,-1.36,1.375,-1.695,162.8,155.9,-5.255,-8.066,1.34,-1.392,7.744,4.552,-5.016,-8.052,10,4.978,4.502,5.286,4.656,1.244,1.72,1.721,1.244,10,4.875,4.681,40,201.4605813,norm,0,35,35,35,275.526,275.546,275.5576632,275.558,275.56,275.563,up,1,1.1092614,8.8907386,1,324,1920_1200,Intel(R) Core(TM) i5-3570 CPU @ 3.40GHz,orientation_search,LEPPC096,Intel(R) HD Graphics 2500,2018_Dec_19_1442,testMonitor
131.9,133.9,141.2,145.8,36,-10,150.9,148.7,146.2,147.5,7.694,8.413,8.288,8.352,7.739,8.1,8.282,4.438,-5.04,-8.022,1.312,-1.656,7.575,4.481,-5.159,-7.7,125.8,143,-7.559,141.2,147.8,136.4,136.3,147.2,36,139.6,2,5,prime,10,0,118,norm,36,-4.506,down,norm,145.8234183,146.1,144.1,145.9,145,1,161.4,,130.1,10,5,7.962,4.919,1.305,-1.288,-4.505,-8.489,132.2,5,263.8,-7.55,-7.734,-10,-8.336,-8.32,-5.088,-5.023,-4.56,-4.885,4.642,8.209,13,-1.185,1.342,4.886,8.061,-8.433,-8.245,-1.616,1.37,139.6,165.8,157.2,149.6,158,150.7,145.9,145.2,147.3,132.6,1,norm,1.562,1.65,-1.524,-1.333,-5.052,-4.643,-2.014,-1.805,-2.054,-1.528,1.921,-1.976,149.7,142.6,-5.059,-7.726,1.782,-1.982,8.081,4.703,-4.995,-8.026,10,4.727,5.113,4.718,4.56,1.437,1.401,1.301,1.344,10,4.511,5.051,40,201.4605813,norm,0,36,36,36,276.71,276.72,276.7264349,276.727,276.728,276.731,down,1,1.248096073,8.751903927,1,324,1920_1200,Intel(R) Core(TM) i5-3570 CPU @ 3.40GHz,orientation_search,LEPPC096,Intel(R) HD Graphics 2500,2018_Dec_19_1442,testMonitor
150.9,143.1,145.7,155.5,36,-10,135.4,141.3,125.8,142.3,8.448,8.156,7.606,7.982,8.216,7.902,8,4.304,-4.715,-8.262,1.638,-1.404,7.584,5.253,-4.45,-7.712,130.4,130.6,-7.863,153,147.3,157.9,145.4,,36,156.9,4,5,prime,10,0,103,norm,36,-4.321,down,norm,145.8234183,159.6,140.9,161.2,156.8,2,136.2,157.4,153.3,10,5,7.556,4.723,1.44,-2.009,-4.3,-7.793,159.1,5,248.8,-8.338,-7.626,-10,-8.456,-8.454,-4.314,-4.795,-5.288,-4.881,4.477,7.664,26,-1.919,1.399,5.19,7.837,-8.165,-8.23,-1.862,1.273,149.2,138.6,165.8,152.2,152.3,148.3,154.4,146.7,153.7,130.3,2,norm,1.458,1.136,-1.759,-1.798,-4.855,-4.489,-1.956,-1.482,-1.464,-1.767,1.202,-1.748,143.2,155.1,-4.701,-8.424,1.737,-1.355,8.086,4.665,-4.486,-7.696,10,4.649,5.005,5.047,4.531,1.224,1.389,1.462,1.699,10,4.615,4.759,40,201.4605813,norm,0,37,37,37,278.012,278.024,278.044278,278.044,278.046,278.049,down,1,1.509947508,8.490052492,1,324,1920_1200,Intel(R) Core(TM) i5-3570 CPU @ 3.40GHz,orientation_search,LEPPC096,Intel(R) HD Graphics 2500,2018_Dec_19_1442,testMonitor
146.9,151.3,148.4,141.6,36,-10,147.8,151.8,147,136.8,8.188,8.183,8.434,8.305,7.598,7.759,8.029,4.808,-4.739,-7.92,1.968,-1.245,7.528,4.334,-4.844,-8.268,143.3,148.5,-8.26,127.2,130.2,153.3,150.3,157.4,36,139.4,1,5,prime,10,0,91,norm,36,-4.764,down,norm,145.8234183,125.8,147.5,142.4,128.7,1,140,148.6,140.1,10,5,8.28,4.827,1.737,-1.582,-4.656,-8.204,165.8,5,236.8,-8.091,-8.044,-10,-8.228,-8.269,-5.011,-4.596,-4.353,-4.715,4.405,8.42,7,-1.337,1.354,5.132,7.878,-7.603,-8.231,-1.367,1.162,137.3,155.3,149.2,150.8,129.2,145.2,,151.9,140,150.4,3,norm,1.635,1.254,-1.877,-1.203,-4.387,-4.987,-1.609,-1.4,-1.239,-1.145,1.662,-1.833,148.6,143.3,-4.361,-7.515,1.229,-1.767,7.533,4.495,-5.034,-8.239,10,4.502,4.535,4.577,4.336,1.126,1.168,1.641,1.323,10,4.796,5.115,40,201.4605813,norm,0,38,38,38,279.596,279.606,279.612353,279.613,279.614,279.617,down,1,1.517553858,8.482446142,1,324,1920_1200,Intel(R) Core(TM) i5-3570 CPU @ 3.40GHz,orientation_search,LEPPC096,Intel(R) HD Graphics 2500,2018_Dec_19_1442,testMonitor
151.4,129.3,143.9,152.1,36,-10,148.5,126.7,156.6,158,8.18,8.094,7.798,7.655,7.871,8.08,7.93,4.786,-4.597,-8.341,2.031,-1.164,7.975,5.063,-5.246,-7.665,155.9,148.4,-7.716,154.6,161.8,134.9,154.1,164.8,36,153.4,1,5,prime,10,0,75,norm,36,-4.801,up,norm,145.8234183,142.3,150.5,135.9,148.5,3,148.3,131.3,147.4,10,5,7.883,5.113,1.35,-1.821,-4.997,-8.182,158.6,5,220.8,-8.133,-7.849,-10,-8.247,-8.315,-5.163,-4.732,-5.296,-4.741,5.14,7.81,9,-2.054,1.517,4.461,7.989,-8.08,-7.786,-1.465,1.436,,150.8,149.1,143,157,151.5,152.3,159.4,149.1,148.7,4,norm,1.177,1.545,-1.752,-1.785,-4.858,-4.517,-1.933,-1.967,-1.602,-2.047,2.065,-1.394,125.8,141,-4.495,-7.644,1.549,-1.206,8.451,4.913,-5.077,-7.948,10,4.668,5.048,4.932,4.551,1.343,1.429,1.765,1.53,10,4.475,4.879,40,201.4605813,norm,0,39,39,39,281.167,281.177,281.1869054,281.187,281.189,281.191,up,1,0.974567221,9.025432779,1,324,1920_1200,Intel(R) Core(TM) i5-3570 CPU @ 3.40GHz,orientation_search,LEPPC096,Intel(R) HD Graphics 2500,2018_Dec_19_1442,testMonitor
216.9,216.2,205.4,214.8,36,40,211.4,218,210.7,222.6,8.389,7.56,8.47,7.817,8.454,7.515,7.953,5.11,-4.575,-7.948,1.99,-1.675,8.157,4.773,-4.379,-7.531,218.1,215.7,-7.739,210.2,208,212,206.8,204.5,36,217.5,1,5,probe,5,0,83,norm,36,-4.925,down,norm,214.4810165,210.3,212.2,207.1,215.7,2,211.4,214.7,212.7,10,5,7.725,4.329,2.028,-1.585,-5.073,-8.374,219.1,1,131.5,-7.508,-8.031,-10,-8.174,-7.601,-5.112,-4.654,-4.44,-5.073,4.954,7.919,8,-1.652,2.075,4.905,8.002,-8.079,-7.644,-2.035,1.918,209.3,,219.5,215.1,208.7,224.1,215.3,216,219.3,219.3,0,norm,1.506,2.01,-1.448,-1.818,-4.901,-4.329,-1.923,-1.937,-1.515,-1.186,2.009,-1.738,215.6,218.7,-5.113,-8.198,2.042,-1.569,8.479,4.398,-4.461,-8.052,11,5.101,5.107,5.034,5.216,1.211,1.117,1.224,1.333,11,4.373,4.632,-10,145.8234183,norm,0,40,40,40,282.202,282.211,282.2175092,282.218,282.219,282.222,down,1,1.027585884,8.972414116,1,324,1920_1200,Intel(R) Core(TM) i5-3570 CPU @ 3.40GHz,orientation_search,LEPPC096,Intel(R) HD Graphics 2500,2018_Dec_19_1442,testMonitor
111.2,112,,111.2,36,20,122.5,95.6,133.5,105.3,8.172,7.953,7.672,8.199,8.316,8.493,7.622,4.431,-5.088,-8.394,1.481,-1.568,7.831,4.639,-4.552,-8.463,113.4,108.5,-7.522,94.2,98.2,102.2,134.2,110.6,36,99.9,3,5,prime,10,0,86,norm,36,-5.103,down,norm,114.1807837,112.4,127.3,116.2,112.7,2,112.2,109.2,113.2,10,5,7.784,4.919,1.825,-1.697,-4.902,-7.832,105,5,200.2,-7.542,-8.462,20,-8.1,-7.573,-4.495,-4.383,-4.807,-4.31,4.915,8.137,20,-1.676,1.469,4.37,7.946,-7.782,-8.229,-1.39,2.057,118.4,120.9,113.2,110.8,116.5,121.1,103.2,114,120.2,106.1,0,norm,2.039,1.655,-1.221,-1.926,-4.596,-4.447,-1.865,-1.818,-1.51,-1.681,1.83,-1.826,111.6,110.9,-5.107,-7.653,1.864,-1.574,8.282,5.236,-4.483,-8.178,12,4.57,5.156,4.565,4.912,1.963,1.933,1.299,1.26,12,4.85,4.497,40,145.8234183,norm,0,41,41,41,283.282,283.292,283.3085367,283.309,283.31,283.313,down,1,1.395864034,8.604135966,1,324,1920_1200,Intel(R) Core(TM) i5-3570 CPU @ 3.40GHz,orientation_search,LEPPC096,Intel(R) HD Graphics 2500,2018_Dec_19_1442,testMonitor
107.8,117.4,110.2,120.6,36,20,109.3,123.3,103.3,108,8.346,7.791,8.284,7.967,8.208,8.156,7.613,4.981,-5.154,-7.85,1.222,-1.147,8.448,4.672,-4.536,-8.394,118.4,116.5,-8.251,110.5,109.4,102.8,110.7,131.8,36,130.4,0,5,prime,10,0,65,norm,36,-4.703,up,norm,114.1807837,109.3,118.1,112.5,94.2,4,134.1,110.3,124.2,10,5,7.507,4.342,1.93,-1.88,-4.365,-7.748,108.5,5,179.2,-8.423,-8.29,20,-8.092,-7.551,-4.408,-4.829,-4.652,-5.21,4.963,7.729,4,-1.864,1.341,4.692,7.954,-8.01,-7.856,-1.932,2.088,114.6,134.2,112.5,121.6,106.2,124.8,115.9,107.9,118.9,,1,norm,1.851,2.054,-1.888,-1.69,-4.71,-4.423,-1.317,-1.416,-1.236,-1.528,1.284,-1.349,119.5,116.3,-4.951,-7.548,2.018,-1.509,7.847,5.002,-5.143,-8.131,12,4.806,5.206,4.607,4.479,2.003,1.47,1.681,2.075,12,4.584,4.537,40,145.8234183,norm,0,42,42,42,284.729,284.738,284.7446148,284.745,284.747,284.749,up,1,2.368176124,7.631823876,1,324,1920_1200,Intel(R) Core(TM) i5-3570 CPU @ 3.40GHz,orientation_search,LEPPC096,Intel(R) HD Graphics 2500,2018_Dec_19_1442,testMonitor
124.3,110.5,126.2,108,36,20,112.4,112,118,108.5,8.435,8.437,7.85,7.61,8.351,8.303,8.453,4.962,-4.983,-8.11,1.987,-1.653,8.405,5.134,-5.074,-7.832,107.7,111.4,-7.906,129.3,120.2,132.4,,114,36,125.2,5,5,prime,10,0,74,norm,36,-4.868,down,norm,114.1807837,127.7,113.1,94.2,123.2,2,120.9,113.8,128.1,10,5,7.571,4.98,1.24,-2.057,-4.824,-7.799,102.8,5,188.2,-7.532,-7.646,20,-8.126,-7.862,-4.318,-4.835,-4.692,-4.711,4.683,8.203,32,-1.671,1.902,4.47,8.472,-7.938,-8.341,-1.633,1.438,130.8,131.5,106.2,120.9,134.2,118.4,101.2,119,115.3,113.9,2,norm,1.129,1.66,-1.71,-1.132,-5.027,-5.119,-1.102,-1.644,-1.775,-1.997,1.29,-1.344,121.6,131.2,-4.552,-7.915,1.36,-2.024,7.892,5.291,-4.329,-8.157,12,5.006,4.862,4.833,4.648,1.145,1.654,1.646,1.39,12,4.471,4.796,40,145.8234183,norm,0,43,43,43,287.15,287.159,287.1771541,287.177,287.179,287.182,down,1,1.079601496,8.920398504,1,324,1920_1200,Intel(R) Core(TM) i5-3570 CPU @ 3.40GHz,orientation_search,LEPPC096,Intel(R) HD Graphics 2500,2018_Dec_19_1442,testMonitor
116.9,120.5,99.4,110.4,36,20,122.4,133.8,115.6,113.4,7.731,8.453,7.528,8.104,8.125,8.272,7.886,4.378,-4.685,-7.701,1.897,-1.247,8.418,4.773,-4.385,-7.596,122,128.3,-7.698,99.6,119.4,114.5,108.3,116.9,36,129.1,0,5,prime,10,0,85,norm,36,-4.418,up,norm,114.1807837,113.7,111,115.4,119.2,3,98.5,109,107.5,10,5,7.623,4.503,1.956,-1.438,-5.073,-8.336,96.3,5,199.2,-8.321,-8.077,20,-8.267,-8.149,-5.231,-4.627,-4.895,-5.1,4.504,8.132,3,-1.216,1.495,5.129,7.574,-8.413,-8.091,-1.627,1.257,126.5,119.4,,114.5,128.7,101.1,131.1,102.2,120.1,134.2,3,norm,1.504,1.704,-1.344,-1.454,-4.317,-4.671,-1.734,-1.479,-1.549,-2.065,1.42,-1.378,94.2,109.5,-5.089,-8.041,1.691,-1.614,8.115,4.602,-4.508,-8.215,12,4.932,4.347,4.32,4.928,2.038,1.806,1.716,1.944,12,5.294,5.231,40,145.8234183,norm,0,44,44,44,288.301,288.311,288.3169972,288.317,288.319,288.321,up,1,1.580373631,8.419626369,1,324,1920_1200,Intel(R) Core(TM) i5-3570 CPU @ 3.40GHz,orientation_search,LEPPC096,Intel(R) HD Graphics 2500,2018_Dec_19_1442,testMonitor
119.7,134.2,100.6,94.2,36,20,126.4,115.6,113.7,111.8,8.424,7.996,8.27,8.302,8.404,8.149,8.134,5.166,-4.729,-8.464,1.679,-2.028,7.655,4.61,-5.083,-8.3,117.4,110.3,-8.008,124.8,125.8,119.4,134.1,120.9,36,113.4,1,5,prime,10,0,74,norm,36,-4.77,down,norm,114.1807837,110,109.6,111.2,116.1,2,123.9,108.4,105,10,5,7.757,4.995,2.073,-1.421,-4.587,-7.907,122.5,5,188.2,-7.965,-8.395,20,-8.178,-8.376,-4.742,-5.021,-4.684,-5.105,4.502,8.117,8,-1.138,1.607,5.046,8.394,-7.803,-8.089,-1.197,1.705,102.2,,124.2,123.5,110.7,112.9,114,108.7,126.7,110.9,4,norm,1.678,1.994,-1.98,-2.024,-4.759,-5.08,-2.012,-1.128,-1.634,-1.447,1.133,-1.714,111.4,112.5,-4.516,-7.721,2.033,-1.41,7.686,4.873,-4.739,-8.461,12,4.758,4.36,4.774,5.201,1.255,1.42,2.071,1.343,12,5.284,4.305,40,145.8234183,norm,0,45,45,45,289.935,289.945,289.9539677,289.954,289.956,289.959,down,1,1.025537823,8.974462177,1,324,1920_1200,Intel(R) Core(TM) i5-3570 CPU @ 3.40GHz,orientation_search,LEPPC096,Intel(R) HD Graphics 2500,2018_Dec_19_1442,testMonitor
190.9,194,202.1,194.4,36,-20,190,203.5,201.5,204.7,7.69,7.612,8.437,7.783,7.751,7.637,8.232,5.066,-4.646,-7.535,1.776,-1.605,7.952,4.59,-5.057,-8.106,199.1,,-7.79,199,200.3,198.2,200.6,189.2,36,206.5,5,5,probe,5,0,60,norm,36,-4.527,up,norm,199.1504115,203,203.3,201.9,204.7,4,194.2,200.8,195.8,10,5,8.348,4.822,1.726,-1.639,-4.584,-7.54,194,2,139.2,-8.137,-7.911,20,-7.999,-7.626,-4.709,-4.964,-4.591,-4.435,4.351,7.502,34,-2.066,2.035,5.058,8.015,-7.964,-8.267,-1.587,1.602,208.1,197.8,203,203.7,199,209.2,193.4,207.8,195.8,197.4,0,norm,1.517,1.971,-1.213,-2.002,-4.346,-4.535,-1.616,-1.568,-1.627,-1.102,1.33,-2.097,196.3,202.7,-5.167,-8.222,1.296,-1.509,8.271,4.773,-4.605,-8.429,13,5.061,4.726,5.172,4.684,1.797,2,1.905,1.846,13,5.175,5.061,20,114.1807837,norm,0,46,46,46,291.001,291.01,291.0302826,291.03,291.032,291.035,up,1,1.682577448,8.317422553,1,324,1920_1200,Intel(R) Core(TM) i5-3570 CPU @ 3.40GHz,orientation_search,LEPPC096,Intel(R) HD Graphics 2500,2018_Dec_19_1442,testMonitor
235.3,237.5,231.7,238.2,36,-20,228.8,233.1,228.5,233.8,7.9,8.428,7.874,8.419,7.915,7.947,7.701,4.372,-4.847,-7.642,1.974,-1.724,8.035,4.329,-4.778,-7.859,228.9,230.6,-7.904,242.2,233,223.1,233.9,230.7,36,234,0,5,probe,5,0,93,norm,36,-5.198,down,norm,232.1504115,235.6,238.8,238.2,227.5,2,225.2,230.1,233.2,10,5,8.396,4.954,1.402,-2.005,-4.484,-8.022,229.3,2,139.2,-7.507,-8.32,20,-8.023,-7.783,-4.744,-4.538,-5.209,-5.238,5.06,7.922,2,-1.696,1.485,5.121,8.362,-7.715,-7.688,-1.564,1.22,234.6,231.9,224.9,,224.2,239,232.2,222.2,230.9,235.7,1,norm,1.135,1.136,-1.258,-1.692,-4.596,-4.709,-1.164,-1.121,-1.761,-1.802,1.661,-1.653,234.4,230.8,-5.13,-7.553,1.521,-1.596,7.636,4.402,-4.798,-8.049,13,4.332,5.245,5.043,4.388,1.901,1.195,1.206,1.904,13,4.692,4.396,20,114.1807837,norm,0,47,47,47,292.75,292.76,292.7771948,292.777,292.779,292.782,down,1,1.348914392,8.651085608,1,324,1920_1200,Intel(R) Core(TM) i5-3570 CPU @ 3.40GHz,orientation_search,LEPPC096,Intel(R) HD Graphics 2500,2018_Dec_19_1442,testMonitor
68.9,83.5,75.1,62.3,36,10,74,80.2,69.6,79.7,7.668,8.044,8.494,7.592,7.767,8.202,7.655,5.042,-4.896,-7.851,1.779,-1.392,7.689,4.631,-4.558,-8.401,69.4,64.8,-7.641,81.7,71.1,74.8,73.2,69.6,36,70.5,3,5,prime,10,0,115,norm,36,-4.318,down,norm,69.76917079,80.1,65.2,73.9,56,1,55.6,58,77.1,10,6,8.283,5.116,1.708,-1.541,-4.751,-8.143,70,6,184.8,-8.096,-7.55,10,-8.252,-7.746,-4.638,-4.879,-5.207,-4.407,4.838,7.597,19,-1.138,1.394,5.213,7.99,-8.325,-8.158,-1.161,1.795,49.8,62.1,78.5,62.2,60.8,74.4,88.9,54.2,74.2,57.1,0,norm,1.344,1.732,-1.504,-1.163,-4.525,-5.004,-1.127,-1.691,-1.214,-1.846,1.636,-1.822,,77.2,-5.118,-7.593,1.28,-1.629,8.214,5.262,-5.132,-7.863,14,5.136,4.47,4.815,4.804,1.706,1.786,1.166,1.171,14,4.877,4.416,-20,114.1807837,norm,0,48,48,48,294.151,294.161,294.166829,294.167,294.169,294.171,down,1,1.653382998,8.346617002,1,324,1920_1200,Intel(R) Core(TM) i5-3570 CPU @ 3.40GHz,orientation_search,LEPPC096,Intel(R) HD Graphics 2500,2018_Dec_19_1442,testMonitor
49.8,68.6,67.2,85,36,10,72.9,62.7,75.2,62.2,7.564,8.139,8.371,7.829,7.744,8.328,8.268,5.047,-4.453,-7.975,1.25,-1.967,8.166,5.149,-4.89,-7.539,71,69.8,-7.792,65.9,65.8,75.6,55,77.9,36,62.4,1,5,prime,10,0,104,norm,36,-4.475,up,norm,69.76917079,78.4,58.1,59.8,74.1,4,78.3,76.9,61,10,6,7.63,5,1.527,-1.462,-5.222,-7.561,,6,173.8,-8.37,-8.241,10,-7.896,-8.463,-4.75,-4.489,-4.613,-4.4,4.52,8.232,10,-1.85,1.281,4.303,8.385,-7.593,-8.261,-1.957,1.533,82,70.2,64.4,72.2,54.3,60.8,78.7,70.8,79,89.8,1,norm,1.697,1.557,-1.883,-1.845,-4.855,-4.369,-1.883,-1.999,-1.154,-1.269,1.589,-1.313,66,77.3,-5.152,-7.769,1.873,-1.439,7.541,5.26,-4.814,-7.796,14,5.151,4.784,4.554,4.486,1.332,1.596,1.146,1.308,14,4.471,5.255,-20,114.1807837,norm,0,49,49,49,295.867,295.888,295.8994561,295.9,295.902,295.905,up,1,1.673303068,8.326696932,1,324,1920_1200,Intel(R) Core(TM) i5-3570 CPU @ 3.40GHz,orientation_search,LEPPC096,Intel(R) HD Graphics 2500,2018_Dec_19_1442,testMonitor
89.8,72.6,68.3,64,36,10,78.8,69,56.8,68,7.767,7.503,7.81,7.826,7.752,8.362,8.464,5.151,-4.403,-7.819,1.469,-1.912,7.804,4.66,-4.653,-8.188,62.7,63.7,-7.536,78.4,65.7,,49.8,57.5,36,53.5,5,5,prime,10,0,88,norm,36,-4.321,up,norm,69.76917079,56.1,64.9,56.1,79.3,3,61.3,61,74.9,10,6,7.572,4.937,1.871,-1.859,-4.41,-7.861,77.6,6,157.8,-8.359,-8.352,10,-7.882,-7.507,-4.432,-4.522,-4.385,-5.077,4.495,7.552,33,-1.238,1.51,4.539,7.863,-7.894,-8.042,-1.622,1.601,61.9,75.9,64.3,58.4,74.4,83.8,68.9,58.7,80.8,79.7,2,norm,1.899,1.812,-1.652,-1.292,-4.462,-5.17,-1.619,-1.637,-1.453,-1.164,2.065,-1.229,71.5,78,-4.317,-7.922,1.141,-2.068,8.008,4.982,-5.289,-7.502,14,5.007,5.21,4.625,5.062,1.658,1.388,1.543,1.827,14,4.496,4.728,-20,114.1807837,norm,0,50,50,50,297.598,297.608,297.6142438,297.614,297.616,297.619,up,1,1.384673804,8.615326196,1,324,1920_1200,Intel(R) Core(TM) i5-3570 CPU @ 3.40GHz,orientation_search,LEPPC096,Intel(R) HD Graphics 2500,2018_Dec_19_1442,testMonitor
49.8,70.5,64.2,69.1,36,10,67.2,,57.8,66.2,8.32,8.405,8.094,8.025,7.673,8.197,7.959,5.212,-4.881,-7.543,1.135,-1.19,7.685,4.842,-4.947,-8.127,80.7,76.8,-7.837,62.6,59,81.5,68,67,36,59.7,4,5,prime,10,0,90,norm,36,-4.745,down,norm,69.76917079,70.8,62.1,68.8,64.1,1,66.1,73.6,67,10,6,7.503,4.749,1.171,-1.609,-4.901,-7.539,57.9,6,159.8,-7.566,-8.126,10,-7.856,-7.971,-5.042,-5.048,-4.748,-4.347,4.991,8.023,25,-1.426,1.289,4.689,8.353,-8.413,-8.18,-1.264,1.998,82,74,50,73.4,80.7,64.7,77,59.8,50.3,68.3,3,norm,1.451,1.16,-2.062,-1.453,-4.36,-5.081,-1.249,-1.176,-1.804,-1.834,1.572,-1.868,82.1,73.6,-4.693,-7.705,1.457,-2.068,7.983,4.42,-5.169,-7.543,14,5.086,5.113,4.866,4.697,1.845,2.032,1.777,1.474,14,5.28,4.788,-20,114.1807837,norm,0,51,51,51,299.033,299.043,299.0494592,299.05,299.051,299.054,down,1,1.214857119,8.785142881,1,324,1920_1200,Intel(R) Core(TM) i5-3570 CPU @ 3.40GHz,orientation_search,LEPPC096,Intel(R) HD Graphics 2500,2018_Dec_19_1442,testMonitor
69.4,74.7,74.8,78,36,10,89.8,65.7,77.2,83,7.796,8.461,8.463,7.75,7.928,8.017,8.037,5.296,-4.39,-8.454,1.689,-1.18,7.788,4.46,-4.779,-8.31,65.6,77.2,-7.614,70,67.2,67.1,67,66.9,36,70.3,1,5,prime,10,0,91,norm,36,-4.386,down,norm,69.76917079,72.1,49.8,68.8,61,1,82.7,64.3,74.8,10,6,8.282,4.303,1.885,-1.634,-4.83,-7.678,53.9,6,160.8,-8.417,-8.408,10,-7.634,-8.226,-4.474,-4.481,-5,-4.313,4.713,7.971,7,-1.583,1.55,4.702,8.209,-8.203,-7.593,-1.119,1.628,61.2,71.6,79.8,62.8,61.8,70.2,,53.4,56.3,76.5,4,norm,2.09,1.469,-1.198,-1.54,-4.898,-4.766,-1.755,-1.69,-2.004,-1.669,1.828,-1.647,64,56,-4.681,-7.886,1.392,-2.032,7.831,4.723,-4.77,-7.967,14,4.55,4.747,5.037,5.263,1.949,1.476,1.278,1.955,14,4.813,4.788,-20,114.1807837,norm,0,52,52,52,300.302,300.315,300.3339462,300.334,300.336,300.338,down,1,1.382233941,8.617766059,1,324,1920_1200,Intel(R) Core(TM) i5-3570 CPU @ 3.40GHz,orientation_search,LEPPC096,Intel(R) HD Graphics 2500,2018_Dec_19_1442,testMonitor
60.1,63.5,66.1,66.3,36,10,49.8,64.4,67.1,64.6,7.875,8.086,8.254,7.73,8.481,7.917,7.775,5.15,-4.397,-7.793,1.367,-2.09,8.321,4.814,-4.339,-7.922,74.9,61.8,-7.648,61.3,70.3,78.5,70.8,89.8,36,58.3,1,5,prime,10,0,96,norm,36,-5.079,down,norm,69.76917079,75.6,73.1,54.6,75.8,1,77.2,81.6,71.4,10,6,7.868,4.667,1.86,-1.674,-4.598,-8.249,67.6,6,165.8,-7.735,-7.684,10,-8.075,-8.401,-5.294,-4.335,-4.795,-4.905,4.715,7.977,7,-1.583,1.31,5.089,8.021,-8.088,-7.841,-1.773,1.922,65.5,69.8,58.3,78.5,81.3,75.9,,83,76.1,59.8,5,norm,1.928,1.127,-1.424,-1.925,-4.66,-5.061,-2.09,-1.13,-1.381,-1.359,1.375,-1.525,65.2,54.3,-4.886,-8.248,1.113,-1.977,8.181,4.835,-5.158,-8.493,14,4.862,4.861,4.403,4.502,1.605,1.598,1.801,1.977,14,5.203,5.007,-20,114.1807837,norm,0,53,53,53,301.763,301.773,301.7794367,301.78,301.781,301.784,down,1,1.842992674,8.157007326,1,324,1920_1200,Intel(R) Core(TM) i5-3570 CPU @ 3.40GHz,orientation_search,LEPPC096,Intel(R) HD Graphics 2500,2018_Dec_19_1442,testMonitor
190.3,178.4,188.2,193.2,36,-30,184.5,187.7,192.8,177.2,8.003,8.208,8.148,7.617,8.083,7.695,7.905,4.572,-5.11,-7.872,1.569,-1.515,7.709,4.729,-4.99,-7.924,184.7,197.2,-7.564,185.4,187,185.8,192.6,182.1,36,189.3,1,5,probe,5,0,109,norm,36,-4.323,down,norm,187.2010119,183.2,189.9,187.8,190.5,2,185.9,186.9,187.3,10,6,8.174,4.767,1.526,-1.291,-5.05,-7.793,190.2,2,78.2,-7.566,-8.094,10,-8.306,-8.218,-4.58,-4.315,-5.097,-4.566,4.749,7.848,8,-1.84,2.019,5.068,7.618,-8.381,-8.275,-1.833,1.954,194,,183.1,192.1,193.4,191.4,183.3,187.9,195.7,191.4,0,norm,1.623,1.874,-1.859,-1.29,-4.36,-4.349,-1.562,-1.842,-1.72,-1.696,1.582,-1.764,188.7,187.6,-4.416,-7.856,1.115,-1.558,7.866,5.111,-4.596,-8.313,15,4.831,4.302,4.719,4.711,1.706,1.932,1.135,1.741,15,5.019,4.674,10,69.76917079,norm,0,54,54,54,303.66,303.671,303.6754396,303.676,303.677,303.68,up,0,2.436860264,-10,1,324,1920_1200,Intel(R) Core(TM) i5-3570 CPU @ 3.40GHz,orientation_search,LEPPC096,Intel(R) HD Graphics 2500,2018_Dec_19_1442,testMonitor
184.8,179.2,173.5,175.1,36,-30,180.9,174.2,167.2,173,7.72,8.291,7.96,8.193,8.166,8.363,8.072,5.209,-5.215,-7.988,1.455,-1.504,8.458,5.105,-4.57,-8.272,173.2,180.7,-7.55,172.6,169.8,175.7,174.9,180.8,36,,4,5,probe,5,0,99,norm,36,-4.804,up,norm,177.2010119,176.4,170.6,185.9,176.5,3,172.4,185.6,185,10,6,8.385,4.902,1.875,-1.183,-5.125,-8.132,174.3,2,78.2,-7.927,-8.414,10,-7.531,-8.455,-5.228,-4.835,-4.673,-4.324,4.956,8.211,27,-1.347,1.313,5.078,8.207,-8.498,-7.599,-1.153,1.38,183.4,178.4,176.7,181.1,179.2,181.6,180.9,187.2,174.4,181.7,1,norm,1.757,1.109,-1.473,-1.66,-4.889,-4.849,-1.549,-1.595,-1.606,-1.549,1.841,-1.865,173.6,172.4,-4.546,-7.862,1.157,-1.132,8.274,5.136,-5.083,-7.921,15,4.349,4.955,5.29,4.622,1.648,1.396,1.791,1.192,15,4.813,4.78,10,69.76917079,norm,0,55,55,55,307.18,307.19,307.2070703,307.207,307.209,307.211,up,1,1.401892607,8.598107393,1,324,1920_1200,Intel(R) Core(TM) i5-3570 CPU @ 3.40GHz,orientation_search,LEPPC096,Intel(R) HD Graphics 2500,2018_Dec_19_1442,testMonitor
206.8,200.4,203,207.9,36,80,187.6,222.1,189.2,213.1,7.512,8.423,7.866,8.464,8.473,8.341,8.228,4.98,-4.32,-7.613,1.967,-1.449,8.014,4.525,-4.885,-8.036,195.9,189.3,-8.209,201.7,210,204.9,227.4,208.8,36,216.6,1,5,prime,10,0,62,norm,36,-5.139,up,norm,207.6016026,214.7,209,209.5,206.7,4,202,204.9,202.6,10,6,8.39,5.283,1.77,-1.572,-5.239,-8.225,,6,269.6,-8.403,-8.44,80,-7.797,-8.298,-4.832,-4.429,-4.966,-5.18,4.341,7.707,10,-1.779,1.295,4.728,8.495,-8.039,-8.32,-1.273,1.832,219.6,220.4,205,197.5,192.6,206.1,205.3,197.1,227.6,210,0,norm,1.212,1.585,-1.282,-1.646,-4.654,-4.368,-1.262,-1.402,-2.038,-1.397,2.022,-1.716,226.5,197.8,-4.433,-7.966,1.792,-1.103,7.849,4.724,-4.341,-7.62,16,4.922,4.735,4.478,5.154,1.136,1.657,1.252,1.63,16,5.244,4.632,-30,69.76917079,norm,0,56,56,56,308.646,308.656,308.6733939,308.674,308.675,308.678,up,1,1.005942244,8.994057756,1,324,1920_1200,Intel(R) Core(TM) i5-3570 CPU @ 3.40GHz,orientation_search,LEPPC096,Intel(R) HD Graphics 2500,2018_Dec_19_1442,testMonitor
218.6,207.4,211.9,206.6,36,80,198.6,215.7,220.8,199.5,7.569,7.76,8.423,7.941,8.488,8.366,8.103,4.572,-4.472,-8.378,2.008,-1.361,7.617,4.456,-5.15,-7.948,221.1,198.3,-8.368,218.8,197.8,210.2,199.9,204,36,227,1,5,prime,10,0,102,norm,36,-4.318,down,norm,207.6016026,221.9,213.8,190.3,197.4,1,222.4,227.6,202.5,10,6,7.914,4.924,1.318,-1.453,-4.332,-7.601,209.1,6,309.6,-7.742,-8.057,80,-7.704,-7.709,-4.848,-5.197,-4.616,-5.003,4.377,8.143,7,-1.652,1.662,5.264,8.051,-7.791,-7.948,-1.504,1.869,204.6,218.3,207.7,205.5,207,200.5,,193.2,188.6,212.2,1,norm,1.594,1.109,-1.591,-1.928,-5.021,-4.645,-1.134,-1.717,-2.091,-2.066,1.694,-1.6,215.3,208,-4.522,-8.487,1.411,-1.14,7.778,4.317,-4.795,-7.503,16,4.963,4.956,4.861,4.637,1.502,1.806,2.023,1.534,16,5.171,4.308,-30,69.76917079,norm,0,57,57,57,309.7,309.71,309.7182807,309.718,309.72,309.723,down,1,0.894707944,9.105292056,1,324,1920_1200,Intel(R) Core(TM) i5-3570 CPU @ 3.40GHz,orientation_search,LEPPC096,Intel(R) HD Graphics 2500,2018_Dec_19_1442,testMonitor
220,199.9,212.5,199.7,36,80,218.4,209.7,221.3,203.1,8.208,7.998,7.888,7.595,7.877,8.427,7.804,4.683,-5.099,-8.259,2.023,-1.96,7.582,4.708,-4.375,-7.92,223.8,218.9,-8.059,191.2,204,199.1,,221.3,36,200.1,5,5,prime,10,0,111,norm,36,-4.563,down,norm,207.6016026,194.9,201.9,206.9,206.4,2,219,222.6,208,10,6,7.958,4.895,1.638,-2.008,-4.391,-8.151,208.9,6,318.6,-7.862,-8.235,80,-7.811,-8.124,-4.816,-4.632,-4.666,-5.048,5.129,8.463,32,-1.471,1.344,5.261,7.835,-8.075,-8.471,-1.966,1.624,227.6,213.3,207.2,224.6,190.1,202.5,197.6,201.5,187.6,193.5,2,norm,1.991,1.134,-1.743,-1.275,-4.745,-4.762,-1.122,-1.672,-1.243,-1.204,1.36,-1.963,210.6,215.1,-4.836,-8.201,1.468,-1.435,7.764,4.897,-4.389,-8.434,16,4.953,4.314,5.041,4.312,1.786,1.789,1.281,1.923,16,5.207,4.576,-30,69.76917079,norm,0,58,58,58,310.65,310.661,310.6700337,310.67,310.672,310.674,down,1,1.453116161,8.546883839,1,324,1920_1200,Intel(R) Core(TM) i5-3570 CPU @ 3.40GHz,orientation_search,LEPPC096,Intel(R) HD Graphics 2500,2018_Dec_19_1442,testMonitor
222.9,201.1,200.7,203.3,36,80,197.7,223.3,208.5,199,7.989,7.555,8.294,8.359,8.263,8.227,8.387,5.058,-4.603,-7.552,1.464,-1.524,8.325,4.572,-4.339,-8.033,214.9,207.9,-7.772,193.5,217.3,222.6,207,187.6,36,214.7,2,5,prime,10,0,60,norm,36,-4.304,up,norm,207.6016026,,209.6,204.7,207.5,5,208.2,222.1,198.6,10,6,8.053,5.228,1.169,-1.92,-5.255,-7.52,223,6,267.6,-7.792,-7.524,80,-8.34,-7.95,-4.417,-4.451,-5.208,-4.355,5.192,8.278,17,-1.228,1.43,4.364,7.789,-7.974,-7.706,-2.037,1.277,195.6,205.9,211.5,227.6,207.8,202.7,199.6,195.5,198,214.4,3,norm,1.428,1.503,-1.467,-1.746,-4.653,-4.953,-1.414,-1.248,-1.298,-1.34,1.619,-1.177,201.5,204.8,-4.571,-8.424,2.038,-1.619,8.13,4.434,-4.524,-7.856,16,4.682,4.425,4.678,4.518,1.181,1.566,2.056,1.853,16,4.388,5.043,-30,69.76917079,norm,0,59,59,59,312.168,312.178,312.1842099,312.184,312.186,312.189,up,1,1.296802792,8.703197209,1,324,1920_1200,Intel(R) Core(TM) i5-3570 CPU @ 3.40GHz,orientation_search,LEPPC096,Intel(R) HD Graphics 2500,2018_Dec_19_1442,testMonitor
209.9,214.7,203.6,211.5,36,80,198,,202.4,211.6,8.194,7.813,8.368,7.602,8.487,7.705,8.368,5.145,-4.978,-8.081,1.106,-1.884,7.69,5,-4.779,-7.622,214.7,206.4,-8.073,195.5,218.7,198,200.6,214.4,36,213,4,5,prime,10,0,93,norm,36,-5.007,down,norm,207.6016026,203.2,209.1,198.2,206,1,202.4,210.9,227.6,10,6,7.929,4.728,1.648,-1.631,-4.81,-8.134,187.6,6,300.6,-7.706,-7.973,80,-8.466,-7.867,-4.39,-5.156,-5.09,-4.913,4.825,7.568,25,-1.139,1.584,4.885,8.152,-8.362,-8.256,-1.236,1.95,203,212,212.2,198.3,211.3,208.5,199.4,211.9,192.2,213.2,4,norm,1.212,1.546,-1.411,-1.608,-4.586,-4.858,-1.235,-1.757,-1.989,-1.17,1.366,-1.35,199.4,207.7,-5.01,-8.111,1.595,-1.951,8.466,4.327,-4.368,-7.894,16,4.371,4.709,4.819,4.472,1.69,1.428,1.256,1.842,16,4.747,4.88,-30,69.76917079,norm,0,60,60,60,313.525,313.535,313.5413995,313.542,313.543,313.546,down,1,0.923937106,9.076062894,1,324,1920_1200,Intel(R) Core(TM) i5-3570 CPU @ 3.40GHz,orientation_search,LEPPC096,Intel(R) HD Graphics 2500,2018_Dec_19_1442,testMonitor
206,208.1,202.5,204.2,36,80,209.9,207,206,225.8,8.265,7.732,8.23,8.263,8.132,8.161,7.901,4.951,-5.058,-7.84,2.088,-1.135,8.149,4.347,-5.014,-7.978,219.6,204.7,-8.264,223.7,198.3,201.5,202,189.6,36,187.6,0,5,prime,10,0,87,norm,36,-4.35,up,norm,207.6016026,227.6,218.2,208.7,210.8,3,202.3,216.3,208,10,6,8.262,4.612,1.651,-1.186,-4.441,-7.562,219.7,6,294.6,-8.213,-8.078,80,-7.927,-7.544,-4.551,-4.767,-4.377,-4.725,4.303,8.389,3,-1.652,1.806,5.229,7.834,-7.783,-7.655,-1.27,1.248,201.2,203.5,,191.1,194,219.9,197.4,192.5,203.7,210.4,5,norm,1.23,1.557,-1.197,-1.157,-4.655,-4.692,-1.837,-1.417,-1.558,-1.539,2.097,-1.582,207.1,219.7,-4.794,-8.228,1.153,-1.717,7.86,5.13,-4.444,-8.332,16,5.166,4.32,4.364,4.535,1.473,1.12,2.073,1.189,16,4.767,4.595,-30,69.76917079,norm,0,61,61,61,314.508,314.518,314.5240757,314.524,314.526,314.528,up,1,1.621646357,8.378353643,1,324,1920_1200,Intel(R) Core(TM) i5-3570 CPU @ 3.40GHz,orientation_search,LEPPC096,Intel(R) HD Graphics 2500,2018_Dec_19_1442,testMonitor
371.3,369.7,359.6,363.3,36,30,372.3,,355.5,375.5,7.748,7.628,7.766,8.132,8.364,8.346,8.201,4.978,-4.618,-7.989,2.079,-1.818,7.962,4.827,-4.976,-7.641,363.9,362.9,-7.896,364.8,372.3,369.5,363.5,365.3,36,360.6,4,5,probe,5,0,85,norm,36,-4.342,down,norm,365.5276891,367.4,362.6,369,364,1,372.8,365,359.6,10,6,7.576,5.253,1.469,-1.356,-4.632,-8.394,363.3,1,280.5,-7.561,-8.403,80,-7.576,-8.195,-4.822,-4.457,-4.733,-4.558,4.975,8.029,25,-1.575,1.809,5.12,7.975,-7.527,-7.965,-1.964,1.141,367.2,366.2,369.1,372.4,367.8,367.5,370.3,362.7,366.7,363.6,0,norm,1.558,1.876,-1.129,-1.773,-5.017,-4.354,-1.3,-1.118,-2.083,-1.177,1.466,-1.784,358.7,365.1,-4.714,-8.485,1.211,-1.355,8.057,4.533,-5.04,-8.135,17,4.827,4.645,4.738,4.958,1.388,1.133,1.133,1.276,17,5.295,4.546,80,207.6016026,norm,0,62,62,62,316.193,316.202,316.2090667,316.209,316.211,316.214,down,1,1.348411206,8.651588794,1,324,1920_1200,Intel(R) Core(TM) i5-3570 CPU @ 3.40GHz,orientation_search,LEPPC096,Intel(R) HD Graphics 2500,2018_Dec_19_1442,testMonitor
197.9,195.5,203.3,198.8,36,-40,188.9,204.1,209.1,198.9,7.711,8.146,7.796,7.622,7.742,8.335,8.366,4.754,-4.632,-7.87,1.92,-1.273,7.852,5.277,-4.8,-7.565,184.8,188.4,-8.115,190.8,205.1,190.1,204.5,210.7,36,,4,5,prime,10,0,67,norm,36,-4.529,up,norm,195.8255286,189.3,193.7,215.8,203.4,3,188.8,205.2,193.8,10,5,8.437,4.407,1.972,-1.381,-5.292,-8.393,202.8,5,262.8,-7.848,-8.449,-40,-7.904,-8.248,-4.641,-4.69,-4.595,-5.033,4.368,8.133,27,-1.167,1.59,4.597,8.11,-7.61,-7.743,-1.285,1.723,209.5,180.9,184,186.2,201.9,199.9,198.5,198.8,185.4,198,0,norm,1.971,1.26,-1.301,-1.107,-4.409,-4.85,-1.783,-1.476,-1.124,-1.84,1.838,-1.925,186.5,185.8,-4.376,-8.021,1.455,-1.141,8.239,5.121,-4.598,-7.797,18,4.488,4.932,4.915,4.811,1.541,1.101,1.138,1.821,18,4.534,4.772,30,207.6016026,norm,0,63,63,63,317.581,354.29,354.3021703,354.302,354.304,354.307,down,0,1.705753587,-10,1,324,1920_1200,Intel(R) Core(TM) i5-3570 CPU @ 3.40GHz,orientation_search,LEPPC096,Intel(R) HD Graphics 2500,2018_Dec_19_1442,testMonitor
186.8,190.6,190.9,205,36,-40,180.6,185.5,192.5,192.1,7.697,8.034,8.453,7.961,8.438,7.935,7.956,4.756,-5.26,-8.094,2.087,-1.615,8.071,4.944,-5.292,-7.816,200.4,195.9,-7.754,215.8,209,188.7,208.6,199.2,36,207.2,0,5,prime,10,0,98,norm,36,-4.532,down,norm,195.8255286,206.5,206.2,196.1,196.4,1,183.1,189.1,187.4,10,5,7.859,5.028,1.319,-2.089,-4.57,-8.457,176.3,5,293.8,-7.887,-7.641,-40,-7.97,-8.054,-4.642,-4.378,-4.962,-4.846,4.699,7.815,1,-1.626,2.087,4.366,7.941,-8.474,-7.846,-1.256,1.332,187,188.8,202.4,188,,203.2,193.8,205.6,191.8,175.8,1,norm,1.846,2.089,-1.588,-1.764,-4.836,-4.559,-1.47,-1.638,-1.273,-1.503,1.245,-1.608,213.4,203.8,-4.582,-7.876,2.03,-2.023,8.282,5.009,-4.663,-8.292,18,4.487,4.384,4.66,5.003,1.866,1.259,1.791,2.093,18,4.462,5.117,30,207.6016026,norm,0,64,64,64,357.062,357.071,357.0787953,357.079,357.081,357.083,down,1,1.891843375,8.108156625,1,324,1920_1200,Intel(R) Core(TM) i5-3570 CPU @ 3.40GHz,orientation_search,LEPPC096,Intel(R) HD Graphics 2500,2018_Dec_19_1442,testMonitor
192.4,204.2,204.7,175.8,36,-40,201,207,191.6,179.8,8.226,8.009,8.14,8.423,7.877,7.763,7.715,4.488,-4.4,-8.195,1.597,-1.154,8.032,4.467,-4.962,-8.333,204,195.2,-7.569,211.3,194.7,193.8,215.8,200.1,36,198.4,2,5,prime,10,0,81,norm,36,-5.006,up,norm,195.8255286,,198.5,192.1,193.2,5,191,187.8,212.8,10,5,7.567,4.791,1.586,-1.247,-4.659,-8.401,207.6,5,276.8,-7.845,-7.623,-40,-7.718,-7.944,-4.502,-4.837,-4.301,-4.479,5.269,8.373,17,-1.864,1.474,4.782,7.66,-7.552,-8.157,-1.778,2.061,190.6,190.2,192.4,202.3,197,194.1,201.7,189.3,206.1,198.9,2,norm,1.277,1.567,-1.986,-1.942,-5.165,-5.134,-1.745,-1.917,-1.992,-1.624,1.677,-1.387,183.7,180.3,-5.106,-8.19,1.502,-1.208,8.438,4.514,-4.762,-8.218,18,5.142,4.577,4.516,5.145,1.131,1.431,1.429,1.373,18,5.142,5.183,30,207.6016026,norm,0,65,65,65,359.008,359.02,359.0403949,359.041,359.043,359.045,up,1,1.63773201,8.36226799,1,324,1920_1200,Intel(R) Core(TM) i5-3570 CPU @ 3.40GHz,orientation_search,LEPPC096,Intel(R) HD Graphics 2500,2018_Dec_19_1442,testMonitor
191.8,202.2,178.9,204.2,36,-40,186.7,209,203.2,193.2,7.919,8.024,8.082,7.711,7.997,8.388,7.736,5.15,-4.761,-7.701,1.667,-1.714,7.846,4.586,-4.887,-8.334,203,188.3,-8.366,189.1,193.4,194,215.8,182.2,36,175.8,2,5,prime,10,0,103,norm,36,-5.216,down,norm,195.8255286,209,202.3,187,200.4,1,186.3,,194.3,10,5,7.897,4.651,1.421,-1.226,-4.605,-8.09,197.8,5,298.8,-7.727,-8.475,-40,-7.798,-7.779,-4.378,-5.053,-4.637,-4.621,4.325,8.498,13,-1.782,1.287,5.02,8.082,-8.296,-8.398,-1.79,1.344,193.1,202.6,203.4,201.5,198.5,185.8,200.6,181.1,210.4,199.9,3,norm,1.306,1.709,-1.906,-1.752,-4.301,-4.927,-1.205,-2.034,-1.833,-1.808,1.231,-1.414,205.5,194.5,-5.202,-8.413,1.416,-1.109,7.971,4.778,-4.664,-8.119,18,4.956,5.077,4.722,5.135,2.084,1.357,1.626,1.174,18,4.912,4.53,30,207.6016026,norm,0,66,66,66,360.699,360.709,360.7155538,360.716,360.717,360.72,down,1,1.263723818,8.736276182,1,324,1920_1200,Intel(R) Core(TM) i5-3570 CPU @ 3.40GHz,orientation_search,LEPPC096,Intel(R) HD Graphics 2500,2018_Dec_19_1442,testMonitor
202.9,195.6,195.7,210.7,36,-40,194.1,213.6,193,210.3,7.534,8.33,8.09,8.438,8.436,7.963,8.356,4.601,-4.95,-8.29,1.77,-1.356,7.741,5.004,-4.81,-8.49,184.5,186.3,-7.665,194.5,183.3,183,,191.2,36,191.5,5,5,prime,10,0,100,norm,36,-5.067,down,norm,195.8255286,182.7,205.8,182.2,204.6,2,175.8,209.1,197.6,10,5,8.1,5.295,1.778,-2.088,-5.25,-8.044,194.5,5,295.8,-8.163,-8.326,-40,-7.901,-8.24,-4.801,-4.815,-5.014,-4.694,4.324,8.154,32,-1.381,1.137,4.315,8.415,-7.816,-8.124,-1.952,1.845,193.5,191.5,215.8,197.3,188.8,186.5,208,203.2,215.4,199,4,norm,1.362,1.207,-1.348,-1.73,-4.755,-4.53,-1.511,-1.721,-1.982,-1.917,1.669,-1.626,194.9,201.2,-5.177,-8.313,1.126,-2.084,8.11,5.174,-4.466,-8.443,18,4.869,4.644,4.438,5.14,1.747,1.379,1.464,1.967,18,4.577,4.839,30,207.6016026,norm,0,67,67,67,362.017,362.028,362.0322247,362.032,362.034,362.037,down,1,1.472436151,8.527563849,1,324,1920_1200,Intel(R) Core(TM) i5-3570 CPU @ 3.40GHz,orientation_search,LEPPC096,Intel(R) HD Graphics 2500,2018_Dec_19_1442,testMonitor
253.5,260.5,261.3,253.3,36,-30,250.6,249.8,262.8,,8.07,8.485,8.191,8.39,7.557,7.646,8.032,4.333,-4.438,-8.032,1.528,-1.762,7.726,4.656,-4.47,-8.064,261,252.5,-8.103,253.2,243.2,245.7,245.2,248.9,36,250,4,5,probe,5,0,98,norm,36,-4.988,up,norm,253.2345501,245.8,250.5,251.9,259,5,253.8,251.3,248.5,10,5,7.687,4.425,1.588,-1.515,-4.642,-7.755,251.4,1,155.2,-7.755,-7.713,-40,-8.497,-8.399,-4.653,-5.227,-4.978,-4.444,4.687,8.386,29,-1.561,1.343,4.772,7.619,-7.777,-8.151,-1.475,1.824,250,259.6,258.2,248.1,263.2,253.5,254.2,256.5,254.3,249.2,0,norm,1.341,1.553,-2.028,-1.712,-4.989,-5.114,-1.539,-1.434,-1.433,-1.538,1.243,-1.464,253.3,249.6,-4.823,-7.835,1.773,-1.608,8.053,4.31,-4.308,-8.309,19,4.868,4.661,4.709,4.898,1.973,1.987,1.743,2.051,19,4.928,4.999,-40,195.8255286,norm,0,68,68,68,363.554,363.574,363.5858688,363.586,363.588,363.591,up,1,1.250720368,8.749279632,1,324,1920_1200,Intel(R) Core(TM) i5-3570 CPU @ 3.40GHz,orientation_search,LEPPC096,Intel(R) HD Graphics 2500,2018_Dec_19_1442,testMonitor
30.7,38,16.1,56.1,36,-10,18.5,30.4,,34.8,8.219,8.392,8.081,8.208,8.371,7.92,7.946,4.631,-4.558,-8.036,1.943,-1.906,7.695,4.769,-4.44,-7.972,48.3,28.2,-8.107,25,32.4,27.6,35,17.3,36,39.7,4,5,prime,10,0,75,norm,36,-5.15,up,norm,36.12888495,44.8,30.2,43.3,16.5,4,35.4,27.9,42.1,10,6,7.913,4.367,1.97,-1.188,-4.461,-8.342,20.1,6,111.1,-7.514,-7.585,-10,-8.066,-8.321,-4.98,-4.91,-4.517,-4.983,4.701,7.631,28,-1.312,1.598,4.415,7.902,-7.951,-7.714,-1.318,1.925,35.5,35.3,33.1,37.2,36.8,34.7,34.7,30,38.1,43.8,0,norm,1.115,1.975,-1.904,-1.89,-4.337,-4.575,-1.585,-1.743,-1.962,-1.321,1.68,-1.373,30.4,31.4,-4.776,-7.817,1.595,-2.089,7.804,4.873,-4.92,-7.856,20,4.658,4.453,4.862,5.021,1.589,1.133,1.598,1.235,20,5.251,5.129,-30,195.8255286,norm,0,69,69,69,364.879,364.889,364.8950421,364.895,364.897,364.899,up,1,1.572793241,8.427206759,1,324,1920_1200,Intel(R) Core(TM) i5-3570 CPU @ 3.40GHz,orientation_search,LEPPC096,Intel(R) HD Graphics 2500,2018_Dec_19_1442,testMonitor
35.8,29.2,37,44.7,36,-10,35.2,36.8,40.4,35.5,8.209,8.193,7.74,7.926,7.695,7.816,7.569,4.833,-5.131,-8.373,1.383,-1.693,7.526,4.57,-4.573,-7.658,16.1,28.4,-8.463,,25.3,22.6,46.7,28.6,36,19.3,5,5,prime,10,0,80,norm,36,-4.632,down,norm,36.12888495,45.6,34.8,38.6,36.7,1,28.9,24.6,34.6,10,6,7.611,5.098,1.751,-1.954,-5.194,-8.479,43.1,6,116.1,-8.216,-7.557,-10,-8.119,-8.494,-5.07,-4.366,-4.408,-4.924,4.815,7.862,31,-1.442,1.733,5.299,8.076,-8.405,-8.16,-1.386,1.977,44.7,41.5,39.8,23.4,43.4,40.9,26.9,54.7,32.2,56.1,1,norm,1.933,1.897,-1.368,-1.91,-5.259,-5.154,-1.199,-1.476,-1.835,-1.985,1.67,-1.428,50,33,-4.359,-7.885,2.068,-2.005,8.15,4.394,-4.992,-7.742,20,4.772,4.519,4.305,4.637,1.783,1.538,2.083,1.606,20,4.311,4.847,-30,195.8255286,norm,0,70,70,70,366.505,366.517,366.5373692,366.538,366.54,366.543,down,1,1.163080271,8.836919729,1,324,1920_1200,Intel(R) Core(TM) i5-3570 CPU @ 3.40GHz,orientation_search,LEPPC096,Intel(R) HD Graphics 2500,2018_Dec_19_1442,testMonitor
16.1,22.6,31.8,47.7,36,-10,17.7,44.7,54.7,56.1,7.964,8.125,8.437,8.389,7.787,8.256,7.813,4.796,-4.869,-8.345,1.902,-1.824,8.44,4.699,-4.52,-7.75,40.5,42.1,-7.538,32.5,40.7,33.2,31,45.9,36,29.3,2,5,prime,10,0,98,norm,36,-5.269,up,norm,36.12888495,39.6,37.5,,27.2,3,30.5,25.3,38.8,10,6,7.946,5.088,1.811,-1.318,-4.447,-7.99,37.7,6,134.1,-7.993,-7.645,-10,-8.013,-7.858,-4.803,-4.764,-4.682,-4.983,4.71,7.916,15,-1.14,1.279,5.27,7.673,-8.097,-7.91,-1.662,1.437,21.4,45.2,41.3,32.9,20.9,34.9,30.7,21.1,39.1,44,2,norm,1.535,1.66,-1.773,-1.391,-4.485,-4.353,-1.123,-1.623,-1.177,-1.649,1.453,-1.784,34.5,30.8,-4.649,-7.582,1.173,-1.662,7.836,4.504,-4.844,-8.311,20,4.988,5.008,4.385,4.342,1.569,1.684,1.24,1.417,20,4.528,4.555,-30,195.8255286,norm,0,71,71,71,367.75,367.772,367.7823314,367.783,367.785,367.788,up,1,1.552996025,8.447003975,1,324,1920_1200,Intel(R) Core(TM) i5-3570 CPU @ 3.40GHz,orientation_search,LEPPC096,Intel(R) HD Graphics 2500,2018_Dec_19_1442,testMonitor
45.2,,32,31.9,36,-10,56.1,33.3,48.7,34.6,7.956,8.169,8.263,7.544,8.119,8.107,7.525,5.297,-4.929,-7.924,1.156,-1.456,8.413,5.256,-4.888,-8.42,40,31.9,-7.718,20.8,20.5,32.3,16.1,38.4,36,29.6,3,5,prime,10,0,64,norm,36,-5.136,up,norm,36.12888495,41.5,40.2,23.9,32.2,5,48.2,46.8,41.4,10,6,7.653,5.251,1.757,-1.12,-4.351,-7.75,39.5,6,100.1,-8.444,-8.313,-10,-8.032,-7.62,-5.058,-4.405,-4.936,-4.815,4.353,8.218,23,-1.707,1.955,4.772,8.384,-7.504,-8.48,-2.031,1.97,24.9,42.6,35.2,42.2,35.2,36.7,44.3,22.9,30.6,47,3,norm,1.936,1.691,-1.526,-1.964,-4.438,-5.155,-1.947,-1.651,-1.954,-1.558,1.634,-1.183,30.3,32.5,-4.548,-7.554,1.665,-1.203,7.963,5.159,-4.908,-7.932,20,4.62,4.367,4.825,4.428,1.978,1.738,1.464,2.001,20,4.748,4.511,-30,195.8255286,norm,0,72,72,72,369.357,369.367,369.3867104,369.387,369.389,369.391,up,1,2.143130318,7.856869682,1,324,1920_1200,Intel(R) Core(TM) i5-3570 CPU @ 3.40GHz,orientation_search,LEPPC096,Intel(R) HD Graphics 2500,2018_Dec_19_1442,testMonitor
44.2,31.1,38.4,28.3,36,-10,39.7,36.4,30.6,44,8.206,7.831,7.56,8.144,7.98,8.032,8.489,4.881,-4.526,-7.97,2.006,-1.906,8.297,4.874,-4.529,-8.179,35.8,37.6,-7.864,26,22.3,30.9,16.1,30.9,36,34.4,1,5,prime,10,0,100,norm,36,-4.597,down,norm,36.12888495,38.8,56.1,38.7,23.2,2,42.9,25.1,30.6,10,6,7.545,5.246,1.721,-1.343,-4.403,-7.948,33.9,6,136.1,-7.926,-7.662,-10,-7.745,-8.078,-4.516,-5.147,-4.332,-5.096,4.435,7.509,8,-1.851,1.583,5.1,8.289,-8.363,-7.767,-1.94,1.95,36.7,,50.7,34,37.5,51.9,34.3,27.5,31.2,54.6,4,norm,1.64,1.545,-1.865,-2.08,-4.721,-5.228,-1.944,-2.095,-1.386,-2.031,1.921,-1.147,29.2,18.6,-4.313,-8.185,1.689,-1.776,8.365,5.098,-4.568,-7.551,20,5.211,4.708,4.941,4.992,1.752,1.543,2.1,2.004,20,4.376,4.761,-30,195.8255286,norm,0,73,73,73,371.567,371.577,371.5867632,371.587,371.589,371.591,down,1,1.332424258,8.667575742,1,324,1920_1200,Intel(R) Core(TM) i5-3570 CPU @ 3.40GHz,orientation_search,LEPPC096,Intel(R) HD Graphics 2500,2018_Dec_19_1442,testMonitor
23.4,36.6,18.8,23.4,36,-10,50.3,32.2,46.8,49.5,8.362,7.755,8.329,7.988,7.657,8.141,7.831,4.532,-5.269,-7.694,1.269,-2.011,8.157,4.91,-4.573,-7.669,39.9,39.9,-7.958,18.2,,50.2,23,37.7,36,50.2,5,5,prime,10,0,70,norm,36,-4.909,down,norm,36.12888495,25.4,41.9,16.7,16.1,0,29.9,43,53.9,10,6,8.248,4.958,1.144,-1.92,-5.071,-7.71,39,6,106.1,-8.145,-7.947,-10,-7.836,-7.711,-4.348,-4.304,-4.881,-5.026,5.032,7.646,30,-2.035,1.283,4.866,8.403,-8.386,-8.28,-1.777,1.71,30,40.2,35.3,27.2,24.9,34.4,25.9,27.7,28.4,45.5,5,norm,2.019,1.482,-1.335,-1.253,-5.244,-4.847,-1.49,-1.318,-1.663,-2.033,1.73,-1.363,40.8,56.1,-4.851,-7.571,1.732,-1.685,7.54,4.334,-4.486,-7.861,20,5.216,4.46,4.438,4.364,2.015,1.955,1.527,1.628,20,5.064,5.204,-30,195.8255286,norm,0,74,74,74,372.96,372.982,372.9923858,372.993,372.995,372.997,down,1,1.159513597,8.840486403,1,324,1920_1200,Intel(R) Core(TM) i5-3570 CPU @ 3.40GHz,orientation_search,LEPPC096,Intel(R) HD Graphics 2500,2018_Dec_19_1442,testMonitor
96.4,94,91.7,89.2,36,-40,96.5,93.4,88.4,91.5,7.972,8.312,8.209,7.783,7.555,7.967,7.87,5.032,-5.023,-8.208,1.409,-1.872,7.711,4.469,-4.682,-7.523,92.2,87.3,-8.315,87.6,87.7,92.3,94.4,88.9,36,81.7,1,5,probe,5,0,60,norm,36,-5.238,up,norm,90.96176753,88.4,93.6,90.1,81.2,5,,87.5,89.7,10,6,8.434,5.021,1.353,-1.438,-5.163,-8.375,81,2,31,-8.402,-8.417,-10,-8.221,-7.54,-4.712,-4.518,-5.232,-4.97,5.086,7.85,11,-1.517,1.879,4.862,7.69,-7.589,-7.898,-1.85,1.941,84.4,91.5,88.6,86.2,87.9,91,88.6,91.8,101,89.2,0,norm,1.385,1.102,-1.546,-1.695,-4.899,-4.726,-1.143,-1.836,-1.783,-1.34,1.22,-1.597,93.4,90.5,-5.141,-7.719,1.288,-1.686,8.383,4.754,-5.079,-8.461,21,5.109,5.203,4.895,4.334,1.836,2.041,1.31,1.64,21,4.791,4.368,-10,36.12888495,norm,0,75,75,75,374.176,374.186,374.1925065,374.193,374.194,374.197,up,1,2.214171313,7.785828687,1,324,1920_1200,Intel(R) Core(TM) i5-3570 CPU @ 3.40GHz,orientation_search,LEPPC096,Intel(R) HD Graphics 2500,2018_Dec_19_1442,testMonitor
117.9,116,121,118,36,-40,119.9,,118,121.2,8.047,7.858,7.62,8.389,7.67,7.76,7.798,4.682,-5.264,-8.401,1.611,-1.291,7.94,4.322,-4.951,-8.484,121.9,119.6,-7.585,122.7,113.3,114.2,125.2,114.7,36,121.1,4,5,probe,5,0,87,norm,36,-5.242,down,norm,117.9617675,115.6,117.7,117.3,123.1,1,121,118.5,117.8,10,6,8.234,5.055,2.066,-1.257,-5.171,-7.698,115.8,2,31,-8.27,-7.621,-10,-7.713,-7.635,-4.338,-4.995,-4.792,-4.462,5.022,7.704,25,-1.886,1.458,5.237,8.025,-8.169,-8.489,-1.412,1.624,112.9,108,115.7,128,110.9,118,121.9,120.6,120.5,113.7,1,norm,1.179,1.552,-2.087,-1.377,-4.992,-4.561,-1.278,-1.292,-1.631,-1.56,1.3,-1.977,125.4,118.9,-4.382,-8.088,1.147,-2.011,7.943,4.991,-4.447,-8.476,21,5.296,4.54,4.676,4.568,1.722,1.341,1.628,1.94,21,5.278,5.201,-10,36.12888495,norm,0,76,76,76,376.444,376.458,376.4764239,376.477,376.479,376.482,down,1,1.150230162,8.849769838,1,324,1920_1200,Intel(R) Core(TM) i5-3570 CPU @ 3.40GHz,orientation_search,LEPPC096,Intel(R) HD Graphics 2500,2018_Dec_19_1442,testMonitor
201.8,184,185.7,178.5,36,-60,177.4,169.6,195.7,195.1,8.454,8.086,7.657,7.772,7.957,7.751,7.575,5.198,-4.505,-7.788,1.74,-1.639,7.686,5.033,-4.483,-7.74,179.4,203.7,-7.513,186.2,200.3,198.2,189.6,184.8,36,195.7,1,5,prime,10,0,105,norm,36,-4.716,down,norm,188.381468,195.3,174.3,195.7,191.7,0,191.2,190.8,201.6,10,5,7.983,4.936,1.966,-1.37,-4.444,-8.443,182.2,5,293.4,-8.395,-8.275,-60,-7.948,-8.404,-4.925,-4.368,-5.062,-4.806,4.926,7.843,6,-1.472,1.594,4.51,7.805,-8.038,-8.063,-1.498,1.201,168.4,208.4,201.8,191.8,189.1,196.5,193,,178,190.1,0,norm,1.566,1.57,-1.17,-1.728,-4.529,-5.075,-1.933,-1.331,-1.836,-1.581,1.312,-1.511,192.2,182.4,-4.638,-7.736,1.305,-1.266,8.327,4.591,-4.581,-7.501,22,4.722,4.325,4.685,4.593,1.65,1.971,1.802,1.648,22,4.806,5.019,-40,36.12888495,norm,0,77,77,77,377.648,377.658,377.6698985,377.67,377.672,377.674,down,1,3.157312799,6.842687201,1,324,1920_1200,Intel(R) Core(TM) i5-3570 CPU @ 3.40GHz,orientation_search,LEPPC096,Intel(R) HD Graphics 2500,2018_Dec_19_1442,testMonitor
188.4,173.9,200.8,181.9,36,-60,170.7,196.8,180,175.2,8.469,8.404,7.763,7.792,8.076,8.385,7.823,4.484,-4.306,-8.423,2.013,-1.683,8.444,5.213,-4.734,-8.383,184.8,185,-7.598,191.2,185.8,183.7,,202,36,208.2,5,5,prime,10,0,70,norm,36,-4.478,down,norm,188.381468,170.6,190.2,185.3,194.8,2,191.3,198.6,202.3,10,5,7.832,4.774,1.716,-1.861,-5.25,-7.826,194.6,5,258.4,-8.443,-7.802,-60,-8.199,-8.167,-4.441,-4.884,-4.362,-4.408,4.305,7.929,32,-1.396,1.485,4.596,7.878,-8.274,-7.854,-1.636,2.026,179.8,188.1,168.4,196.2,197.5,208.4,193.3,191.3,202,203.6,1,norm,1.425,1.181,-2.028,-1.49,-4.653,-4.539,-1.194,-2.012,-1.914,-1.175,1.19,-1.675,204,182.7,-5.155,-8.249,1.947,-2.09,8.374,4.384,-5.217,-7.535,22,4.628,4.691,4.444,5.208,1.252,1.362,1.431,1.966,22,4.889,5.217,-40,36.12888495,norm,0,78,78,78,380.865,380.875,380.8837197,380.884,380.886,380.888,up,0,2.400709049,-10,1,324,1920_1200,Intel(R) Core(TM) i5-3570 CPU @ 3.40GHz,orientation_search,LEPPC096,Intel(R) HD Graphics 2500,2018_Dec_19_1442,testMonitor
176,201.4,186.5,193.7,36,-60,168.4,196.5,182.5,189.4,7.721,7.959,7.814,7.997,7.612,8.294,8.104,4.408,-4.395,-8.336,2.051,-1.823,7.513,4.946,-4.729,-8.359,183.7,189.2,-8.441,182.2,196.7,189,180.2,206.2,36,181.6,1,5,prime,10,0,92,norm,36,-5.173,down,norm,188.381468,179.5,191.7,190.6,183.5,1,191.8,188.1,191,10,5,8.187,4.763,1.677,-2.095,-4.574,-8.026,208.4,5,280.4,-8.434,-8.056,-60,-7.846,-8.121,-5.193,-5.195,-5.228,-5.031,5.176,8.466,7,-1.388,2.014,4.534,7.572,-7.728,-7.585,-1.214,1.395,184.1,191.6,171.8,187,182.9,185.2,,182.7,186.1,176.8,2,norm,1.21,1.83,-1.35,-2.084,-4.944,-5.108,-1.964,-1.427,-1.513,-2.077,1.912,-1.547,199.8,176.3,-4.684,-7.634,1.353,-1.698,8.489,4.539,-4.425,-7.779,22,4.398,4.597,4.691,4.41,1.226,1.235,1.691,1.44,22,4.316,4.569,-40,36.12888495,norm,0,79,79,79,384.354,384.364,384.3779993,384.378,384.38,384.382,down,1,1.672184105,8.327815895,1,324,1920_1200,Intel(R) Core(TM) i5-3570 CPU @ 3.40GHz,orientation_search,LEPPC096,Intel(R) HD Graphics 2500,2018_Dec_19_1442,testMonitor
173,190.1,,186,36,-60,185.3,183.6,183.6,169.7,7.726,7.729,7.502,7.922,8.024,8.214,8.486,4.635,-4.388,-8.375,1.154,-1.323,8.337,4.506,-4.379,-8.416,202.2,190.3,-8.064,200.3,189.2,188.5,180.2,189.3,36,184.5,3,5,prime,10,0,63,norm,36,-5.213,down,norm,188.381468,193.2,186.6,200.3,205.8,2,195.8,199.2,192.6,10,5,8.401,4.512,1.648,-1.965,-4.691,-7.869,208.4,5,251.4,-7.772,-7.702,-60,-7.519,-8.005,-5.227,-4.907,-4.84,-4.914,4.962,7.828,20,-1.437,1.371,4.488,8.17,-8.115,-8.496,-1.344,1.873,192.9,183.4,182.9,168.4,184.7,192.7,197.3,174.8,194.4,189.7,3,norm,1.587,1.577,-1.51,-1.555,-5.082,-4.906,-1.829,-2.021,-1.577,-1.319,1.531,-1.89,198.3,184.1,-5.015,-7.524,1.825,-1.373,7.642,4.691,-4.721,-8.416,22,4.31,4.674,5.101,4.846,1.699,1.983,2.047,1.374,22,4.498,4.36,-40,36.12888495,norm,0,80,80,80,386.095,386.107,386.1407403,386.141,386.145,386.151,down,1,3.62771568,6.37228432,1,324,1920_1200,Intel(R) Core(TM) i5-3570 CPU @ 3.40GHz,orientation_search,LEPPC096,Intel(R) HD Graphics 2500,2018_Dec_19_1442,testMonitor
183,190.4,170.2,207.8,36,-60,168.4,176.1,193,185.2,7.781,7.632,8.125,7.66,7.567,7.823,8.112,5.037,-5.025,-7.897,1.319,-1.386,7.807,5.142,-5.185,-8.015,201.9,193.8,-7.722,,183.4,187.2,182.2,194,36,186.8,5,5,prime,10,0,65,norm,36,-5.167,down,norm,188.381468,202.4,185.9,180.6,185.1,1,208.4,198,179.2,10,5,7.75,5.074,2.026,-1.455,-5.026,-7.946,199.7,5,253.4,-8.057,-7.82,-60,-8.095,-7.786,-4.765,-4.481,-4.382,-5.08,4.611,8.392,31,-1.649,1.74,5.064,8.054,-8.096,-8.132,-1.208,2,169.4,172.8,185.1,179.2,193.8,192.4,188.8,169.7,168.6,189,4,norm,1.44,1.841,-1.377,-1.962,-4.785,-4.602,-1.526,-1.974,-1.444,-1.146,1.296,-1.661,181.3,202.1,-4.765,-7.803,1.325,-1.398,7.707,4.413,-4.423,-8.237,22,4.388,5.113,4.457,4.574,1.748,1.395,1.215,1.601,22,5.29,4.748,-40,36.12888495,norm,0,81,81,81,389.812,389.825,389.8440742,389.844,389.846,389.848,down,1,2.860836913,7.139163087,1,324,1920_1200,Intel(R) Core(TM) i5-3570 CPU @ 3.40GHz,orientation_search,LEPPC096,Intel(R) HD Graphics 2500,2018_Dec_19_1442,testMonitor
220.9,214.3,218.4,,36,-80,208.9,216.3,204.8,208.4,7.946,8.333,8.29,8.413,8.472,7.548,7.763,4.418,-5.005,-7.664,1.356,-1.861,7.806,4.83,-4.379,-7.763,205.7,210.1,-8.125,205.6,210.3,215.1,209.5,205.6,36,206.7,3,5,probe,5,0,74,norm,36,-4.851,up,norm,210.8839711,204.2,200.9,207.3,203.2,3,206.8,212.7,214.6,10,5,8.332,5.191,1.672,-1.801,-4.568,-7.924,210.8,1,136.9,-8.377,-7.906,-60,-8.147,-7.806,-4.6,-4.855,-4.968,-5.07,5.208,7.637,21,-1.925,1.835,4.459,8.293,-7.599,-7.95,-1.93,1.821,214.7,216.4,210.9,217.8,212.5,207.6,213.3,207.1,208.9,209.6,0,norm,1.619,1.232,-1.409,-1.197,-4.872,-4.417,-1.779,-1.537,-1.414,-1.667,1.543,-1.865,218.6,206.9,-4.379,-8.148,1.468,-1.643,7.812,4.606,-5.011,-8.115,23,5.296,5.025,5.08,4.366,1.471,1.38,1.877,1.392,23,4.698,4.828,-60,188.381468,norm,0,82,82,82,392.742,392.753,392.7580448,392.758,392.76,392.763,up,1,1.180869875,8.819130125,1,324,1920_1200,Intel(R) Core(TM) i5-3570 CPU @ 3.40GHz,orientation_search,LEPPC096,Intel(R) HD Graphics 2500,2018_Dec_19_1442,testMonitor
153.6,172.8,161.3,156.6,36,20,170.9,166.7,,165.8,8.326,8.173,8.498,7.692,7.714,8.002,8.449,5.007,-4.553,-8.025,1.656,-1.897,7.887,4.73,-5.006,-8.285,152.7,174.6,-7.975,147.2,159.8,142,172.6,157.3,36,150.7,4,5,prime,10,0,102,norm,36,-5.034,up,norm,160.8284971,158.4,161,156.4,170.2,4,142.3,148.6,149.8,10,6,8.263,4.484,1.92,-1.42,-4.461,-8.178,160.5,6,262.8,-8.192,-8.492,20,-7.658,-7.694,-4.74,-4.492,-5.124,-4.606,5.229,8.188,28,-1.927,1.517,5.293,8.451,-8.246,-8.25,-1.696,1.859,157.2,155.4,180.8,155.4,140.8,152.8,146,147.9,162.6,170.5,0,norm,1.541,1.801,-1.55,-1.284,-5.271,-4.338,-1.855,-1.167,-1.321,-1.877,1.672,-1.537,159.7,158.2,-4.412,-8.193,1.581,-1.745,8.49,4.526,-4.814,-7.512,24,4.513,5.043,4.907,5.261,1.214,1.993,1.475,1.903,24,5.085,5.134,-80,188.381468,norm,0,83,83,83,393.976,393.986,394.0028045,394.003,394.005,394.007,up,1,1.267869443,8.732130557,1,324,1920_1200,Intel(R) Core(TM) i5-3570 CPU @ 3.40GHz,orientation_search,LEPPC096,Intel(R) HD Graphics 2500,2018_Dec_19_1442,testMonitor
163.7,155.9,173.6,146.2,36,20,166.8,158.8,160.9,177.8,7.571,7.587,8.041,7.901,7.86,7.556,8.12,5.217,-4.507,-8.398,2.086,-1.393,7.845,5.013,-4.869,-8.457,164.6,170.1,-8.256,,169.4,151,180.8,144.6,36,170.1,5,5,prime,10,0,116,norm,36,-4.507,down,norm,160.8284971,140.8,162,166.5,160.8,1,163.1,143.4,152.3,10,6,7.64,5.158,1.978,-1.854,-5.078,-7.771,156.3,6,276.8,-7.912,-8.422,20,-8.374,-8.468,-4.511,-5.057,-4.545,-4.846,4.328,8.296,31,-1.153,1.146,4.397,8.154,-7.918,-8.106,-1.916,1.309,164.7,145.8,156.7,164.2,167.6,166.6,144.6,155.6,171.3,154.4,1,norm,1.357,1.833,-1.248,-1.985,-5.002,-5.19,-1.644,-1.268,-2.1,-1.256,1.272,-1.873,166.5,153.8,-4.718,-8.11,1.93,-1.536,7.561,4.567,-5.182,-8.063,24,5.139,4.398,5.065,4.894,1.839,1.897,1.586,1.957,24,4.508,4.745,-80,188.381468,norm,0,84,84,84,395.308,395.318,395.3287682,395.329,395.331,395.333,down,1,1.892072782,8.107927218,1,324,1920_1200,Intel(R) Core(TM) i5-3570 CPU @ 3.40GHz,orientation_search,LEPPC096,Intel(R) HD Graphics 2500,2018_Dec_19_1442,testMonitor
180.8,179.2,162.5,149.3,36,20,156.4,162.1,163.7,143.8,7.869,8.21,7.702,7.973,8.048,7.829,7.723,4.94,-4.524,-7.921,1.448,-1.998,8.397,4.918,-4.863,-8.487,154,158.3,-7.907,163.7,170.5,140.8,145.9,150.9,36,162.5,2,5,prime,10,0,93,norm,36,-5.08,up,norm,160.8284971,154.6,166.8,,153.6,3,171.4,147.7,160.3,10,6,7.764,4.672,1.793,-2.046,-4.737,-7.896,155.9,6,253.8,-7.528,-8.125,20,-8.431,-7.879,-5.139,-4.673,-5.231,-5.249,4.512,8.211,15,-1.663,1.623,4.882,7.635,-7.595,-8.435,-1.769,1.938,161.8,158.7,159.5,148.6,178,156.3,155.7,172,148.9,152.7,2,norm,1.349,1.6,-1.772,-1.338,-4.45,-4.759,-1.742,-1.503,-1.648,-1.23,1.533,-1.59,160.2,156.9,-5.215,-7.871,1.524,-2.069,7.605,4.517,-4.518,-7.84,24,4.874,4.376,4.782,4.321,1.849,2.01,1.828,1.807,24,4.639,4.936,-80,188.381468,norm,0,85,85,85,397.258,397.268,397.2788106,397.279,397.281,397.283,up,1,1.045930894,8.954069106,1,324,1920_1200,Intel(R) Core(TM) i5-3570 CPU @ 3.40GHz,orientation_search,LEPPC096,Intel(R) HD Graphics 2500,2018_Dec_19_1442,testMonitor
168.3,160.4,154.5,173.8,36,20,174.1,154.4,155.9,172.2,7.632,8.204,8,7.933,7.918,7.505,7.54,4.426,-5.173,-7.831,1.913,-1.748,7.758,5.045,-4.475,-7.821,163,140.8,-7.818,165.6,155.9,180.8,163,163.6,36,166.4,0,5,prime,10,0,94,norm,36,-5.01,up,norm,160.8284971,151.8,155.8,148.9,168.8,5,157.2,164.4,166.3,10,6,8.437,5.073,1.926,-1.936,-4.619,-7.792,156.2,6,254.8,-8.045,-8.031,20,-7.742,-8.201,-5.151,-4.474,-4.59,-4.965,4.468,7.542,5,-1.156,1.972,4.633,7.586,-8.172,-7.903,-2.057,1.281,156.4,160.7,148.1,153.7,151.4,165.9,176.7,176.9,,164.1,3,norm,2.073,1.852,-2.094,-1.805,-5.231,-4.799,-2.088,-1.237,-1.142,-1.695,1.109,-2.039,163.1,149.1,-4.478,-7.647,1.612,-1.609,7.609,4.699,-4.807,-7.946,24,4.769,4.976,4.703,4.354,2.08,1.244,1.923,1.64,24,4.353,4.673,-80,188.381468,norm,0,86,86,86,398.362,398.374,398.4019629,398.402,398.404,398.406,up,1,0.803600784,9.196399216,1,324,1920_1200,Intel(R) Core(TM) i5-3570 CPU @ 3.40GHz,orientation_search,LEPPC096,Intel(R) HD Graphics 2500,2018_Dec_19_1442,testMonitor
165.4,155.7,180,164,36,20,154.3,161.9,148.8,164,8.191,7.643,8.496,8.195,7.714,8.11,7.509,5.267,-4.334,-7.993,1.204,-2.01,8.305,4.969,-4.322,-8.038,156.5,154.3,-8.124,155.4,167.6,140.8,165.4,145.7,36,157.9,0,5,prime,10,0,70,norm,36,-4.474,up,norm,160.8284971,144.9,144.8,159.3,158.5,5,168.7,153.6,159.3,10,6,8.462,4.517,1.13,-1.309,-4.311,-8.231,165.8,6,230.8,-8.414,-7.801,20,-7.534,-7.508,-4.529,-5.299,-4.784,-5.275,4.75,7.762,5,-1.801,1.831,4.534,7.786,-7.975,-8.292,-1.266,1.303,159,155,161.8,167.8,171,146.9,155.4,180.8,,168,4,norm,1.68,1.233,-1.205,-1.938,-4.466,-5.162,-1.486,-2.002,-1.611,-1.68,1.382,-1.696,171.9,168.6,-4.451,-8.252,1.852,-1.289,7.637,4.713,-4.901,-8.179,24,4.434,5.285,4.778,4.541,1.912,1.52,1.176,1.225,24,4.426,4.516,-80,188.381468,norm,0,87,87,87,399.229,399.239,399.245272,399.245,399.247,399.25,down,0,1.446995524,-10,1,324,1920_1200,Intel(R) Core(TM) i5-3570 CPU @ 3.40GHz,orientation_search,LEPPC096,Intel(R) HD Graphics 2500,2018_Dec_19_1442,testMonitor
151,160.8,167.7,158.7,36,20,161.7,169.6,143.9,166.9,7.65,7.918,7.807,7.526,7.935,7.517,8.344,4.849,-5.208,-7.54,1.669,-1.231,7.648,5.017,-4.592,-7.978,147.2,160.5,-8.493,161.3,140.8,158.2,177.2,157,36,155.4,3,5,prime,10,0,63,norm,36,-4.741,down,norm,160.8284971,168.5,165.9,167.6,158.8,1,180.8,162.9,162.8,10,6,8.126,4.569,2.071,-1.478,-4.372,-8.127,157.1,6,223.8,-7.567,-8.388,20,-7.864,-7.866,-4.781,-5.195,-4.631,-4.648,4.638,8.169,19,-1.645,1.536,4.409,8.19,-8.391,-7.523,-1.531,1.685,158.9,174.3,165,154.2,141.9,165.9,161.1,166.1,160.3,145.1,5,norm,1.355,1.684,-1.175,-1.705,-4.812,-4.687,-2.098,-1.447,-1.51,-1.212,1.318,-1.497,,153.6,-4.991,-8.428,1.643,-1.601,7.829,5.013,-4.848,-8.435,24,4.707,5.114,4.594,4.359,1.497,1.193,1.948,1.771,24,4.818,4.756,-80,188.381468,norm,0,88,88,88,401.76,401.77,401.7871103,401.787,401.789,401.792,down,1,1.216849337,8.783150663,1,324,1920_1200,Intel(R) Core(TM) i5-3570 CPU @ 3.40GHz,orientation_search,LEPPC096,Intel(R) HD Graphics 2500,2018_Dec_19_1442,testMonitor
248.9,252.7,256.1,258.6,36,80,264.3,255.4,257.9,253.6,7.704,8.057,8.409,8.156,8.297,7.67,7.515,5.213,-4.693,-7.536,1.303,-1.923,7.737,4.691,-4.303,-7.78,253.6,256.3,-8.038,253.6,244.3,246.9,251.6,248.3,36,249.5,2,5,probe,5,0,72,norm,36,-4.88,up,norm,254.2661325,,258.4,255.6,262.4,5,255.9,253.5,246.6,10,6,7.674,4.892,1.277,-1.635,-5.08,-8.031,248.6,2,182.3,-7.962,-8.039,20,-7.794,-7.879,-4.998,-5.23,-4.353,-4.794,4.796,7.987,17,-2.039,1.319,5.192,8.214,-8.123,-8.195,-1.312,1.463,254.4,251.1,250.9,254,250.6,258.1,255.9,260.6,255.4,254,0,norm,1.758,1.736,-1.566,-1.93,-4.959,-4.808,-1.833,-1.989,-1.271,-1.507,1.853,-2.021,256.8,249.5,-4.759,-7.504,1.902,-1.102,8.412,4.343,-4.549,-7.997,25,5.173,4.839,4.666,4.439,1.299,1.862,1.439,1.412,25,4.609,4.374,20,160.8284971,norm,0,89,89,89,403.042,403.055,403.0735633,403.074,403.075,403.078,up,1,2.101954487,7.898045513,1,324,1920_1200,Intel(R) Core(TM) i5-3570 CPU @ 3.40GHz,orientation_search,LEPPC096,Intel(R) HD Graphics 2500,2018_Dec_19_1442,testMonitor
,265.8,270.6,259.3,36,80,258.8,274.3,258.1,256.7,7.999,8.212,7.919,8.038,7.545,7.733,8.079,4.651,-4.929,-8.161,1.502,-1.972,7.611,5.002,-5.261,-7.85,258,262.7,-8.453,266.6,261.4,268.7,258.6,260.4,36,257.2,3,5,probe,5,0,82,norm,36,-4.956,up,norm,264.2661325,269,262.6,257.7,268.4,4,263.1,264.7,261.4,10,6,8.34,4.601,1.257,-2.03,-4.838,-8.227,264.6,2,182.3,-8.064,-7.677,20,-7.9,-8.095,-4.496,-5.004,-5.226,-4.449,4.434,7.883,22,-1.272,1.982,4.342,7.527,-7.769,-7.896,-1.85,1.324,262.9,270.9,259.2,266.9,254.3,271.5,261.6,268.6,263.6,261.5,1,norm,1.984,1.672,-1.559,-1.891,-5.214,-4.729,-1.731,-1.927,-2.093,-1.65,1.616,-2.025,262.3,273,-4.46,-7.822,1.835,-1.397,8.065,4.831,-5.213,-8.214,25,4.356,4.747,4.68,5.115,1.572,2.053,2.002,1.168,25,5.24,4.501,20,160.8284971,norm,0,90,90,90,405.213,405.224,405.2284757,405.229,405.23,405.233,up,1,0.947895644,9.052104356,1,324,1920_1200,Intel(R) Core(TM) i5-3570 CPU @ 3.40GHz,orientation_search,LEPPC096,Intel(R) HD Graphics 2500,2018_Dec_19_1442,testMonitor
106.7,108.5,123.4,116.3,36,80,95.8,111,,107,7.944,8.082,7.659,7.58,8.365,7.768,8.052,4.784,-5.095,-7.507,2.015,-1.674,8.356,5.061,-4.412,-7.883,113.8,98.5,-7.717,94.1,85.2,110.7,91,91.3,36,91.8,4,5,prime,10,0,78,norm,36,-4.694,up,norm,105.1850812,110.3,106.5,107.4,113.2,4,96.5,108.9,108.5,10,5,8.056,4.362,1.821,-1.211,-4.409,-7.817,100,5,183.2,-7.606,-7.834,80,-7.802,-8.417,-4.934,-4.707,-4.626,-4.876,4.863,7.776,28,-1.845,1.729,5.164,7.894,-8.397,-7.972,-1.436,1.119,125.2,94.8,98.8,105.1,112.6,124.7,107.9,93.3,86.9,114.8,0,norm,1.545,1.518,-1.485,-1.878,-4.863,-4.96,-1.562,-1.101,-1.909,-1.112,1.909,-1.845,120.3,98.1,-4.61,-8.215,1.118,-1.343,8.471,5.13,-4.331,-7.609,26,4.428,4.868,4.659,4.347,1.522,1.504,1.152,1.775,26,4.932,5.189,80,160.8284971,norm,0,91,91,91,406.214,406.224,406.2329646,406.233,406.235,406.237,up,1,1.550544087,8.449455913,1,324,1920_1200,Intel(R) Core(TM) i5-3570 CPU @ 3.40GHz,orientation_search,LEPPC096,Intel(R) HD Graphics 2500,2018_Dec_19_1442,testMonitor
93.4,103.7,102.9,97.1,36,80,104.3,114.3,88.2,100.8,8.403,7.678,8.029,7.552,8.135,8.12,7.974,4.418,-4.988,-7.695,1.205,-1.997,7.663,5.086,-4.381,-7.532,106.2,112.2,-8.454,125.2,106.8,85.2,93.6,87,36,108,1,5,prime,10,0,103,norm,36,-4.92,down,norm,105.1850812,108.9,101.9,112.8,104.3,1,102.9,100.6,110.7,10,5,8.306,4.533,1.597,-1.185,-5.217,-8.035,123,5,208.2,-8.358,-8.036,80,-7.908,-7.688,-5.226,-5.163,-4.584,-4.622,5.175,8.444,7,-1.819,1.978,4.404,7.862,-7.652,-7.861,-1.243,1.451,93,101.6,117.8,105.5,117,106,,112.7,114.4,98.7,1,norm,1.502,1.266,-2.012,-1.745,-4.384,-4.992,-1.259,-1.407,-1.771,-1.982,1.729,-1.854,95.8,119.8,-4.646,-7.67,1.546,-1.781,7.78,5.199,-4.59,-8.231,26,4.538,4.676,4.719,4.75,1.625,1.884,1.49,1.99,26,4.807,4.807,80,160.8284971,norm,0,92,92,92,407.82,407.83,407.8396165,407.84,407.842,407.844,down,1,0.893928564,9.106071436,1,324,1920_1200,Intel(R) Core(TM) i5-3570 CPU @ 3.40GHz,orientation_search,LEPPC096,Intel(R) HD Graphics 2500,2018_Dec_19_1442,testMonitor
109.4,104.4,125.2,93.8,36,80,103.9,95,92.9,119.2,8.044,8.127,8.215,8.256,8.135,8.109,7.602,4.973,-4.429,-7.536,1.508,-1.408,7.764,4.317,-4.369,-7.56,98.8,123,-7.543,117.2,106.7,97.7,,106,36,100.5,5,5,prime,10,0,116,norm,36,-5.207,down,norm,105.1850812,99.8,114,105,112.9,2,89.1,105.7,101,10,5,7.679,4.682,1.111,-1.517,-4.841,-7.661,103.6,5,221.2,-8.249,-8.172,80,-8.119,-7.819,-4.33,-4.748,-4.998,-4.302,4.532,8.419,32,-1.484,1.989,5.098,7.596,-8.469,-7.95,-1.618,1.636,107.7,85.2,100.1,109.5,96,98.9,102.5,120.1,102.9,111.4,2,norm,1.83,1.882,-1.317,-1.707,-5.188,-4.74,-1.213,-1.545,-1.387,-1.908,1.191,-1.581,113.4,114.4,-4.558,-8.014,1.199,-1.826,8.06,5.182,-4.446,-8.279,26,4.814,5.12,4.824,4.911,1.289,1.866,1.979,1.259,26,4.888,4.716,80,160.8284971,norm,0,93,93,93,408.776,408.786,408.7921688,408.792,408.794,408.797,down,1,0.808222126,9.191777874,1,324,1920_1200,Intel(R) Core(TM) i5-3570 CPU @ 3.40GHz,orientation_search,LEPPC096,Intel(R) HD Graphics 2500,2018_Dec_19_1442,testMonitor
99.4,102.6,108.9,120.6,36,80,107,,104.3,85.2,8.362,8.076,7.63,7.689,7.534,7.95,8.479,5.155,-5.15,-8.09,1.589,-1.561,7.726,4.845,-4.998,-7.671,100,90.4,-8.216,93.7,112.6,96.2,103.6,125.2,36,111.2,4,5,prime,10,0,82,norm,36,-5.286,down,norm,105.1850812,98.6,111.8,91.3,104.9,1,100,106.2,85.7,10,5,7.867,5.038,1.164,-2.071,-4.318,-7.946,106.9,5,187.2,-8.445,-8.32,80,-8.243,-7.857,-4.695,-4.682,-5.287,-4.892,4.793,8.416,25,-1.401,1.664,5.175,7.788,-8.119,-8.085,-1.945,1.506,95.6,114.2,106.8,102.8,116.3,114.9,105,90.3,86.5,113.6,3,norm,1.695,1.181,-1.796,-1.437,-5.206,-4.93,-1.562,-1.286,-1.279,-1.291,1.271,-1.787,112,103.8,-4.756,-7.85,1.619,-1.229,7.989,4.907,-4.539,-7.747,26,4.745,5.142,4.505,4.593,1.935,1.419,1.101,1.464,26,5.282,5.135,80,160.8284971,norm,0,94,94,94,409.637,409.647,409.6648364,409.665,409.667,409.669,down,1,0.909865706,9.090134294,1,324,1920_1200,Intel(R) Core(TM) i5-3570 CPU @ 3.40GHz,orientation_search,LEPPC096,Intel(R) HD Graphics 2500,2018_Dec_19_1442,testMonitor
,102.2,116.8,106.1,36,80,115.2,88.5,100.9,95.4,8.376,7.623,7.606,7.655,7.744,7.648,7.735,4.407,-4.874,-8.393,1.443,-2.073,8.438,4.962,-4.537,-7.537,125.2,112.9,-7.961,108.9,99.3,112.3,98.7,110.9,36,113.1,3,5,prime,10,0,85,norm,36,-4.924,up,norm,105.1850812,111.5,85.2,97.8,108.6,4,104.5,113.2,118.5,10,5,7.637,4.742,1.681,-1.837,-5.212,-8.088,116.3,5,190.2,-8.465,-7.596,80,-7.576,-8.199,-5.027,-4.985,-4.808,-5.13,4.584,8.434,22,-1.897,1.429,5.052,8.277,-8.067,-7.995,-1.216,1.336,109.4,105.3,99,94.8,89.3,112,103.9,103.2,98.6,94.9,4,norm,1.142,1.922,-1.799,-1.456,-4.479,-4.768,-2.059,-2.075,-2.002,-1.162,1.116,-1.897,92.8,88.5,-5.292,-7.547,1.264,-1.126,8.18,4.79,-4.87,-8.29,26,4.424,4.646,4.541,5.276,1.96,1.192,1.565,1.221,26,4.979,5.277,80,160.8284971,norm,0,95,95,95,410.612,410.622,410.6317584,410.632,410.634,410.636,up,1,1.602972933,8.397027067,1,324,1920_1200,Intel(R) Core(TM) i5-3570 CPU @ 3.40GHz,orientation_search,LEPPC096,Intel(R) HD Graphics 2500,2018_Dec_19_1442,testMonitor
289.6,284.2,286.3,284.7,36,20,288.1,287.9,289.9,286.8,8.153,8.004,8.399,7.815,8.465,8.05,8.275,4.389,-5.119,-8.043,1.878,-1.366,7.899,4.539,-4.602,-7.974,291.8,298.7,-8.01,290.2,294.6,280,283,291,36,285.9,0,5,probe,5,0,103,norm,36,-4.739,down,norm,288.7345527,295.4,288.6,288.1,286.4,1,285.5,289.4,292.1,10,5,8.358,4.773,1.477,-1.288,-5.173,-7.554,290.8,1,185.7,-8.202,-7.981,80,-7.847,-7.897,-4.532,-5.24,-5.178,-4.684,4.467,7.567,1,-1.37,1.781,4.336,8.423,-8.061,-8.278,-2,1.86,283.8,278.7,284.6,293.6,,294.5,283.2,283.6,289.7,281.4,0,norm,1.465,1.761,-1.543,-1.163,-4.755,-4.405,-1.573,-1.448,-1.631,-1.649,1.776,-1.219,287.4,286,-5.18,-7.942,1.768,-1.418,8.045,5.257,-5.129,-8.374,27,4.319,5.041,4.389,4.796,1.419,1.426,1.106,1.625,27,4.801,4.39,80,105.1850812,norm,0,96,96,96,412.256,412.267,412.2720102,412.272,412.274,412.276,down,1,2.197661558,7.802338442,1,324,1920_1200,Intel(R) Core(TM) i5-3570 CPU @ 3.40GHz,orientation_search,LEPPC096,Intel(R) HD Graphics 2500,2018_Dec_19_1442,testMonitor
333.7,337.7,341.3,363.1,36,-80,,369.2,364.9,343.7,8.329,7.886,8.349,8.35,7.93,7.965,7.772,5.023,-5.044,-8.423,2.075,-1.157,8.329,4.66,-4.963,-7.916,363.5,356.8,-7.536,359.1,357.2,359.9,345.7,372.6,36,350.8,4,5,prime,10,0,108,norm,36,-4.44,down,norm,352.5649499,332.6,356.8,338.6,354.2,0,350,348,343.8,10,5,7.681,4.914,1.429,-1.141,-4.48,-7.599,360.4,5,460.6,-7.963,-8.218,-80,-7.693,-7.698,-5.179,-4.377,-4.395,-4.568,4.5,8.146,24,-1.103,1.594,4.894,8.271,-8.284,-7.784,-1.275,1.63,356.1,356.2,364.6,357.1,361.4,351.4,351.9,352.8,370.4,334.8,0,norm,1.983,1.367,-1.269,-1.923,-4.747,-4.665,-1.409,-1.634,-1.193,-1.483,1.386,-1.242,360.3,342.6,-4.44,-7.569,1.826,-1.745,8.295,5.045,-4.537,-7.732,28,5.225,5.234,4.355,5.135,1.594,1.942,1.506,1.199,28,4.708,4.754,20,105.1850812,norm,0,97,97,97,414.507,414.52,414.5393228,414.539,414.541,414.544,down,1,1.849085843,8.150914157,1,324,1920_1200,Intel(R) Core(TM) i5-3570 CPU @ 3.40GHz,orientation_search,LEPPC096,Intel(R) HD Graphics 2500,2018_Dec_19_1442,testMonitor
