d_ori_22,d_ori_23,d_ori_20,d_ori_21,set_size,ctpd,d_ori_24,d_ori_25,d_ori_28,d_ori_29,stim_pos_x_30,stim_pos_x_31,stim_pos_x_32,stim_pos_x_33,stim_pos_x_34,stim_pos_x_35,stim_pos_y_11,stim_pos_y_10,stim_pos_y_13,stim_pos_y_12,stim_pos_y_15,stim_pos_y_14,stim_pos_y_17,stim_pos_y_16,stim_pos_y_19,stim_pos_y_18,d_ori_35,d_ori_34,stim_pos_x_3,d_ori_31,d_ori_30,d_ori_33,d_ori_32,d_ori_26,test_set_size,d_ori_27,targetCol,dsd_test,seq_type,dsd,blockRepN,targetDist,dtype_test,prime_set_size,stim_pos_y_25,correctResponse,dtype,distrMean,d_ori_17,d_ori_16,d_ori_15,d_ori_14,targetRow,d_ori_11,d_ori_13,d_ori_12,dsd_prime,streak_length_prime,stim_pos_y_35,stim_pos_y_34,stim_pos_y_33,stim_pos_y_32,stim_pos_y_31,stim_pos_y_30,d_ori_10,nextProbe,targetOri,stim_pos_x_1,stim_pos_x_2,ctpd_prime,stim_pos_x_4,stim_pos_x_5,stim_pos_x_6,stim_pos_x_7,stim_pos_x_8,stim_pos_x_9,stim_pos_y_28,stim_pos_y_29,targetPos,stim_pos_y_20,stim_pos_y_21,stim_pos_y_22,stim_pos_y_23,stim_pos_y_24,stim_pos_x_0,stim_pos_y_26,stim_pos_y_27,d_ori_9,d_ori_8,d_ori_3,d_ori_2,d_ori_1,d_ori_0,d_ori_7,d_ori_6,d_ori_5,d_ori_4,trialN,dtype_prime,stim_pos_x_18,stim_pos_x_19,stim_pos_x_12,stim_pos_x_13,stim_pos_x_10,stim_pos_x_11,stim_pos_x_16,stim_pos_x_17,stim_pos_x_14,stim_pos_x_15,stim_pos_y_9,stim_pos_y_8,d_ori_19,d_ori_18,stim_pos_y_1,stim_pos_y_0,stim_pos_y_3,stim_pos_y_2,stim_pos_y_5,stim_pos_y_4,stim_pos_y_7,stim_pos_y_6,totBlockN,stim_pos_x_27,stim_pos_x_26,stim_pos_x_25,stim_pos_x_24,stim_pos_x_23,stim_pos_x_22,stim_pos_x_21,stim_pos_x_20,blockN,stim_pos_x_29,stim_pos_x_28,prevDistrCTPD,prevDistrMean,prevDistrType,trials.thisRepN,trials.thisTrialN,trials.thisN,trials.thisIndex,timeStart,timeBeforeDraw,timeDraw,timeAfterSaving,timeAfterWritingToTemp,timeAfterPreparingNext,answer,correct,rt,trialScore,session,participant,resolution,cpu_info,expName,pc_name,graphic_card,date,monitorName,
205.6,220.3,222.1,218.4,36,-40,,216.0,222.3,227.8,8.002,8.402,8.362,8.024,8.009,7.69,8.114,4.367,-5.298,-7.8,1.846,-1.702,8.385,4.34,-5.267,-8.094,220.2,216.4,-8.285,228.4,216.0,211.5,200.8,238.7,36,218.5,4,5,prime,10,0,112,norm,36,-4.846,down,norm,220.777223668,216.1,232.9,221.8,201.3,0,236.2,228.8,222.5,10,6,7.972,4.406,1.513,-1.424,-4.404,-8.023,233.6,6,332.8,-8.447,-7.934,-40,-8.253,-8.176,-4.542,-4.425,-4.318,-4.957,5.199,7.705,24,-1.284,1.258,5.218,8.4,-8.046,-8.234,-1.673,1.117,235.5,234.7,216.1,211.8,223.2,216.2,210.2,223.2,240.8,225.4,0,norm,1.151,1.152,-1.417,-1.183,-5.286,-5.123,-2.024,-1.57,-1.778,-1.153,1.143,-1.761,215.3,216.9,-4.985,-7.675,1.597,-1.529,7.921,4.822,-4.382,-8.081,0,4.473,4.974,4.612,4.663,1.592,1.148,1.609,1.544,0,4.869,4.993,,,,0,0,0,0,314.825,314.848,314.869364726,314.87,314.87,314.872,down,1,1.60415358038,8.39584641962,001,017,1920_1200,Intel(R) Core(TM) i5-3570 CPU @ 3.40GHz,orientation_search,LEPPC096,Intel(R) HD Graphics 2500,2018_Nov_28_1538,testMonitor,
224.9,215.1,207.2,216.3,36,-40,220.5,220.6,236.3,215.0,8.222,8.466,7.565,8.423,8.067,7.787,8.225,4.997,-4.534,-8.391,2.096,-1.499,8.236,4.9,-4.793,-8.313,215.2,208.7,-7.737,209.0,200.8,207.8,213.9,224.9,36,211.4,1,5,prime,10,0,115,norm,36,-4.774,down,norm,220.777223668,219.9,208.7,232.9,233.6,2,227.4,237.8,237.3,10,6,7.696,4.852,1.726,-1.766,-5.278,-8.078,230.6,6,335.8,-8.387,-8.248,-40,-7.872,-7.581,-5.214,-4.514,-5.282,-4.777,4.931,8.43,8,-1.55,1.963,4.905,8.024,-7.821,-8.279,-1.688,1.953,228.9,,223.9,211.6,230.6,211.2,230.1,240.8,216.8,231.2,1,norm,1.861,2.045,-1.498,-2.01,-5.283,-5.256,-1.225,-1.193,-1.83,-1.728,1.744,-1.246,233.0,218.8,-4.678,-8.486,1.696,-1.173,7.655,4.77,-4.672,-7.512,0,4.403,5.061,4.302,4.595,1.241,1.391,1.438,2.075,0,4.826,4.418,,,,0,1,1,1,316.509,316.517,316.536290175,316.536,316.538,316.54,down,1,2.70273131281,7.29726868719,001,017,1920_1200,Intel(R) Core(TM) i5-3570 CPU @ 3.40GHz,orientation_search,LEPPC096,Intel(R) HD Graphics 2500,2018_Nov_28_1538,testMonitor,
204.2,207.9,227.4,233.8,36,-40,205.0,210.5,229.8,202.6,8.136,7.831,7.713,7.78,7.562,8.189,8.08,4.345,-5.223,-7.654,1.28,-1.374,7.539,4.506,-5.009,-7.874,228.1,232.3,-8.033,236.7,227.0,213.1,220.6,209.1,36,219.5,0,5,prime,10,0,91,norm,36,-4.681,up,norm,220.777223668,205.5,208.4,228.0,221.1,4,235.1,219.5,235.0,10,6,8.408,4.33,1.995,-1.757,-5.038,-7.612,216.5,6,311.8,-8.213,-8.291,-40,-7.854,-7.968,-4.546,-4.583,-4.831,-4.413,4.899,8.449,4,-1.484,1.943,5.115,8.152,-8.154,-8.267,-1.154,1.86,228.1,221.2,211.2,203.3,240.8,200.8,221.6,225.8,213.0,,2,norm,1.46,2.045,-1.725,-1.131,-4.491,-4.919,-1.848,-1.72,-1.174,-1.691,1.834,-1.134,224.5,221.0,-4.356,-8.012,2.086,-1.982,7.79,4.731,-4.527,-7.594,0,4.783,4.766,5.179,4.813,1.271,1.699,1.571,1.212,0,4.884,4.763,,,,0,2,2,2,319.282,319.292,319.300266017,319.3,319.302,319.305,up,1,2.17731543709,7.82268456291,001,017,1920_1200,Intel(R) Core(TM) i5-3570 CPU @ 3.40GHz,orientation_search,LEPPC096,Intel(R) HD Graphics 2500,2018_Nov_28_1538,testMonitor,
222.8,226.0,219.7,215.0,36,-40,220.6,219.2,224.5,218.2,8.373,7.987,7.991,7.797,8.007,8.355,7.949,4.516,-5.015,-8.231,1.83,-1.117,8.029,4.658,-4.879,-7.813,225.7,214.9,-8.242,218.7,217.8,227.3,212.2,230.8,36,236.5,1,5,prime,10,0,75,norm,36,-4.311,up,norm,220.777223668,219.0,217.0,231.4,213.3,3,211.3,230.7,206.8,10,6,8.258,4.664,1.883,-1.929,-5.238,-7.664,215.7,6,295.8,-7.973,-8.484,-40,-7.732,-8.44,-4.68,-5.171,-4.904,-4.845,5.081,8.301,9,-1.602,1.653,5.0,8.017,-7.67,-8.266,-1.197,1.321,,222.6,212.1,226.1,228.7,229.8,232.4,229.5,200.8,218.1,3,norm,1.403,1.775,-1.974,-1.416,-4.704,-4.927,-1.643,-1.587,-1.411,-1.835,1.572,-1.777,235.8,226.2,-4.967,-7.612,1.844,-1.682,8.437,5.218,-4.329,-7.887,0,4.632,5.054,4.485,4.365,2.072,1.225,1.729,1.739,0,4.429,4.886,,,,0,3,3,3,321.5,321.51,321.516477917,321.517,321.518,321.521,up,1,1.85585470829,8.14414529171,001,017,1920_1200,Intel(R) Core(TM) i5-3570 CPU @ 3.40GHz,orientation_search,LEPPC096,Intel(R) HD Graphics 2500,2018_Nov_28_1538,testMonitor,
221.3,206.6,232.7,213.9,36,-40,211.9,211.1,203.5,215.7,8.317,7.693,7.814,8.053,8.166,8.051,8.404,4.905,-4.716,-7.718,1.811,-1.511,8.034,4.336,-5.224,-7.645,218.0,229.5,-8.467,233.8,221.9,202.9,,215.0,36,212.8,5,5,prime,10,0,87,norm,36,-4.39,down,norm,220.777223668,224.7,231.5,212.1,200.8,2,222.0,213.4,226.1,10,6,8.002,4.688,1.424,-2.021,-4.676,-7.568,216.3,6,307.8,-8.409,-8.039,-40,-8.368,-7.688,-5.228,-4.318,-4.657,-5.143,5.243,8.1,32,-1.654,1.812,4.452,8.459,-7.964,-8.437,-1.708,1.558,220.7,236.7,240.8,206.4,219.0,219.3,227.0,214.9,221.0,209.1,4,norm,1.443,1.804,-1.496,-1.193,-4.735,-5.041,-1.226,-2.038,-1.991,-1.824,1.673,-1.257,228.8,230.2,-5.2,-8.253,1.463,-1.318,8.246,4.966,-4.367,-8.43,0,4.579,4.581,4.335,4.776,2.038,2.029,1.141,1.988,0,4.985,4.348,,,,0,4,4,4,323.416,323.425,323.43408667,323.434,323.436,323.438,down,1,1.23179891994,8.76820108006,001,017,1920_1200,Intel(R) Core(TM) i5-3570 CPU @ 3.40GHz,orientation_search,LEPPC096,Intel(R) HD Graphics 2500,2018_Nov_28_1538,testMonitor,
213.1,214.8,231.6,234.6,36,-40,221.3,224.9,207.2,212.2,8.311,8.162,7.783,7.798,7.933,8.038,7.992,4.791,-4.41,-8.147,1.199,-1.799,8.175,5.149,-5.013,-7.956,234.1,222.6,-8.103,203.8,207.6,240.8,224.2,234.5,36,218.0,0,5,prime,10,0,111,norm,36,-4.385,down,norm,220.777223668,234.2,215.0,237.4,200.8,2,203.8,217.3,226.7,10,6,8.419,4.349,2.074,-1.575,-4.328,-7.616,233.6,6,331.8,-7.985,-7.631,-40,-7.603,-8.143,-4.317,-4.887,-4.921,-4.778,5.213,8.007,2,-1.894,1.805,5.097,8.273,-8.204,-8.201,-1.896,2.036,214.1,220.3,230.0,,225.1,218.0,214.1,207.2,232.1,219.5,5,norm,1.545,1.148,-1.932,-1.709,-5.279,-4.539,-1.672,-1.629,-1.134,-1.221,1.491,-1.523,220.8,201.2,-4.59,-8.075,1.883,-1.511,7.632,4.68,-4.37,-8.121,0,5.279,4.885,5.223,4.52,1.542,1.237,1.514,1.373,0,4.704,4.518,,,,0,5,5,5,324.711,324.722,324.727055261,324.727,324.729,324.732,down,1,2.39917245932,7.60082754068,001,017,1920_1200,Intel(R) Core(TM) i5-3570 CPU @ 3.40GHz,orientation_search,LEPPC096,Intel(R) HD Graphics 2500,2018_Nov_28_1538,testMonitor,
253.6,262.4,258.3,271.5,36,0,256.1,259.7,259.1,256.8,7.666,8.46,8.25,8.334,7.982,7.972,8.26,4.334,-4.461,-7.978,1.263,-1.302,8.066,4.433,-4.425,-7.731,263.4,256.4,-7.882,256.8,264.6,259.1,260.0,,36,271.9,4,5,probe,5,0,77,norm,36,-5.148,down,norm,261.946680086,262.0,253.1,259.0,252.9,2,256.0,268.1,259.3,10,6,8.212,5.137,1.49,-1.826,-5.049,-7.878,261.5,2,184.9,-7.624,-7.571,-40,-8.001,-8.424,-5.065,-4.822,-5.218,-4.479,4.459,8.038,26,-1.805,2.041,4.321,8.085,-8.456,-7.997,-1.142,1.731,266.6,265.3,265.3,265.3,263.4,262.0,261.0,259.8,251.9,261.5,0,norm,2.067,1.231,-1.221,-1.129,-4.355,-4.473,-1.987,-1.785,-1.215,-1.12,1.547,-1.516,260.7,259.6,-4.784,-7.861,1.745,-1.294,7.834,5.013,-5.014,-7.87,1,4.848,5.248,4.424,4.346,1.412,1.651,1.423,1.272,1,4.561,4.565,-40,220.777223668,norm,0,6,6,6,327.163,327.174,327.179219481,327.179,327.181,327.184,down,1,2.60121088492,7.39878911508,001,017,1920_1200,Intel(R) Core(TM) i5-3570 CPU @ 3.40GHz,orientation_search,LEPPC096,Intel(R) HD Graphics 2500,2018_Nov_28_1538,testMonitor,
275.2,263.9,277.9,279.0,36,0,283.9,276.8,276.1,276.8,8.209,7.572,7.76,7.628,7.809,7.508,8.189,5.009,-5.066,-8.046,1.573,-1.73,8.338,4.321,-4.606,-8.34,277.1,282.6,-7.51,276.7,271.9,276.4,275.5,268.8,36,271.5,1,5,probe,5,0,89,norm,36,-4.424,down,norm,273.946680086,277.0,269.9,267.3,273.7,0,270.9,269.3,272.0,10,6,7.582,4.314,2.086,-1.812,-5.187,-8.247,273.1,2,184.9,-7.797,-7.663,-40,-7.609,-7.714,-4.583,-4.571,-5.218,-4.711,5.162,8.332,6,-2.072,1.99,4.78,7.587,-8.3,-8.045,-1.389,1.679,274.2,276.8,272.5,273.9,281.3,280.7,272.8,,270.6,276.6,1,norm,1.45,1.409,-1.648,-1.772,-4.819,-5.154,-1.482,-1.968,-1.949,-1.49,1.545,-1.83,281.5,271.3,-5.277,-8.012,1.388,-1.672,7.633,4.598,-5.273,-8.086,1,4.794,4.765,4.398,4.994,2.022,1.109,1.711,1.943,1,4.912,4.68,-40,220.777223668,norm,0,7,7,7,329.819,329.83,329.834406446,329.835,329.836,329.839,up,0,4.60134098047,-10,001,017,1920_1200,Intel(R) Core(TM) i5-3570 CPU @ 3.40GHz,orientation_search,LEPPC096,Intel(R) HD Graphics 2500,2018_Nov_28_1538,testMonitor,
277.6,260.6,281.0,262.2,36,10,278.8,275.9,271.8,270.6,7.505,8.156,7.951,7.604,7.548,8.228,8.491,4.969,-4.89,-8.075,1.59,-1.953,8.169,4.491,-5.177,-7.61,282.6,269.3,-8.455,286.5,265.2,261.4,280.3,257.4,36,260.4,0,5,prime,10,0,114,norm,36,-4.658,up,norm,277.446096616,275.4,266.2,275.3,277.9,3,267.6,272.8,272.9,10,5,8.459,4.564,1.477,-1.281,-4.746,-8.223,264.6,5,391.4,-7.977,-8.424,10,-8.057,-8.403,-4.336,-5.127,-5.278,-4.451,4.637,7.76,3,-2.031,2.041,4.597,8.46,-7.991,-8.292,-1.201,1.121,289.0,283.3,,279.1,279.1,277.0,284.7,272.2,284.0,283.4,0,norm,1.895,1.855,-1.858,-1.178,-4.347,-4.417,-1.797,-1.596,-1.213,-1.221,1.646,-1.341,279.8,276.6,-5.114,-8.341,1.768,-1.599,8.032,4.701,-4.512,-8.496,2,4.432,5.252,4.416,4.678,1.193,1.179,1.274,1.33,2,4.972,4.762,0,220.777223668,norm,0,8,8,8,335.494,335.503,335.520753262,335.521,335.523,335.525,down,0,2.13924331465,-10,001,017,1920_1200,Intel(R) Core(TM) i5-3570 CPU @ 3.40GHz,orientation_search,LEPPC096,Intel(R) HD Graphics 2500,2018_Nov_28_1538,testMonitor,
273.2,,283.6,283.5,36,10,280.2,288.8,297.4,291.8,7.982,7.581,8.348,7.64,7.799,8.325,8.255,5.251,-5.145,-7.902,1.994,-1.916,7.946,4.473,-4.854,-7.723,276.8,269.8,-7.507,275.1,264.5,280.3,274.3,286.5,36,267.2,3,5,prime,10,0,117,norm,36,-5.028,up,norm,277.446096616,273.4,286.5,270.2,275.7,5,288.7,272.1,266.8,10,5,8.362,4.808,1.499,-1.597,-4.987,-7.505,291.5,5,394.4,-8.015,-8.195,10,-7.575,-8.111,-4.605,-4.777,-4.828,-4.369,4.966,7.501,23,-1.456,1.166,5.17,8.048,-7.828,-7.684,-1.886,1.365,286.7,273.4,293.8,288.7,261.4,284.1,289.4,270.5,257.4,278.5,1,norm,1.788,1.817,-1.63,-1.787,-5.172,-5.144,-1.312,-1.469,-1.895,-1.36,1.798,-1.68,277.8,272.2,-4.603,-8.18,1.452,-1.175,7.672,4.793,-5.115,-7.743,2,4.474,5.192,4.748,4.798,2.065,1.184,1.573,1.792,2,4.812,4.787,0,220.777223668,norm,0,9,9,9,338.739,338.748,338.765332639,338.766,338.767,338.77,up,1,7.67499409139,2.32500590861,001,017,1920_1200,Intel(R) Core(TM) i5-3570 CPU @ 3.40GHz,orientation_search,LEPPC096,Intel(R) HD Graphics 2500,2018_Nov_28_1538,testMonitor,
261.3,285.6,273.3,290.8,36,10,,293.6,272.5,275.0,7.766,7.856,7.704,8.338,8.402,8.207,8.356,4.954,-5.047,-7.529,1.22,-2.014,8.491,5.177,-4.62,-7.716,282.0,269.0,-7.997,281.8,285.5,277.2,273.5,276.2,36,287.7,4,5,prime,10,0,95,norm,36,-4.423,down,norm,277.446096616,287.9,271.1,270.4,267.4,0,278.3,287.4,297.4,10,5,8.42,5.081,1.123,-2.019,-4.878,-7.967,274.6,5,372.4,-8.152,-8.145,10,-8.367,-7.751,-4.824,-4.432,-4.462,-5.038,4.328,7.686,24,-1.997,1.938,4.661,7.633,-7.574,-7.868,-1.145,1.983,273.3,292.3,277.5,282.4,282.7,257.4,262.0,288.5,284.8,273.3,2,norm,1.847,1.781,-2.032,-1.713,-5.065,-4.481,-2.047,-1.554,-1.419,-2.002,1.602,-1.365,270.5,270.7,-5.238,-7.967,1.274,-1.845,8.464,5.199,-4.333,-8.424,2,4.804,4.755,4.816,4.379,1.664,1.124,1.258,2.099,2,4.652,5.154,0,220.777223668,norm,0,10,10,10,346.477,346.487,346.502574293,346.503,346.504,346.507,down,1,11.9259732039,-1.92597320394,001,017,1920_1200,Intel(R) Core(TM) i5-3570 CPU @ 3.40GHz,orientation_search,LEPPC096,Intel(R) HD Graphics 2500,2018_Nov_28_1538,testMonitor,
285.3,288.1,277.9,282.7,36,10,266.5,265.4,275.6,280.1,7.744,7.986,8.246,7.859,8.201,8.394,7.927,4.747,-4.948,-8.294,1.825,-1.299,7.545,4.841,-4.944,-8.068,283.4,266.8,-7.529,277.3,287.7,272.2,282.7,297.4,36,263.6,2,5,prime,10,0,75,norm,36,-4.605,down,norm,277.446096616,277.6,266.8,274.4,264.1,0,267.9,286.0,,10,5,8.402,4.778,1.671,-1.973,-4.877,-7.994,278.1,5,352.4,-7.838,-8.044,10,-7.558,-8.204,-4.605,-4.949,-4.52,-4.945,5.089,8.268,12,-1.661,1.735,4.341,8.337,-7.645,-8.45,-1.533,2.025,286.5,279.9,273.8,260.5,282.5,275.6,279.3,257.4,264.4,278.8,3,norm,1.769,1.107,-1.806,-1.896,-4.734,-5.016,-2.081,-1.464,-1.128,-1.606,1.73,-1.45,260.8,283.2,-4.664,-8.114,1.37,-1.788,7.721,4.588,-4.443,-7.738,2,4.991,5.268,4.333,4.796,1.61,2.001,1.75,1.385,2,4.613,4.574,0,220.777223668,norm,0,11,11,11,358.453,358.462,358.468168994,358.468,358.47,358.473,down,1,6.79946899271,3.20053100729,001,017,1920_1200,Intel(R) Core(TM) i5-3570 CPU @ 3.40GHz,orientation_search,LEPPC096,Intel(R) HD Graphics 2500,2018_Nov_28_1538,testMonitor,
283.1,286.9,276.1,291.5,36,10,281.0,284.5,288.4,270.5,7.882,8.224,8.139,8.464,7.518,8.376,7.799,4.894,-4.444,-8.21,2.077,-1.474,7.902,4.693,-4.396,-7.663,273.0,266.2,-7.824,276.6,283.5,275.7,276.6,283.6,36,288.1,2,5,prime,10,0,85,norm,36,-5.141,down,norm,277.446096616,296.7,280.3,275.8,,2,272.5,259.0,280.2,10,5,7.847,4.818,1.633,-1.208,-4.7,-7.54,283.4,5,362.4,-7.994,-8.156,10,-7.743,-7.976,-4.978,-4.333,-5.038,-4.511,4.433,7.725,14,-1.163,1.196,5.132,8.026,-8.398,-7.74,-1.657,1.953,274.1,288.1,278.0,289.2,290.9,257.4,269.2,286.4,273.7,287.2,4,norm,1.278,1.156,-1.43,-1.371,-5.021,-4.84,-1.999,-2.0,-1.202,-1.817,1.978,-1.29,280.1,297.4,-4.875,-8.372,1.799,-1.403,8.13,5.23,-4.371,-8.074,2,4.625,4.467,4.48,5.185,1.476,1.301,1.237,1.358,2,4.943,4.828,0,220.777223668,norm,0,12,12,12,365.305,365.319,365.337291036,365.338,365.339,365.342,down,1,10.2954171646,-0.295417164598,001,017,1920_1200,Intel(R) Core(TM) i5-3570 CPU @ 3.40GHz,orientation_search,LEPPC096,Intel(R) HD Graphics 2500,2018_Nov_28_1538,testMonitor,
382.6,385.8,394.3,390.5,36,-20,384.9,381.9,390.4,388.7,7.503,7.583,7.709,8.138,7.959,7.664,8.11,5.007,-4.895,-7.594,1.48,-1.478,8.379,4.379,-4.441,-7.818,394.6,394.9,-7.551,390.0,389.4,391.9,391.8,399.7,36,396.0,2,5,probe,5,0,99,norm,36,-4.961,down,norm,389.960493585,390.4,392.7,392.0,,2,388.0,386.0,385.3,10,5,8.165,4.926,1.242,-1.98,-4.657,-8.017,397.3,2,291.0,-7.833,-7.71,10,-7.595,-7.505,-4.342,-4.926,-4.978,-5.254,5.265,8.028,14,-1.109,1.437,5.182,8.115,-8.101,-7.754,-1.931,1.163,385.1,393.1,393.1,396.1,380.0,397.7,400.0,382.0,397.2,387.3,0,norm,1.314,1.173,-1.767,-1.551,-4.642,-5.063,-1.496,-1.365,-1.259,-2.024,1.41,-1.504,391.1,392.0,-4.694,-7.933,1.784,-1.292,7.895,4.563,-4.536,-8.122,3,5.195,4.5,5.293,4.989,1.473,1.646,1.621,1.483,3,4.868,4.939,10,277.446096616,norm,0,13,13,13,375.654,375.664,375.673080992,375.673,375.675,375.677,down,1,2.15936587012,7.84063412988,001,017,1920_1200,Intel(R) Core(TM) i5-3570 CPU @ 3.40GHz,orientation_search,LEPPC096,Intel(R) HD Graphics 2500,2018_Nov_28_1538,testMonitor,
354.8,,346.7,345.8,36,-20,355.0,354.6,352.7,349.2,7.512,7.872,7.892,7.893,8.154,8.101,8.352,4.465,-4.871,-7.953,1.375,-2.043,7.678,4.653,-4.602,-8.246,358.6,356.0,-8.081,355.8,352.5,353.1,353.2,349.7,36,349.8,3,5,probe,5,0,61,norm,36,-4.625,up,norm,351.960493585,342.0,360.0,354.2,349.6,5,350.5,354.5,345.9,10,5,8.132,4.68,2.011,-1.386,-4.74,-7.663,353.0,2,291.0,-7.577,-7.885,10,-8.417,-8.054,-5.056,-4.875,-4.394,-4.548,4.888,7.556,23,-1.687,1.327,4.861,7.763,-8.498,-7.693,-2.067,1.936,354.4,351.8,350.2,348.2,348.5,349.8,342.0,360.6,348.0,353.2,1,norm,1.988,1.957,-1.322,-1.141,-4.936,-4.933,-1.548,-1.278,-1.62,-2.015,1.407,-2.078,352.9,362.0,-4.56,-7.951,1.841,-1.505,8.458,5.006,-4.869,-7.541,3,4.597,4.584,5.282,4.476,1.254,1.253,1.73,1.679,3,4.551,4.79,10,277.446096616,norm,0,14,14,14,377.873,377.883,377.88930225,377.89,377.891,377.894,down,0,4.9178770938,-10,001,017,1920_1200,Intel(R) Core(TM) i5-3570 CPU @ 3.40GHz,orientation_search,LEPPC096,Intel(R) HD Graphics 2500,2018_Nov_28_1538,testMonitor,
334.2,319.3,318.2,315.5,36,80,305.5,310.7,312.6,314.3,8.338,8.044,8.114,8.281,8.307,8.274,7.749,5.281,-4.381,-7.901,1.853,-1.122,8.004,4.402,-4.677,-8.206,297.6,322.8,-8.287,304.7,321.8,307.4,325.6,310.4,36,,4,5,prime,10,0,86,norm,36,-4.589,up,norm,317.596246992,317.1,321.1,322.9,337.6,3,299.4,328.6,305.9,10,6,7.605,4.517,1.165,-1.928,-5.186,-7.517,311.8,6,403.6,-7.502,-7.848,80,-7.788,-8.251,-4.996,-4.924,-4.692,-4.339,5.13,7.618,27,-1.265,1.88,4.581,7.565,-8.267,-7.549,-1.728,1.787,320.7,309.8,326.6,328.3,299.8,317.8,306.4,312.5,317.0,301.1,0,norm,1.174,1.651,-1.917,-1.468,-5.078,-4.318,-1.423,-1.766,-1.519,-1.384,1.525,-1.831,320.1,334.2,-5.297,-7.859,2.073,-1.189,7.67,4.666,-5.101,-8.19,4,4.825,4.765,4.982,4.54,1.452,1.307,1.875,2.078,4,4.615,4.477,-20,277.446096616,norm,0,15,15,15,383.883,383.892,383.89868362,383.899,383.901,383.903,up,1,3.195607901,6.804392099,001,017,1920_1200,Intel(R) Core(TM) i5-3570 CPU @ 3.40GHz,orientation_search,LEPPC096,Intel(R) HD Graphics 2500,2018_Nov_28_1538,testMonitor,
318.3,306.2,309.6,312.7,36,80,310.8,321.8,307.6,316.7,8.405,7.912,8.129,7.514,8.448,7.995,8.12,4.858,-5.206,-8.447,1.692,-1.798,7.693,4.82,-5.284,-8.091,308.6,317.3,-8.317,319.7,321.3,303.2,314.0,318.6,36,327.0,0,5,prime,10,0,86,norm,36,-4.779,down,norm,317.596246992,297.6,313.8,324.0,321.5,1,318.9,307.4,326.6,10,6,7.926,4.513,1.454,-1.982,-4.652,-7.565,315.5,6,403.6,-8.09,-7.852,80,-8.205,-8.232,-4.721,-5.109,-5.146,-4.696,4.807,8.406,1,-1.645,1.202,5.038,7.533,-8.467,-7.786,-1.883,2.089,311.9,298.6,325.0,321.7,,318.3,319.0,323.4,307.2,311.3,1,norm,1.486,1.504,-1.83,-1.904,-4.505,-5.122,-1.597,-1.125,-1.79,-1.519,1.37,-2.083,315.2,311.2,-4.526,-8.183,1.705,-1.174,7.927,4.369,-4.508,-7.569,4,4.675,4.86,5.249,4.935,1.448,1.179,1.239,1.441,4,5.0,5.063,-20,277.446096616,norm,0,16,16,16,387.139,387.149,387.155256842,387.155,387.157,387.16,down,1,1.16505234459,8.83494765541,001,017,1920_1200,Intel(R) Core(TM) i5-3570 CPU @ 3.40GHz,orientation_search,LEPPC096,Intel(R) HD Graphics 2500,2018_Nov_28_1538,testMonitor,
314.5,337.6,317.0,314.7,36,80,316.6,311.6,307.1,312.4,7.722,8.255,8.285,8.291,7.87,8.337,7.651,5.065,-4.831,-8.395,1.901,-1.47,7.874,5.03,-4.938,-8.213,299.6,319.3,-7.901,327.3,319.7,308.5,327.7,314.2,36,330.3,0,5,prime,10,0,118,norm,36,-4.819,up,norm,317.596246992,333.8,316.1,316.7,319.4,3,303.3,313.6,321.2,10,6,8.181,4.332,1.555,-1.933,-4.662,-7.654,316.4,6,435.6,-7.97,-8.432,80,-7.545,-8.138,-4.483,-4.509,-4.581,-4.717,4.735,8.455,3,-2.045,1.714,4.912,7.539,-8.046,-8.47,-2.008,1.886,321.2,323.2,,318.6,324.3,321.9,324.4,320.7,297.6,305.9,2,norm,1.784,1.312,-1.8,-2.001,-5.059,-4.828,-1.774,-1.834,-1.184,-1.456,1.78,-1.75,314.6,330.4,-5.123,-8.5,1.385,-2.02,8.025,4.378,-5.277,-7.684,4,5.063,4.916,4.794,4.583,1.77,1.955,1.814,2.01,4,4.383,5.169,-20,277.446096616,norm,0,17,17,17,388.341,388.352,388.371071815,388.371,388.373,388.376,up,1,1.61837897295,8.38162102705,001,017,1920_1200,Intel(R) Core(TM) i5-3570 CPU @ 3.40GHz,orientation_search,LEPPC096,Intel(R) HD Graphics 2500,2018_Nov_28_1538,testMonitor,
326.9,330.5,319.7,313.2,36,80,,317.6,297.6,319.6,7.69,7.532,8.096,8.239,7.865,8.341,8.294,4.869,-5.008,-8.361,2.009,-1.273,7.801,4.445,-4.729,-8.178,330.5,309.6,-8.173,318.2,337.6,327.1,335.0,327.0,36,315.6,4,5,prime,10,0,101,norm,36,-5.075,down,norm,317.596246992,315.8,335.3,314.7,312.6,0,299.5,326.9,319.2,10,6,8.37,4.627,1.274,-1.605,-4.403,-8.085,331.8,6,418.6,-8.168,-8.298,80,-8.1,-8.396,-5.161,-4.8,-5.234,-5.209,4.959,8.217,24,-1.254,2.058,5.135,7.546,-7.643,-7.77,-1.427,1.71,319.6,312.9,318.0,310.9,304.9,310.2,323.0,321.2,304.3,320.8,3,norm,1.54,1.355,-1.505,-1.788,-5.237,-4.45,-1.198,-1.806,-1.62,-2.031,1.719,-2.01,315.3,329.7,-4.44,-8.001,1.603,-1.503,7.509,4.994,-4.694,-8.297,4,5.055,5.054,4.902,4.304,1.585,1.835,1.183,1.501,4,4.507,4.903,-20,277.446096616,norm,0,18,18,18,390.011,390.021,390.040023254,390.04,390.042,390.045,down,1,1.53595331532,8.46404668468,001,017,1920_1200,Intel(R) Core(TM) i5-3570 CPU @ 3.40GHz,orientation_search,LEPPC096,Intel(R) HD Graphics 2500,2018_Nov_28_1538,testMonitor,
324.2,311.2,300.3,320.9,36,80,311.8,312.9,332.9,312.7,7.915,8.101,8.333,7.73,7.873,8.023,8.113,4.962,-5.107,-7.631,1.684,-1.862,7.966,4.866,-4.614,-7.948,325.0,312.8,-8.132,337.6,317.4,302.7,312.3,326.0,36,314.5,1,5,prime,10,0,103,norm,36,-5.277,up,norm,317.596246992,305.0,324.3,311.3,332.9,5,,315.8,305.4,10,6,8.449,5.251,1.487,-1.216,-5.246,-8.022,313.3,6,420.6,-8.233,-7.953,80,-8.075,-8.009,-4.441,-4.669,-4.974,-4.495,4.503,7.636,11,-1.683,1.49,4.706,8.275,-7.57,-7.607,-1.253,2.081,311.1,324.6,326.5,314.0,297.6,313.4,308.7,308.3,313.6,305.2,4,norm,1.192,1.698,-1.153,-1.408,-5.117,-5.12,-1.887,-1.512,-2.016,-1.196,1.862,-1.848,317.1,302.2,-5.098,-8.044,1.853,-1.881,7.993,4.679,-4.561,-7.579,4,4.347,4.943,4.331,5.29,2.006,2.004,1.712,1.6,4,4.601,5.25,-20,277.446096616,norm,0,19,19,19,391.611,391.621,391.631155807,391.631,391.633,391.636,down,0,1.29606764246,-10,001,017,1920_1200,Intel(R) Core(TM) i5-3570 CPU @ 3.40GHz,orientation_search,LEPPC096,Intel(R) HD Graphics 2500,2018_Nov_28_1538,testMonitor,
325.3,316.7,310.7,309.4,36,80,307.0,,298.7,317.0,7.821,8.011,8.094,7.99,8.427,7.847,7.996,5.255,-4.357,-8.306,1.394,-2.075,8.398,4.662,-4.333,-8.17,337.6,318.5,-8.078,304.3,305.7,297.6,327.4,324.9,36,336.2,4,5,prime,10,0,117,norm,36,-4.641,down,norm,317.596246992,315.1,333.8,313.2,307.3,1,314.4,317.5,313.7,10,6,8.05,4.621,1.794,-1.511,-5.061,-8.178,306.7,6,434.6,-8.13,-8.281,80,-8.245,-8.386,-4.905,-4.488,-4.462,-4.864,4.591,8.158,25,-2.003,1.719,4.696,8.205,-8.371,-8.213,-1.812,1.871,319.9,331.4,312.4,304.4,316.8,332.6,311.1,322.5,329.0,323.8,5,norm,1.212,2.078,-1.737,-1.912,-5.202,-4.696,-1.265,-1.573,-1.272,-1.765,1.603,-1.879,320.4,322.9,-4.487,-8.209,1.558,-1.718,7.598,4.94,-4.8,-7.548,4,4.316,5.156,5.293,4.708,1.666,1.417,1.792,1.699,4,4.663,5.001,-20,277.446096616,norm,0,20,20,20,393.998,394.007,394.017953491,394.018,394.02,394.022,up,0,0.568644431274,-10,001,017,1920_1200,Intel(R) Core(TM) i5-3570 CPU @ 3.40GHz,orientation_search,LEPPC096,Intel(R) HD Graphics 2500,2018_Nov_28_1538,testMonitor,
507.0,510.4,,510.2,36,-30,513.3,505.7,506.8,506.8,7.886,8.422,8.066,8.377,7.738,8.233,8.404,4.922,-4.628,-7.598,1.542,-1.173,7.502,5.018,-4.987,-7.822,500.8,505.1,-7.904,502.1,504.0,495.6,506.8,503.2,36,511.3,3,5,probe,5,0,103,norm,36,-4.514,down,norm,505.608610632,500.5,507.7,505.7,515.6,2,501.5,501.5,506.1,10,6,8.064,4.542,1.332,-1.991,-4.446,-8.497,507.2,2,402.6,-7.822,-7.63,80,-8.324,-8.015,-4.331,-4.726,-4.782,-5.025,4.968,8.146,20,-1.385,1.679,4.528,7.811,-7.611,-8.32,-1.845,2.089,507.5,510.2,505.2,503.6,499.6,509.6,506.7,511.5,506.5,510.2,0,norm,1.413,1.9,-1.867,-1.71,-4.531,-5.049,-2.066,-1.992,-1.509,-1.891,1.447,-1.162,501.5,497.3,-4.842,-7.915,1.986,-1.44,8.119,4.463,-4.379,-7.952,5,4.963,4.829,4.861,5.121,1.563,1.165,1.545,1.736,5,4.599,4.95,80,317.596246992,norm,0,21,21,21,395.645,395.654,395.67149117,395.672,395.673,395.676,down,1,1.77149904813,8.22850095187,001,017,1920_1200,Intel(R) Core(TM) i5-3570 CPU @ 3.40GHz,orientation_search,LEPPC096,Intel(R) HD Graphics 2500,2018_Nov_28_1538,testMonitor,
505.0,501.3,511.0,505.1,36,-30,509.2,500.3,508.5,500.5,7.919,8.358,8.121,7.769,8.283,7.729,8.28,4.333,-4.807,-7.747,1.142,-1.347,8.376,4.382,-5.102,-8.054,510.1,509.2,-8.097,505.4,513.1,508.2,507.7,510.2,36,507.7,2,5,probe,5,0,103,norm,36,-4.886,up,norm,505.608610632,509.2,,498.3,509.0,4,500.5,506.6,496.1,10,6,8.478,5.247,1.858,-1.297,-4.384,-8.335,500.4,2,402.6,-8.434,-7.816,80,-8.232,-7.949,-4.667,-4.767,-4.974,-5.223,5.259,8.039,16,-1.783,1.56,4.599,7.507,-8.238,-8.289,-2.043,1.435,515.6,507.1,515.4,513.1,505.3,513.7,495.6,499.5,503.8,513.2,1,norm,1.29,1.898,-1.838,-1.823,-4.663,-5.161,-1.762,-1.121,-1.669,-1.397,1.703,-1.113,500.2,514.5,-4.445,-7.699,1.194,-1.699,8.385,4.968,-5.209,-8.293,5,4.329,5.116,4.526,4.658,1.991,1.604,1.814,1.458,5,5.156,5.043,80,317.596246992,norm,0,22,22,22,397.466,397.475,397.481841707,397.482,397.484,397.486,up,1,2.68560035183,7.31439964817,001,017,1920_1200,Intel(R) Core(TM) i5-3570 CPU @ 3.40GHz,orientation_search,LEPPC096,Intel(R) HD Graphics 2500,2018_Nov_28_1538,testMonitor,
6.9,23.7,35.0,9.0,36,-80,12.4,14.1,30.7,36.4,8.041,7.644,8.17,8.274,8.295,8.304,7.822,4.976,-4.67,-8.217,1.435,-1.685,7.97,4.453,-4.878,-7.843,23.6,,-8.31,38.2,33.8,15.3,20.8,21.2,36,30.3,5,5,prime,10,0,111,norm,36,-4.599,up,norm,26.908724235,28.7,36.5,22.2,40.3,4,28.0,35.5,38.3,10,5,8.26,4.824,1.257,-1.31,-5.016,-8.118,42.4,5,137.9,-7.761,-8.077,-80,-8.102,-8.342,-4.393,-5.201,-5.103,-4.813,4.536,7.663,34,-1.319,1.905,4.992,7.808,-8.094,-8.331,-1.715,1.388,26.2,34.1,29.0,32.8,32.1,35.2,19.1,39.5,30.6,10.5,0,norm,1.342,2.0,-1.587,-1.188,-5.186,-5.213,-1.93,-1.847,-1.812,-1.992,1.709,-1.909,46.9,10.4,-4.828,-8.006,1.445,-1.102,7.854,4.464,-4.855,-7.592,6,4.664,4.594,4.812,4.856,1.952,1.159,1.884,1.197,6,4.657,5.12,-30,317.596246992,norm,0,23,23,23,400.211,400.221,400.229372985,400.23,400.231,400.234,up,1,2.85189509406,7.14810490594,001,017,1920_1200,Intel(R) Core(TM) i5-3570 CPU @ 3.40GHz,orientation_search,LEPPC096,Intel(R) HD Graphics 2500,2018_Nov_28_1538,testMonitor,
27.9,26.5,39.0,24.2,36,-80,15.1,34.7,36.3,22.8,8.455,7.852,8.037,8.031,8.359,7.55,8.463,4.83,-4.615,-8.488,1.855,-1.173,7.592,4.725,-4.31,-7.988,27.6,28.7,-8.057,16.3,15.8,,17.5,33.1,36,45.2,5,5,prime,10,0,108,norm,36,-5.097,up,norm,26.908724235,28.8,12.9,24.1,46.9,3,38.5,40.6,23.7,10,5,8.239,4.485,1.963,-1.825,-4.324,-7.636,26.8,5,134.9,-8.159,-8.208,-80,-8.123,-7.978,-4.78,-4.773,-4.91,-5.278,4.646,8.44,33,-1.465,1.945,4.995,7.741,-8.465,-7.893,-1.758,1.336,10.3,16.9,41.5,40.7,39.2,7.4,6.9,35.7,23.5,25.4,1,norm,1.564,1.587,-1.584,-1.616,-4.548,-5.232,-1.401,-1.109,-1.461,-1.139,1.444,-1.393,21.4,18.2,-4.764,-8.205,1.287,-1.524,7.917,4.854,-4.986,-8.293,6,4.435,4.834,4.899,4.328,1.56,1.421,1.637,1.947,6,4.511,4.846,-30,317.596246992,norm,0,24,24,24,403.118,403.128,403.143521074,403.144,403.145,403.148,up,1,1.67334148518,8.32665851482,001,017,1920_1200,Intel(R) Core(TM) i5-3570 CPU @ 3.40GHz,orientation_search,LEPPC096,Intel(R) HD Graphics 2500,2018_Nov_28_1538,testMonitor,
18.5,25.1,36.7,14.3,36,-80,10.0,42.3,25.7,18.6,8.327,7.721,7.738,8.476,8.132,8.036,8.401,5.028,-4.933,-7.995,1.923,-1.767,7.514,4.563,-4.788,-8.239,41.6,37.1,-7.725,20.5,6.9,10.2,14.3,39.2,36,12.4,1,5,prime,10,0,86,norm,36,-5.23,up,norm,26.908724235,37.6,25.2,26.4,19.6,3,34.3,41.7,32.7,10,5,8.399,5.012,1.691,-1.326,-4.411,-8.233,14.0,5,112.9,-8.331,-7.992,-80,-7.81,-7.763,-4.915,-4.833,-4.664,-4.826,4.316,7.514,9,-2.027,1.357,5.237,7.538,-8.411,-7.761,-1.739,2.071,,32.1,41.8,24.9,26.1,22.9,46.9,21.5,45.6,33.4,2,norm,1.985,1.499,-1.441,-1.723,-4.776,-4.748,-2.004,-1.443,-1.752,-1.811,1.999,-1.32,16.1,26.8,-4.867,-8.123,1.608,-1.114,8.089,5.08,-4.96,-7.894,6,4.452,5.127,4.859,4.387,2.094,1.385,1.681,1.294,6,4.925,4.379,-30,317.596246992,norm,0,25,25,25,404.86,404.87,404.875985715,404.876,404.878,404.88,up,1,1.50175568656,8.49824431344,001,017,1920_1200,Intel(R) Core(TM) i5-3570 CPU @ 3.40GHz,orientation_search,LEPPC096,Intel(R) HD Graphics 2500,2018_Nov_28_1538,testMonitor,
34.3,23.6,45.3,34.7,36,-80,21.7,35.4,23.5,11.7,7.705,7.64,8.338,8.42,7.966,7.741,7.653,4.591,-4.995,-7.862,1.736,-1.913,8.489,5.055,-5.145,-8.058,33.3,31.1,-8.392,33.8,7.2,23.0,32.4,28.2,36,25.3,2,5,prime,10,0,71,norm,36,-5.29,down,norm,26.908724235,23.5,19.1,36.7,10.7,0,25.3,13.3,,10,5,7.745,4.545,1.972,-1.106,-4.947,-7.9,26.8,5,97.9,-7.507,-8.047,-80,-8.152,-8.38,-4.996,-4.355,-4.734,-4.523,5.107,8.362,12,-1.271,1.208,4.76,7.785,-8.499,-7.989,-2.049,1.347,35.1,30.3,46.9,24.4,19.7,22.8,14.9,23.1,31.8,18.4,3,norm,1.588,1.59,-1.855,-1.251,-4.604,-4.966,-1.298,-1.336,-1.255,-2.008,1.509,-2.027,20.2,6.9,-4.804,-8.015,1.162,-1.63,7.993,5.183,-4.742,-8.152,6,5.159,4.629,4.581,4.381,2.092,1.698,1.286,1.242,6,4.746,4.333,-30,317.596246992,norm,0,26,26,26,406.398,406.408,406.419258491,406.419,406.421,406.424,down,1,6.32562348529,3.67437651471,001,017,1920_1200,Intel(R) Core(TM) i5-3570 CPU @ 3.40GHz,orientation_search,LEPPC096,Intel(R) HD Graphics 2500,2018_Nov_28_1538,testMonitor,
33.5,23.2,12.0,23.3,36,-80,30.2,40.9,46.9,21.4,7.557,7.653,7.718,7.737,8.049,7.727,7.983,5.133,-4.463,-8.111,1.793,-1.135,8.37,4.904,-4.471,-7.554,40.3,29.0,-8.242,33.1,30.3,26.9,34.2,38.7,36,29.0,0,5,prime,10,0,112,norm,36,-4.388,up,norm,26.908724235,24.7,35.6,17.9,28.9,5,41.2,44.6,35.4,10,5,7.816,5.19,2.032,-1.352,-5.209,-8.434,10.5,5,138.9,-8.25,-7.551,-80,-7.973,-7.547,-4.306,-4.46,-4.811,-4.464,5.268,7.944,5,-1.692,1.237,5.049,7.951,-7.888,-8.151,-1.398,1.45,27.5,24.3,23.2,31.6,34.9,6.9,35.8,24.8,,30.1,4,norm,2.003,1.111,-2.032,-1.23,-5.24,-4.511,-1.143,-2.015,-1.13,-1.565,1.421,-1.736,22.0,30.7,-4.749,-7.896,1.277,-1.73,7.649,4.905,-4.315,-7.836,6,4.715,5.006,4.977,4.991,1.391,1.235,1.876,1.692,6,4.624,5.232,-30,317.596246992,norm,0,27,27,27,412.769,412.778,412.784766986,412.785,412.787,412.789,up,1,1.19663236593,8.80336763407,001,017,1920_1200,Intel(R) Core(TM) i5-3570 CPU @ 3.40GHz,orientation_search,LEPPC096,Intel(R) HD Graphics 2500,2018_Nov_28_1538,testMonitor,
38.1,24.8,,33.1,36,-80,34.5,36.1,38.0,30.1,8.231,8.478,7.568,8.035,7.932,7.587,7.858,5.065,-5.06,-8.277,1.37,-1.334,8.105,4.361,-4.558,-7.529,36.9,29.3,-7.856,31.1,28.6,27.1,20.9,26.9,36,31.8,3,5,probe,5,0,86,norm,36,-5.088,down,norm,30.933074273,26.3,39.9,30.4,34.3,2,35.4,24.3,24.6,10,5,7.682,4.888,1.291,-1.322,-4.641,-7.529,34.3,1,-55.1,-8.253,-8.13,-80,-8.108,-7.516,-4.589,-5.042,-4.922,-4.947,4.803,8.281,20,-1.172,1.84,4.853,7.676,-8.426,-8.276,-1.778,1.341,32.4,34.1,33.3,30.0,34.1,40.9,24.1,32.6,24.7,34.0,0,norm,2.05,1.751,-1.132,-1.42,-4.448,-4.963,-1.612,-1.194,-1.702,-1.302,1.619,-1.132,34.9,31.8,-4.367,-8.152,1.883,-2.051,8.016,4.941,-4.672,-8.432,7,4.824,5.034,4.481,4.582,1.44,2.092,1.104,1.92,7,5.203,4.627,-80,26.908724235,norm,0,28,28,28,414.019,414.032,414.051608703,414.052,414.054,414.058,down,1,1.96398314612,8.03601685388,001,017,1920_1200,Intel(R) Core(TM) i5-3570 CPU @ 3.40GHz,orientation_search,LEPPC096,Intel(R) HD Graphics 2500,2018_Nov_28_1538,testMonitor,
94.4,81.4,97.5,82.8,36,60,93.2,83.2,101.9,99.9,8.409,7.865,8.371,8.035,8.387,7.923,7.839,4.691,-5.095,-7.554,2.005,-1.343,8.089,4.802,-4.994,-8.006,77.2,85.7,-8.341,95.0,89.1,93.6,74.6,94.8,36,72.0,0,5,prime,10,0,105,norm,36,-4.481,up,norm,87.9939344144,92.5,84.3,80.4,91.5,3,108.0,89.3,77.9,10,6,8.145,4.933,1.243,-1.38,-4.527,-7.897,88.1,6,193.0,-7.515,-7.659,60,-7.527,-7.515,-4.696,-5.295,-5.276,-4.602,5.142,7.933,3,-1.272,1.76,4.4,8.335,-7.582,-8.024,-2.008,1.508,82.4,75.3,,93.9,84.4,70.2,86.7,89.2,91.2,92.4,0,norm,2.056,1.316,-1.931,-1.495,-4.515,-4.871,-1.379,-1.813,-1.266,-2.047,1.778,-1.789,92.0,83.6,-4.643,-8.317,1.222,-1.414,8.169,4.622,-4.918,-7.976,8,5.017,4.799,5.006,5.275,1.236,1.654,1.265,1.594,8,4.403,4.97,-80,26.908724235,norm,0,29,29,29,416.06,416.07,416.078097791,416.078,416.08,416.082,up,1,4.75313444308,5.24686555692,001,017,1920_1200,Intel(R) Core(TM) i5-3570 CPU @ 3.40GHz,orientation_search,LEPPC096,Intel(R) HD Graphics 2500,2018_Nov_28_1538,testMonitor,
87.0,85.0,88.1,88.1,36,60,68.3,92.7,81.6,72.1,7.522,7.934,8.264,7.705,7.873,8.042,7.676,4.749,-4.55,-7.542,1.337,-1.479,7.936,5.051,-4.822,-7.919,91.5,88.2,-8.466,101.0,80.4,75.6,93.0,83.7,36,68.0,2,5,prime,10,0,103,norm,36,-4.577,up,norm,87.9939344144,87.9,,87.5,81.6,4,108.0,91.8,87.9,10,6,8.078,4.961,1.678,-1.131,-4.318,-7.962,74.7,6,191.0,-7.878,-7.932,60,-8.254,-8.291,-4.725,-5.225,-4.67,-4.867,4.56,8.211,16,-1.225,1.748,4.725,7.539,-8.26,-7.667,-1.167,1.643,103.2,85.5,86.2,91.8,75.7,89.2,91.7,96.3,76.0,107.9,1,norm,1.834,1.165,-1.683,-1.786,-5.253,-4.717,-1.295,-1.264,-1.326,-1.677,1.21,-1.379,80.0,75.7,-4.789,-8.0,1.223,-1.753,7.784,4.427,-5.187,-7.896,8,5.233,5.028,4.318,4.944,1.106,1.875,1.257,1.394,8,4.93,5.068,-80,26.908724235,norm,0,30,30,30,420.868,420.878,420.895500655,420.896,420.897,420.9,down,0,4.10812179721,-10,001,017,1920_1200,Intel(R) Core(TM) i5-3570 CPU @ 3.40GHz,orientation_search,LEPPC096,Intel(R) HD Graphics 2500,2018_Nov_28_1538,testMonitor,
,87.4,95.8,74.4,36,60,79.1,88.1,74.2,92.0,8.149,7.655,7.989,7.632,7.963,7.952,8.461,5.275,-4.663,-8.163,1.978,-1.24,8.134,4.676,-4.402,-7.679,88.8,84.4,-7.55,99.1,84.2,76.8,90.5,92.7,36,96.1,3,5,prime,10,0,90,norm,36,-4.424,up,norm,87.9939344144,68.0,92.7,79.5,85.6,4,87.4,91.4,72.2,10,6,7.598,4.88,1.719,-1.362,-4.717,-7.577,100.2,6,178.0,-8.083,-7.606,60,-8.39,-8.135,-5.153,-4.799,-5.101,-4.873,4.668,7.952,22,-1.161,1.856,5.128,8.281,-8.236,-8.471,-1.194,2.096,85.5,84.6,70.9,102.8,99.6,108.0,90.0,86.4,88.3,86.1,2,norm,1.207,1.559,-1.284,-1.53,-5.052,-4.646,-1.217,-2.073,-1.284,-1.954,1.132,-1.31,73.6,95.1,-4.867,-7.758,1.721,-1.464,8.247,4.325,-4.509,-8.279,8,5.068,5.159,4.598,5.21,1.555,1.962,1.342,1.959,8,4.603,4.743,-80,26.908724235,norm,0,31,31,31,426.057,426.067,426.074543858,426.075,426.076,426.079,up,1,0.486778999621,9.51322100038,001,017,1920_1200,Intel(R) Core(TM) i5-3570 CPU @ 3.40GHz,orientation_search,LEPPC096,Intel(R) HD Graphics 2500,2018_Nov_28_1538,testMonitor,
91.1,78.6,108.0,87.6,36,60,87.4,84.8,90.2,85.8,8.493,7.859,7.828,7.774,8.128,7.73,8.464,4.621,-4.889,-8.157,1.892,-1.409,7.808,4.764,-4.344,-7.997,77.7,103.9,-8.282,86.8,84.8,94.0,86.9,86.7,36,94.3,2,5,prime,10,0,61,norm,36,-5.058,up,norm,87.9939344144,68.0,93.0,,99.7,3,82.2,82.1,93.1,10,6,8.349,5.02,1.74,-1.803,-4.647,-7.982,101.1,6,149.0,-8.247,-7.623,60,-8.201,-7.675,-5.04,-5.219,-4.65,-4.977,4.494,7.763,15,-1.276,1.836,4.488,7.988,-8.032,-7.894,-1.936,1.335,68.7,94.4,79.6,102.3,89.9,73.6,97.4,86.7,86.7,84.0,3,norm,1.715,2.067,-1.506,-1.456,-5.04,-5.05,-1.299,-1.469,-1.865,-1.448,1.245,-1.755,80.6,81.3,-4.577,-7.653,1.506,-1.338,8.284,5.107,-5.195,-8.328,8,4.869,4.814,4.987,4.776,1.682,1.634,1.428,1.501,8,5.15,4.47,-80,26.908724235,norm,0,32,32,32,426.598,426.61,426.614540701,426.615,426.616,426.619,up,1,3.31519742683,6.68480257317,001,017,1920_1200,Intel(R) Core(TM) i5-3570 CPU @ 3.40GHz,orientation_search,LEPPC096,Intel(R) HD Graphics 2500,2018_Nov_28_1538,testMonitor,
,91.1,107.5,86.2,36,60,84.6,79.2,81.7,80.2,7.863,7.745,8.195,8.174,8.286,8.489,8.425,4.918,-5.239,-8.403,1.104,-2.078,7.832,5.29,-4.54,-8.19,100.9,76.3,-8.119,78.8,80.8,89.7,88.1,93.7,36,90.4,3,5,prime,10,0,69,norm,36,-4.631,up,norm,87.9939344144,108.0,81.9,87.5,88.3,4,86.0,91.6,91.8,10,6,7.828,4.33,1.215,-1.615,-4.631,-8.245,98.8,6,157.0,-8.002,-7.699,60,-7.598,-7.6,-5.292,-4.459,-5.181,-5.26,4.376,7.884,22,-1.478,1.598,4.892,8.468,-8.082,-7.536,-1.455,1.421,88.2,95.6,68.0,89.4,78.4,80.9,86.2,105.6,85.9,87.7,4,norm,2.011,1.834,-1.544,-2.031,-4.81,-4.78,-1.682,-1.805,-2.016,-1.13,2.059,-1.755,80.6,79.5,-4.624,-8.189,1.866,-2.0,7.771,4.61,-5.22,-7.659,8,4.5,4.764,4.83,4.57,1.583,1.471,1.966,1.639,8,5.209,4.854,-80,26.908724235,norm,0,33,33,33,429.975,429.985,429.990891499,429.991,429.993,429.995,up,1,5.55901132192,4.44098867808,001,017,1920_1200,Intel(R) Core(TM) i5-3570 CPU @ 3.40GHz,orientation_search,LEPPC096,Intel(R) HD Graphics 2500,2018_Nov_28_1538,testMonitor,
85.3,75.5,76.8,82.3,36,60,107.7,89.7,81.2,86.5,7.951,8.303,8.027,7.727,8.431,7.882,7.6,5.145,-5.245,-7.646,1.807,-1.358,7.734,4.308,-4.981,-8.442,,98.6,-7.998,89.9,76.4,81.0,104.4,107.3,36,80.2,5,5,prime,10,0,93,norm,36,-4.756,up,norm,87.9939344144,90.4,108.0,79.0,68.0,5,95.9,104.0,80.3,10,6,7.73,5.253,1.442,-1.445,-5.251,-7.513,83.2,6,181.0,-7.862,-7.872,60,-8.436,-8.122,-5.037,-5.094,-4.624,-4.893,5.091,7.833,35,-1.313,1.339,4.401,8.026,-8.357,-7.636,-1.272,1.102,96.8,72.4,91.7,79.7,71.2,98.6,78.4,94.1,96.4,84.3,5,norm,1.542,1.224,-1.644,-1.18,-4.426,-4.408,-1.222,-1.298,-1.928,-1.866,1.646,-1.877,100.2,99.4,-4.842,-7.854,1.795,-1.168,7.635,4.966,-4.766,-7.941,8,4.556,5.188,4.573,4.911,1.745,1.494,1.239,1.72,8,4.575,4.723,-80,26.908724235,norm,0,34,34,34,435.59,435.602,435.6064298,435.607,435.609,435.612,up,1,6.67761532095,3.32238467905,001,017,1920_1200,Intel(R) Core(TM) i5-3570 CPU @ 3.40GHz,orientation_search,LEPPC096,Intel(R) HD Graphics 2500,2018_Nov_28_1538,testMonitor,
258.3,262.2,260.0,261.7,36,40,269.0,257.1,252.7,256.1,7.879,7.834,8.401,7.799,8.157,7.85,8.188,5.174,-4.513,-8.068,1.347,-1.978,8.289,4.458,-4.936,-7.808,264.4,266.2,-8.454,265.7,261.9,266.3,,252.4,36,268.0,5,5,probe,5,0,108,norm,36,-4.338,down,norm,262.41290928,258.3,259.5,268.8,271.7,2,266.8,256.1,265.4,10,6,8.113,4.32,1.995,-1.261,-4.477,-7.835,261.4,2,154.4,-7.545,-8.027,60,-8.238,-7.887,-4.817,-4.465,-5.008,-5.017,4.771,7.768,32,-1.179,1.729,4.582,8.427,-8.168,-8.469,-1.878,1.833,255.0,268.0,267.6,255.1,272.4,266.4,261.9,256.0,265.9,268.1,0,norm,1.707,1.273,-1.133,-1.846,-5.253,-4.546,-1.895,-1.583,-2.099,-1.135,1.643,-1.13,267.5,263.1,-4.395,-8.115,1.746,-1.441,8.052,5.062,-4.605,-7.739,9,5.086,4.783,5.225,5.031,1.503,1.999,1.196,1.812,9,5.016,5.256,60,87.9939344144,norm,0,35,35,35,442.329,442.339,442.345434234,442.346,442.347,442.35,up,0,2.43159281957,-10,001,017,1920_1200,Intel(R) Core(TM) i5-3570 CPU @ 3.40GHz,orientation_search,LEPPC096,Intel(R) HD Graphics 2500,2018_Nov_28_1538,testMonitor,
,262.6,258.9,259.9,36,40,258.1,258.8,259.7,269.1,8.336,7.645,8.045,7.741,8.489,8.454,7.584,4.429,-4.409,-7.931,1.641,-1.762,8.206,4.606,-4.434,-8.24,255.9,262.5,-7.878,258.4,249.9,258.2,264.6,249.4,36,255.7,3,5,probe,5,0,105,norm,36,-4.572,up,norm,259.41290928,261.1,260.2,257.2,257.1,4,257.8,252.9,251.6,10,6,7.607,5.125,1.65,-1.56,-4.792,-8.391,262.0,2,154.4,-7.885,-8.43,60,-7.755,-7.664,-4.623,-4.932,-4.978,-4.494,4.532,8.064,22,-2.032,2.009,4.684,7.637,-7.848,-7.592,-2.051,2.075,269.4,262.1,263.0,259.0,254.5,266.6,259.0,259.3,255.8,265.2,1,norm,2.096,2.0,-2.027,-1.62,-4.658,-4.707,-1.856,-1.434,-1.319,-1.371,1.99,-1.557,261.2,255.1,-4.319,-8.083,1.605,-1.25,8.182,4.453,-4.509,-8.271,9,5.217,4.673,5.025,4.657,1.88,2.011,1.341,1.187,9,5.269,4.84,60,87.9939344144,norm,0,36,36,36,445.847,445.857,445.869927065,445.87,445.872,445.874,up,1,2.09467124305,7.90532875695,001,017,1920_1200,Intel(R) Core(TM) i5-3570 CPU @ 3.40GHz,orientation_search,LEPPC096,Intel(R) HD Graphics 2500,2018_Nov_28_1538,testMonitor,
297.1,311.1,331.7,,36,20,321.4,322.1,322.2,308.3,7.619,8.012,8.05,7.993,8.355,8.274,8.241,5.062,-4.524,-8.418,1.437,-1.366,7.506,5.192,-4.738,-8.417,306.2,302.6,-7.928,298.4,315.5,304.5,306.7,313.3,36,314.1,3,5,prime,10,0,77,norm,36,-4.736,up,norm,311.746912563,307.9,314.3,327.4,309.9,3,304.4,300.6,306.6,10,5,8.077,4.827,1.709,-1.855,-5.118,-8.056,317.7,5,388.7,-8.417,-7.766,20,-8.397,-8.187,-4.882,-4.312,-4.472,-5.17,4.473,8.037,21,-1.506,1.999,4.41,7.777,-8.129,-8.36,-1.574,1.39,323.5,301.0,312.0,299.0,315.5,313.7,307.4,312.2,313.4,302.0,0,norm,2.026,1.663,-1.656,-1.583,-5.09,-4.76,-1.132,-1.125,-1.227,-1.418,1.301,-1.327,291.7,314.0,-4.406,-7.929,1.645,-1.167,7.792,4.535,-4.321,-7.896,10,4.55,4.704,5.189,4.9,1.521,1.712,1.629,1.956,10,4.822,4.305,40,87.9939344144,norm,0,37,37,37,448.008,448.017,448.02361612,448.024,448.026,448.028,down,0,1.80856089244,-10,001,017,1920_1200,Intel(R) Core(TM) i5-3570 CPU @ 3.40GHz,orientation_search,LEPPC096,Intel(R) HD Graphics 2500,2018_Nov_28_1538,testMonitor,
311.6,305.7,318.6,331.7,36,20,321.4,317.2,310.3,304.0,8.334,8.131,7.715,8.208,8.393,8.132,7.872,4.857,-5.202,-8.222,1.115,-1.936,7.707,5.068,-4.481,-7.708,314.2,317.5,-8.199,291.7,319.9,306.2,307.2,314.4,36,315.6,1,5,prime,10,0,78,norm,36,-4.41,down,norm,311.746912563,311.2,306.7,297.0,298.2,2,314.6,314.8,299.5,10,5,7.809,4.494,2.017,-1.519,-4.678,-7.958,304.8,5,389.7,-7.579,-7.63,20,-8.204,-8.345,-4.669,-4.933,-5.255,-4.658,5.194,8.18,8,-1.214,1.872,4.67,7.652,-8.174,-7.639,-1.198,2.066,309.4,,322.9,316.6,322.6,329.6,321.4,313.4,300.6,323.4,1,norm,2.031,1.269,-1.338,-1.649,-4.571,-4.514,-1.374,-1.727,-2.078,-1.917,1.445,-1.174,305.9,302.4,-4.927,-8.052,1.675,-1.156,8.068,4.371,-5.154,-8.037,10,5.065,4.651,4.323,5.252,1.281,2.008,1.558,1.685,10,5.262,4.31,40,87.9939344144,norm,0,38,38,38,450.903,450.913,450.924191408,450.924,450.926,450.929,up,0,2.60511103552,-10,001,017,1920_1200,Intel(R) Core(TM) i5-3570 CPU @ 3.40GHz,orientation_search,LEPPC096,Intel(R) HD Graphics 2500,2018_Nov_28_1538,testMonitor,
308.2,311.4,304.3,314.3,36,20,293.0,303.0,317.8,296.6,8.3,7.964,8.213,8.12,8.243,7.918,8.069,4.668,-5.226,-8.101,1.18,-1.408,8.455,4.775,-4.479,-8.361,308.0,291.7,-7.619,331.7,315.4,331.1,307.5,325.8,36,298.2,1,5,prime,10,0,60,norm,36,-5.239,down,norm,311.746912563,313.6,324.4,317.7,312.8,0,316.4,293.3,324.2,10,5,7.673,4.664,1.241,-1.282,-4.909,-8.228,318.5,5,371.7,-7.577,-8.301,20,-8.05,-8.432,-4.747,-4.403,-4.347,-4.996,4.656,8.299,6,-1.9,1.141,5.084,7.82,-8.076,-8.394,-1.609,1.452,299.6,308.8,323.1,300.2,301.6,322.0,318.8,,310.4,309.8,2,norm,1.451,1.976,-1.807,-1.429,-4.836,-4.598,-1.253,-1.683,-1.405,-1.414,2.037,-1.782,322.4,319.3,-4.908,-7.758,2.099,-1.94,8.031,4.611,-4.852,-7.766,10,5.148,5.099,4.886,4.572,1.391,2.026,1.427,1.574,10,5.09,5.123,40,87.9939344144,norm,0,39,39,39,454.6,454.609,454.621076268,454.621,454.623,454.626,down,1,2.93585111029,7.06414888971,001,017,1920_1200,Intel(R) Core(TM) i5-3570 CPU @ 3.40GHz,orientation_search,LEPPC096,Intel(R) HD Graphics 2500,2018_Nov_28_1538,testMonitor,
317.9,322.2,301.0,331.7,36,20,308.1,312.3,291.7,306.7,7.891,8.494,7.585,7.863,7.732,7.54,8.459,5.097,-5.062,-7.892,1.148,-1.923,7.955,4.69,-5.253,-7.825,314.9,310.8,-8.242,301.4,304.2,306.7,316.5,298.5,36,324.3,3,5,prime,10,0,94,norm,36,-4.53,down,norm,311.746912563,309.4,331.1,328.4,293.2,1,322.1,319.7,307.8,10,5,7.529,4.607,1.528,-1.271,-5.21,-7.902,307.7,5,405.7,-8.154,-8.375,20,-7.503,-8.122,-5.076,-5.151,-5.209,-4.667,5.149,7.605,19,-1.911,1.145,5.196,8.044,-8.347,-8.189,-1.784,1.514,307.7,318.4,313.2,312.4,305.9,303.2,304.8,304.7,316.5,311.0,3,norm,1.36,1.432,-1.188,-1.734,-4.886,-5.281,-1.474,-2.018,-1.176,-1.988,1.233,-1.55,,316.2,-4.957,-8.05,1.622,-1.246,8.052,4.967,-4.353,-7.55,10,5.144,4.739,4.629,4.747,1.898,2.05,1.366,1.485,10,4.654,5.096,40,87.9939344144,norm,0,40,40,40,457.601,457.611,457.617186682,457.617,457.619,457.622,down,1,2.68325017983,7.31674982017,001,017,1920_1200,Intel(R) Core(TM) i5-3570 CPU @ 3.40GHz,orientation_search,LEPPC096,Intel(R) HD Graphics 2500,2018_Nov_28_1538,testMonitor,
315.2,296.4,299.2,308.8,36,20,316.5,301.3,291.7,304.2,8.178,7.552,7.876,8.339,7.914,8.235,8.101,4.879,-4.323,-7.525,1.71,-1.534,7.906,4.777,-4.457,-7.976,322.5,312.1,-7.575,323.9,321.8,311.6,313.9,303.8,36,,4,5,prime,10,0,74,norm,36,-4.685,up,norm,311.746912563,308.5,293.2,293.2,318.0,3,311.3,306.5,320.4,10,5,8.407,5.08,1.799,-1.314,-5.22,-8.008,310.5,5,385.7,-7.549,-7.655,20,-7.614,-8.293,-4.99,-5.24,-4.335,-4.808,4.765,7.709,27,-1.49,1.676,5.145,7.701,-7.759,-7.9,-1.603,1.435,312.7,311.1,309.2,298.1,323.7,315.2,315.8,309.6,309.6,331.7,4,norm,1.717,1.136,-1.517,-1.547,-4.484,-5.041,-1.828,-1.493,-1.847,-1.877,1.461,-1.141,312.3,296.2,-4.629,-7.725,1.397,-1.854,8.427,5.273,-4.663,-8.379,10,5.199,4.953,4.514,4.356,1.562,1.268,1.673,1.189,10,4.371,5.077,40,87.9939344144,norm,0,41,41,41,460.347,460.368,460.379246104,460.379,460.381,460.384,up,1,1.51578186083,8.48421813917,001,017,1920_1200,Intel(R) Core(TM) i5-3570 CPU @ 3.40GHz,orientation_search,LEPPC096,Intel(R) HD Graphics 2500,2018_Nov_28_1538,testMonitor,
408.2,399.3,401.3,398.8,36,-60,391.5,394.2,396.0,408.0,7.813,7.542,7.86,8.412,8.414,7.612,7.678,5.286,-4.931,-7.694,1.996,-2.018,7.772,4.691,-4.464,-7.933,403.2,397.2,-7.559,,401.8,393.5,392.6,400.5,36,397.7,5,5,probe,5,0,65,norm,36,-4.612,down,norm,398.202870337,407.9,388.2,408.0,394.9,1,390.2,392.7,393.1,10,5,8.048,5.255,1.541,-1.59,-5.286,-7.745,395.4,2,333.2,-7.8,-7.571,20,-7.943,-7.774,-4.762,-4.734,-4.863,-4.494,4.658,8.412,31,-1.666,1.73,4.555,7.95,-7.873,-7.743,-1.424,1.406,397.7,402.9,400.4,391.7,401.3,400.5,402.1,398.7,395.6,398.2,0,norm,2.074,1.219,-2.001,-1.522,-4.911,-4.57,-1.446,-1.841,-1.206,-1.759,1.714,-1.506,398.8,396.9,-4.94,-8.413,1.491,-1.243,7.945,5.18,-4.58,-7.737,11,4.894,4.44,4.43,4.348,1.441,1.665,1.902,1.12,11,4.564,4.928,20,311.746912563,norm,0,42,42,42,461.933,461.942,461.952601142,461.953,461.954,461.957,down,1,2.92258800243,7.07741199757,001,017,1920_1200,Intel(R) Core(TM) i5-3570 CPU @ 3.40GHz,orientation_search,LEPPC096,Intel(R) HD Graphics 2500,2018_Nov_28_1538,testMonitor,
417.6,418.3,417.2,414.5,36,-60,416.5,423.5,419.8,417.6,8.205,8.205,7.698,7.501,8.199,8.341,8.167,5.053,-4.452,-8.337,1.595,-1.473,7.824,4.807,-4.914,-7.596,424.3,418.6,-8.197,422.4,417.1,417.5,419.8,415.0,36,409.2,1,5,probe,5,0,86,norm,36,-4.556,up,norm,419.202870337,411.2,417.0,421.6,425.0,4,419.4,416.9,420.1,10,5,8.376,4.834,1.172,-1.299,-4.542,-8.242,,2,333.2,-7.734,-7.508,20,-8.112,-8.402,-5.207,-4.946,-4.634,-4.905,4.862,7.824,10,-1.921,1.595,5.19,7.845,-7.655,-8.483,-2.015,1.497,426.8,410.6,422.4,417.0,429.2,419.1,424.3,420.3,418.4,419.9,1,norm,1.249,1.371,-1.166,-2.034,-4.941,-4.583,-2.044,-1.11,-2.089,-1.675,1.436,-1.547,422.7,416.4,-4.621,-8.423,1.632,-1.411,8.43,4.627,-5.067,-8.087,11,4.615,5.172,4.556,4.802,1.7,1.549,1.904,1.355,11,4.515,4.682,20,311.746912563,norm,0,43,43,43,464.917,464.927,464.933119103,464.933,464.935,464.938,up,1,1.14565240819,8.85434759181,001,017,1920_1200,Intel(R) Core(TM) i5-3570 CPU @ 3.40GHz,orientation_search,LEPPC096,Intel(R) HD Graphics 2500,2018_Nov_28_1538,testMonitor,
68.2,,59.1,72.5,36,30,61.9,34.8,66.9,59.3,8.126,8.224,8.409,7.676,7.652,7.533,8.371,4.406,-4.701,-8.046,1.435,-1.13,8.315,4.368,-4.84,-7.544,55.1,57.1,-7.691,45.4,59.8,56.3,70.1,43.0,36,65.9,3,5,prime,10,0,66,norm,36,-4.711,up,norm,54.8288634129,64.3,73.7,69.7,39.4,5,70.5,45.4,42.1,10,6,8.048,4.663,1.489,-1.798,-4.457,-7.515,63.9,6,120.8,-8.255,-7.62,30,-7.932,-8.028,-4.383,-5.24,-5.032,-4.354,4.822,7.6,23,-1.689,1.854,4.304,8.306,-8.462,-7.984,-1.482,1.979,41.7,47.5,57.5,49.4,51.5,56.9,65.4,74.8,54.8,35.8,0,norm,1.329,1.797,-1.81,-1.63,-4.93,-5.217,-1.815,-1.555,-2.069,-1.383,1.208,-1.288,57.3,60.7,-4.441,-7.571,2.048,-1.666,7.629,4.744,-4.323,-7.599,12,4.63,4.703,4.547,5.255,1.293,1.874,2.098,1.43,12,5.077,4.358,-60,311.746912563,norm,0,44,44,44,466.103,466.112,466.118762468,466.119,466.121,466.123,up,1,1.28125546154,8.71874453846,001,017,1920_1200,Intel(R) Core(TM) i5-3570 CPU @ 3.40GHz,orientation_search,LEPPC096,Intel(R) HD Graphics 2500,2018_Nov_28_1538,testMonitor,
55.2,,56.1,61.6,36,30,44.6,41.2,52.7,34.8,7.87,8.289,7.809,7.862,7.519,7.523,8.013,4.41,-5.129,-7.518,1.505,-1.419,7.744,4.581,-4.62,-8.203,52.7,41.6,-7.588,64.1,58.2,57.3,62.8,51.1,36,74.3,3,5,prime,10,0,118,norm,36,-4.926,up,norm,54.8288634129,56.2,58.6,42.5,64.4,5,53.8,59.9,49.2,10,6,8.466,4.904,1.601,-1.426,-4.638,-7.558,49.2,6,172.8,-8.126,-8.073,30,-7.819,-8.066,-4.891,-5.163,-5.291,-4.916,4.996,7.686,23,-1.708,1.955,4.54,8.422,-8.016,-8.08,-1.701,1.519,53.0,53.3,40.2,74.8,52.9,65.1,69.4,55.4,54.9,52.1,1,norm,1.133,1.777,-1.988,-2.017,-4.88,-4.804,-1.579,-1.153,-1.736,-1.939,1.478,-1.71,60.8,42.2,-4.351,-7.846,1.832,-1.248,7.901,4.486,-4.677,-7.682,12,5.037,4.814,4.914,4.639,1.257,1.535,1.207,1.786,12,4.431,4.498,-60,311.746912563,norm,0,45,45,45,467.444,467.454,467.460113935,467.46,467.462,467.465,up,1,1.87014861984,8.12985138016,001,017,1920_1200,Intel(R) Core(TM) i5-3570 CPU @ 3.40GHz,orientation_search,LEPPC096,Intel(R) HD Graphics 2500,2018_Nov_28_1538,testMonitor,
41.9,53.6,60.1,48.3,36,30,42.4,,56.6,67.6,8.229,7.875,8.393,8.255,7.96,7.516,7.999,5.1,-4.506,-8.256,1.861,-1.366,8.074,5.079,-4.84,-8.388,52.3,47.7,-7.843,64.0,65.1,58.3,51.4,51.4,36,69.1,4,5,prime,10,0,74,norm,36,-4.824,down,norm,54.8288634129,74.8,49.9,54.5,48.3,1,41.5,58.0,45.1,10,6,7.8,4.767,1.792,-1.653,-4.796,-8.09,60.9,6,128.8,-7.522,-7.954,30,-8.301,-7.875,-4.905,-5.208,-4.44,-4.485,4.768,7.794,25,-1.677,1.215,5.155,7.558,-8.311,-7.952,-1.966,1.855,53.7,48.9,38.0,50.2,61.1,49.9,58.9,49.4,73.5,42.2,2,norm,2.077,1.447,-1.546,-1.755,-4.45,-4.569,-1.189,-1.132,-1.202,-1.993,1.504,-1.926,60.1,65.8,-5.053,-8.281,2.017,-1.259,8.13,5.202,-4.969,-8.15,12,4.994,5.172,4.897,5.111,1.859,1.636,2.052,2.083,12,4.646,4.753,-60,311.746912563,norm,0,46,46,46,469.368,469.38,469.399955146,469.4,469.402,469.404,down,1,1.1551355001,8.8448644999,001,017,1920_1200,Intel(R) Core(TM) i5-3570 CPU @ 3.40GHz,orientation_search,LEPPC096,Intel(R) HD Graphics 2500,2018_Nov_28_1538,testMonitor,
74.8,39.7,61.1,45.8,36,30,67.4,57.0,62.7,60.8,7.625,8.313,7.887,8.105,7.73,8.114,8.175,5.262,-5.025,-7.689,1.92,-1.529,7.842,4.337,-5.139,-7.741,49.6,53.0,-7.964,51.9,64.7,44.3,57.2,58.6,36,50.8,1,5,prime,10,0,103,norm,36,-5.163,up,norm,54.8288634129,43.9,58.7,48.2,69.6,3,48.0,55.4,65.3,10,6,8.497,4.521,1.471,-1.571,-4.638,-7.752,38.3,6,157.8,-8.195,-8.06,30,-7.622,-8.449,-4.391,-5.023,-4.849,-4.433,4.677,7.685,9,-2.028,1.362,4.634,8.42,-7.656,-7.838,-1.691,2.085,,65.8,64.3,57.1,63.1,34.8,57.7,44.3,70.8,45.6,3,norm,1.748,1.219,-1.742,-1.903,-4.321,-4.742,-1.313,-1.356,-2.055,-1.373,1.245,-1.502,43.9,73.0,-4.784,-7.986,1.925,-1.341,8.304,4.431,-5.26,-7.757,12,4.429,4.522,4.752,4.371,1.481,1.642,1.953,1.246,12,4.878,4.848,-60,311.746912563,norm,0,47,47,47,470.595,470.605,470.625848149,470.626,470.628,470.63,up,1,1.26391109554,8.73608890446,001,017,1920_1200,Intel(R) Core(TM) i5-3570 CPU @ 3.40GHz,orientation_search,LEPPC096,Intel(R) HD Graphics 2500,2018_Nov_28_1538,testMonitor,
59.2,70.6,49.4,34.8,36,30,56.0,47.9,63.3,55.0,7.622,7.743,8.231,7.965,8.091,8.16,8.474,4.359,-4.93,-8.132,1.862,-1.329,8.387,4.935,-4.793,-7.875,66.7,36.4,-8.415,58.0,46.8,56.6,52.4,38.0,36,74.8,2,5,prime,10,0,118,norm,36,-4.481,down,norm,54.8288634129,72.2,51.4,46.4,,2,43.0,60.6,74.6,10,6,8.493,4.943,1.622,-1.766,-4.321,-8.109,39.6,6,172.8,-8.192,-7.717,30,-8.149,-8.132,-4.476,-4.479,-4.637,-4.811,4.856,7.864,14,-1.283,1.542,5.123,8.144,-7.745,-8.444,-1.494,1.598,45.5,61.0,48.5,50.2,60.7,49.2,55.5,45.8,47.2,60.9,4,norm,1.9,1.565,-1.446,-1.803,-4.895,-5.116,-1.516,-1.601,-2.062,-1.37,1.323,-2.036,43.3,59.9,-4.964,-8.26,1.523,-1.374,7.946,4.828,-4.317,-7.6,12,4.62,4.98,4.767,4.972,1.94,1.547,1.886,1.95,12,4.741,4.935,-60,311.746912563,norm,0,48,48,48,471.937,471.947,471.952768063,471.953,471.955,471.957,down,1,1.54884666202,8.45115333798,001,017,1920_1200,Intel(R) Core(TM) i5-3570 CPU @ 3.40GHz,orientation_search,LEPPC096,Intel(R) HD Graphics 2500,2018_Nov_28_1538,testMonitor,
53.1,45.6,48.1,74.8,36,30,37.6,62.2,50.1,54.1,7.578,7.516,7.755,8.119,8.072,8.222,8.215,5.027,-5.267,-7.844,1.437,-1.516,7.657,4.819,-4.841,-7.658,63.2,64.6,-8.209,44.8,62.7,67.2,49.6,62.7,36,47.5,0,5,prime,10,0,117,norm,36,-4.387,down,norm,54.8288634129,57.4,66.3,52.0,53.6,2,47.2,52.7,39.8,10,6,7.973,4.966,2.099,-1.647,-4.671,-8.277,64.6,6,171.8,-7.966,-8.343,30,-7.714,-7.718,-4.601,-4.88,-5.037,-5.099,4.761,7.592,2,-1.527,1.274,4.788,8.233,-8.234,-7.883,-1.581,1.935,67.5,49.0,64.3,,59.2,37.3,46.7,47.7,60.1,57.4,5,norm,1.663,1.454,-1.692,-1.598,-4.423,-4.779,-2.045,-1.887,-1.336,-2.087,1.301,-1.46,34.8,61.8,-4.441,-7.91,1.934,-1.778,7.596,4.958,-4.808,-7.558,12,4.501,4.928,4.819,5.089,1.448,1.52,1.669,1.244,12,4.324,4.63,-60,311.746912563,norm,0,49,49,49,473.539,473.549,473.558426043,473.559,473.56,473.563,down,1,1.09207899065,8.90792100935,001,017,1920_1200,Intel(R) Core(TM) i5-3570 CPU @ 3.40GHz,orientation_search,LEPPC096,Intel(R) HD Graphics 2500,2018_Nov_28_1538,testMonitor,
172.0,186.5,183.4,173.8,36,-10,171.3,179.2,177.5,179.0,7.517,8.378,7.541,8.247,7.69,8.237,7.703,4.322,-4.352,-7.637,1.128,-1.473,8.279,4.636,-4.767,-8.028,179.5,178.4,-8.272,166.9,182.3,177.0,179.9,186.9,36,175.2,1,5,probe,5,0,96,norm,36,-5.025,up,norm,176.864010309,177.2,175.0,179.7,175.5,5,,176.4,183.5,10,6,7.704,5.096,2.093,-1.307,-4.472,-8.07,185.6,2,80.9,-8.009,-8.386,30,-8.181,-7.833,-5.086,-4.99,-5.198,-4.795,4.597,7.959,11,-1.742,1.71,4.678,7.73,-8.384,-7.5,-1.276,1.444,172.4,180.8,176.7,186.5,173.1,180.5,181.2,176.8,182.3,170.5,0,norm,1.896,1.532,-1.801,-1.874,-5.137,-5.238,-1.516,-1.121,-1.162,-1.982,1.263,-1.179,172.4,176.1,-5.112,-7.874,1.799,-1.572,7.858,4.934,-4.888,-7.789,13,4.303,4.733,4.733,4.43,1.552,1.369,1.335,1.565,13,4.631,4.952,30,54.8288634129,norm,0,50,50,50,474.688,474.697,474.712956946,474.713,474.715,474.717,down,0,0.942532770656,-10,001,017,1920_1200,Intel(R) Core(TM) i5-3570 CPU @ 3.40GHz,orientation_search,LEPPC096,Intel(R) HD Graphics 2500,2018_Nov_28_1538,testMonitor,
184.6,186.9,193.1,196.0,36,-10,193.9,197.1,185.7,188.3,8.063,7.943,8.151,7.604,7.843,8.178,8.15,4.417,-4.879,-7.636,2.03,-2.018,8.27,4.919,-5.182,-8.165,197.9,182.8,-7.54,187.0,189.4,185.4,184.4,197.7,36,,4,5,probe,5,0,107,norm,36,-4.412,up,norm,187.864010309,179.7,187.7,187.1,177.9,3,185.5,184.9,195.0,10,6,7.954,4.444,1.725,-1.398,-5.056,-7.833,190.3,2,80.9,-7.553,-7.896,30,-8.048,-8.01,-5.214,-4.61,-4.929,-5.277,5.171,8.002,27,-1.629,1.309,4.907,8.161,-8.215,-7.9,-1.138,2.01,192.7,188.9,185.2,189.8,192.3,184.4,196.1,183.1,180.9,192.4,1,norm,1.487,1.313,-1.919,-1.308,-4.636,-4.672,-1.282,-1.954,-1.341,-1.654,1.558,-1.151,185.8,187.9,-4.951,-8.113,1.909,-1.104,7.991,4.914,-4.305,-8.454,13,5.174,4.359,5.128,4.365,2.002,1.393,1.727,1.862,13,4.802,5.211,30,54.8288634129,norm,0,51,51,51,476.726,476.735,476.742291837,476.742,476.744,476.747,up,1,1.07612251199,8.92387748801,001,017,1920_1200,Intel(R) Core(TM) i5-3570 CPU @ 3.40GHz,orientation_search,LEPPC096,Intel(R) HD Graphics 2500,2018_Nov_28_1538,testMonitor,
262.7,,266.2,244.3,36,-30,258.3,245.5,250.2,257.1,7.587,7.606,7.647,7.928,7.994,7.576,7.505,5.129,-5.002,-7.956,1.826,-1.638,8.251,5.067,-4.879,-7.66,228.9,245.5,-8.44,228.3,252.2,248.4,236.6,250.1,36,241.6,3,5,prime,10,0,82,norm,36,-5.062,up,norm,248.259954597,251.7,245.6,241.7,250.9,5,255.6,251.7,241.1,10,5,7.715,4.685,1.753,-1.476,-5.02,-8.06,256.1,5,330.3,-7.885,-8.409,-30,-8.157,-7.538,-4.49,-4.39,-4.635,-4.359,4.503,7.71,23,-1.613,1.412,5.097,8.308,-8.076,-7.525,-1.549,1.746,253.3,259.1,248.5,246.0,239.2,250.5,268.3,246.8,244.6,242.0,0,norm,1.33,1.933,-1.798,-1.544,-5.024,-4.886,-1.236,-1.605,-1.9,-1.388,1.356,-1.252,237.2,250.6,-4.597,-8.232,1.116,-1.835,8.283,4.545,-4.926,-8.114,14,4.782,4.944,4.8,5.116,1.251,1.61,1.755,1.803,14,5.134,4.485,-10,54.8288634129,norm,0,52,52,52,477.856,477.868,477.887970506,477.888,477.89,477.892,up,1,2.03364826925,7.96635173075,001,017,1920_1200,Intel(R) Core(TM) i5-3570 CPU @ 3.40GHz,orientation_search,LEPPC096,Intel(R) HD Graphics 2500,2018_Nov_28_1538,testMonitor,
254.9,254.6,228.3,257.0,36,-30,263.5,239.2,246.0,259.9,7.836,8.016,7.663,8.01,8.478,8.359,7.913,4.383,-5.179,-7.525,1.939,-1.515,7.67,4.33,-4.717,-8.066,233.7,255.2,-7.918,260.4,243.4,244.1,241.7,238.9,36,245.6,1,5,prime,10,0,101,norm,36,-4.717,up,norm,248.259954597,248.5,251.4,257.8,253.0,4,249.9,268.3,261.7,10,5,7.947,4.482,1.54,-1.203,-5.157,-7.611,,5,349.3,-8.218,-8.135,-30,-7.572,-8.004,-4.469,-5.057,-5.282,-4.718,4.536,7.723,10,-1.943,1.529,4.445,7.888,-7.826,-8.227,-1.183,1.652,245.1,258.0,246.0,253.3,233.8,252.3,261.5,248.7,243.7,248.9,1,norm,1.812,1.746,-1.554,-1.487,-5.05,-5.279,-1.75,-1.225,-2.053,-1.262,1.297,-2.021,252.3,247.1,-4.35,-8.018,1.345,-1.519,7.85,4.608,-4.555,-7.648,14,4.818,4.732,4.819,5.299,1.97,1.918,1.756,1.978,14,4.893,4.409,-10,54.8288634129,norm,0,53,53,53,479.958,479.97,479.990748424,479.991,479.993,479.997,down,0,1.20217063409,-10,001,017,1920_1200,Intel(R) Core(TM) i5-3570 CPU @ 3.40GHz,orientation_search,LEPPC096,Intel(R) HD Graphics 2500,2018_Nov_28_1538,testMonitor,
237.0,252.7,242.5,261.3,36,-30,238.5,250.1,259.4,235.6,7.572,7.861,7.76,7.685,7.965,8.436,7.633,4.871,-4.657,-8.142,2.009,-1.715,8.4,4.453,-5.014,-7.807,254.9,251.2,-8.16,243.7,248.6,249.1,242.6,237.8,36,245.6,0,5,prime,10,0,102,norm,36,-4.881,down,norm,248.259954597,238.5,245.4,266.0,246.4,2,238.0,251.6,247.2,10,5,8.157,4.957,1.106,-2.095,-4.521,-8.293,243.2,5,350.3,-7.549,-7.862,-30,-7.815,-8.103,-4.399,-5.031,-5.016,-5.192,4.391,7.724,2,-1.26,1.945,4.946,7.751,-8.064,-8.179,-1.71,1.948,268.3,242.8,251.9,,246.1,235.8,244.7,245.6,241.5,265.9,2,norm,1.288,2.016,-1.973,-1.373,-4.652,-4.554,-1.677,-2.05,-1.9,-1.196,1.911,-1.779,228.3,245.6,-4.86,-7.877,1.243,-1.851,8.017,4.905,-4.676,-7.671,14,5.191,4.656,4.801,5.054,1.171,1.774,1.936,1.719,14,5.273,4.802,-10,54.8288634129,norm,0,54,54,54,482.251,482.26,482.278765535,482.279,482.281,482.283,down,1,2.90566410773,7.09433589227,001,017,1920_1200,Intel(R) Core(TM) i5-3570 CPU @ 3.40GHz,orientation_search,LEPPC096,Intel(R) HD Graphics 2500,2018_Nov_28_1538,testMonitor,
238.4,257.1,244.4,256.5,36,-30,228.7,260.9,242.8,233.3,7.688,8.443,7.674,7.85,8.325,8.374,8.398,4.613,-4.634,-8.051,1.884,-1.865,8.096,5.196,-5.245,-8.369,268.3,252.5,-7.892,254.4,247.1,256.5,245.9,247.2,36,242.4,2,5,prime,10,0,60,norm,36,-4.975,up,norm,248.259954597,,244.4,238.5,256.6,5,231.8,244.9,264.1,10,5,8.327,4.79,1.222,-1.65,-4.524,-7.679,262.2,5,308.3,-8.239,-7.732,-30,-7.536,-7.988,-4.936,-5.252,-5.162,-5.032,4.578,8.171,17,-1.949,1.716,4.915,8.08,-7.858,-7.848,-1.144,1.954,257.9,258.5,258.9,255.7,260.6,265.0,248.1,228.3,257.2,256.0,3,norm,1.676,1.77,-1.218,-2.096,-4.385,-5.116,-1.825,-1.405,-1.65,-1.516,1.269,-1.221,241.8,247.9,-5.03,-8.07,1.358,-1.735,8.25,4.968,-4.831,-7.775,14,4.928,4.421,5.004,5.117,1.528,2.064,1.374,1.564,14,4.919,4.686,-10,54.8288634129,norm,0,55,55,55,485.227,485.237,485.243302568,485.243,485.245,485.248,up,1,1.16136891936,8.83863108064,001,017,1920_1200,Intel(R) Core(TM) i5-3570 CPU @ 3.40GHz,orientation_search,LEPPC096,Intel(R) HD Graphics 2500,2018_Nov_28_1538,testMonitor,
255.1,249.2,248.9,253.9,36,-30,242.5,267.0,246.6,238.8,8.396,7.765,8.437,7.734,8.01,7.527,7.599,4.353,-4.39,-7.898,1.562,-1.385,8.405,5.046,-4.655,-7.882,248.7,240.3,-7.922,246.2,255.1,268.3,,238.5,36,228.3,5,5,prime,10,0,111,norm,36,-4.507,down,norm,248.259954597,247.6,247.9,246.9,245.6,2,238.3,255.6,248.3,10,5,7.966,4.614,1.472,-1.849,-4.99,-7.912,247.0,5,359.3,-7.755,-8.063,-30,-8.23,-8.031,-5.067,-4.898,-4.72,-4.347,4.452,7.5,32,-1.653,1.556,4.436,7.693,-8.207,-8.357,-1.997,1.563,252.7,247.5,230.7,238.8,258.6,267.3,240.7,236.9,243.8,242.0,4,norm,2.025,1.937,-1.44,-1.961,-4.945,-4.392,-1.317,-1.295,-1.914,-1.691,1.496,-1.16,236.8,248.1,-4.847,-7.931,1.746,-1.827,8.057,4.726,-4.71,-8.365,14,4.321,4.589,4.977,4.67,1.973,1.329,1.735,1.653,14,4.771,4.497,-10,54.8288634129,norm,0,56,56,56,486.429,486.439,486.444589096,486.445,486.446,486.449,down,1,4.54578926507,5.45421073493,001,017,1920_1200,Intel(R) Core(TM) i5-3570 CPU @ 3.40GHz,orientation_search,LEPPC096,Intel(R) HD Graphics 2500,2018_Nov_28_1538,testMonitor,
334.8,340.8,341.9,338.4,36,10,337.9,332.8,330.5,,7.779,8.134,8.17,8.128,7.728,8.475,8.196,4.669,-5.23,-8.458,1.438,-1.673,7.742,4.441,-4.483,-7.571,340.6,335.6,-8.274,343.4,336.8,337.1,333.8,335.6,36,332.7,4,5,probe,5,0,116,norm,36,-4.752,up,norm,338.171657545,335.2,337.5,338.6,341.3,5,348.2,347.6,328.2,10,5,7.984,4.631,1.63,-1.325,-4.625,-8.267,335.4,1,222.2,-7.614,-8.008,-30,-8.415,-8.322,-4.823,-4.42,-4.98,-5.287,5.083,7.901,29,-1.657,1.165,5.065,8.343,-8.189,-7.926,-1.373,1.419,339.3,336.4,336.5,344.6,336.7,335.8,341.7,331.2,341.9,341.2,0,norm,1.939,1.558,-1.288,-1.809,-4.594,-4.489,-1.609,-1.454,-1.364,-1.161,1.139,-1.498,340.5,340.1,-4.502,-7.623,1.307,-1.419,7.513,4.853,-4.331,-8.243,15,4.595,4.818,4.881,4.57,2.028,1.678,1.993,1.195,15,4.79,4.357,-30,248.259954597,norm,0,57,57,57,491.015,491.025,491.030791902,491.031,491.033,491.035,up,1,2.86640905126,7.13359094874,001,017,1920_1200,Intel(R) Core(TM) i5-3570 CPU @ 3.40GHz,orientation_search,LEPPC096,Intel(R) HD Graphics 2500,2018_Nov_28_1538,testMonitor,
46.4,62.8,51.4,68.5,36,40,64.8,,56.0,58.0,7.779,8.363,8.372,7.7,8.409,7.695,8.281,4.822,-4.673,-7.838,1.265,-1.716,7.698,4.957,-4.539,-7.712,67.7,70.9,-7.788,57.6,51.5,65.8,51.0,60.9,36,55.2,4,5,prime,10,0,102,norm,36,-4.887,down,norm,59.924998277,50.6,53.1,61.0,47.9,1,67.3,67.3,59.4,10,6,7.684,5.232,1.638,-1.729,-5.008,-7.841,52.0,6,161.9,-8.22,-7.863,40,-7.737,-8.276,-4.536,-4.63,-4.428,-4.553,4.831,8.288,25,-2.036,1.471,4.579,8.016,-8.499,-8.01,-2.055,1.632,70.5,48.6,69.4,39.9,79.9,70.7,62.3,55.0,59.6,75.4,0,norm,1.708,1.773,-1.948,-1.397,-4.305,-4.488,-1.184,-1.861,-1.382,-1.592,1.813,-1.8,74.4,44.1,-4.604,-7.755,1.629,-1.27,8.306,4.824,-4.469,-7.971,16,4.559,4.581,4.383,4.857,1.972,1.919,1.73,1.358,16,4.956,5.067,10,248.259954597,norm,0,58,58,58,493.932,493.941,493.947823223,493.948,493.95,493.952,down,1,2.7155872306,7.2844127694,001,017,1920_1200,Intel(R) Core(TM) i5-3570 CPU @ 3.40GHz,orientation_search,LEPPC096,Intel(R) HD Graphics 2500,2018_Nov_28_1538,testMonitor,
65.3,64.5,51.6,58.4,36,40,44.4,46.4,62.5,58.9,7.915,7.993,7.658,7.832,7.547,7.559,8.197,5.247,-5.094,-8.099,1.62,-1.607,7.751,4.585,-5.046,-8.028,55.6,,-7.993,79.9,39.9,45.5,67.5,71.2,36,56.5,5,5,prime,10,0,87,norm,36,-5.041,up,norm,59.924998277,46.5,52.4,68.3,43.1,4,65.3,59.0,58.3,10,6,7.982,4.771,1.757,-1.592,-4.39,-7.975,76.4,6,146.9,-7.839,-7.705,40,-7.519,-7.759,-4.868,-5.126,-4.782,-5.171,5.287,7.853,34,-1.986,1.353,4.615,8.294,-7.92,-7.904,-1.409,1.676,55.5,63.3,52.4,48.3,59.4,61.4,66.7,60.2,62.3,47.5,1,norm,1.185,1.823,-1.818,-1.775,-5.205,-4.604,-1.366,-2.089,-2.026,-1.99,2.054,-1.236,75.5,65.6,-4.844,-8.494,1.289,-2.069,8.435,4.532,-4.458,-7.642,16,5.006,4.436,4.868,4.467,1.598,2.057,1.132,1.977,16,4.696,5.017,10,248.259954597,norm,0,59,59,59,496.701,496.713,496.733047505,496.733,496.735,496.737,up,1,1.67739044578,8.32260955422,001,017,1920_1200,Intel(R) Core(TM) i5-3570 CPU @ 3.40GHz,orientation_search,LEPPC096,Intel(R) HD Graphics 2500,2018_Nov_28_1538,testMonitor,
49.2,77.2,57.8,59.0,36,40,44.7,66.0,67.8,57.4,7.925,7.754,8.464,8.126,8.484,7.722,8.443,4.993,-5.117,-7.788,1.989,-1.684,8.119,5.271,-5.265,-7.91,54.8,54.8,-8.437,62.1,62.2,,68.6,76.9,36,62.4,5,5,prime,10,0,99,norm,36,-4.395,up,norm,59.924998277,56.1,59.4,62.0,65.2,3,58.9,71.9,59.2,10,6,7.519,4.473,1.126,-1.674,-4.345,-7.631,53.6,6,158.9,-7.983,-8.451,40,-7.98,-8.138,-4.992,-4.306,-5.051,-4.934,5.222,7.809,33,-2.098,2.094,5.174,7.603,-8.429,-7.577,-1.709,1.266,66.4,58.5,60.4,72.9,64.6,39.9,71.4,53.5,51.4,63.7,2,norm,1.104,2.021,-1.834,-1.529,-4.973,-5.271,-1.473,-1.108,-2.067,-1.508,1.988,-1.215,56.4,49.5,-4.744,-7.662,2.085,-1.298,8.44,4.319,-4.736,-8.114,16,5.127,4.401,5.21,5.115,1.191,1.827,1.737,1.712,16,4.7,4.487,10,248.259954597,norm,0,60,60,60,498.456,498.465,498.473473331,498.474,498.475,498.478,up,1,1.70080523426,8.29919476574,001,017,1920_1200,Intel(R) Core(TM) i5-3570 CPU @ 3.40GHz,orientation_search,LEPPC096,Intel(R) HD Graphics 2500,2018_Nov_28_1538,testMonitor,
53.4,46.6,,70.4,36,40,55.8,57.2,62.9,61.2,8.187,7.674,8.367,7.708,7.784,7.832,8.136,5.067,-4.478,-8.228,1.118,-1.57,7.718,4.597,-4.633,-7.62,63.3,67.2,-7.788,63.1,41.6,77.2,63.3,63.2,36,79.1,3,5,prime,10,0,104,norm,36,-5.088,down,norm,59.924998277,68.3,39.9,56.7,46.9,2,70.1,44.7,56.6,10,6,8.209,5.289,1.168,-1.506,-4.712,-7.936,55.5,6,163.9,-7.588,-8.131,40,-7.52,-7.87,-4.575,-4.43,-4.499,-4.523,4.308,8.374,20,-1.718,1.328,4.998,7.556,-7.92,-8.45,-1.335,1.908,64.4,69.8,79.9,62.9,53.1,50.1,55.5,50.4,55.5,70.1,3,norm,1.136,2.012,-1.205,-1.537,-4.471,-4.593,-1.671,-1.82,-1.833,-1.245,1.168,-1.319,68.7,50.5,-4.911,-8.437,1.686,-1.197,7.706,4.442,-5.259,-7.672,16,4.385,5.225,4.866,4.801,1.665,1.678,1.924,2.02,16,5.076,5.152,10,248.259954597,norm,0,61,61,61,500.211,500.222,500.233271626,500.233,500.235,500.238,down,1,1.36883906153,8.63116093847,001,017,1920_1200,Intel(R) Core(TM) i5-3570 CPU @ 3.40GHz,orientation_search,LEPPC096,Intel(R) HD Graphics 2500,2018_Nov_28_1538,testMonitor,
59.6,74.8,47.7,52.5,36,40,55.6,57.2,72.1,60.8,8.059,7.685,8.17,7.688,7.769,7.707,7.565,4.886,-4.532,-7.574,1.651,-2.027,8.459,4.634,-4.56,-8.11,79.9,65.1,-7.96,47.1,53.4,43.7,68.6,57.6,36,54.0,2,5,prime,10,0,117,norm,36,-4.356,down,norm,59.924998277,51.6,42.7,57.4,61.1,0,64.8,54.0,,10,6,8.397,4.746,1.564,-1.362,-4.457,-8.173,54.0,6,176.9,-8.365,-8.076,40,-8.05,-7.559,-4.418,-4.487,-4.764,-5.021,4.971,8.146,12,-1.507,1.578,5.062,8.119,-7.625,-7.625,-1.755,1.266,65.0,68.9,43.5,39.9,58.9,40.2,63.7,70.8,72.0,50.0,4,norm,1.242,1.431,-1.96,-1.854,-4.9,-5.122,-1.386,-1.981,-1.199,-2.082,1.188,-1.368,79.5,44.9,-4.943,-8.395,1.691,-1.717,8.149,4.895,-5.147,-8.067,16,5.265,4.922,4.956,5.234,1.276,1.14,1.78,1.61,16,4.468,4.491,10,248.259954597,norm,0,62,62,62,501.625,501.634,501.640808235,501.641,501.643,501.645,down,1,2.56842348012,7.43157651988,001,017,1920_1200,Intel(R) Core(TM) i5-3570 CPU @ 3.40GHz,orientation_search,LEPPC096,Intel(R) HD Graphics 2500,2018_Nov_28_1538,testMonitor,
77.3,66.0,71.5,61.3,36,40,58.7,65.2,60.4,72.7,7.951,8.304,7.637,7.605,7.935,8.018,8.194,4.85,-4.373,-8.174,1.44,-1.962,7.585,5.181,-4.778,-7.666,67.1,52.7,-8.112,68.4,73.3,51.8,79.9,41.9,36,72.9,2,5,prime,10,0,78,norm,36,-4.317,up,norm,59.924998277,53.3,67.5,,45.8,3,57.6,43.4,74.5,10,6,7.892,4.689,1.942,-1.364,-4.918,-7.98,66.7,6,137.9,-8.052,-8.491,40,-7.749,-8.076,-4.404,-4.479,-4.326,-4.638,4.422,8.317,15,-1.131,2.018,4.58,8.361,-8.133,-8.01,-1.302,1.932,58.1,49.3,64.1,76.2,57.4,66.0,60.8,52.9,70.1,62.1,5,norm,1.936,2.031,-1.905,-1.437,-5.087,-4.6,-1.348,-1.378,-1.635,-1.217,1.718,-1.535,66.4,39.9,-4.433,-7.541,1.377,-1.295,8.493,5.213,-4.84,-8.091,16,4.983,4.85,4.46,4.837,1.38,1.75,1.595,1.818,16,4.635,4.306,10,248.259954597,norm,0,63,63,63,504.246,504.255,504.273439162,504.274,504.275,504.278,up,1,1.09223866713,8.90776133287,001,017,1920_1200,Intel(R) Core(TM) i5-3570 CPU @ 3.40GHz,orientation_search,LEPPC096,Intel(R) HD Graphics 2500,2018_Nov_28_1538,testMonitor,
216.1,217.2,215.3,210.1,36,-40,209.2,219.1,219.5,210.8,8.468,8.014,7.894,7.549,8.318,8.342,8.13,4.774,-5.249,-8.496,1.638,-1.905,8.41,5.178,-4.967,-7.714,216.6,217.2,-7.617,209.9,212.1,215.4,212.1,,36,214.7,4,5,probe,5,0,108,norm,36,-4.676,down,norm,213.571698599,211.4,205.3,218.9,210.2,2,223.6,211.1,203.6,10,6,8.283,4.359,1.311,-1.603,-4.517,-8.148,211.3,2,105.6,-7.743,-8.5,40,-8.089,-8.169,-5.268,-4.608,-4.494,-4.355,4.439,8.107,26,-1.957,1.454,4.92,7.929,-8.295,-7.749,-2.006,1.942,211.1,220.4,214.4,211.6,208.5,206.1,206.0,212.8,215.2,215.0,0,norm,1.826,1.275,-1.822,-1.319,-4.909,-4.373,-1.771,-1.521,-1.209,-2.012,1.554,-1.813,204.5,219.7,-4.966,-8.226,1.875,-1.644,8.212,4.706,-4.886,-7.857,17,5.011,4.76,4.34,5.22,1.343,1.231,1.382,1.748,17,4.725,4.826,40,59.924998277,norm,0,64,64,64,505.403,505.415,505.435219498,505.435,505.437,505.44,down,1,4.30332160258,5.69667839742,001,017,1920_1200,Intel(R) Core(TM) i5-3570 CPU @ 3.40GHz,orientation_search,LEPPC096,Intel(R) HD Graphics 2500,2018_Nov_28_1538,testMonitor,
177.7,184.0,173.3,173.2,36,-40,181.6,181.5,172.9,179.9,7.501,8.334,7.747,7.984,7.822,7.797,7.837,5.081,-5.141,-7.582,1.494,-1.117,8.406,4.509,-4.866,-7.773,174.3,170.0,-7.851,180.6,171.3,173.7,180.6,178.2,36,,4,5,probe,5,0,71,norm,36,-5.263,up,norm,176.571698599,180.0,176.5,169.6,174.5,3,182.3,178.2,166.6,10,6,8.458,4.607,1.341,-1.879,-4.677,-8.099,179.7,2,105.6,-8.401,-7.934,40,-7.893,-7.985,-4.511,-5.152,-4.591,-4.661,5.24,8.019,27,-1.103,1.233,4.521,7.674,-8.064,-8.128,-1.566,1.106,171.0,169.5,186.6,185.7,178.5,175.1,176.1,170.3,177.9,176.5,1,norm,1.839,1.688,-1.861,-1.536,-4.499,-4.818,-1.253,-1.486,-1.187,-1.286,1.398,-1.301,171.6,181.5,-4.436,-7.78,1.976,-1.79,7.613,4.588,-4.709,-7.799,17,4.442,5.121,5.069,4.424,1.193,1.468,1.634,2.058,17,4.974,5.293,40,59.924998277,norm,0,65,65,65,509.776,509.786,509.791709441,509.792,509.794,509.796,down,0,1.8057673088,-10,001,017,1920_1200,Intel(R) Core(TM) i5-3570 CPU @ 3.40GHz,orientation_search,LEPPC096,Intel(R) HD Graphics 2500,2018_Nov_28_1538,testMonitor,
305.4,311.6,329.2,308.2,36,-60,294.5,322.8,303.6,318.0,7.645,8.45,7.989,7.868,8.357,7.711,8.185,4.71,-5.068,-8.487,1.554,-1.284,8.455,4.637,-4.714,-7.74,308.1,299.8,-7.649,309.7,320.6,313.4,309.2,329.5,36,307.3,0,5,prime,10,0,105,norm,36,-5.173,down,norm,313.597040216,321.0,296.0,294.9,308.9,0,297.3,319.2,293.6,10,5,8.396,5.025,1.147,-1.915,-5.033,-8.01,315.5,5,418.6,-7.583,-8.401,-60,-7.73,-7.97,-4.813,-4.308,-5.283,-4.972,4.501,7.578,0,-1.413,1.25,4.558,7.719,-8.086,-7.925,-2.079,1.274,318.9,331.6,317.5,313.7,305.3,,333.6,322.1,297.3,327.2,0,norm,1.421,1.551,-1.561,-1.555,-4.693,-5.152,-1.859,-1.397,-1.842,-1.161,2.082,-1.7,308.3,316.9,-5.101,-7.936,1.302,-2.076,7.82,4.597,-4.642,-7.536,18,4.769,4.876,4.795,4.738,1.829,1.556,1.523,1.86,18,5.084,4.872,-40,59.924998277,norm,0,66,66,66,512.67,523.813,523.822280089,523.822,523.824,523.827,down,1,4.02182134407,5.97817865593,001,017,1920_1200,Intel(R) Core(TM) i5-3570 CPU @ 3.40GHz,orientation_search,LEPPC096,Intel(R) HD Graphics 2500,2018_Nov_28_1538,testMonitor,
304.5,300.4,312.1,309.1,36,-60,314.3,302.5,313.6,311.3,8.025,8.345,7.736,8.34,8.434,8.153,8.185,4.86,-4.49,-8.152,1.375,-1.592,7.986,4.513,-5.15,-7.734,315.7,321.8,-7.968,308.2,313.6,297.2,311.7,303.7,36,318.0,1,5,prime,10,0,114,norm,36,-4.358,down,norm,313.597040216,329.2,310.9,312.7,323.7,0,320.6,310.0,300.4,10,5,7.895,4.873,1.979,-1.505,-4.887,-7.88,296.8,5,427.6,-8.066,-8.485,-60,-8.393,-7.951,-4.681,-5.059,-5.035,-5.229,4.66,8.384,6,-1.589,1.814,4.955,7.658,-7.697,-7.888,-1.981,1.749,315.6,312.9,323.3,318.9,295.9,306.5,333.6,,314.4,320.8,1,norm,1.299,1.632,-1.66,-1.912,-4.768,-4.742,-1.846,-1.103,-1.238,-1.135,1.212,-1.739,297.5,303.8,-5.231,-7.903,1.321,-1.336,7.816,5.099,-5.246,-7.994,18,5.295,5.056,5.176,4.908,1.338,1.302,1.921,1.628,18,5.26,4.588,-40,59.924998277,norm,0,67,67,67,527.891,527.9,527.907323656,527.908,527.909,527.912,up,0,4.54546870477,-10,001,017,1920_1200,Intel(R) Core(TM) i5-3570 CPU @ 3.40GHz,orientation_search,LEPPC096,Intel(R) HD Graphics 2500,2018_Nov_28_1538,testMonitor,
333.6,328.0,309.0,319.7,36,-60,310.9,,319.7,315.2,7.849,8.354,8.488,7.82,7.984,8.471,7.906,5.088,-4.897,-7.555,2.051,-1.709,7.772,4.67,-4.429,-8.241,325.2,310.9,-7.582,306.5,297.9,307.5,316.9,305.5,36,327.1,4,5,prime,10,0,99,norm,36,-4.383,down,norm,313.597040216,330.1,305.7,311.0,315.6,1,320.7,312.7,327.1,10,5,7.999,4.894,1.237,-1.718,-4.68,-8.256,301.8,5,412.6,-7.759,-8.122,-60,-7.944,-7.726,-5.014,-4.66,-5.2,-4.35,4.335,8.395,25,-1.402,1.978,5.054,7.523,-7.838,-8.176,-1.61,1.652,312.5,293.6,294.0,295.8,331.4,297.5,307.8,295.1,325.5,310.0,2,norm,1.482,1.358,-1.208,-1.837,-5.284,-5.04,-1.186,-2.048,-1.709,-1.571,1.994,-1.331,326.1,296.7,-5.194,-7.6,1.108,-1.779,7.808,4.396,-4.508,-7.698,18,4.457,4.66,4.755,5.111,1.175,1.688,1.326,1.555,18,4.784,4.826,-40,59.924998277,norm,0,68,68,68,533.523,533.532,533.539165861,533.539,533.541,533.544,down,1,0.973610218585,9.02638978141,001,017,1920_1200,Intel(R) Core(TM) i5-3570 CPU @ 3.40GHz,orientation_search,LEPPC096,Intel(R) HD Graphics 2500,2018_Nov_28_1538,testMonitor,
321.7,308.6,,318.7,36,-60,293.6,326.3,305.9,314.2,8.483,7.896,8.387,8.037,7.734,7.839,7.774,4.858,-4.898,-8.177,1.343,-1.971,8.027,4.55,-4.994,-7.86,330.6,314.2,-7.737,310.8,333.4,297.5,320.7,305.7,36,315.6,3,5,prime,10,0,91,norm,36,-4.828,down,norm,313.597040216,309.9,311.1,309.8,305.0,2,322.3,317.0,329.2,10,5,8.298,4.458,1.922,-1.497,-5.05,-7.701,294.7,5,404.6,-8.084,-7.726,-60,-7.693,-8.191,-5.271,-5.097,-4.629,-5.094,5.165,8.361,20,-1.803,1.554,5.066,8.455,-8.315,-8.201,-2.09,1.721,310.5,315.8,333.6,299.1,326.8,307.2,310.4,315.4,297.9,320.9,3,norm,1.69,1.349,-1.224,-1.528,-4.622,-4.886,-1.745,-2.061,-1.911,-1.858,1.906,-1.245,309.2,310.0,-4.839,-7.628,1.532,-1.28,8.49,5.278,-4.877,-8.309,18,4.721,4.763,4.641,4.673,2.087,1.534,1.15,1.815,18,5.161,4.879,-40,59.924998277,norm,0,69,69,69,534.537,534.546,534.554567245,534.555,534.556,534.559,down,1,1.41786637827,8.58213362173,001,017,1920_1200,Intel(R) Core(TM) i5-3570 CPU @ 3.40GHz,orientation_search,LEPPC096,Intel(R) HD Graphics 2500,2018_Nov_28_1538,testMonitor,
307.0,333.6,317.9,318.8,36,-60,312.0,308.1,318.4,315.9,7.908,7.984,8.147,8.055,7.562,8.058,7.959,4.872,-5.121,-7.733,2.015,-1.157,8.223,4.682,-4.955,-7.863,293.6,296.4,-8.009,309.4,305.2,316.7,325.4,305.3,36,306.6,3,5,prime,10,0,112,norm,36,-4.91,down,norm,313.597040216,300.8,302.2,330.8,309.5,1,303.9,301.8,312.4,10,5,8.35,4.41,1.399,-1.515,-4.516,-7.507,322.6,5,425.6,-8.438,-8.039,-60,-7.891,-8.176,-5.066,-4.325,-4.738,-5.284,4.739,8.058,19,-2.013,1.546,4.468,7.654,-8.315,-7.756,-1.582,1.885,307.3,322.7,317.0,311.0,317.7,317.1,308.0,314.6,314.5,320.4,4,norm,1.984,1.834,-1.962,-1.617,-5.2,-4.919,-1.921,-1.457,-1.718,-1.778,1.341,-1.856,,314.5,-4.742,-7.803,1.115,-1.554,8.203,4.664,-5.115,-7.62,18,4.811,4.774,4.342,5.046,1.752,1.838,1.864,1.834,18,4.847,4.589,-40,59.924998277,norm,0,70,70,70,536.019,536.028,536.034669414,536.035,536.037,536.039,down,1,1.96049048749,8.03950951251,001,017,1920_1200,Intel(R) Core(TM) i5-3570 CPU @ 3.40GHz,orientation_search,LEPPC096,Intel(R) HD Graphics 2500,2018_Nov_28_1538,testMonitor,
356.1,346.9,351.9,346.3,36,-10,350.4,359.9,354.3,353.4,8.196,8.018,8.015,8.0,8.352,8.35,8.289,4.321,-4.807,-8.313,1.151,-1.684,7.888,4.981,-4.645,-7.867,353.5,350.5,-7.784,,353.7,344.5,352.2,349.0,36,350.9,5,5,probe,5,0,96,norm,36,-4.58,down,norm,350.602389663,355.6,355.0,348.0,360.6,1,348.9,348.2,347.5,10,5,7.787,4.833,1.242,-1.966,-4.996,-8.286,350.9,2,254.6,-7.538,-8.0,-60,-7.666,-7.743,-4.876,-4.573,-5.044,-4.519,4.913,7.602,31,-1.788,1.91,4.962,8.138,-8.021,-7.945,-1.801,1.306,349.5,340.6,352.7,347.8,356.7,349.1,356.7,350.4,346.0,342.6,0,norm,1.646,1.389,-1.949,-1.753,-4.326,-5.123,-1.806,-1.876,-1.952,-1.801,1.184,-1.449,352.3,356.9,-5.163,-7.792,1.544,-1.381,8.007,4.352,-5.236,-7.639,19,4.774,4.679,5.229,4.627,1.386,1.166,2.094,1.589,19,4.481,5.055,-60,313.597040216,norm,0,71,71,71,538.016,538.025,538.032398325,538.033,538.034,538.037,down,1,9.45528319333,0.544716806675,001,017,1920_1200,Intel(R) Core(TM) i5-3570 CPU @ 3.40GHz,orientation_search,LEPPC096,Intel(R) HD Graphics 2500,2018_Nov_28_1538,testMonitor,
360.7,367.5,362.8,364.1,36,-10,362.2,362.5,360.0,354.1,8.159,7.669,8.374,8.353,7.942,7.878,7.971,4.535,-4.843,-8.454,1.598,-1.786,8.416,4.877,-4.779,-7.51,358.0,352.7,-7.535,353.4,364.1,353.4,348.1,360.2,36,359.2,0,5,probe,5,0,103,norm,36,-5.175,up,norm,357.602389663,360.6,355.2,360.0,363.9,4,360.4,354.6,367.6,10,5,8.022,4.816,1.879,-1.436,-4.57,-7.802,358.7,2,254.6,-8.124,-8.157,-60,-8.275,-7.587,-5.033,-4.929,-4.937,-4.622,4.873,7.863,4,-1.539,1.654,4.909,8.168,-7.712,-7.951,-1.876,1.683,352.6,347.6,357.5,350.2,360.2,365.2,353.8,359.7,357.3,,1,norm,2.063,1.279,-1.946,-1.913,-4.881,-4.545,-1.129,-1.59,-1.587,-1.488,1.954,-1.668,357.1,360.5,-4.36,-7.557,1.815,-1.402,8.314,4.657,-4.471,-7.868,19,4.919,4.862,4.559,4.396,1.969,1.927,1.744,1.483,19,4.884,4.388,-60,313.597040216,norm,0,72,72,72,547.509,547.525,547.540865253,547.541,547.543,547.545,up,1,1.19711682855,8.80288317145,001,017,1920_1200,Intel(R) Core(TM) i5-3570 CPU @ 3.40GHz,orientation_search,LEPPC096,Intel(R) HD Graphics 2500,2018_Nov_28_1538,testMonitor,
46.6,54.0,30.4,26.1,36,-20,25.1,27.2,47.4,39.2,7.642,7.841,7.779,7.917,7.979,8.03,8.37,4.837,-5.23,-8.303,1.722,-1.289,7.928,4.634,-4.795,-7.776,21.1,38.9,-7.564,28.9,34.7,33.3,22.4,27.4,36,33.8,3,5,prime,10,0,61,norm,36,-5.076,down,norm,36.3051165685,35.8,42.4,48.8,25.6,0,18.1,45.9,33.7,10,5,8.213,4.572,1.573,-1.74,-4.809,-7.61,39.0,5,97.3,-8.131,-7.599,-20,-8.393,-7.925,-5.096,-5.221,-5.154,-4.825,4.516,7.837,18,-1.278,1.699,4.972,7.968,-7.91,-7.982,-2.074,1.482,27.2,35.1,36.0,35.1,44.1,56.3,22.5,38.3,16.3,43.0,0,norm,1.493,1.44,-1.163,-1.273,-5.258,-5.063,-1.558,-1.802,-1.743,-1.621,1.122,-2.037,43.3,,-5.277,-8.243,2.058,-1.646,8.408,4.533,-4.854,-7.948,20,5.238,4.74,4.908,4.657,1.326,1.615,2.096,1.944,20,4.896,4.398,-10,313.597040216,norm,0,73,73,73,548.775,548.785,548.793744787,548.794,548.796,548.798,down,1,2.04557510544,7.95442489456,001,017,1920_1200,Intel(R) Core(TM) i5-3570 CPU @ 3.40GHz,orientation_search,LEPPC096,Intel(R) HD Graphics 2500,2018_Nov_28_1538,testMonitor,
26.5,46.1,39.4,41.9,36,-20,45.6,22.1,54.0,25.7,7.526,7.575,7.879,7.858,8.094,7.87,7.725,4.53,-4.383,-8.111,1.358,-1.26,8.348,4.771,-4.613,-7.938,37.7,44.5,-7.695,27.0,25.7,48.9,44.8,16.3,36,30.3,2,5,prime,10,0,93,norm,36,-4.402,down,norm,36.3051165685,19.0,35.4,38.5,33.5,1,35.8,,31.4,10,5,8.265,5.088,1.915,-1.738,-4.979,-7.752,35.1,5,129.3,-8.461,-7.582,-20,-8.267,-7.945,-4.591,-4.314,-4.583,-5.114,4.655,7.879,13,-2.036,1.595,4.745,7.756,-7.785,-7.503,-1.996,1.626,29.6,42.1,40.0,54.4,31.5,28.3,37.2,46.2,42.3,33.0,1,norm,1.909,1.215,-1.474,-1.22,-5.191,-5.048,-1.232,-1.962,-1.194,-1.124,1.784,-1.972,19.0,56.3,-4.96,-8.115,1.248,-1.114,8.223,4.486,-4.527,-7.852,20,4.353,4.981,5.13,4.738,1.867,1.4,1.88,1.168,20,4.567,5.284,-10,313.597040216,norm,0,74,74,74,550.877,550.888,550.892469519,550.893,550.894,550.897,down,1,2.15036965557,7.84963034443,001,017,1920_1200,Intel(R) Core(TM) i5-3570 CPU @ 3.40GHz,orientation_search,LEPPC096,Intel(R) HD Graphics 2500,2018_Nov_28_1538,testMonitor,
22.9,35.7,52.2,41.8,36,-20,40.5,,22.4,42.6,8.161,8.41,7.736,8.436,8.269,7.579,7.838,4.781,-4.608,-8.21,1.386,-1.619,8.069,4.792,-5.044,-8.143,38.1,39.3,-7.781,46.8,49.5,20.7,36.6,56.3,36,20.6,4,5,prime,10,0,104,norm,36,-4.359,down,norm,36.3051165685,27.9,29.8,18.0,16.3,1,45.8,36.3,45.5,10,5,8.302,4.491,1.191,-1.221,-4.325,-8.326,27.8,5,140.3,-7.69,-7.925,-20,-7.774,-8.348,-5.027,-4.467,-4.914,-5.233,4.618,7.654,25,-1.419,1.836,4.447,8.232,-8.387,-7.704,-1.717,1.589,54.5,54.0,31.4,24.1,43.9,35.4,41.3,29.2,42.3,37.6,2,norm,1.14,1.529,-1.746,-1.58,-5.181,-4.539,-1.35,-1.145,-1.21,-1.805,1.793,-1.293,44.0,37.4,-5.229,-8.228,1.339,-2.054,7.866,4.422,-4.594,-8.462,20,4.534,4.633,5.238,4.884,1.937,1.951,1.217,1.969,20,4.685,5.117,-10,313.597040216,norm,0,75,75,75,553.08,553.09,553.099235756,553.099,553.101,553.104,up,0,2.41891740559,-10,001,017,1920_1200,Intel(R) Core(TM) i5-3570 CPU @ 3.40GHz,orientation_search,LEPPC096,Intel(R) HD Graphics 2500,2018_Nov_28_1538,testMonitor,
40.2,21.7,25.7,40.7,36,-20,37.4,56.3,51.9,45.1,7.967,8.486,7.573,7.817,7.99,7.96,7.539,4.68,-4.596,-7.567,1.66,-1.687,8.365,5.04,-4.588,-7.889,26.8,36.8,-7.573,32.0,41.3,29.4,46.1,34.1,36,43.0,1,5,prime,10,0,88,norm,36,-5.294,down,norm,36.3051165685,35.2,49.2,49.6,33.8,1,24.5,37.6,49.8,10,5,8.443,4.614,1.129,-1.831,-5.292,-8.405,16.3,5,124.3,-8.017,-7.658,-20,-8.411,-7.897,-4.48,-4.384,-4.983,-5.181,4.835,8.131,7,-1.136,1.443,4.657,8.134,-7.952,-8.361,-1.854,1.297,46.8,27.1,32.4,44.8,31.7,48.0,,36.1,36.8,36.2,3,norm,1.809,1.534,-1.601,-1.378,-4.747,-5.258,-1.17,-1.987,-2.031,-1.789,2.095,-1.984,39.0,34.5,-4.727,-7.803,1.527,-1.814,7.795,4.703,-4.344,-7.757,20,4.334,5.243,4.829,5.034,1.803,1.418,2.047,1.922,20,5.085,4.899,-10,313.597040216,norm,0,76,76,76,556.588,556.597,556.60910506,556.609,556.611,556.614,down,1,0.485795887595,9.51420411241,001,017,1920_1200,Intel(R) Core(TM) i5-3570 CPU @ 3.40GHz,orientation_search,LEPPC096,Intel(R) HD Graphics 2500,2018_Nov_28_1538,testMonitor,
33.7,28.4,22.2,43.5,36,-20,22.6,37.2,34.7,45.6,8.323,7.805,7.878,8.34,8.437,8.076,7.986,5.121,-5.079,-7.604,1.749,-1.124,8.154,5.263,-4.511,-7.851,26.2,16.3,-7.688,44.2,43.5,56.3,33.1,43.2,36,26.9,0,5,prime,10,0,114,norm,36,-4.798,up,norm,36.3051165685,39.7,49.0,41.6,34.7,5,35.5,38.4,30.8,10,5,7.626,4.335,1.293,-1.624,-4.696,-7.972,48.6,5,150.3,-7.64,-7.717,-20,-7.655,-7.507,-4.746,-4.584,-4.83,-4.569,5.295,8.349,5,-1.902,1.32,4.671,8.441,-7.806,-8.372,-1.218,1.7,41.8,46.0,38.2,48.6,26.0,17.2,38.0,40.5,,38.1,4,norm,1.958,1.953,-1.433,-1.518,-5.25,-4.357,-1.281,-1.477,-1.946,-1.159,1.24,-1.155,42.1,18.4,-4.569,-7.817,1.889,-1.542,8.339,5.037,-4.76,-8.075,20,4.719,4.609,4.517,4.825,1.243,1.803,1.7,1.784,20,5.01,4.352,-10,313.597040216,norm,0,77,77,77,557.14,557.149,557.155959238,557.156,557.158,557.16,up,1,1.0954478925,8.9045521075,001,017,1920_1200,Intel(R) Core(TM) i5-3570 CPU @ 3.40GHz,orientation_search,LEPPC096,Intel(R) HD Graphics 2500,2018_Nov_28_1538,testMonitor,
92.2,93.4,97.5,90.5,36,30,95.4,95.6,94.9,96.7,7.974,7.883,8.002,7.929,8.31,8.283,7.551,4.803,-4.667,-7.768,1.628,-1.603,7.945,4.585,-5.163,-7.996,90.1,,-8.12,84.7,96.8,92.0,99.1,90.6,36,93.2,5,5,probe,5,0,75,norm,36,-4.408,up,norm,94.7330506649,97.2,86.6,90.4,99.9,4,87.2,100.3,90.6,10,5,8.36,4.712,1.321,-1.548,-4.971,-7.547,99.8,2,19.7,-8.375,-7.524,-20,-7.59,-7.675,-4.474,-4.472,-5.144,-5.075,5.082,7.578,34,-1.168,2.073,4.507,7.669,-8.395,-8.323,-1.477,1.718,97.6,91.6,102.9,104.7,90.8,92.0,91.3,94.7,90.7,93.9,0,norm,1.586,1.876,-1.367,-2.033,-5.204,-4.996,-1.598,-1.245,-1.268,-1.555,1.915,-1.799,90.4,90.7,-5.022,-8.229,1.524,-1.893,7.503,5.04,-5.086,-7.582,21,5.157,5.172,5.191,5.214,1.451,1.73,1.422,1.306,21,4.806,4.958,-20,36.3051165685,norm,0,78,78,78,558.295,558.316,558.327070836,558.327,558.329,558.332,up,1,2.11077140033,7.88922859967,001,017,1920_1200,Intel(R) Core(TM) i5-3570 CPU @ 3.40GHz,orientation_search,LEPPC096,Intel(R) HD Graphics 2500,2018_Nov_28_1538,testMonitor,
133.2,120.1,124.0,125.2,36,30,128.0,119.0,126.1,123.2,7.873,7.917,8.226,8.227,7.788,7.82,8.319,4.989,-5.045,-8.279,1.745,-1.284,8.484,5.219,-4.64,-7.698,133.4,131.3,-8.28,127.4,132.3,125.5,124.0,125.2,36,128.5,2,5,probe,5,0,107,norm,36,-5.258,down,norm,126.733050665,126.3,123.8,128.7,,2,122.0,131.9,126.6,10,5,7.756,4.631,1.195,-1.798,-4.893,-7.849,121.6,2,19.7,-8.264,-7.892,-20,-8.085,-8.233,-4.55,-5.022,-4.652,-4.525,4.486,7.606,14,-1.377,2.085,4.657,7.689,-7.783,-7.647,-1.384,1.661,126.7,124.6,126.1,136.7,116.7,121.3,124.2,122.8,125.8,132.3,1,norm,1.79,1.138,-1.811,-1.143,-4.33,-4.355,-1.824,-1.792,-1.433,-1.934,1.862,-1.882,126.8,130.0,-4.903,-8.473,1.995,-1.416,7.814,5.061,-4.621,-7.702,21,5.274,4.989,4.768,5.225,1.194,1.451,1.187,2.002,21,4.401,5.201,-20,36.3051165685,norm,0,79,79,79,560.46,560.471,560.475762229,560.476,560.478,560.481,down,1,1.58209558914,8.41790441086,001,017,1920_1200,Intel(R) Core(TM) i5-3570 CPU @ 3.40GHz,orientation_search,LEPPC096,Intel(R) HD Graphics 2500,2018_Nov_28_1538,testMonitor,
165.0,173.9,173.1,178.0,36,60,176.5,161.7,161.8,165.0,8.494,7.852,7.945,8.095,7.573,7.751,7.551,5.031,-4.3,-7.542,1.531,-1.901,8.154,4.487,-5.239,-7.799,162.5,177.5,-7.599,181.1,159.4,168.7,172.0,163.4,36,148.0,2,5,prime,10,0,91,norm,36,-4.713,down,norm,167.293296823,162.6,169.2,164.4,,2,171.3,164.0,169.2,10,5,7.76,4.546,1.49,-1.19,-4.959,-7.883,162.5,5,258.3,-8.054,-8.26,60,-8.478,-7.756,-5.258,-5.002,-4.574,-4.418,4.86,7.834,14,-2.077,1.193,4.788,7.97,-7.882,-7.924,-1.698,1.852,165.1,170.2,147.3,149.8,178.9,160.1,187.3,155.7,161.2,167.8,0,norm,1.391,1.458,-1.707,-1.752,-4.517,-4.872,-1.962,-1.569,-1.402,-1.785,2.038,-2.072,161.4,156.2,-5.012,-8.21,1.746,-1.468,8.391,4.759,-5.142,-8.065,22,5.037,4.76,4.444,5.045,1.883,1.809,1.61,1.967,22,4.407,5.243,30,36.3051165685,norm,0,80,80,80,562.096,562.106,562.115523964,562.116,562.117,562.12,up,0,1.40012991446,-10,001,017,1920_1200,Intel(R) Core(TM) i5-3570 CPU @ 3.40GHz,orientation_search,LEPPC096,Intel(R) HD Graphics 2500,2018_Nov_28_1538,testMonitor,
170.9,165.8,167.4,162.4,36,60,164.0,162.9,155.3,169.3,8.367,7.593,7.536,8.346,8.271,7.541,8.467,4.831,-5.127,-7.69,1.856,-1.346,7.591,4.934,-4.865,-7.551,171.7,170.4,-8.323,187.3,176.4,168.0,155.1,162.8,36,161.1,2,5,prime,10,0,111,norm,36,-4.879,up,norm,167.293296823,179.5,,165.4,176.9,4,169.4,176.4,164.7,10,5,7.579,5.263,1.509,-1.994,-4.976,-7.901,156.9,5,278.3,-8.232,-8.131,60,-7.869,-8.23,-4.459,-4.692,-5.146,-4.883,4.674,7.916,16,-1.828,2.066,4.4,7.908,-7.679,-8.25,-1.128,1.98,166.3,161.7,153.4,171.1,162.3,147.3,160.1,177.0,165.7,169.8,1,norm,1.153,1.708,-2.005,-1.771,-4.634,-4.983,-1.296,-1.294,-1.173,-1.372,1.279,-1.404,180.1,175.4,-4.612,-7.54,1.857,-1.347,8.052,4.497,-4.531,-7.613,22,4.384,4.607,5.107,4.63,1.153,1.65,1.99,1.267,22,5.275,4.598,30,36.3051165685,norm,0,81,81,81,564.587,564.596,564.611767039,564.612,564.614,564.616,down,0,0.56770961461,-10,001,017,1920_1200,Intel(R) Core(TM) i5-3570 CPU @ 3.40GHz,orientation_search,LEPPC096,Intel(R) HD Graphics 2500,2018_Nov_28_1538,testMonitor,
168.9,167.2,172.5,157.6,36,60,161.6,161.6,,159.7,8.299,8.185,7.802,8.215,8.355,7.862,8.435,4.391,-4.44,-8.11,1.223,-1.902,7.693,4.337,-5.015,-8.216,173.6,148.9,-8.258,155.7,167.2,159.0,153.5,161.1,36,187.3,4,5,prime,10,0,114,norm,36,-4.455,up,norm,167.293296823,167.0,164.9,177.2,180.0,4,163.4,155.2,176.0,10,5,7.673,4.733,1.99,-1.524,-4.979,-7.836,178.5,5,281.3,-8.009,-7.619,60,-8.09,-8.153,-5.138,-5.028,-4.946,-4.791,4.541,7.679,28,-1.436,1.277,4.838,7.669,-8.063,-8.305,-1.791,1.157,163.9,152.4,164.2,147.3,172.6,162.6,165.5,167.2,157.7,178.8,2,norm,1.103,1.509,-1.68,-1.708,-5.258,-4.382,-1.837,-1.537,-1.775,-2.081,1.61,-1.342,169.7,166.3,-4.604,-7.648,1.542,-1.378,7.611,4.515,-4.586,-8.302,22,5.037,5.185,4.415,5.065,1.352,1.857,1.805,1.16,22,4.343,5.258,30,36.3051165685,norm,0,82,82,82,566.253,566.262,566.280660221,566.281,566.283,566.285,up,1,0.436771589302,9.5632284107,001,017,1920_1200,Intel(R) Core(TM) i5-3570 CPU @ 3.40GHz,orientation_search,LEPPC096,Intel(R) HD Graphics 2500,2018_Nov_28_1538,testMonitor,
178.3,175.1,163.9,156.8,36,60,147.3,151.2,150.2,166.6,7.776,7.949,7.571,7.935,8.247,8.216,7.843,4.435,-5.129,-8.355,1.998,-1.19,7.801,4.808,-4.413,-8.17,171.8,171.3,-8.12,149.6,187.3,163.6,165.3,153.1,36,149.1,0,5,prime,10,0,88,norm,36,-4.89,up,norm,167.293296823,166.9,177.8,158.6,175.4,3,151.7,153.1,168.6,10,5,7.55,5.07,1.119,-1.711,-4.409,-7.606,166.3,5,255.3,-7.825,-7.682,60,-7.783,-7.628,-4.815,-4.866,-4.836,-4.646,5.138,8.353,3,-1.477,1.707,4.621,7.511,-7.927,-8.079,-1.501,2.092,175.8,167.9,,167.8,164.2,155.6,167.0,157.8,168.7,174.8,3,norm,1.219,1.907,-1.39,-1.119,-5.017,-4.308,-1.811,-1.159,-1.669,-1.839,1.342,-1.819,165.7,154.4,-4.501,-7.94,1.789,-1.634,8.249,4.448,-4.94,-8.377,22,5.27,4.665,4.557,4.361,1.177,1.846,1.146,1.714,22,5.128,4.631,30,36.3051165685,norm,0,83,83,83,566.765,566.774,566.780757869,566.781,566.783,566.785,down,0,2.66847422041,-10,001,017,1920_1200,Intel(R) Core(TM) i5-3570 CPU @ 3.40GHz,orientation_search,LEPPC096,Intel(R) HD Graphics 2500,2018_Nov_28_1538,testMonitor,
176.7,177.0,161.7,167.7,36,60,182.0,176.5,149.7,187.2,8.175,8.476,7.507,8.34,7.628,8.449,7.655,4.31,-5.042,-7.559,1.39,-1.456,8.185,4.546,-4.599,-8.301,174.1,,-8.448,151.5,163.1,172.6,177.3,147.3,36,176.1,5,5,prime,10,0,115,norm,36,-4.775,up,norm,167.293296823,160.7,169.6,166.7,166.0,4,182.7,161.1,158.7,10,5,8.038,4.64,1.158,-1.573,-5.081,-7.737,168.7,5,282.3,-8.498,-7.514,60,-7.615,-7.526,-4.389,-4.63,-4.342,-4.67,4.653,7.978,34,-1.436,1.354,4.79,7.746,-7.567,-7.576,-1.235,1.851,149.5,154.0,167.7,153.4,173.1,151.6,162.6,187.3,158.7,167.7,4,norm,1.311,1.558,-2.083,-1.446,-5.116,-4.402,-1.444,-1.511,-1.363,-1.502,1.473,-1.561,185.7,167.4,-4.969,-7.993,2.069,-1.738,8.498,5.2,-4.91,-8.141,22,4.513,4.495,4.577,4.38,1.701,1.582,1.129,1.122,22,4.899,4.495,30,36.3051165685,norm,0,84,84,84,570.528,570.538,570.554856715,570.555,570.559,570.565,up,1,0.173510367953,9.82648963205,001,017,1920_1200,Intel(R) Core(TM) i5-3570 CPU @ 3.40GHz,orientation_search,LEPPC096,Intel(R) HD Graphics 2500,2018_Nov_28_1538,testMonitor,
309.6,316.2,313.2,304.5,36,0,308.1,312.0,315.3,310.7,8.309,7.643,7.801,8.316,8.451,7.785,8.358,4.312,-4.317,-7.629,1.829,-1.574,8.023,5.286,-4.87,-8.299,308.0,306.4,-7.974,301.8,313.2,,306.9,315.1,36,301.0,5,5,probe,5,0,84,norm,36,-5.104,up,norm,308.025012225,306.6,302.2,313.7,309.5,3,305.6,306.0,309.2,10,5,7.681,5.046,1.819,-1.569,-4.664,-8.354,309.5,2,224.0,-7.529,-8.314,60,-8.3,-7.842,-5.067,-4.491,-4.869,-4.516,5.037,7.727,33,-1.988,1.587,4.96,8.261,-7.772,-8.44,-1.153,1.816,318.0,312.5,306.7,309.3,302.1,298.0,311.5,305.9,309.1,317.1,0,norm,1.786,1.59,-1.94,-1.311,-5.068,-4.36,-1.183,-1.734,-1.859,-1.611,1.743,-2.076,310.7,315.6,-4.718,-7.723,1.312,-1.288,7.721,5.284,-4.416,-8.116,23,4.937,4.725,4.428,4.344,1.718,1.883,2.035,1.312,23,4.921,5.08,60,167.293296823,norm,0,85,85,85,570.755,570.764,570.773212023,570.773,570.775,570.778,up,1,1.51952263678,8.48047736322,001,017,1920_1200,Intel(R) Core(TM) i5-3570 CPU @ 3.40GHz,orientation_search,LEPPC096,Intel(R) HD Graphics 2500,2018_Nov_28_1538,testMonitor,
293.9,307.0,306.5,302.7,36,0,299.3,300.5,305.3,,7.552,8.139,7.879,7.662,7.718,7.778,8.344,5.131,-4.723,-7.863,1.796,-1.664,8.048,4.653,-4.523,-7.777,302.0,306.4,-8.364,304.0,300.3,312.0,309.4,295.4,36,302.8,4,5,probe,5,0,78,norm,36,-4.512,up,norm,302.025012225,294.8,307.8,293.3,300.1,5,294.6,310.6,300.2,10,5,7.824,4.962,1.767,-1.943,-5.005,-8.006,292.0,2,224.0,-7.515,-8.472,60,-7.919,-8.094,-4.395,-4.775,-5.138,-4.822,4.863,7.937,29,-1.651,1.971,4.395,7.94,-8.296,-7.613,-1.382,1.88,302.1,303.3,311.5,300.5,300.4,296.4,301.0,301.0,301.4,294.4,1,norm,1.813,1.966,-1.457,-1.953,-5.212,-4.86,-1.31,-1.597,-1.761,-2.068,1.552,-1.255,299.6,310.1,-4.335,-7.707,1.871,-1.384,8.477,4.763,-4.859,-8.096,23,5.145,4.367,4.435,4.994,1.597,2.048,1.359,1.772,23,4.387,4.755,60,167.293296823,norm,0,86,86,86,572.318,572.327,572.335959594,572.336,572.338,572.34,up,1,1.23123205337,8.76876794663,001,017,1920_1200,Intel(R) Core(TM) i5-3570 CPU @ 3.40GHz,orientation_search,LEPPC096,Intel(R) HD Graphics 2500,2018_Nov_28_1538,testMonitor,
69.1,44.4,47.7,56.7,36,80,48.6,48.4,68.0,40.0,7.997,8.201,7.752,7.513,8.452,7.894,8.296,4.91,-5.176,-8.065,1.58,-1.52,8.086,4.574,-4.421,-7.512,63.2,32.7,-8.4,62.8,58.2,48.4,49.0,50.3,36,61.4,2,5,prime,10,0,103,norm,36,-4.933,down,norm,52.670081122,51.5,44.8,37.4,63.3,0,54.3,48.5,,10,5,7.904,5.259,1.763,-1.82,-4.828,-8.29,35.9,5,155.7,-7.619,-7.886,80,-7.542,-8.154,-4.592,-4.303,-5.19,-5.255,4.976,7.521,12,-1.2,1.435,4.689,7.991,-8.351,-7.733,-1.491,1.892,48.6,59.1,37.5,56.0,48.9,51.8,50.2,36.0,54.5,57.5,0,norm,1.455,1.831,-1.433,-1.341,-4.356,-4.374,-1.665,-1.957,-1.133,-1.75,2.065,-1.45,72.7,52.8,-4.595,-7.507,1.749,-1.992,7.799,4.376,-4.927,-7.537,24,5.22,4.698,5.15,4.307,1.565,1.46,1.625,1.14,24,4.379,4.467,0,167.293296823,norm,0,87,87,87,573.613,573.622,573.628871136,573.629,573.631,573.633,down,1,1.75755346671,8.24244653329,001,017,1920_1200,Intel(R) Core(TM) i5-3570 CPU @ 3.40GHz,orientation_search,LEPPC096,Intel(R) HD Graphics 2500,2018_Nov_28_1538,testMonitor,
47.4,69.4,52.2,66.2,36,80,61.4,60.3,35.1,61.7,8.414,8.478,7.689,8.428,7.726,7.512,8.315,4.767,-4.65,-8.214,1.961,-1.237,8.025,4.433,-4.509,-8.235,70.9,42.6,-8.048,43.5,50.3,56.9,44.4,50.1,36,60.0,0,5,prime,10,0,111,norm,36,-4.56,up,norm,52.670081122,44.2,65.5,56.7,56.3,3,57.9,53.7,59.6,10,5,7.626,4.95,1.89,-1.736,-4.52,-8.165,47.7,5,163.7,-8.211,-7.922,80,-8.37,-8.163,-4.415,-4.892,-4.301,-5.079,4.796,8.267,3,-1.822,2.075,4.57,7.574,-7.907,-8.404,-2.014,1.209,45.5,33.9,,49.5,42.9,47.9,72.7,65.2,32.7,39.3,1,norm,1.766,1.283,-1.882,-1.753,-4.45,-4.846,-1.658,-1.534,-1.217,-1.872,1.173,-2.053,37.3,58.5,-5.194,-7.602,1.301,-1.598,8.218,4.787,-4.301,-7.806,24,4.774,5.277,4.732,4.759,2.048,1.341,1.243,1.413,24,4.43,4.507,0,167.293296823,norm,0,88,88,88,575.407,575.417,575.423661819,575.424,575.426,575.428,up,1,2.46271856283,7.53728143717,001,017,1920_1200,Intel(R) Core(TM) i5-3570 CPU @ 3.40GHz,orientation_search,LEPPC096,Intel(R) HD Graphics 2500,2018_Nov_28_1538,testMonitor,
72.7,49.3,42.6,53.7,36,80,45.1,51.3,43.7,71.4,7.668,7.571,7.874,8.045,7.652,8.438,7.675,4.573,-4.522,-7.89,1.577,-1.307,7.502,4.507,-4.499,-7.974,60.7,42.7,-7.502,41.2,66.2,64.0,40.8,54.0,36,55.1,2,5,prime,10,0,116,norm,36,-5.134,down,norm,52.670081122,65.4,49.3,53.4,36.6,0,52.9,36.2,,10,5,7.584,4.77,1.312,-1.527,-5.114,-8.149,32.7,5,168.7,-7.672,-7.549,80,-8.118,-7.584,-4.365,-4.792,-5.137,-4.343,5.188,7.642,12,-2.017,1.676,4.893,7.626,-8.293,-8.193,-1.87,1.29,55.7,55.2,47.1,36.3,63.6,46.3,56.8,52.2,49.7,35.0,2,norm,1.365,1.791,-1.265,-1.931,-5.006,-4.798,-2.055,-1.479,-1.576,-1.642,1.664,-1.795,55.3,52.5,-4.898,-7.526,1.838,-1.233,8.399,4.734,-4.982,-8.399,24,4.69,4.964,4.499,4.465,1.956,1.625,1.662,2.091,24,4.737,4.863,0,167.293296823,norm,0,89,89,89,577.923,577.933,577.948824144,577.949,577.951,577.953,down,1,1.5365902101,8.4634097899,001,017,1920_1200,Intel(R) Core(TM) i5-3570 CPU @ 3.40GHz,orientation_search,LEPPC096,Intel(R) HD Graphics 2500,2018_Nov_28_1538,testMonitor,
50.9,,68.0,49.2,36,80,51.1,45.4,42.1,47.4,8.279,8.499,8.178,8.394,8.161,7.772,7.76,4.676,-4.993,-7.655,1.252,-1.191,8.332,4.441,-4.988,-8.144,57.9,49.1,-8.024,72.7,50.7,46.5,54.4,37.7,36,49.2,3,5,prime,10,0,116,norm,36,-4.382,up,norm,52.670081122,45.3,48.5,41.5,44.6,5,34.8,62.9,55.6,10,5,8.325,4.607,1.495,-1.944,-4.37,-8.155,36.6,5,168.7,-8.332,-8.349,80,-8.47,-8.349,-4.31,-4.676,-5.048,-5.206,5.055,7.855,23,-1.541,1.869,4.696,7.959,-7.704,-7.917,-1.384,1.56,32.7,64.4,54.7,63.4,51.7,51.3,57.7,65.3,71.8,33.8,3,norm,1.472,1.49,-1.662,-1.87,-4.845,-5.106,-1.497,-1.293,-1.169,-1.894,1.286,-1.307,51.2,58.7,-5.235,-7.862,1.647,-2.051,7.892,4.869,-4.774,-7.618,24,5.293,4.557,5.102,5.246,1.292,1.77,1.832,1.765,24,5.045,5.146,0,167.293296823,norm,0,90,90,90,579.509,579.519,579.525369693,579.526,579.527,579.53,up,1,1.41476974142,8.58523025858,001,017,1920_1200,Intel(R) Core(TM) i5-3570 CPU @ 3.40GHz,orientation_search,LEPPC096,Intel(R) HD Graphics 2500,2018_Nov_28_1538,testMonitor,
36.5,70.7,44.3,72.7,36,80,53.4,44.1,54.4,41.7,7.905,8.273,7.708,8.241,7.988,8.387,7.774,4.815,-5.045,-7.878,1.231,-1.225,7.787,4.41,-4.886,-8.28,37.2,49.4,-8.23,63.7,52.6,54.5,38.6,37.5,36,71.9,3,5,prime,10,0,86,norm,36,-4.637,down,norm,52.670081122,68.3,64.0,55.6,48.8,1,48.9,57.3,54.6,10,5,8.286,5.17,1.278,-1.169,-5.141,-8.391,42.0,5,138.7,-8.37,-8.267,80,-7.726,-7.856,-5.277,-5.167,-4.381,-5.151,4.508,8.093,19,-1.817,1.738,5.012,8.093,-7.644,-7.975,-1.682,1.452,32.7,48.6,55.8,59.0,55.0,50.3,66.2,60.3,53.7,55.2,4,norm,2.081,1.542,-1.15,-1.441,-4.634,-5.284,-1.575,-1.928,-1.108,-1.458,1.45,-2.093,,47.0,-4.534,-8.167,1.738,-1.849,7.763,4.416,-4.683,-7.984,24,4.694,4.516,5.288,4.797,1.891,1.626,1.502,1.568,24,4.338,4.553,0,167.293296823,norm,0,91,91,91,580.961,580.972,580.977024699,580.977,580.979,580.981,down,1,1.21501991127,8.78498008873,001,017,1920_1200,Intel(R) Core(TM) i5-3570 CPU @ 3.40GHz,orientation_search,LEPPC096,Intel(R) HD Graphics 2500,2018_Nov_28_1538,testMonitor,
241.1,240.6,242.8,240.0,36,20,237.9,239.2,245.1,231.7,8.04,7.608,8.43,7.736,8.109,8.417,7.671,4.838,-4.793,-7.577,1.214,-1.159,8.428,4.52,-4.463,-8.394,240.5,237.9,-7.707,245.6,240.7,239.7,240.5,234.3,36,231.1,1,5,probe,5,0,117,norm,36,-4.339,up,norm,241.11260997,249.7,240.9,239.0,235.7,4,242.2,242.4,243.4,10,5,7.717,4.623,1.983,-1.523,-4.505,-7.556,,2,124.1,-7.567,-7.668,80,-8.05,-7.735,-5.137,-4.738,-4.33,-4.437,5.101,7.656,10,-1.977,1.981,4.843,8.201,-8.054,-8.109,-1.242,1.522,237.3,239.3,242.2,251.0,241.0,240.7,243.1,251.1,238.4,241.3,0,norm,1.467,1.385,-1.796,-1.879,-4.749,-4.392,-1.603,-1.966,-1.184,-1.426,1.746,-1.64,233.3,243.5,-4.428,-8.396,1.138,-1.147,8.075,4.667,-4.883,-8.284,25,5.141,4.426,4.492,4.915,2.007,1.364,1.354,1.85,25,4.604,4.868,80,52.670081122,norm,0,92,92,92,582.229,582.242,582.261678945,582.262,582.264,582.266,up,1,1.15138536695,8.84861463305,001,017,1920_1200,Intel(R) Core(TM) i5-3570 CPU @ 3.40GHz,orientation_search,LEPPC096,Intel(R) HD Graphics 2500,2018_Nov_28_1538,testMonitor,
223.5,222.1,225.2,229.2,36,20,229.8,228.4,235.1,227.4,8.268,7.541,7.77,7.621,7.85,8.2,8.0,4.357,-5.138,-8.401,2.007,-1.934,7.881,5.09,-4.985,-7.629,220.2,223.2,-8.318,219.6,226.9,224.4,218.1,223.4,36,224.5,1,5,probe,5,0,101,norm,36,-5.24,up,norm,225.11260997,227.2,217.7,230.3,228.9,4,222.2,227.1,224.0,10,5,8.287,4.393,1.706,-1.76,-4.385,-8.39,,2,124.1,-8.494,-7.581,80,-8.183,-8.301,-4.478,-4.365,-5.095,-5.063,5.077,8.218,10,-1.576,1.289,4.985,8.471,-7.814,-7.88,-1.581,1.827,230.5,227.3,222.8,222.7,225.5,222.5,215.1,232.2,233.6,229.2,1,norm,1.501,1.238,-1.266,-1.268,-4.926,-5.114,-1.326,-1.745,-1.116,-2.09,1.917,-2.091,227.2,226.0,-4.533,-7.576,1.242,-1.732,8.261,4.368,-4.892,-7.96,25,4.929,4.674,5.215,4.402,1.426,2.073,1.516,1.972,25,4.833,4.88,80,52.670081122,norm,0,93,93,93,583.45,583.459,583.470891644,583.471,583.473,583.475,up,1,0.890561249224,9.10943875078,001,017,1920_1200,Intel(R) Core(TM) i5-3570 CPU @ 3.40GHz,orientation_search,LEPPC096,Intel(R) HD Graphics 2500,2018_Nov_28_1538,testMonitor,
130.9,126.2,129.2,140.1,36,20,130.1,136.7,134.9,127.0,7.826,8.248,8.013,8.295,7.72,8.19,8.104,5.069,-4.643,-7.508,1.84,-1.935,7.592,4.711,-5.127,-7.815,136.4,,-8.386,140.8,126.7,134.3,134.1,142.1,36,154.3,5,5,prime,10,0,87,norm,36,-4.888,up,norm,137.124812784,139.4,140.6,155.1,146.9,4,128.0,145.8,157.1,10,6,7.569,5.214,1.324,-1.463,-4.581,-7.79,133.9,6,224.1,-7.643,-8.449,20,-8.484,-8.081,-4.565,-4.31,-4.37,-4.453,5.172,8.324,34,-1.367,1.729,4.779,8.003,-7.796,-8.367,-1.379,1.173,133.1,144.2,133.8,117.7,145.6,127.8,129.6,140.2,117.1,139.5,0,norm,2.002,1.846,-1.737,-2.067,-5.257,-4.331,-1.23,-1.854,-1.48,-1.243,1.63,-1.295,135.7,131.1,-4.684,-7.757,1.915,-1.293,8.419,5.287,-5.164,-7.513,26,5.054,4.709,4.491,5.255,1.199,1.367,1.53,1.57,26,4.438,4.614,20,52.670081122,norm,0,94,94,94,584.408,584.417,584.423564625,584.424,584.425,584.428,down,0,1.46741045517,-10,001,017,1920_1200,Intel(R) Core(TM) i5-3570 CPU @ 3.40GHz,orientation_search,LEPPC096,Intel(R) HD Graphics 2500,2018_Nov_28_1538,testMonitor,
132.9,138.0,149.7,157.1,36,20,144.1,126.2,147.1,137.0,7.775,8.285,7.841,7.747,8.051,8.393,7.704,4.743,-4.412,-7.716,1.868,-1.958,8.47,5.024,-4.877,-8.223,131.6,153.0,-7.787,139.9,144.9,125.4,145.9,143.4,36,142.4,1,5,prime,10,0,75,norm,36,-5.256,up,norm,137.124812784,141.6,140.2,128.7,136.4,3,140.9,137.4,135.5,10,6,8.149,4.326,1.87,-1.489,-5.18,-8.042,129.6,6,212.1,-8.44,-7.902,20,-7.81,-8.447,-4.632,-5.162,-4.602,-5.238,4.808,7.688,9,-1.497,1.132,4.519,7.871,-7.752,-8.269,-1.206,1.969,,147.8,132.8,117.1,136.7,136.7,140.3,140.6,139.1,149.1,1,norm,1.391,1.387,-1.649,-1.322,-4.993,-4.385,-1.73,-1.131,-1.137,-1.527,1.762,-1.581,142.4,148.2,-4.975,-8.372,1.413,-1.499,7.923,4.931,-4.499,-8.058,26,5.111,4.813,4.371,4.505,1.302,1.369,1.375,1.163,26,4.737,4.381,20,52.670081122,norm,0,95,95,95,586.962,586.971,586.980955336,586.981,586.983,586.985,up,1,0.521214181092,9.47878581891,001,017,1920_1200,Intel(R) Core(TM) i5-3570 CPU @ 3.40GHz,orientation_search,LEPPC096,Intel(R) HD Graphics 2500,2018_Nov_28_1538,testMonitor,
157.1,140.1,135.3,118.3,36,20,129.2,139.7,145.1,154.3,7.61,7.91,8.325,7.791,8.326,8.088,8.326,5.266,-5.054,-7.562,1.185,-1.611,7.73,4.467,-5.18,-8.424,149.8,127.2,-8.299,117.1,121.0,145.0,147.5,132.9,36,148.3,0,5,prime,10,0,95,norm,36,-4.687,up,norm,137.124812784,147.9,142.2,138.6,126.2,4,140.6,132.3,144.6,10,6,8.114,4.953,1.259,-1.415,-4.934,-8.362,122.1,6,232.1,-7.721,-7.603,20,-8.101,-8.373,-4.701,-4.45,-4.425,-4.555,4.498,8.034,4,-1.154,1.948,4.694,8.295,-7.95,-8.338,-1.751,1.371,128.7,128.4,136.3,144.3,139.1,118.7,140.5,119.7,140.8,,2,norm,1.116,2.013,-1.831,-1.682,-5.114,-5.093,-1.616,-1.655,-1.834,-1.928,1.645,-1.721,144.7,145.7,-5.054,-8.151,1.461,-1.232,7.979,5.267,-4.308,-8.415,26,4.331,4.81,5.237,5.12,1.934,1.716,1.4,1.411,26,4.466,5.085,20,52.670081122,norm,0,96,96,96,587.539,587.549,587.557920149,587.558,587.56,587.562,up,1,1.29822885894,8.70177114106,001,017,1920_1200,Intel(R) Core(TM) i5-3570 CPU @ 3.40GHz,orientation_search,LEPPC096,Intel(R) HD Graphics 2500,2018_Nov_28_1538,testMonitor,
