d_ori_22,d_ori_23,d_ori_20,d_ori_21,set_size,ctpd,d_ori_24,d_ori_25,d_ori_28,d_ori_29,stim_pos_x_30,stim_pos_x_31,stim_pos_x_32,stim_pos_x_33,stim_pos_x_34,stim_pos_x_35,stim_pos_y_11,stim_pos_y_10,stim_pos_y_13,stim_pos_y_12,stim_pos_y_15,stim_pos_y_14,stim_pos_y_17,stim_pos_y_16,stim_pos_y_19,stim_pos_y_18,d_ori_35,d_ori_34,stim_pos_x_3,d_ori_31,d_ori_30,d_ori_33,d_ori_32,d_ori_26,test_set_size,d_ori_27,targetCol,dsd_test,seq_type,dsd,blockRepN,targetDist,dtype_test,prime_set_size,stim_pos_y_25,correctResponse,dtype,distrMean,d_ori_17,d_ori_16,d_ori_15,d_ori_14,targetRow,d_ori_11,d_ori_13,d_ori_12,dsd_prime,streak_length_prime,stim_pos_y_35,stim_pos_y_34,stim_pos_y_33,stim_pos_y_32,stim_pos_y_31,stim_pos_y_30,d_ori_10,nextProbe,targetOri,stim_pos_x_1,stim_pos_x_2,ctpd_prime,stim_pos_x_4,stim_pos_x_5,stim_pos_x_6,stim_pos_x_7,stim_pos_x_8,stim_pos_x_9,stim_pos_y_28,stim_pos_y_29,targetPos,stim_pos_y_20,stim_pos_y_21,stim_pos_y_22,stim_pos_y_23,stim_pos_y_24,stim_pos_x_0,stim_pos_y_26,stim_pos_y_27,d_ori_9,d_ori_8,d_ori_3,d_ori_2,d_ori_1,d_ori_0,d_ori_7,d_ori_6,d_ori_5,d_ori_4,trialN,dtype_prime,stim_pos_x_18,stim_pos_x_19,stim_pos_x_12,stim_pos_x_13,stim_pos_x_10,stim_pos_x_11,stim_pos_x_16,stim_pos_x_17,stim_pos_x_14,stim_pos_x_15,stim_pos_y_9,stim_pos_y_8,d_ori_19,d_ori_18,stim_pos_y_1,stim_pos_y_0,stim_pos_y_3,stim_pos_y_2,stim_pos_y_5,stim_pos_y_4,stim_pos_y_7,stim_pos_y_6,totBlockN,stim_pos_x_27,stim_pos_x_26,stim_pos_x_25,stim_pos_x_24,stim_pos_x_23,stim_pos_x_22,stim_pos_x_21,stim_pos_x_20,blockN,stim_pos_x_29,stim_pos_x_28,prevDistrCTPD,prevDistrMean,prevDistrType,trials.thisRepN,trials.thisTrialN,trials.thisN,trials.thisIndex,timeStart,timeBeforeDraw,timeDraw,timeAfterSaving,timeAfterWritingToTemp,timeAfterPreparingNext,answer,correct,rt,trialScore,session,participant,resolution,cpu_info,expName,pc_name,graphic_card,date,monitorName,
80.3,98.5,95.1,104.6,36,40,84.1,99.4,99.5,101.5,8.327,8.324,7.6,8.191,7.743,7.66,7.865,5.045,-5.213,-7.798,1.784,-1.556,8.313,4.384,-4.555,-7.851,93.4,77.1,-7.847,,72.1,80.6,69.5,78.6,36,81.2,5,5,prime,10,0,99,norm,36,-4.65,down,norm,84.5995721282,74.4,90.1,92.5,80.4,1,64.6,80.6,87.9,10,6,8.362,4.759,2.011,-1.327,-5.181,-7.535,74.2,6,183.6,-7.636,-8.352,40,-8.359,-7.56,-4.734,-4.345,-4.951,-4.501,4.48,8.445,31,-1.801,1.141,4.369,8.117,-7.798,-8.156,-1.72,1.282,81.5,101.1,75.9,96.4,71.7,83.6,85.8,79.4,74.0,94.4,0,norm,1.387,1.97,-1.798,-1.979,-4.933,-4.436,-1.879,-1.546,-1.803,-1.181,1.391,-1.909,94.2,91.0,-4.657,-8.465,1.221,-1.904,8.267,5.259,-5.091,-8.286,0,4.886,4.795,4.901,4.48,1.349,1.358,1.531,1.737,0,4.695,4.409,,,,0,0,0,0,299.101,299.12,299.141078236,299.141,299.141,299.144,up,0,1.20169583051,-10,001,001,1920_1080,Intel(R) Core(TM) i5-3570 CPU @ 3.40GHz,orientation_search,LEPPC096,Intel(R) HD Graphics 2500,2018_Aug_30_1212,testMonitor,
104.5,67.4,92.6,,36,40,81.4,84.0,91.9,85.4,8.285,8.127,8.032,8.439,8.092,8.429,7.814,4.372,-5.003,-8.111,1.242,-1.882,8.113,4.308,-5.141,-8.095,74.7,81.4,-8.183,86.9,92.3,79.5,87.3,91.5,36,78.7,3,5,prime,10,0,60,norm,36,-4.948,up,norm,84.5995721282,64.6,97.1,93.0,80.2,3,79.2,79.3,96.3,10,6,7.612,4.744,1.845,-1.282,-4.943,-7.869,102.8,6,144.6,-7.84,-7.688,40,-7.858,-8.381,-4.947,-4.401,-5.053,-5.194,5.089,7.594,21,-1.515,1.674,4.998,7.642,-8.145,-8.201,-1.996,1.502,80.4,90.7,100.2,104.6,75.4,69.4,77.2,100.4,66.9,74.1,1,norm,2.057,1.738,-1.661,-1.953,-4.407,-4.622,-1.167,-1.588,-2.011,-1.316,2.026,-1.498,87.4,88.9,-5.027,-8.34,2.019,-2.078,8.155,4.367,-4.679,-8.032,0,4.734,5.296,5.21,4.668,1.651,1.305,2.015,1.855,0,4.669,4.87,,,,0,1,1,1,301.421,301.431,301.436463103,301.437,301.438,301.44,up,1,1.81064000683,8.18935999317,001,001,1920_1080,Intel(R) Core(TM) i5-3570 CPU @ 3.40GHz,orientation_search,LEPPC096,Intel(R) HD Graphics 2500,2018_Aug_30_1212,testMonitor,
78.6,100.2,91.4,83.1,36,40,88.7,,84.3,82.3,8.345,8.452,7.986,8.036,8.44,8.302,7.868,5.146,-4.545,-8.288,1.683,-1.158,8.123,4.935,-5.147,-8.017,77.0,93.0,-8.053,78.8,78.2,71.1,84.0,85.9,36,97.5,4,5,prime,10,0,112,norm,36,-5.208,down,norm,84.5995721282,104.6,97.7,91.9,80.2,1,69.2,88.2,87.2,10,6,7.706,4.545,1.429,-2.009,-5.087,-7.8,64.6,6,196.6,-7.709,-7.597,40,-7.501,-7.59,-4.672,-4.665,-4.675,-4.842,5.287,8.306,25,-2.03,1.272,5.116,8.282,-8.068,-8.456,-1.148,1.729,90.1,76.7,77.8,77.8,74.8,82.4,78.7,91.9,70.6,69.3,2,norm,2.046,1.302,-1.566,-1.444,-4.474,-4.715,-1.195,-1.275,-1.837,-1.779,1.141,-1.807,85.3,73.7,-4.71,-7.657,1.108,-1.105,7.948,4.649,-5.233,-7.547,0,4.367,4.931,4.4,4.753,1.599,1.4,1.155,2.017,0,4.381,4.649,,,,0,2,2,2,303.284,303.294,303.303508747,303.304,303.305,303.308,up,0,2.24656612583,-10,001,001,1920_1080,Intel(R) Core(TM) i5-3570 CPU @ 3.40GHz,orientation_search,LEPPC096,Intel(R) HD Graphics 2500,2018_Aug_30_1212,testMonitor,
91.9,85.8,104.6,65.8,36,40,74.4,73.9,87.2,81.2,8.039,8.167,8.498,8.399,8.014,7.636,8.057,5.209,-4.621,-7.698,1.36,-1.3,8.087,5.193,-4.72,-7.975,84.2,79.2,-8.344,102.9,,93.9,73.5,98.7,36,85.2,5,5,prime,10,0,79,norm,36,-4.534,down,norm,84.5995721282,94.5,99.3,83.1,94.3,0,90.3,91.7,64.6,10,6,8.001,5.137,1.839,-1.584,-5.223,-7.58,86.4,6,163.6,-7.744,-7.7,40,-7.598,-8.173,-4.379,-5.256,-4.94,-5.25,4.553,8.07,30,-1.566,1.892,4.697,8.18,-7.596,-7.97,-1.396,1.791,82.3,96.6,91.6,85.9,97.9,84.7,74.3,80.5,76.2,81.2,3,norm,1.599,1.48,-1.951,-1.81,-5.23,-4.583,-1.708,-1.787,-1.12,-1.122,1.375,-1.381,94.0,79.2,-4.731,-8.148,1.302,-1.596,8.284,4.473,-4.726,-8.062,0,4.716,5.162,4.675,4.302,1.129,1.542,2.051,1.144,0,4.689,4.703,,,,0,3,3,3,306.62,306.631,306.636256701,306.636,306.638,306.641,down,1,2.43801459063,7.56198540937,001,001,1920_1080,Intel(R) Core(TM) i5-3570 CPU @ 3.40GHz,orientation_search,LEPPC096,Intel(R) HD Graphics 2500,2018_Aug_30_1212,testMonitor,
87.1,83.6,,104.6,36,40,75.9,90.7,89.1,94.0,7.865,7.556,8.444,7.811,7.875,7.814,8.05,4.396,-4.975,-8.39,1.612,-1.922,7.713,4.889,-4.916,-8.281,82.7,64.6,-7.539,71.8,89.0,97.2,85.4,71.5,36,88.3,3,5,prime,10,0,114,norm,36,-4.477,down,norm,84.5995721282,71.4,71.6,81.2,69.6,2,84.6,94.6,69.4,10,6,7.528,5.142,2.085,-2.061,-4.375,-8.257,84.3,6,198.6,-8.486,-7.802,40,-7.513,-8.245,-4.772,-4.863,-4.923,-5.196,4.568,8.019,20,-1.648,1.885,4.311,8.45,-8.167,-7.535,-1.25,1.741,73.2,96.2,79.0,86.9,88.0,86.1,66.7,93.4,82.0,97.6,4,norm,1.757,1.401,-1.108,-1.633,-4.467,-4.594,-1.956,-1.349,-1.38,-1.529,1.913,-1.13,83.2,89.3,-5.293,-8.444,2.045,-1.27,7.79,5.019,-5.109,-8.466,0,4.494,4.555,4.748,4.81,1.737,1.2,1.526,2.03,0,4.821,4.834,,,,0,4,4,4,309.112,309.125,309.144091563,309.144,309.146,309.149,down,1,4.84582014393,5.15417985607,001,001,1920_1080,Intel(R) Core(TM) i5-3570 CPU @ 3.40GHz,orientation_search,LEPPC096,Intel(R) HD Graphics 2500,2018_Aug_30_1212,testMonitor,
75.5,78.7,90.4,88.4,36,40,86.9,82.9,70.8,73.5,7.537,8.264,8.487,8.223,7.962,8.133,7.868,4.812,-4.568,-8.134,1.904,-1.624,8.458,5.062,-4.329,-7.988,64.6,79.6,-7.519,101.3,78.5,75.4,99.2,86.2,36,86.6,3,5,prime,10,0,100,norm,36,-4.33,down,norm,84.5995721282,77.5,79.0,82.3,69.0,1,80.3,86.3,80.5,10,6,7.955,5.094,1.515,-1.771,-4.454,-7.615,92.6,6,184.6,-7.893,-7.603,40,-8.35,-7.91,-5.25,-4.677,-5.107,-4.521,4.319,7.62,19,-1.524,1.293,4.923,7.519,-7.66,-8.175,-1.505,1.404,81.6,89.9,91.4,96.8,104.6,98.8,92.5,75.3,87.1,91.4,5,norm,2.091,1.19,-1.465,-1.903,-5.084,-4.338,-1.434,-1.978,-1.556,-1.977,1.365,-1.354,,99.8,-4.687,-8.148,1.7,-1.963,8.003,5.077,-4.358,-8.194,0,4.773,4.883,4.669,5.235,1.686,1.319,1.845,1.462,0,4.365,4.899,,,,0,5,5,5,314.028,314.04,314.059981304,314.06,314.062,314.064,down,1,4.40512153975,5.59487846025,001,001,1920_1080,Intel(R) Core(TM) i5-3570 CPU @ 3.40GHz,orientation_search,LEPPC096,Intel(R) HD Graphics 2500,2018_Aug_30_1212,testMonitor,
200.9,213.6,218.2,205.3,36,10,210.8,212.1,217.5,212.5,7.775,8.073,7.571,7.559,7.947,8.394,7.614,4.458,-5.04,-7.903,1.412,-2.011,7.759,4.418,-4.571,-8.256,202.4,,-8.176,210.2,207.0,212.5,206.7,205.0,36,219.4,5,5,probe,5,0,79,norm,36,-4.328,up,norm,210.91095474,211.4,213.3,216.5,206.1,4,216.9,214.0,202.3,10,6,8.222,5.229,1.946,-1.108,-5.187,-8.297,210.7,2,131.9,-8.229,-8.24,40,-7.562,-8.234,-5.021,-4.454,-4.78,-4.477,4.421,7.852,34,-1.335,1.923,4.509,8.105,-7.666,-7.834,-1.514,1.198,208.5,206.0,209.9,215.6,211.7,214.5,207.6,220.9,204.0,209.2,0,norm,1.309,1.92,-2.032,-1.327,-4.635,-4.548,-1.786,-2.067,-1.245,-1.723,1.206,-1.27,208.2,217.8,-4.558,-7.601,1.358,-1.418,8.303,5.086,-4.887,-7.888,1,5.279,4.33,5.094,4.733,1.271,1.76,1.935,2.065,1,4.448,4.609,40,84.5995721282,norm,0,6,6,6,318.503,318.517,318.534861539,318.535,318.537,318.54,up,1,1.37360732085,8.62639267915,001,001,1920_1080,Intel(R) Core(TM) i5-3570 CPU @ 3.40GHz,orientation_search,LEPPC096,Intel(R) HD Graphics 2500,2018_Aug_30_1212,testMonitor,
195.0,202.9,201.8,197.7,36,10,203.2,195.3,201.8,200.5,7.586,8.261,7.53,8.14,8.139,8.428,8.292,4.787,-4.354,-8.355,1.66,-1.772,7.753,4.663,-4.477,-7.71,201.6,200.9,-8.126,201.5,203.9,201.8,196.9,205.9,36,196.5,2,5,probe,5,0,68,norm,36,-4.963,down,norm,199.91095474,194.8,203.9,198.3,203.3,1,200.1,,194.4,10,6,7.741,4.919,1.264,-1.832,-4.708,-8.043,199.8,2,131.9,-7.75,-8.153,40,-8.383,-7.836,-4.337,-4.995,-5.044,-4.949,5.101,7.849,13,-1.109,1.932,4.888,8.478,-7.847,-7.728,-1.368,1.184,200.8,189.9,206.8,197.6,201.7,199.0,199.2,199.0,198.1,198.9,1,norm,1.781,1.441,-1.244,-1.26,-5.181,-4.491,-1.494,-1.277,-1.579,-1.224,2.066,-2.067,193.4,209.9,-5.182,-8.022,1.899,-1.157,8.436,4.681,-4.746,-7.58,1,4.58,5.197,5.223,4.398,2.046,1.882,1.244,1.969,1,4.914,4.647,40,84.5995721282,norm,0,7,7,7,319.933,319.943,319.949134744,319.949,319.951,319.954,down,1,1.4496235831,8.5503764169,001,001,1920_1080,Intel(R) Core(TM) i5-3570 CPU @ 3.40GHz,orientation_search,LEPPC096,Intel(R) HD Graphics 2500,2018_Aug_30_1212,testMonitor,
330.6,318.7,342.2,322.9,36,-80,318.4,320.9,323.0,328.2,7.955,7.64,7.985,8.003,7.987,8.479,8.499,5.153,-4.489,-8.444,1.29,-1.462,8.31,4.431,-5.013,-7.72,329.7,342.6,-7.772,302.6,321.2,320.8,340.3,324.7,36,332.3,2,5,prime,10,0,93,norm,36,-5.053,up,norm,322.557299518,328.4,,308.0,318.9,4,307.6,316.0,337.0,10,6,8.356,4.344,2.072,-2.07,-4.913,-8.095,327.0,6,415.6,-8.234,-8.131,-80,-7.644,-7.707,-4.865,-4.75,-4.467,-5.297,4.486,8.261,16,-1.501,1.454,4.513,7.655,-7.866,-7.746,-1.927,1.333,311.9,327.0,321.2,321.3,319.7,308.4,331.6,332.9,317.7,319.7,0,norm,1.147,1.142,-1.425,-1.343,-5.205,-5.015,-1.115,-1.297,-2.046,-1.639,2.027,-1.955,328.8,327.2,-4.557,-7.763,1.356,-1.326,7.803,4.879,-4.454,-7.676,2,4.323,4.309,4.422,4.557,1.534,1.772,1.361,1.46,2,4.914,4.331,10,84.5995721282,norm,0,8,8,8,321.436,321.449,321.468557469,321.469,321.47,321.473,up,1,2.61339610118,7.38660389882,001,001,1920_1080,Intel(R) Core(TM) i5-3570 CPU @ 3.40GHz,orientation_search,LEPPC096,Intel(R) HD Graphics 2500,2018_Aug_30_1212,testMonitor,
316.6,327.3,331.4,319.0,36,-80,315.6,336.5,317.9,321.0,8.129,7.551,8.47,7.501,8.336,8.382,8.487,4.501,-5.223,-7.634,1.917,-1.774,7.718,5.026,-4.951,-7.706,320.4,314.4,-7.986,342.6,302.6,310.2,,317.3,36,324.2,5,5,prime,10,0,76,norm,36,-5.157,down,norm,322.557299518,318.1,308.5,320.1,312.7,2,320.6,308.8,311.8,10,6,8.014,5.282,1.81,-1.846,-4.516,-8.486,334.4,6,398.6,-8.052,-7.834,-80,-8.111,-7.575,-5.05,-5.076,-5.068,-5.078,4.629,8.334,32,-2.077,1.483,5.072,7.722,-8.282,-8.094,-1.492,1.403,337.4,321.7,328.0,331.7,330.8,324.5,317.7,317.4,320.4,330.6,1,norm,1.566,1.947,-1.491,-1.615,-4.395,-4.363,-1.161,-1.595,-1.475,-1.312,1.804,-1.172,320.5,321.1,-4.685,-7.897,1.493,-1.691,7.993,4.474,-4.933,-7.504,2,4.434,5.284,5.286,5.29,1.609,1.195,1.911,1.711,2,4.602,4.593,10,84.5995721282,norm,0,9,9,9,324.119,324.128,324.144247014,324.144,324.146,324.149,down,1,1.73683929333,8.26316070667,001,001,1920_1080,Intel(R) Core(TM) i5-3570 CPU @ 3.40GHz,orientation_search,LEPPC096,Intel(R) HD Graphics 2500,2018_Aug_30_1212,testMonitor,
333.8,319.9,,341.4,36,-80,338.4,316.7,325.4,322.1,8.409,8.015,8.444,8.272,7.782,7.58,8.499,4.432,-4.33,-7.79,1.485,-1.253,7.727,4.738,-4.6,-7.541,322.7,318.8,-7.968,313.1,316.6,312.2,330.5,322.7,36,322.3,3,5,prime,10,0,113,norm,36,-4.961,down,norm,322.557299518,323.6,327.3,303.8,322.9,2,323.6,319.7,336.9,10,6,7.582,4.993,1.577,-1.655,-5.2,-7.567,330.3,6,435.6,-7.766,-8.296,-80,-7.81,-7.528,-4.985,-4.419,-4.893,-4.915,5.05,8.083,20,-1.925,2.088,4.775,7.653,-7.932,-8.424,-1.93,1.284,321.0,320.3,317.8,332.1,326.2,342.6,302.6,312.3,313.5,330.6,2,norm,1.882,1.421,-1.579,-1.471,-4.879,-4.629,-1.569,-1.462,-1.648,-1.514,1.495,-1.776,319.7,320.3,-4.753,-8.042,1.871,-1.469,7.714,5.203,-4.323,-7.699,2,5.018,4.776,4.965,4.447,1.659,2.051,1.218,1.497,2,5.238,4.7,10,84.5995721282,norm,0,10,10,10,325.918,325.928,325.938044926,325.938,325.94,325.943,down,1,2.30037890713,7.69962109287,001,001,1920_1080,Intel(R) Core(TM) i5-3570 CPU @ 3.40GHz,orientation_search,LEPPC096,Intel(R) HD Graphics 2500,2018_Aug_30_1212,testMonitor,
327.8,329.6,312.8,305.7,36,-80,314.4,330.2,324.7,320.1,8.141,8.411,8.307,8.108,7.692,7.605,7.687,4.45,-4.501,-8.11,1.904,-1.646,8.051,5.077,-4.749,-8.382,320.7,321.0,-7.854,336.4,321.9,329.7,340.7,,36,312.8,4,5,prime,10,0,94,norm,36,-5.003,down,norm,322.557299518,338.1,320.3,317.6,342.6,2,330.0,324.8,330.2,10,6,7.75,4.78,1.814,-1.175,-4.755,-8.11,302.6,6,416.6,-7.651,-7.53,-80,-8.137,-8.151,-4.688,-4.919,-4.429,-4.806,4.358,8.412,26,-1.868,1.498,4.521,7.616,-7.807,-7.602,-1.704,1.89,331.5,330.5,337.2,324.8,302.7,307.9,315.5,319.3,307.7,337.0,3,norm,1.75,1.574,-2.071,-1.486,-4.462,-4.588,-1.662,-1.778,-1.297,-1.806,1.906,-1.758,323.0,330.4,-4.668,-8.087,1.756,-1.821,7.722,5.239,-5.045,-7.716,2,4.377,4.394,5.159,4.5,1.211,1.431,1.491,1.741,2,4.676,4.899,10,84.5995721282,norm,0,11,11,11,328.278,328.288,328.294514947,328.295,328.296,328.299,down,1,1.31494055598,8.68505944402,001,001,1920_1080,Intel(R) Core(TM) i5-3570 CPU @ 3.40GHz,orientation_search,LEPPC096,Intel(R) HD Graphics 2500,2018_Aug_30_1212,testMonitor,
322.4,330.6,328.0,323.6,36,-80,324.0,316.4,303.1,322.0,8.362,8.136,7.796,8.335,7.65,7.544,7.908,4.644,-4.396,-8.18,1.951,-1.361,7.994,5.137,-5.162,-7.825,329.2,321.9,-7.755,313.9,337.3,327.8,322.5,337.7,36,322.1,0,5,prime,10,0,71,norm,36,-5.048,down,norm,322.557299518,322.1,332.8,332.2,339.4,1,338.1,324.2,328.3,10,6,7.948,5.123,1.583,-1.658,-5.005,-8.382,318.4,6,393.6,-7.583,-7.507,-80,-8.049,-7.871,-4.811,-5.24,-4.379,-4.923,4.615,7.953,1,-1.411,1.186,5.073,7.858,-8.059,-7.919,-1.168,1.985,321.1,319.2,320.9,331.4,,320.8,335.3,332.5,323.5,302.6,4,norm,1.556,1.444,-1.629,-1.632,-4.984,-4.903,-1.73,-1.506,-1.948,-1.957,1.618,-1.753,324.6,325.8,-4.487,-8.324,1.738,-1.48,8.048,4.897,-4.491,-7.916,2,4.729,5.031,4.61,4.544,1.97,1.353,1.762,1.733,2,5.171,4.326,10,84.5995721282,norm,0,12,12,12,329.651,329.66,329.667575022,329.668,329.67,329.672,down,1,1.45167704061,8.54832295939,001,001,1920_1080,Intel(R) Core(TM) i5-3570 CPU @ 3.40GHz,orientation_search,LEPPC096,Intel(R) HD Graphics 2500,2018_Aug_30_1212,testMonitor,
326.8,332.1,328.8,311.6,36,-80,329.0,326.8,317.2,315.3,8.185,8.211,7.632,8.343,8.213,8.282,8.264,4.955,-4.762,-8.354,1.723,-1.811,8.367,4.549,-4.813,-8.152,320.4,318.3,-7.714,338.8,329.3,329.0,331.7,330.3,36,328.1,0,5,prime,10,0,78,norm,36,-5.137,up,norm,322.557299518,302.6,327.9,342.6,319.2,5,313.6,311.0,338.4,10,6,7.821,4.869,1.181,-1.264,-4.975,-7.651,331.3,6,400.6,-7.907,-8.168,-80,-8.186,-7.63,-4.661,-5.071,-4.613,-5.103,4.818,8.497,5,-1.141,1.996,5.169,8.094,-8.306,-8.11,-2.035,1.968,328.2,325.9,322.4,313.8,313.8,329.7,312.1,317.7,,313.5,5,norm,1.943,1.128,-1.112,-1.229,-4.532,-5.292,-1.103,-1.23,-1.727,-1.811,1.269,-1.399,340.9,314.4,-4.927,-8.336,1.744,-1.729,7.519,4.392,-4.312,-7.839,2,5.238,5.211,5.04,4.686,1.253,1.808,1.384,1.197,2,5.094,5.186,10,84.5995721282,norm,0,13,13,13,331.156,331.166,331.179495972,331.18,331.181,331.184,down,0,1.39546096243,-10,001,001,1920_1080,Intel(R) Core(TM) i5-3570 CPU @ 3.40GHz,orientation_search,LEPPC096,Intel(R) HD Graphics 2500,2018_Aug_30_1212,testMonitor,
320.4,333.2,326.6,326.5,36,0,332.8,318.7,328.8,323.5,8.382,7.968,8.183,7.843,8.345,7.805,8.394,4.558,-4.343,-7.691,1.801,-1.546,8.289,4.71,-4.942,-7.704,334.2,324.8,-8.08,333.2,331.4,324.6,,324.9,36,327.1,5,5,probe,5,0,91,norm,36,-5.152,down,norm,328.698803743,338.7,322.3,331.4,328.0,2,328.6,328.7,321.9,10,6,7.694,4.862,1.447,-1.138,-4.421,-8.481,322.3,2,237.7,-7.703,-7.529,-80,-7.764,-7.861,-4.398,-4.831,-4.748,-5.24,4.501,8.237,32,-1.209,1.567,4.856,7.707,-7.942,-7.759,-1.43,1.655,323.3,327.4,327.3,327.9,327.5,331.4,331.2,328.4,330.7,323.9,0,norm,1.964,1.248,-1.813,-1.291,-5.241,-4.825,-1.418,-1.956,-1.374,-1.861,1.946,-2.018,327.9,332.4,-4.313,-7.604,1.815,-1.285,8.142,4.94,-5.075,-7.927,3,5.23,5.205,4.872,4.893,1.854,1.648,1.799,1.267,3,4.619,4.966,-80,322.557299518,norm,0,14,14,14,333.633,333.643,333.659876141,333.66,333.662,333.664,down,1,2.59817129693,7.40182870307,001,001,1920_1080,Intel(R) Core(TM) i5-3570 CPU @ 3.40GHz,orientation_search,LEPPC096,Intel(R) HD Graphics 2500,2018_Aug_30_1212,testMonitor,
312.1,320.4,311.4,316.7,36,0,315.6,308.7,321.0,315.5,7.701,7.787,8.004,7.627,7.898,7.792,7.795,5.262,-5.011,-7.703,1.952,-1.945,8.196,4.603,-4.48,-7.692,325.6,326.9,-7.592,319.5,316.1,320.9,314.4,313.4,36,319.4,1,5,probe,5,0,81,norm,36,-4.982,down,norm,318.698803743,318.4,319.2,327.4,322.2,1,315.8,320.2,318.9,10,6,7.902,4.611,2.005,-1.86,-5.206,-8.028,314.1,2,237.7,-7.521,-8.177,-80,-8.411,-8.474,-4.977,-5.023,-4.841,-4.726,5.018,8.427,7,-1.14,1.182,4.714,8.25,-8.491,-7.54,-1.812,1.369,328.7,317.3,324.9,317.1,314.9,319.8,,317.7,313.0,320.1,1,norm,1.237,1.844,-1.233,-1.733,-4.778,-5.181,-1.192,-2.081,-1.702,-1.175,1.968,-1.403,322.9,317.7,-4.953,-8.246,1.377,-1.163,7.751,4.669,-5.105,-8.12,3,4.74,5.227,4.64,4.951,1.531,1.882,1.995,1.671,3,4.509,4.939,-80,322.557299518,norm,0,15,15,15,336.281,336.29,336.296910698,336.297,336.299,336.301,down,1,1.2149366018,8.7850633982,001,001,1920_1080,Intel(R) Core(TM) i5-3570 CPU @ 3.40GHz,orientation_search,LEPPC096,Intel(R) HD Graphics 2500,2018_Aug_30_1212,testMonitor,
213.9,227.9,212.5,205.2,36,-30,229.7,214.4,245.2,221.7,7.948,7.998,8.162,8.11,7.93,7.538,8.018,4.953,-5.269,-7.501,1.249,-1.349,7.633,4.372,-4.856,-7.747,240.8,231.2,-8.494,218.7,226.0,,218.2,206.6,36,231.1,5,5,prime,10,0,103,norm,36,-5.138,up,norm,225.201653279,213.5,223.0,221.3,215.0,3,223.9,217.9,216.4,10,6,8.38,4.751,1.177,-1.647,-4.729,-8.05,221.9,6,328.2,-8.137,-7.955,-30,-8.2,-8.183,-5.099,-5.008,-4.497,-5.015,4.769,8.325,33,-1.404,1.313,4.688,8.347,-8.252,-7.811,-1.215,1.968,220.2,229.7,229.4,222.0,234.9,219.8,231.9,211.6,223.1,230.3,0,norm,1.299,1.868,-1.731,-1.619,-4.886,-4.562,-1.806,-1.672,-1.969,-1.126,1.439,-1.356,222.8,235.3,-5.18,-8.132,1.917,-1.894,7.563,4.713,-4.552,-7.775,4,4.889,4.668,4.899,5.213,1.281,1.313,1.854,1.557,4,4.424,4.409,0,322.557299518,norm,0,16,16,16,337.549,337.562,337.581503669,337.582,337.583,337.586,up,1,1.44890458622,8.55109541378,001,001,1920_1080,Intel(R) Core(TM) i5-3570 CPU @ 3.40GHz,orientation_search,LEPPC096,Intel(R) HD Graphics 2500,2018_Aug_30_1212,testMonitor,
243.3,223.6,210.4,232.3,36,-30,219.5,222.3,231.3,232.0,7.845,7.785,8.21,8.364,7.891,7.574,7.672,5.035,-5.006,-7.92,1.55,-1.378,8.295,4.551,-4.994,-7.722,239.5,216.7,-7.982,224.6,222.1,207.5,,223.0,36,224.9,5,5,prime,10,0,64,norm,36,-4.845,down,norm,225.201653279,232.5,226.4,215.8,211.2,2,220.3,215.5,205.2,10,6,7.543,5.154,1.844,-1.665,-4.58,-7.651,215.1,6,289.2,-7.938,-7.769,-30,-7.958,-7.938,-4.333,-5.234,-4.73,-4.374,4.705,8.254,32,-1.226,1.44,4.614,8.147,-7.628,-7.634,-1.538,1.35,224.6,218.9,225.5,225.1,230.8,224.7,225.4,211.5,220.5,245.2,1,norm,1.768,1.263,-2.039,-2.073,-4.376,-4.52,-1.731,-2.012,-1.853,-1.534,1.127,-1.883,226.8,211.0,-4.436,-8.018,2.083,-1.799,7.518,4.649,-4.715,-8.421,4,5.188,4.9,4.323,4.888,1.589,1.642,1.413,1.572,4,4.691,5.152,0,322.557299518,norm,0,17,17,17,339.073,339.083,339.091156851,339.091,339.093,339.096,down,1,2.04180655966,7.95819344034,001,001,1920_1080,Intel(R) Core(TM) i5-3570 CPU @ 3.40GHz,orientation_search,LEPPC096,Intel(R) HD Graphics 2500,2018_Aug_30_1212,testMonitor,
222.8,240.6,226.6,218.2,36,-30,233.1,233.1,230.2,227.1,7.911,8.423,8.022,7.643,7.909,7.623,7.801,4.554,-5.282,-7.819,1.965,-1.789,8.192,4.728,-4.599,-7.545,230.4,228.3,-7.507,226.8,217.7,215.7,234.0,245.2,36,225.8,0,5,prime,10,0,113,norm,36,-5.27,down,norm,225.201653279,217.5,225.3,225.4,223.3,0,220.5,236.0,235.1,10,6,8.325,4.658,2.003,-1.513,-4.391,-7.899,213.3,6,338.2,-7.795,-7.56,-30,-8.411,-8.186,-4.98,-5.06,-4.75,-4.571,5.233,8.499,0,-1.661,1.144,4.919,8.337,-7.991,-8.005,-1.452,1.423,207.0,230.5,221.3,205.2,232.2,,215.1,223.3,210.6,226.6,2,norm,1.931,1.375,-1.668,-1.259,-4.443,-4.93,-1.174,-1.243,-1.967,-1.11,1.696,-1.139,226.7,243.0,-4.496,-7.655,1.166,-1.37,8.106,4.953,-4.458,-7.691,4,4.403,4.831,4.703,4.91,1.589,1.496,1.747,1.359,4,4.369,4.968,0,322.557299518,norm,0,18,18,18,341.17,341.179,341.194151495,341.194,341.196,341.199,down,1,1.55147332482,8.44852667518,001,001,1920_1080,Intel(R) Core(TM) i5-3570 CPU @ 3.40GHz,orientation_search,LEPPC096,Intel(R) HD Graphics 2500,2018_Aug_30_1212,testMonitor,
236.0,216.8,227.5,229.4,36,-30,233.3,224.3,222.8,242.7,7.581,7.809,8.479,8.454,8.188,8.148,7.919,4.62,-5.257,-8.237,2.086,-2.0,8.014,4.851,-4.735,-8.063,231.7,225.5,-7.865,229.6,217.3,,223.8,216.2,36,227.9,5,5,prime,10,0,111,norm,36,-4.936,up,norm,225.201653279,228.7,224.9,214.1,215.1,3,231.5,205.2,237.3,10,6,7.891,4.378,1.218,-1.607,-4.424,-8.448,233.5,6,336.2,-7.514,-7.703,-30,-8.283,-8.437,-5.137,-4.729,-4.749,-5.255,4.826,7.563,33,-1.935,1.756,4.816,7.873,-7.633,-7.514,-1.75,1.295,245.2,244.3,212.7,217.4,221.8,226.8,229.4,231.4,233.8,228.1,3,norm,2.065,1.555,-1.81,-1.726,-4.598,-4.555,-2.09,-1.81,-1.185,-1.473,1.837,-1.43,242.3,221.9,-4.585,-8.398,1.533,-1.972,7.798,4.421,-4.541,-7.673,4,5.058,4.928,4.871,4.742,1.999,1.31,1.835,1.744,4,4.358,4.828,0,322.557299518,norm,0,19,19,19,342.77,342.78,342.786366769,342.787,342.788,342.791,up,1,1.14543538099,8.85456461901,001,001,1920_1080,Intel(R) Core(TM) i5-3570 CPU @ 3.40GHz,orientation_search,LEPPC096,Intel(R) HD Graphics 2500,2018_Aug_30_1212,testMonitor,
236.5,233.7,222.1,235.2,36,-30,230.7,236.7,208.1,229.3,7.748,7.924,8.48,8.269,7.746,7.789,8.486,4.677,-4.5,-7.849,1.299,-1.689,8.1,4.601,-4.643,-8.028,222.4,222.6,-7.813,218.4,218.8,209.1,222.5,233.8,36,220.8,0,5,prime,10,0,91,norm,36,-4.942,down,norm,225.201653279,218.4,214.8,237.7,211.9,0,222.5,227.1,222.5,10,6,7.915,5.077,2.1,-1.644,-4.574,-7.886,218.3,6,316.2,-8.133,-7.968,-30,-7.824,-8.039,-5.118,-4.435,-4.527,-4.397,4.662,7.887,0,-1.254,1.123,4.949,7.907,-7.756,-8.321,-1.608,1.494,223.2,245.2,232.1,220.1,226.1,,239.8,216.8,228.4,219.7,4,norm,1.583,1.258,-1.264,-1.921,-4.897,-4.337,-1.491,-1.776,-1.645,-1.45,1.437,-1.829,205.2,239.2,-4.502,-8.142,1.211,-2.03,7.775,5.273,-4.904,-7.642,4,4.578,4.503,4.834,4.604,1.249,1.267,1.889,1.481,4,4.829,4.556,0,322.557299518,norm,0,20,20,20,343.956,343.965,343.973742729,343.974,343.976,343.978,down,1,1.68513399995,8.31486600005,001,001,1920_1080,Intel(R) Core(TM) i5-3570 CPU @ 3.40GHz,orientation_search,LEPPC096,Intel(R) HD Graphics 2500,2018_Aug_30_1212,testMonitor,
227.1,227.9,231.2,227.6,36,-30,233.7,239.6,224.0,233.0,7.599,7.541,7.505,8.279,8.303,8.281,8.48,4.752,-5.24,-7.529,1.663,-1.99,8.155,4.958,-5.27,-7.904,226.2,232.0,-7.997,227.7,230.9,237.0,218.7,222.3,36,242.9,0,5,prime,10,0,86,norm,36,-5.217,up,norm,225.201653279,222.8,230.9,222.5,227.0,4,219.1,216.8,220.1,10,6,8.215,5.21,1.361,-1.685,-4.766,-8.446,205.2,6,311.2,-8.007,-8.349,-30,-7.642,-8.11,-4.8,-5.046,-4.406,-5.022,4.96,7.671,4,-1.958,1.493,4.648,7.583,-8.472,-8.297,-1.858,1.602,213.7,224.7,228.1,230.1,239.1,225.7,233.1,219.8,226.2,,5,norm,1.478,1.888,-1.844,-1.895,-4.752,-4.791,-1.327,-1.372,-1.573,-1.794,2.093,-1.71,245.2,234.0,-5.016,-8.389,1.363,-1.595,8.448,4.885,-4.95,-7.922,4,4.742,4.95,4.544,4.996,1.574,1.913,1.955,1.327,4,5.293,4.459,0,322.557299518,norm,0,21,21,21,345.703,345.712,345.719326497,345.72,345.721,345.724,up,1,1.19737400123,8.80262599877,001,001,1920_1080,Intel(R) Core(TM) i5-3570 CPU @ 3.40GHz,orientation_search,LEPPC096,Intel(R) HD Graphics 2500,2018_Aug_30_1212,testMonitor,
293.8,294.7,306.1,,36,30,300.5,300.1,296.2,286.6,7.675,8.319,8.098,8.131,8.479,8.143,7.731,4.741,-5.157,-8.462,1.591,-1.208,7.673,4.396,-5.029,-8.434,293.4,297.2,-7.74,296.9,293.1,306.6,294.4,300.4,36,301.3,3,5,probe,5,0,102,norm,36,-4.922,up,norm,296.56973356,300.4,304.7,299.6,297.2,3,291.8,297.6,298.6,10,6,7.763,4.424,1.502,-1.287,-4.352,-8.437,298.4,1,194.6,-8.403,-7.731,-30,-8.451,-7.696,-4.427,-5.245,-4.321,-4.61,4.565,7.588,21,-1.304,1.422,5.024,7.868,-8.181,-7.728,-1.312,1.354,295.5,291.5,298.2,288.9,289.2,296.5,293.3,293.8,296.4,299.6,0,norm,1.505,2.061,-1.607,-1.563,-4.743,-5.229,-1.832,-2.011,-1.773,-1.13,1.54,-1.928,293.1,304.6,-4.971,-7.552,1.53,-1.23,7.702,4.953,-5.069,-8.15,5,4.312,5.128,4.89,4.765,1.821,1.255,1.444,1.45,5,4.701,4.553,-30,225.201653279,norm,0,22,22,22,346.954,346.963,346.981420179,346.982,346.983,346.986,up,1,1.32835941634,8.67164058366,001,001,1920_1080,Intel(R) Core(TM) i5-3570 CPU @ 3.40GHz,orientation_search,LEPPC096,Intel(R) HD Graphics 2500,2018_Aug_30_1212,testMonitor,
188.7,220.3,188.9,209.5,36,-10,197.8,216.3,202.0,195.2,7.711,8.05,8.178,7.815,7.545,8.39,8.265,4.639,-4.899,-7.786,1.551,-1.701,7.776,5.035,-4.95,-7.679,199.8,188.1,-7.653,206.8,214.2,208.8,210.9,201.1,36,206.7,0,5,prime,10,0,75,norm,36,-4.578,down,norm,203.520220252,223.5,184.0,222.2,207.6,0,198.5,198.4,196.3,10,5,7.535,4.613,1.582,-1.196,-4.522,-8.111,204.3,5,278.5,-7.707,-8.435,-10,-8.23,-8.106,-4.522,-4.544,-4.943,-4.447,4.605,7.627,0,-1.961,1.962,4.736,7.636,-8.047,-7.642,-1.252,1.531,183.5,197.5,195.4,221.8,216.4,,207.3,215.1,197.8,199.1,0,norm,1.337,1.377,-1.694,-1.688,-5.166,-5.141,-1.584,-1.448,-1.133,-1.175,1.793,-1.717,201.7,204.9,-4.386,-8.422,1.584,-1.859,7.927,4.991,-4.762,-8.324,6,4.728,5.129,4.317,4.435,1.57,1.856,1.45,1.9,6,4.444,4.865,30,225.201653279,norm,0,23,23,23,348.356,348.376,348.387592142,348.388,348.39,348.393,down,1,1.85568507091,8.14431492909,001,001,1920_1080,Intel(R) Core(TM) i5-3570 CPU @ 3.40GHz,orientation_search,LEPPC096,Intel(R) HD Graphics 2500,2018_Aug_30_1212,testMonitor,
199.4,212.8,196.0,204.5,36,-10,208.1,215.5,207.6,189.3,8.12,7.826,7.959,8.424,7.767,7.915,8.456,5.042,-4.602,-8.139,1.997,-1.427,8.36,4.824,-5.022,-7.689,193.4,209.6,-8.488,212.4,189.6,183.5,221.8,204.4,36,190.1,2,5,prime,10,0,94,norm,36,-5.106,up,norm,203.520220252,198.4,201.6,,195.6,3,198.1,211.9,197.5,10,5,8.254,4.839,1.559,-1.961,-4.921,-8.498,195.0,5,297.5,-7.624,-8.004,-10,-7.563,-7.725,-5.299,-5.042,-5.155,-4.991,4.46,7.675,15,-1.537,1.795,4.401,7.67,-7.954,-7.656,-2.066,1.287,199.9,192.3,206.3,203.9,209.6,200.1,217.9,205.9,223.5,204.0,1,norm,1.4,1.437,-1.322,-1.901,-4.632,-4.815,-1.64,-1.763,-1.18,-2.026,1.216,-1.837,211.7,204.8,-5.098,-8.362,1.473,-1.965,8.043,4.595,-4.846,-7.891,6,4.65,4.8,4.418,4.356,1.63,1.102,1.382,1.814,6,4.397,4.857,30,225.201653279,norm,0,24,24,24,350.289,350.298,350.3069842,350.307,350.309,350.312,up,1,2.27582434864,7.72417565136,001,001,1920_1080,Intel(R) Core(TM) i5-3570 CPU @ 3.40GHz,orientation_search,LEPPC096,Intel(R) HD Graphics 2500,2018_Aug_30_1212,testMonitor,
212.3,209.2,212.6,198.3,36,-10,200.7,204.6,203.7,214.2,7.851,8.298,7.744,7.719,7.842,8.371,7.74,4.501,-5.211,-7.596,1.486,-1.955,8.283,5.15,-5.079,-7.834,223.5,209.6,-7.934,183.5,222.1,207.4,209.3,195.7,36,197.3,1,5,prime,10,0,88,norm,36,-4.347,down,norm,203.520220252,208.7,210.9,194.2,193.8,0,210.5,207.4,205.0,10,5,8.313,5.092,1.855,-1.514,-4.467,-7.809,198.9,5,291.5,-7.962,-8.347,-10,-8.436,-8.446,-4.642,-4.593,-5.243,-4.58,4.399,7.603,6,-1.639,1.4,4.898,8.043,-7.876,-8.207,-2.083,1.209,210.8,211.5,191.2,199.0,199.4,196.3,204.2,,215.6,208.5,2,norm,2.011,1.185,-1.862,-1.283,-5.132,-4.862,-1.217,-1.426,-1.964,-2.068,1.252,-1.983,208.7,201.0,-4.537,-7.7,1.889,-1.836,7.741,4.46,-5.247,-8.134,6,4.5,4.372,4.936,5.216,1.768,1.635,1.418,1.931,6,4.537,5.064,30,225.201653279,norm,0,25,25,25,352.629,352.638,352.644988196,352.645,352.647,352.649,down,1,1.60293502858,8.39706497142,001,001,1920_1080,Intel(R) Core(TM) i5-3570 CPU @ 3.40GHz,orientation_search,LEPPC096,Intel(R) HD Graphics 2500,2018_Aug_30_1212,testMonitor,
202.1,210.8,204.4,210.7,36,-10,211.9,216.0,223.4,205.6,7.536,7.952,8.026,7.661,7.968,7.87,8.485,4.91,-4.475,-7.732,1.131,-1.264,7.618,4.81,-4.976,-7.743,200.6,211.2,-8.138,206.3,200.8,214.5,203.2,220.9,36,199.4,2,5,prime,10,0,95,norm,36,-5.066,down,norm,203.520220252,203.0,199.1,200.8,201.3,0,212.0,223.5,,10,5,7.834,4.79,1.381,-1.724,-4.677,-8.427,219.1,5,298.5,-8.227,-8.184,-10,-8.282,-7.877,-4.952,-5.119,-4.364,-5.159,4.311,7.987,12,-1.632,1.223,4.437,8.073,-8.337,-7.857,-1.343,1.759,189.5,195.9,201.4,214.3,183.5,210.1,210.7,222.6,208.0,186.6,3,norm,1.803,1.371,-1.316,-1.682,-5.155,-5.275,-1.997,-1.318,-1.435,-1.647,1.518,-1.23,200.8,213.8,-5.176,-8.137,1.109,-1.611,7.87,4.406,-4.931,-8.073,6,5.039,4.521,5.119,4.875,1.478,1.169,1.982,2.061,6,4.754,5.256,30,225.201653279,norm,0,26,26,26,354.283,354.292,354.298604053,354.299,354.3,354.303,down,1,0.925815640385,9.07418435962,001,001,1920_1080,Intel(R) Core(TM) i5-3570 CPU @ 3.40GHz,orientation_search,LEPPC096,Intel(R) HD Graphics 2500,2018_Aug_30_1212,testMonitor,
205.9,221.6,209.1,207.0,36,-10,200.4,199.0,221.8,195.3,8.175,8.425,8.23,7.53,8.243,8.46,8.019,5.215,-5.051,-8.463,1.86,-1.261,7.546,4.585,-4.779,-8.368,207.5,213.8,-7.72,200.4,208.2,203.3,203.5,223.5,36,186.9,2,5,prime,10,0,77,norm,36,-5.242,up,norm,203.520220252,,196.5,190.7,195.3,5,221.7,189.1,205.9,10,5,7.595,4.715,1.475,-1.714,-4.746,-7.843,196.2,5,280.5,-7.982,-7.691,-10,-7.547,-7.616,-4.323,-4.789,-4.897,-5.196,4.851,7.673,17,-2.093,1.474,4.447,7.849,-8.188,-8.148,-2.075,1.25,219.0,195.6,193.7,215.6,219.3,202.8,203.6,209.2,193.0,183.5,4,norm,1.524,1.516,-1.285,-1.974,-4.849,-5.238,-1.84,-1.838,-1.669,-1.845,1.814,-1.201,189.7,207.5,-4.892,-7.85,1.963,-1.858,7.752,5.222,-4.558,-7.936,6,5.225,4.412,5.236,4.674,1.31,2.084,1.478,1.215,6,5.001,5.298,30,225.201653279,norm,0,27,27,27,355.245,355.254,355.264640657,355.265,355.267,355.269,up,1,1.48548770295,8.51451229705,001,001,1920_1080,Intel(R) Core(TM) i5-3570 CPU @ 3.40GHz,orientation_search,LEPPC096,Intel(R) HD Graphics 2500,2018_Aug_30_1212,testMonitor,
282.5,272.5,280.2,271.5,36,-30,284.9,279.3,286.5,290.8,8.202,8.029,8.386,8.002,8.086,8.062,8.009,5.298,-5.042,-7.778,1.549,-1.393,7.726,5.017,-4.893,-8.297,277.3,280.0,-8.341,284.2,270.8,280.9,275.8,280.6,36,280.9,0,5,probe,5,0,86,norm,36,-4.559,up,norm,280.770587525,277.4,277.0,274.6,285.6,4,277.9,281.9,283.7,10,5,7.91,4.545,1.29,-1.909,-4.809,-7.828,289.7,2,194.8,-7.554,-7.899,-10,-8.222,-7.746,-4.591,-4.41,-4.717,-4.71,5.26,8.323,4,-2.07,1.842,5.051,8.318,-7.746,-8.201,-2.03,1.197,283.5,286.6,276.9,284.6,288.3,273.1,272.7,277.2,280.1,,0,norm,1.211,1.403,-1.742,-1.455,-4.982,-4.987,-1.855,-1.518,-1.307,-1.377,1.726,-1.866,277.0,277.7,-5.226,-7.621,1.991,-1.34,8.433,5.211,-5.064,-8.349,7,4.805,5.045,4.856,5.297,1.736,1.477,1.686,1.352,7,5.191,4.61,-10,203.520220252,norm,0,28,28,28,356.787,356.797,356.808994645,356.809,356.811,356.813,up,1,3.21482069298,6.78517930702,001,001,1920_1080,Intel(R) Core(TM) i5-3570 CPU @ 3.40GHz,orientation_search,LEPPC096,Intel(R) HD Graphics 2500,2018_Aug_30_1212,testMonitor,
252.6,251.7,260.1,249.6,36,-30,260.1,259.4,266.0,252.7,8.122,8.282,7.696,8.15,7.568,7.776,8.311,4.922,-5.019,-7.755,1.387,-1.701,8.082,4.856,-5.048,-7.962,253.6,257.9,-7.626,258.6,248.2,266.8,262.6,262.0,36,260.3,2,5,probe,5,0,62,norm,36,-4.888,down,norm,256.770587525,264.0,258.1,261.5,246.8,1,257.7,,252.4,10,5,7.515,4.692,2.086,-1.96,-5.03,-7.66,261.2,2,194.8,-8.011,-8.446,-10,-8.005,-7.927,-5.039,-4.844,-5.03,-4.649,4.395,7.999,13,-1.333,1.855,4.636,8.133,-7.663,-8.215,-1.782,2.068,253.4,257.4,261.2,256.7,256.7,256.9,255.8,256.0,255.8,263.8,1,norm,1.816,1.866,-1.278,-1.911,-5.04,-5.042,-1.884,-1.112,-2.093,-1.672,1.54,-1.925,254.5,247.9,-4.698,-7.627,1.98,-1.522,8.399,4.858,-5.039,-8.465,7,4.333,4.413,4.725,4.822,1.318,1.432,2.066,1.211,7,4.504,4.864,-10,203.520220252,norm,0,29,29,29,360.07,360.079,360.085949105,360.086,360.088,360.09,down,1,1.40402191522,8.59597808478,001,001,1920_1080,Intel(R) Core(TM) i5-3570 CPU @ 3.40GHz,orientation_search,LEPPC096,Intel(R) HD Graphics 2500,2018_Aug_30_1212,testMonitor,
80.2,97.4,97.6,82.3,36,80,,103.9,88.3,109.7,8.43,8.42,7.566,7.71,8.279,8.414,8.274,5.059,-4.383,-8.145,1.625,-1.631,7.646,5.082,-4.435,-8.45,84.2,85.9,-8.391,80.5,90.6,88.3,91.2,91.7,36,85.0,4,5,prime,10,0,70,norm,36,-5.083,down,norm,89.7057233224,77.0,104.6,80.9,81.5,0,97.2,92.1,104.4,10,6,8.393,5.116,1.96,-1.665,-4.971,-8.375,95.2,6,159.7,-8.104,-8.422,80,-8.434,-8.131,-4.781,-4.577,-4.886,-4.644,4.768,7.857,24,-1.606,1.53,5.253,7.694,-8.379,-7.767,-1.974,1.762,99.9,90.5,90.1,94.1,75.6,98.7,81.3,86.1,72.8,69.7,0,norm,1.23,1.793,-1.182,-2.013,-5.123,-4.984,-1.668,-1.23,-2.07,-1.42,1.979,-1.526,109.7,101.0,-4.774,-8.433,1.48,-1.427,8.467,5.001,-4.416,-7.661,8,5.229,5.287,4.585,4.544,1.778,1.696,2.02,1.23,8,4.556,4.764,-30,203.520220252,norm,0,30,30,30,361.537,361.553,361.568976462,361.569,361.571,361.574,down,1,4.99171614172,5.00828385828,001,001,1920_1080,Intel(R) Core(TM) i5-3570 CPU @ 3.40GHz,orientation_search,LEPPC096,Intel(R) HD Graphics 2500,2018_Aug_30_1212,testMonitor,
98.3,98.9,96.6,98.7,36,80,97.3,105.0,79.7,79.1,8.393,7.823,8.239,7.864,7.524,8.432,7.536,4.591,-5.029,-8.169,1.431,-1.219,7.597,4.771,-4.392,-8.349,109.7,77.1,-8.376,92.1,81.2,94.0,79.2,76.6,36,86.4,2,5,prime,10,0,112,norm,36,-5.198,down,norm,89.7057233224,79.4,81.8,98.1,95.1,0,97.1,87.7,,10,6,7.903,5.205,1.429,-1.446,-5.026,-8.445,95.9,6,201.7,-7.832,-7.839,80,-7.803,-7.877,-4.416,-4.961,-5.028,-5.03,4.717,7.676,12,-1.149,1.891,5.086,7.843,-7.553,-7.742,-1.372,2.005,96.0,83.1,76.4,84.7,92.6,105.2,97.7,69.7,91.2,85.9,1,norm,1.725,1.273,-1.314,-1.871,-4.431,-4.588,-2.091,-1.109,-1.423,-1.266,1.616,-1.466,84.8,71.6,-4.51,-8.347,1.959,-1.132,8.293,4.852,-4.477,-7.693,8,4.473,5.211,4.766,4.659,1.498,1.363,1.967,1.549,8,4.819,4.803,-30,203.520220252,norm,0,31,31,31,366.607,366.623,366.63871433,366.639,366.641,366.644,down,1,4.38166237995,5.61833762005,001,001,1920_1080,Intel(R) Core(TM) i5-3570 CPU @ 3.40GHz,orientation_search,LEPPC096,Intel(R) HD Graphics 2500,2018_Aug_30_1212,testMonitor,
77.8,94.0,94.1,100.1,36,80,101.6,82.3,83.8,71.7,8.403,8.324,8.201,8.379,8.181,7.71,7.784,4.749,-4.773,-8.269,1.31,-1.71,7.92,4.992,-4.346,-8.216,89.2,80.8,-8.117,92.2,89.6,100.9,99.9,99.3,36,96.1,2,5,prime,10,0,115,norm,36,-4.96,up,norm,89.7057233224,94.0,,93.8,95.0,4,99.4,80.9,85.6,10,6,7.752,4.436,1.577,-1.635,-5.163,-8.495,80.9,6,204.7,-7.944,-7.796,80,-7.922,-7.831,-5.0,-4.407,-5.131,-5.051,5.203,7.852,16,-1.306,1.895,5.101,7.963,-8.452,-8.358,-1.868,1.985,69.7,70.7,88.1,76.0,85.2,96.5,83.2,100.8,78.3,109.7,2,norm,1.344,1.785,-1.496,-1.238,-4.711,-4.958,-1.33,-1.965,-2.027,-1.485,1.145,-1.921,100.9,81.4,-5.215,-7.665,1.556,-1.925,8.373,5.203,-4.683,-8.03,8,5.241,4.617,4.878,5.03,1.748,1.229,1.619,1.725,8,5.068,4.766,-30,203.520220252,norm,0,32,32,32,371.068,371.088,371.100065833,371.1,371.102,371.105,up,1,2.96023391848,7.03976608152,001,001,1920_1080,Intel(R) Core(TM) i5-3570 CPU @ 3.40GHz,orientation_search,LEPPC096,Intel(R) HD Graphics 2500,2018_Aug_30_1212,testMonitor,
81.2,85.9,81.0,73.7,36,80,86.9,100.0,101.5,84.8,8.227,8.353,7.946,7.592,7.627,8.219,8.284,4.703,-5.199,-7.974,1.994,-1.632,8.017,4.51,-5.226,-7.764,86.8,93.4,-8.182,87.9,82.7,88.9,83.4,,36,83.7,4,5,prime,10,0,95,norm,36,-5.141,down,norm,89.7057233224,72.3,69.7,90.4,98.1,2,109.7,88.5,79.7,10,6,8.315,4.997,1.855,-1.902,-4.435,-8.06,102.0,6,184.7,-8.116,-8.218,80,-7.536,-8.234,-4.372,-4.946,-5.195,-4.435,4.96,7.638,26,-2.038,2.073,5.269,7.941,-7.573,-8.106,-1.778,1.469,83.0,77.1,84.5,98.5,75.6,86.9,93.0,84.8,91.3,72.4,3,norm,1.306,1.146,-1.77,-1.19,-5.259,-5.108,-1.862,-1.831,-1.418,-1.242,1.266,-1.34,97.9,71.6,-4.705,-8.377,1.923,-1.741,7.898,4.764,-4.744,-8.404,8,4.839,4.687,4.828,5.237,1.735,1.771,1.548,1.212,8,4.672,4.951,-30,203.520220252,norm,0,33,33,33,374.098,374.107,374.124201127,374.124,374.126,374.129,up,0,3.42787558758,-10,001,001,1920_1080,Intel(R) Core(TM) i5-3570 CPU @ 3.40GHz,orientation_search,LEPPC096,Intel(R) HD Graphics 2500,2018_Aug_30_1212,testMonitor,
94.5,87.8,105.8,74.7,36,80,93.3,96.8,93.9,84.9,8.153,7.824,7.646,8.47,8.083,7.624,8.027,4.855,-4.634,-7.744,1.105,-1.135,7.506,4.318,-4.379,-7.73,87.5,85.6,-7.95,99.0,,103.6,91.4,98.5,36,69.7,5,5,prime,10,0,72,norm,36,-4.699,down,norm,89.7057233224,100.7,98.5,105.8,76.1,0,82.4,96.3,92.6,10,6,8.192,4.9,1.458,-1.295,-5.029,-7.996,93.3,6,161.7,-8.459,-7.716,80,-8.166,-8.181,-4.622,-4.696,-5.162,-4.703,4.559,8.404,30,-1.361,1.73,4.31,7.746,-8.189,-7.521,-1.539,1.772,83.1,102.6,78.5,86.9,98.1,71.7,103.7,109.7,75.3,82.5,4,norm,1.872,1.5,-1.618,-1.357,-4.344,-4.641,-2.055,-1.125,-1.558,-1.774,1.836,-1.137,74.6,76.2,-5.025,-7.873,1.286,-2.019,7.982,4.989,-4.594,-8.309,8,4.813,5.033,5.193,4.325,1.928,1.257,1.109,1.182,8,4.984,5.011,-30,203.520220252,norm,0,34,34,34,378.607,378.616,378.632483023,378.633,378.634,378.637,down,1,3.7553499918,6.2446500082,001,001,1920_1080,Intel(R) Core(TM) i5-3570 CPU @ 3.40GHz,orientation_search,LEPPC096,Intel(R) HD Graphics 2500,2018_Aug_30_1212,testMonitor,
96.2,80.4,94.2,109.7,36,80,90.9,89.0,72.7,,7.763,8.376,7.749,7.977,8.385,8.033,8.03,4.541,-4.699,-7.606,1.827,-1.918,7.805,5.042,-5.11,-8.484,85.5,89.7,-7.521,89.5,88.3,83.5,94.0,94.9,36,83.5,4,5,prime,10,0,110,norm,36,-4.858,up,norm,89.7057233224,93.0,93.8,91.5,69.7,5,85.4,81.8,83.6,10,6,8.215,4.977,1.676,-1.934,-5.053,-7.614,71.6,6,199.7,-8.483,-8.051,80,-8.336,-8.467,-4.869,-4.859,-4.361,-4.786,5.129,7.604,29,-1.15,1.439,4.502,8.234,-8.073,-8.243,-1.827,1.417,95.0,86.3,76.7,79.2,91.9,77.6,84.4,88.1,85.7,101.1,5,norm,1.914,1.783,-1.676,-1.541,-4.643,-4.426,-2.057,-1.376,-1.992,-1.653,1.986,-1.279,90.2,98.3,-4.824,-8.338,1.321,-1.706,8.452,5.082,-4.929,-8.114,8,4.804,4.831,5.143,5.006,1.375,1.522,1.92,1.315,8,4.904,5.07,-30,203.520220252,norm,0,35,35,35,382.409,382.419,382.438585985,382.439,382.44,382.443,down,0,2.40248733077,-10,001,001,1920_1080,Intel(R) Core(TM) i5-3570 CPU @ 3.40GHz,orientation_search,LEPPC096,Intel(R) HD Graphics 2500,2018_Aug_30_1212,testMonitor,
234.5,235.4,223.8,233.5,36,-60,232.0,243.1,223.1,231.5,8.226,8.075,8.481,8.184,8.355,7.675,8.2,4.584,-4.888,-7.768,1.583,-1.664,8.264,4.54,-4.345,-7.808,232.1,241.2,-7.777,235.1,228.0,234.0,236.9,239.0,36,242.4,1,5,probe,5,0,61,norm,36,-4.679,down,norm,233.067608583,236.4,237.2,233.2,227.0,0,236.8,238.7,233.5,10,6,7.9,4.424,2.059,-1.538,-5.054,-8.01,225.4,1,172.1,-8.462,-7.919,80,-8.434,-7.989,-4.897,-4.535,-4.343,-4.911,4.438,8.282,6,-1.673,1.555,5.271,7.517,-7.907,-7.878,-1.607,1.881,229.4,231.4,233.8,236.9,229.5,233.9,228.9,,228.5,234.1,0,norm,1.645,1.755,-1.172,-1.754,-4.545,-4.851,-1.207,-1.699,-1.212,-1.654,1.159,-1.629,229.4,231.1,-5.043,-7.525,1.237,-1.566,8.438,4.9,-4.826,-7.929,9,4.709,4.631,5.196,4.984,1.42,1.792,1.972,1.413,9,4.815,5.145,80,89.7057233224,norm,0,36,36,36,385.912,385.921,385.932947353,385.933,385.935,385.937,down,1,1.65568682162,8.34431317838,001,001,1920_1080,Intel(R) Core(TM) i5-3570 CPU @ 3.40GHz,orientation_search,LEPPC096,Intel(R) HD Graphics 2500,2018_Aug_30_1212,testMonitor,
209.6,189.0,197.2,,36,60,186.7,185.0,201.6,193.2,8.024,7.676,7.845,8.351,7.561,7.87,7.737,4.719,-5.034,-8.008,1.439,-1.174,8.493,5.084,-4.669,-7.962,199.7,179.0,-7.759,219.0,196.6,196.6,197.3,204.0,36,185.7,3,5,prime,10,0,78,norm,36,-5.084,up,norm,199.001432113,197.2,196.4,189.5,184.0,3,198.0,204.7,213.3,10,5,7.801,4.798,1.237,-1.479,-4.451,-8.236,210.2,5,277.0,-7.845,-7.853,60,-7.532,-8.213,-4.582,-4.369,-5.223,-5.228,5.242,7.591,21,-1.692,1.232,4.891,7.741,-8.151,-8.295,-1.791,1.201,197.4,189.9,203.1,208.0,208.4,196.7,197.8,210.5,180.6,213.5,0,norm,1.863,1.363,-2.03,-1.488,-4.439,-4.348,-1.287,-1.909,-1.312,-1.664,1.711,-1.248,195.1,197.7,-4.305,-7.625,1.341,-1.18,8.394,5.092,-5.161,-7.508,10,4.863,4.477,4.867,4.505,1.677,1.195,1.111,1.16,10,5.077,5.206,-60,89.7057233224,norm,0,37,37,37,387.626,387.637,387.64165129,387.642,387.644,387.646,up,1,1.47772362327,8.52227637673,001,001,1920_1080,Intel(R) Core(TM) i5-3570 CPU @ 3.40GHz,orientation_search,LEPPC096,Intel(R) HD Graphics 2500,2018_Aug_30_1212,testMonitor,
219.0,200.7,203.3,183.8,36,60,203.9,188.8,198.2,193.2,7.813,7.573,7.695,8.121,8.376,7.607,8.106,4.66,-5.155,-8.416,1.268,-2.032,7.903,4.521,-4.761,-7.697,190.8,198.6,-7.566,193.9,,189.9,190.3,191.7,36,179.0,5,5,prime,10,0,112,norm,36,-4.677,down,norm,199.001432113,203.1,198.8,197.6,199.2,0,202.5,185.3,194.5,10,5,7.819,5.192,1.464,-2.082,-4.744,-8.391,200.6,5,311.0,-7.896,-7.923,60,-8.145,-8.396,-4.844,-4.5,-4.385,-4.476,4.815,8.157,30,-1.709,1.66,4.867,8.347,-8.06,-7.671,-1.383,1.542,181.7,181.1,197.8,207.8,202.4,195.7,187.9,208.1,198.2,213.9,1,norm,1.422,1.517,-1.874,-1.931,-4.882,-4.359,-1.613,-2.042,-1.84,-1.452,1.528,-1.313,209.0,183.8,-4.501,-7.996,1.189,-1.214,8.38,4.908,-4.961,-8.119,10,5.115,5.126,4.627,4.831,1.996,1.336,1.379,1.545,10,4.761,5.25,-60,89.7057233224,norm,0,38,38,38,389.163,389.181,389.195263797,389.195,389.197,389.2,down,1,2.18125150734,7.81874849266,001,001,1920_1080,Intel(R) Core(TM) i5-3570 CPU @ 3.40GHz,orientation_search,LEPPC096,Intel(R) HD Graphics 2500,2018_Aug_30_1212,testMonitor,
201.6,217.9,195.8,196.3,36,60,181.7,189.7,196.6,204.2,8.181,8.356,7.808,7.547,8.267,7.785,8.428,4.632,-4.327,-7.856,2.075,-1.424,7.929,5.004,-4.997,-7.752,213.0,204.3,-7.617,206.5,217.3,214.3,219.0,194.0,36,210.4,1,5,prime,10,0,114,norm,36,-4.463,up,norm,199.001432113,208.9,196.9,206.9,212.5,5,,188.6,185.3,10,5,7.906,5.236,1.222,-2.004,-4.515,-8.039,195.8,5,313.0,-7.893,-7.897,60,-7.598,-7.74,-4.671,-4.947,-5.292,-5.252,4.982,7.821,11,-1.632,1.704,4.795,7.971,-7.71,-7.683,-1.659,1.872,195.1,207.5,191.4,184.0,179.0,189.7,200.7,202.1,192.4,206.4,2,norm,1.37,1.16,-2.026,-1.263,-4.607,-4.95,-1.44,-1.852,-1.661,-1.815,1.375,-1.838,207.7,181.9,-5.118,-7.644,1.988,-1.922,8.309,4.88,-4.498,-7.908,10,4.372,4.805,4.711,4.877,1.549,1.589,1.105,1.681,10,4.501,4.721,-60,89.7057233224,norm,0,39,39,39,391.414,391.423,391.439455905,391.44,391.441,391.444,up,1,1.76969763193,8.23030236807,001,001,1920_1080,Intel(R) Core(TM) i5-3570 CPU @ 3.40GHz,orientation_search,LEPPC096,Intel(R) HD Graphics 2500,2018_Aug_30_1212,testMonitor,
179.0,195.1,192.8,185.7,36,60,196.8,188.5,198.0,190.6,7.82,8.193,7.627,7.77,7.717,7.887,7.851,5.064,-5.173,-8.485,1.728,-1.216,8.264,5.014,-4.873,-7.691,194.9,191.6,-7.852,196.2,191.5,195.5,194.5,,36,213.9,4,5,prime,10,0,79,norm,36,-4.731,down,norm,199.001432113,198.1,182.8,200.7,203.7,2,191.7,215.1,198.8,10,5,7.748,5.149,1.936,-1.193,-4.994,-7.79,200.5,5,278.0,-7.995,-8.244,60,-7.586,-7.851,-4.913,-5.014,-5.162,-4.944,5.038,8.127,26,-2.1,1.41,5.101,7.682,-7.986,-8.067,-2.048,1.14,215.1,196.0,206.1,191.3,207.8,197.5,219.0,200.6,198.4,212.9,3,norm,1.28,1.163,-1.8,-1.29,-4.319,-5.116,-1.734,-1.609,-1.699,-1.162,1.788,-1.271,192.3,205.1,-4.612,-8.451,1.492,-1.297,7.862,4.475,-4.952,-7.609,10,4.375,4.984,5.059,4.517,2.04,1.438,1.635,1.955,10,4.694,5.218,-60,89.7057233224,norm,0,40,40,40,393.247,393.256,393.264466492,393.265,393.266,393.269,down,1,1.50388128522,8.49611871478,001,001,1920_1080,Intel(R) Core(TM) i5-3570 CPU @ 3.40GHz,orientation_search,LEPPC096,Intel(R) HD Graphics 2500,2018_Aug_30_1212,testMonitor,
183.9,200.4,196.3,205.5,36,60,197.8,202.9,196.7,190.9,8.16,7.999,8.068,7.846,7.893,8.161,7.977,4.402,-4.652,-7.973,1.785,-1.926,8.311,4.868,-4.625,-8.079,219.0,179.0,-7.903,213.3,194.9,193.3,198.8,217.2,36,193.6,0,5,prime,10,0,114,norm,36,-4.801,up,norm,199.001432113,202.6,209.1,215.5,194.6,3,209.9,200.1,212.9,10,5,8.239,4.507,1.446,-1.951,-4.587,-7.696,198.6,5,313.0,-8.327,-8.077,60,-8.176,-7.538,-4.943,-5.124,-4.666,-4.782,4.974,7.503,3,-1.141,1.829,4.699,8.412,-8.477,-8.345,-1.666,1.795,207.8,203.6,,190.0,202.0,205.3,197.8,208.1,198.3,209.9,4,norm,1.117,1.83,-1.14,-1.907,-4.514,-4.508,-1.199,-1.626,-1.786,-1.794,1.648,-1.597,184.2,188.3,-4.973,-8.265,1.844,-1.979,7.997,4.417,-4.43,-8.345,10,5.147,4.688,4.751,5.2,1.293,1.792,1.206,1.46,10,4.678,4.448,-60,89.7057233224,norm,0,41,41,41,394.809,394.819,394.825376424,394.826,394.827,394.83,up,1,1.21213003883,8.78786996117,001,001,1920_1080,Intel(R) Core(TM) i5-3570 CPU @ 3.40GHz,orientation_search,LEPPC096,Intel(R) HD Graphics 2500,2018_Aug_30_1212,testMonitor,
325.3,332.8,326.3,330.6,36,-80,335.4,334.6,323.8,327.8,7.501,8.036,8.144,7.931,7.883,7.591,7.933,5.26,-4.414,-7.679,1.922,-1.953,8.151,4.672,-4.332,-7.557,319.1,324.9,-7.745,331.7,326.0,320.3,325.0,320.6,36,325.4,0,5,probe,5,0,67,norm,36,-5.108,down,norm,329.054924563,334.2,325.8,330.0,336.2,0,333.9,329.2,330.2,10,5,8.228,4.389,1.637,-1.371,-4.772,-7.956,328.9,2,262.1,-8.377,-7.871,60,-7.704,-8.193,-4.912,-4.379,-5.242,-5.03,5.074,8.002,0,-1.147,1.595,4.902,8.077,-7.774,-8.441,-1.78,2.01,326.6,324.4,332.6,331.6,336.1,,332.6,331.2,335.7,339.1,0,norm,1.957,1.402,-1.242,-2.027,-4.509,-4.362,-1.822,-1.191,-1.324,-1.743,1.129,-2.04,334.0,333.4,-4.88,-8.087,1.341,-1.783,7.537,5.157,-4.584,-7.639,11,5.248,4.366,5.226,4.515,2.072,1.466,1.857,1.797,11,4.403,4.723,60,199.001432113,norm,0,42,42,42,396.075,396.088,396.107788861,396.108,396.11,396.114,down,1,1.3339568463,8.6660431537,001,001,1920_1080,Intel(R) Core(TM) i5-3570 CPU @ 3.40GHz,orientation_search,LEPPC096,Intel(R) HD Graphics 2500,2018_Aug_30_1212,testMonitor,
322.2,328.9,329.8,332.9,36,-80,329.1,326.3,336.8,332.3,7.773,8.06,7.559,8.321,7.981,8.198,7.823,5.119,-4.858,-8.393,1.549,-2.068,7.764,4.627,-4.813,-7.846,331.4,320.6,-7.948,340.1,323.3,331.8,330.6,329.9,36,329.9,1,5,probe,5,0,68,norm,36,-4.891,down,norm,330.054924563,323.4,324.6,330.3,329.6,2,330.7,329.8,330.8,10,5,8.392,4.899,2.027,-1.54,-4.396,-7.581,331.3,2,262.1,-7.702,-7.799,60,-7.839,-7.838,-4.749,-4.66,-5.247,-4.804,4.899,7.571,8,-1.288,1.278,4.767,8.151,-8.198,-7.831,-1.454,1.105,329.0,,330.2,322.3,329.0,333.0,325.4,328.2,326.2,328.2,1,norm,1.524,1.19,-1.588,-1.109,-5.197,-4.834,-1.996,-1.773,-1.606,-1.963,1.88,-1.17,329.9,333.3,-4.646,-8.291,1.545,-1.814,8.205,5.131,-4.807,-8.192,11,4.612,5.034,4.783,4.523,1.636,1.547,1.178,1.663,11,4.951,4.737,60,199.001432113,norm,0,43,43,43,397.481,397.496,397.512854258,397.513,397.515,397.518,down,1,1.75571794193,8.24428205807,001,001,1920_1080,Intel(R) Core(TM) i5-3570 CPU @ 3.40GHz,orientation_search,LEPPC096,Intel(R) HD Graphics 2500,2018_Aug_30_1212,testMonitor,
356.9,360.0,344.1,342.7,36,-40,368.0,328.0,351.2,367.7,7.845,8.481,7.87,7.574,8.35,7.932,7.586,4.895,-4.54,-8.225,1.923,-2.098,7.507,4.446,-4.47,-7.842,343.0,345.3,-7.922,358.6,358.8,356.4,355.3,342.7,36,355.0,0,5,prime,10,0,105,norm,36,-4.593,up,norm,348.027559758,356.5,329.6,354.9,340.2,5,342.6,349.0,350.2,10,6,8.28,5.282,1.348,-1.486,-4.746,-8.087,342.0,6,453.0,-8.227,-7.67,-40,-8.159,-8.34,-4.754,-5.078,-5.144,-4.607,4.935,7.507,5,-1.659,1.669,4.63,7.604,-8.458,-7.95,-1.937,1.518,341.2,346.4,354.5,343.5,347.7,348.9,358.0,347.8,,341.5,0,norm,1.907,2.092,-1.693,-1.34,-5.082,-5.048,-1.722,-1.4,-1.827,-1.49,1.507,-1.746,355.6,356.9,-5.01,-7.864,1.58,-1.539,8.276,5.137,-4.627,-8.239,12,4.446,4.537,4.979,4.603,1.504,1.38,1.999,1.171,12,5.049,4.351,-80,199.001432113,norm,0,44,44,44,399.306,399.315,399.332665248,399.333,399.335,399.337,up,1,1.11238869056,8.88761130944,001,001,1920_1080,Intel(R) Core(TM) i5-3570 CPU @ 3.40GHz,orientation_search,LEPPC096,Intel(R) HD Graphics 2500,2018_Aug_30_1212,testMonitor,
368.0,328.0,354.0,339.3,36,-40,342.7,363.9,341.5,339.4,7.989,8.373,7.855,7.701,8.375,7.927,7.997,4.742,-4.739,-8.17,1.574,-1.797,7.795,4.883,-4.348,-8.206,337.3,342.6,-7.786,,356.4,345.9,353.1,339.0,36,342.7,5,5,prime,10,0,97,norm,36,-4.933,down,norm,348.027559758,345.6,353.4,342.3,346.6,1,354.2,355.5,360.2,10,6,7.806,4.739,1.287,-1.386,-4.473,-8.287,344.1,6,445.0,-8.142,-8.443,-40,-8.058,-8.041,-4.616,-4.65,-4.315,-5.026,4.839,7.873,31,-1.427,1.968,4.463,7.797,-7.528,-7.641,-1.258,1.136,331.5,341.9,342.0,349.2,348.9,349.5,352.6,337.2,358.1,350.1,1,norm,1.975,1.368,-1.116,-1.526,-4.732,-5.164,-1.409,-1.995,-2.088,-1.689,1.595,-1.792,359.1,353.3,-4.483,-7.861,1.355,-1.455,8.417,5.228,-4.427,-7.719,12,4.685,5.158,4.65,4.586,2.052,2.063,1.745,1.799,12,4.968,5.006,-80,199.001432113,norm,0,45,45,45,400.487,400.496,400.50532924,400.505,400.507,400.51,down,1,1.87252958014,8.12747041986,001,001,1920_1080,Intel(R) Core(TM) i5-3570 CPU @ 3.40GHz,orientation_search,LEPPC096,Intel(R) HD Graphics 2500,2018_Aug_30_1212,testMonitor,
345.4,331.6,346.4,338.9,36,-40,350.6,349.1,328.0,341.9,8.177,8.294,7.954,7.741,8.285,7.532,8.45,4.698,-4.791,-8.185,1.557,-1.71,7.975,4.51,-4.768,-8.199,358.0,355.3,-8.383,340.3,348.6,336.8,338.3,356.8,36,368.0,2,5,prime,10,0,104,norm,36,-4.385,down,norm,348.027559758,338.5,354.8,361.9,336.4,0,342.4,351.6,,10,6,7.867,4.896,1.519,-1.932,-4.907,-7.596,337.9,6,452.0,-8.48,-7.556,-40,-7.869,-7.936,-4.597,-4.562,-4.498,-5.212,5.031,7.852,12,-1.287,1.175,4.41,7.96,-7.778,-7.96,-1.412,1.758,342.5,350.1,335.1,351.8,360.7,345.6,337.8,364.8,349.4,338.9,2,norm,1.291,2.003,-2.08,-1.107,-4.498,-5.056,-1.29,-1.939,-1.646,-1.119,1.899,-1.508,358.0,341.4,-5.196,-8.203,1.752,-1.646,8.344,4.498,-4.97,-8.325,12,4.766,4.614,4.891,4.493,1.599,1.508,1.418,1.505,12,4.818,4.733,-80,199.001432113,norm,0,46,46,46,402.415,402.426,402.430880161,402.431,402.433,402.435,down,1,2.3731352339,7.6268647661,001,001,1920_1080,Intel(R) Core(TM) i5-3570 CPU @ 3.40GHz,orientation_search,LEPPC096,Intel(R) HD Graphics 2500,2018_Aug_30_1212,testMonitor,
348.7,350.6,340.6,366.4,36,-40,340.5,355.3,344.6,359.5,8.178,8.36,7.696,7.642,7.893,7.719,7.941,4.476,-5.099,-7.691,1.208,-1.906,7.636,4.99,-5.144,-7.569,349.7,,-7.599,363.5,356.6,349.7,346.0,353.2,36,343.5,5,5,prime,10,0,78,norm,36,-4.785,up,norm,348.027559758,328.0,353.0,346.8,359.6,4,344.9,343.1,337.8,10,6,8.27,5.268,1.379,-1.516,-5.16,-7.935,339.4,6,426.0,-8.047,-8.205,-40,-8.089,-7.804,-4.888,-4.716,-5.081,-4.974,4.615,8.332,34,-1.746,1.847,4.519,8.319,-7.639,-7.616,-1.105,1.934,359.2,341.3,348.3,351.1,333.2,362.3,355.0,343.0,349.8,361.8,3,norm,1.441,1.279,-1.203,-1.643,-4.429,-4.615,-2.086,-1.34,-1.563,-1.716,1.987,-1.779,339.3,368.0,-4.378,-8.113,1.464,-2.079,7.729,5.181,-5.285,-7.541,12,5.035,4.333,5.146,4.446,1.492,1.129,1.137,1.774,12,4.395,5.231,-80,199.001432113,norm,0,47,47,47,404.825,404.835,404.841159644,404.841,404.843,404.846,up,1,4.49616972673,5.50383027327,001,001,1920_1080,Intel(R) Core(TM) i5-3570 CPU @ 3.40GHz,orientation_search,LEPPC096,Intel(R) HD Graphics 2500,2018_Aug_30_1212,testMonitor,
340.3,352.9,362.9,364.8,36,-40,348.1,347.6,337.6,348.6,8.469,7.789,8.385,8.273,8.49,7.505,8.02,4.472,-4.557,-7.572,2.037,-1.617,8.288,5.098,-5.098,-8.072,360.5,338.7,-8.486,354.0,350.9,347.2,354.5,348.1,36,360.1,1,5,prime,10,0,101,norm,36,-4.768,up,norm,348.027559758,348.0,354.7,357.2,358.3,4,339.5,345.6,349.6,10,6,8.089,4.329,1.872,-1.329,-4.48,-7.833,,6,449.0,-8.113,-8.267,-40,-8.032,-8.112,-4.838,-4.482,-4.84,-4.421,5.012,8.169,10,-2.024,1.3,4.717,8.464,-7.594,-8.297,-1.535,1.83,354.1,334.6,360.8,346.8,350.9,358.1,368.0,350.6,341.0,328.0,4,norm,1.207,1.63,-1.303,-1.344,-5.181,-4.879,-1.49,-1.884,-1.992,-1.882,1.483,-1.543,344.1,348.3,-4.419,-7.711,1.669,-1.478,7.565,4.415,-4.892,-8.059,12,4.39,5.076,4.322,4.817,1.699,1.483,1.811,1.439,12,5.211,4.401,-80,199.001432113,norm,0,48,48,48,409.374,409.384,409.39408364,409.394,409.396,409.399,up,1,2.43459377129,7.56540622871,001,001,1920_1080,Intel(R) Core(TM) i5-3570 CPU @ 3.40GHz,orientation_search,LEPPC096,Intel(R) HD Graphics 2500,2018_Aug_30_1212,testMonitor,
346.5,339.7,362.5,356.4,36,-40,352.1,345.8,360.8,345.6,7.637,7.714,7.833,8.277,8.021,8.33,8.179,4.8,-4.639,-8.361,1.467,-1.237,8.029,4.428,-4.752,-7.674,348.8,343.5,-7.527,342.3,340.8,346.5,,359.3,36,344.6,5,5,prime,10,0,95,norm,36,-4.33,down,norm,348.027559758,348.6,347.4,361.3,361.4,2,368.0,353.7,328.0,10,6,8.002,4.907,1.888,-1.145,-4.623,-7.862,343.1,6,443.0,-7.881,-7.884,-40,-8.255,-7.638,-4.936,-5.041,-5.129,-4.871,4.981,8.167,32,-1.607,1.679,4.389,8.304,-7.873,-7.96,-1.984,2.035,351.6,358.0,331.9,341.9,355.7,352.7,363.2,358.8,359.8,360.3,5,norm,1.792,1.375,-1.28,-2.067,-5.211,-4.811,-1.273,-1.984,-1.57,-1.256,1.231,-1.795,351.1,347.4,-4.662,-8.002,1.818,-1.863,8.342,4.548,-4.627,-8.385,12,5.072,4.383,4.873,5.123,1.132,1.246,1.795,1.104,12,4.809,5.271,-80,199.001432113,norm,0,49,49,49,411.866,411.875,411.88994005,411.89,411.892,411.895,down,1,1.07816359383,8.92183640617,001,001,1920_1080,Intel(R) Core(TM) i5-3570 CPU @ 3.40GHz,orientation_search,LEPPC096,Intel(R) HD Graphics 2500,2018_Aug_30_1212,testMonitor,
367.7,355.5,360.3,363.8,36,-10,363.2,369.5,359.5,357.3,8.121,7.658,8.044,7.512,7.78,7.826,7.54,4.698,-5.012,-8.124,1.147,-1.753,7.699,4.532,-4.535,-8.282,365.6,367.6,-7.739,357.8,365.5,368.7,369.8,371.7,36,367.4,2,5,probe,5,0,66,norm,36,-4.702,up,norm,364.664966716,354.7,,362.2,367.8,4,366.2,364.8,365.2,10,6,7.589,5.167,1.298,-1.191,-4.339,-8.258,365.6,2,298.7,-8.317,-7.719,-40,-7.821,-8.115,-4.437,-4.994,-4.467,-5.083,4.321,8.145,16,-1.196,1.858,4.459,8.059,-8.461,-8.306,-1.392,1.772,368.2,359.8,371.1,366.9,362.1,360.5,365.4,374.7,360.7,362.9,0,norm,1.81,1.985,-1.371,-1.68,-4.773,-5.15,-2.086,-1.748,-1.711,-1.364,1.748,-1.39,370.2,360.7,-4.612,-8.08,1.687,-1.949,8.221,4.818,-5.048,-8.322,13,4.797,4.638,4.823,5.02,1.446,1.226,1.553,1.619,13,5.016,4.99,-40,348.027559758,norm,0,50,50,50,413.014,413.03,413.046492415,413.047,413.048,413.051,up,1,1.65798386875,8.34201613125,001,001,1920_1080,Intel(R) Core(TM) i5-3570 CPU @ 3.40GHz,orientation_search,LEPPC096,Intel(R) HD Graphics 2500,2018_Aug_30_1212,testMonitor,
373.7,391.1,387.0,380.4,36,-10,387.9,389.0,392.9,387.4,7.724,8.25,8.338,7.647,8.281,7.566,7.999,5.045,-4.67,-8.355,1.298,-1.812,7.704,4.387,-4.314,-7.782,375.7,385.1,-7.617,384.6,379.1,,384.6,384.2,36,380.7,5,5,probe,5,0,85,norm,36,-4.996,up,norm,383.664966716,380.6,386.8,384.5,388.1,3,382.8,377.7,388.3,10,6,8.14,5.191,1.434,-1.893,-5.055,-8.201,383.0,2,298.7,-7.593,-8.207,-40,-7.972,-7.722,-4.922,-4.706,-4.515,-5.049,5.215,7.669,33,-1.197,1.253,4.579,7.701,-8.105,-8.472,-1.352,2.1,379.5,377.0,383.3,393.7,383.1,389.7,384.2,378.6,383.7,383.9,1,norm,1.931,1.988,-1.102,-1.384,-4.523,-4.437,-1.977,-1.377,-1.746,-1.955,1.889,-1.108,385.0,387.2,-5.022,-8.031,1.936,-1.836,7.847,4.649,-4.383,-8.119,13,4.789,4.886,4.375,4.388,1.158,2.023,1.158,2.097,13,5.239,4.818,-40,348.027559758,norm,0,51,51,51,414.742,414.751,414.760317469,414.76,414.762,414.765,up,1,1.85965706082,8.14034293918,001,001,1920_1080,Intel(R) Core(TM) i5-3570 CPU @ 3.40GHz,orientation_search,LEPPC096,Intel(R) HD Graphics 2500,2018_Aug_30_1212,testMonitor,
60.0,69.5,59.2,77.5,36,-20,51.1,51.8,57.6,63.2,7.788,7.62,7.738,8.338,7.876,7.603,8.282,5.005,-5.269,-7.693,1.665,-1.106,7.611,5.212,-4.677,-8.376,58.2,39.6,-7.695,63.2,69.2,62.2,53.9,64.7,36,57.4,1,5,prime,10,0,111,norm,36,-4.455,down,norm,57.480750554,56.2,52.6,52.2,59.3,0,62.2,63.2,45.9,10,5,8.308,5.068,1.997,-1.488,-4.828,-7.645,43.1,5,168.5,-8.269,-7.568,-20,-7.763,-7.978,-4.811,-5.182,-5.026,-4.887,4.536,8.09,6,-1.573,1.743,4.502,7.919,-7.929,-7.953,-2.019,1.662,55.4,53.8,58.9,48.8,70.3,75.0,51.4,,37.5,67.7,0,norm,1.592,1.509,-1.167,-1.258,-4.467,-4.582,-1.707,-1.695,-1.548,-1.863,1.606,-1.362,71.9,58.1,-4.438,-8.448,1.786,-1.712,8.023,5.121,-4.798,-8.082,14,5.148,5.169,4.991,4.532,2.041,1.662,1.799,1.296,14,5.041,4.514,-10,348.027559758,norm,0,52,52,52,416.657,416.667,416.679060559,416.679,416.681,416.683,down,1,0.860077230287,9.13992276971,001,001,1920_1080,Intel(R) Core(TM) i5-3570 CPU @ 3.40GHz,orientation_search,LEPPC096,Intel(R) HD Graphics 2500,2018_Aug_30_1212,testMonitor,
58.3,53.2,55.5,58.9,36,-20,72.5,50.6,37.5,,7.744,7.755,7.845,7.568,8.244,8.348,8.077,4.885,-5.271,-8.27,1.92,-1.574,7.665,4.606,-4.924,-7.847,65.6,51.0,-8.126,66.9,53.4,57.9,57.9,76.4,36,53.9,4,5,prime,10,0,93,norm,36,-4.907,up,norm,57.480750554,41.8,71.5,46.7,70.5,5,43.1,43.1,49.8,10,5,8.298,4.391,1.335,-1.404,-5.179,-8.077,53.3,5,150.5,-7.958,-8.489,-20,-7.695,-8.446,-4.663,-4.441,-4.644,-4.396,4.536,8.086,29,-1.977,1.492,4.618,8.282,-7.839,-7.579,-1.338,2.074,77.5,76.6,56.0,56.8,63.1,72.5,65.3,64.6,54.0,72.8,1,norm,1.799,1.423,-2.052,-1.984,-4.629,-4.918,-1.537,-1.561,-1.518,-1.328,1.946,-1.804,54.0,41.2,-4.775,-7.748,1.467,-1.963,7.562,4.887,-5.021,-8.473,14,4.783,4.813,4.691,4.308,1.142,1.943,1.201,1.527,14,4.576,5.031,-10,348.027559758,norm,0,53,53,53,417.584,417.594,417.600257052,417.6,417.602,417.605,up,1,0.977955289984,9.02204471002,001,001,1920_1080,Intel(R) Core(TM) i5-3570 CPU @ 3.40GHz,orientation_search,LEPPC096,Intel(R) HD Graphics 2500,2018_Aug_30_1212,testMonitor,
50.5,41.7,44.9,77.5,36,-20,50.3,53.1,62.0,49.7,7.861,7.943,8.364,8.115,8.349,7.504,8.294,4.317,-4.848,-8.165,1.518,-1.964,7.782,5.142,-5.184,-8.059,64.8,37.5,-7.889,61.9,66.9,68.6,59.4,47.7,36,50.9,1,5,prime,10,0,104,norm,36,-5.059,down,norm,57.480750554,42.0,55.8,62.3,66.7,1,60.9,46.0,75.0,10,5,8.322,4.873,1.66,-1.589,-4.939,-8.447,52.4,5,161.5,-7.88,-7.956,-20,-7.982,-7.882,-5.226,-5.275,-4.517,-5.105,4.809,8.043,7,-1.38,1.577,4.827,8.159,-7.803,-8.053,-1.469,1.323,59.1,47.5,59.3,56.3,55.7,64.8,,59.6,66.4,52.4,2,norm,1.717,2.03,-1.204,-1.783,-5.111,-4.338,-1.508,-1.511,-1.294,-1.504,1.238,-1.833,49.1,62.6,-4.855,-8.029,1.926,-2.045,7.942,5.298,-4.739,-7.698,14,4.82,5.237,4.808,4.843,2.09,1.348,1.882,1.618,14,5.144,5.268,-10,348.027559758,norm,0,54,54,54,418.599,418.608,418.615455596,418.616,418.617,418.62,down,1,0.979703279465,9.02029672054,001,001,1920_1080,Intel(R) Core(TM) i5-3570 CPU @ 3.40GHz,orientation_search,LEPPC096,Intel(R) HD Graphics 2500,2018_Aug_30_1212,testMonitor,
38.6,52.2,63.4,50.9,36,-20,62.3,71.1,52.0,46.9,7.967,7.91,8.313,7.713,8.5,7.896,7.604,4.306,-4.361,-7.546,1.926,-1.413,7.853,4.619,-4.347,-8.45,49.1,37.5,-7.541,38.9,49.1,52.6,75.3,61.7,36,66.5,1,5,prime,10,0,97,norm,36,-4.733,up,norm,57.480750554,58.9,59.2,68.1,51.1,5,,66.1,60.1,10,5,7.895,4.324,1.295,-1.367,-4.995,-8.205,77.5,5,154.5,-7.558,-8.272,-20,-7.512,-7.754,-4.48,-4.495,-4.873,-4.79,4.911,8.049,11,-1.674,1.814,5.046,8.104,-8.332,-7.783,-1.565,1.845,68.8,56.6,67.2,50.2,62.0,64.8,56.1,49.4,61.0,56.5,3,norm,1.865,1.623,-1.644,-2.007,-4.822,-5.268,-1.737,-1.104,-1.829,-1.747,1.593,-1.601,71.6,54.6,-5.275,-7.982,1.431,-1.423,7.774,4.743,-4.654,-7.667,14,4.702,5.079,4.999,4.498,2.026,1.342,1.379,1.87,14,4.675,4.423,-10,348.027559758,norm,0,55,55,55,419.633,419.646,419.664786871,419.665,419.667,419.669,up,1,0.928627938431,9.07137206157,001,001,1920_1080,Intel(R) Core(TM) i5-3570 CPU @ 3.40GHz,orientation_search,LEPPC096,Intel(R) HD Graphics 2500,2018_Aug_30_1212,testMonitor,
51.0,37.5,77.5,63.2,36,-20,61.2,59.4,50.5,62.7,7.802,7.595,7.705,7.61,8.289,8.485,7.744,5.064,-4.776,-7.938,1.693,-1.207,8.14,4.358,-5.054,-8.07,40.6,55.6,-8.04,62.6,57.1,58.9,57.8,53.7,36,55.0,2,5,prime,10,0,92,norm,36,-4.829,up,norm,57.480750554,60.1,,46.4,59.1,4,59.3,43.5,58.5,10,5,8.486,4.389,1.993,-2.033,-4.413,-8.122,39.9,5,149.5,-7.816,-8.436,-20,-7.503,-8.351,-5.19,-4.42,-5.153,-4.314,4.631,8.391,16,-1.865,1.454,4.612,7.956,-8.108,-7.821,-1.331,1.759,51.8,63.7,73.2,40.0,62.9,55.2,53.7,49.1,49.1,64.4,4,norm,1.873,1.784,-1.56,-1.376,-4.805,-4.704,-1.111,-1.821,-1.222,-1.15,1.506,-1.772,73.5,64.3,-4.479,-7.528,2.007,-1.391,8.326,4.808,-4.688,-7.75,14,5.253,5.289,4.497,5.063,1.703,1.217,1.524,1.921,14,4.41,5.266,-10,348.027559758,norm,0,56,56,56,420.63,420.64,420.656762902,420.657,420.659,420.661,up,1,1.41578545278,8.58421454722,001,001,1920_1080,Intel(R) Core(TM) i5-3570 CPU @ 3.40GHz,orientation_search,LEPPC096,Intel(R) HD Graphics 2500,2018_Aug_30_1212,testMonitor,
132.6,127.7,135.3,,36,80,127.6,136.4,142.3,132.3,7.539,8.426,8.056,7.927,8.003,8.2,8.286,4.468,-4.402,-7.858,1.923,-1.285,8.376,5.011,-4.972,-7.839,131.6,135.6,-7.766,134.5,125.3,139.8,133.8,137.7,36,143.4,3,5,probe,5,0,97,norm,36,-4.821,up,norm,133.399558518,131.6,134.3,135.9,137.3,3,134.1,137.8,127.5,10,5,7.816,4.879,1.476,-1.687,-4.932,-8.124,140.2,1,36.4,-7.905,-8.469,-20,-8.315,-8.245,-5.079,-4.315,-5.188,-4.323,4.719,7.521,21,-1.841,1.46,4.72,7.674,-7.504,-8.032,-1.137,1.914,127.9,132.4,128.0,126.9,139.5,129.0,130.5,130.4,138.7,133.3,0,norm,2.019,1.936,-1.597,-1.455,-4.326,-4.375,-1.448,-1.368,-1.699,-1.488,1.22,-1.465,131.2,131.5,-5.12,-8.233,1.665,-2.078,7.843,4.438,-5.186,-8.495,15,5.264,5.156,4.679,5.179,1.838,1.985,1.309,1.136,15,5.075,4.47,-20,57.480750554,norm,0,57,57,57,422.094,422.103,422.109645213,422.11,422.112,422.114,down,0,1.07864926384,-10,001,001,1920_1080,Intel(R) Core(TM) i5-3570 CPU @ 3.40GHz,orientation_search,LEPPC096,Intel(R) HD Graphics 2500,2018_Aug_30_1212,testMonitor,
305.1,327.7,307.3,309.4,36,20,319.5,316.6,303.5,312.7,7.989,8.051,8.143,7.951,8.15,8.193,8.175,4.841,-5.131,-7.658,1.871,-1.581,8.042,4.934,-4.645,-8.423,320.3,304.8,-7.679,310.8,313.7,302.8,294.8,330.5,36,,4,5,prime,10,0,73,norm,36,-4.642,up,norm,310.489421491,316.9,300.2,317.2,316.4,3,319.0,311.2,298.6,10,6,8.034,4.375,1.719,-1.545,-4.933,-8.185,307.4,6,383.5,-7.52,-8.363,20,-7.774,-7.74,-5.241,-5.242,-4.494,-4.34,4.909,7.616,27,-1.603,1.377,5.093,8.1,-8.443,-7.785,-1.3,1.655,319.0,305.2,290.5,295.6,313.9,308.1,307.2,317.5,317.0,307.5,0,norm,1.173,1.327,-1.897,-1.771,-4.668,-4.742,-2.1,-2.077,-1.128,-1.762,1.164,-1.283,305.2,300.9,-4.366,-7.542,1.711,-1.967,8.211,5.279,-5.072,-7.658,16,4.944,4.981,4.862,5.281,1.351,1.143,1.291,2.008,16,5.073,4.933,80,57.480750554,norm,0,58,58,58,424.261,424.27,424.27689409,424.277,424.279,424.281,up,1,1.97701262531,8.02298737469,001,001,1920_1080,Intel(R) Core(TM) i5-3570 CPU @ 3.40GHz,orientation_search,LEPPC096,Intel(R) HD Graphics 2500,2018_Aug_30_1212,testMonitor,
305.8,291.4,300.0,325.4,36,20,301.2,292.8,309.9,307.9,7.518,8.327,8.459,8.304,7.558,7.652,7.576,4.72,-5.158,-8.414,1.321,-1.812,8.083,5.245,-4.488,-8.123,311.0,318.6,-8.402,328.5,301.0,306.0,,297.9,36,306.3,5,5,prime,10,0,98,norm,36,-5.149,down,norm,310.489421491,322.1,305.3,307.4,298.2,2,307.5,299.5,309.4,10,6,8.278,4.554,1.797,-1.581,-4.557,-8.219,321.5,6,408.5,-8.384,-8.324,20,-8.436,-7.624,-4.85,-4.598,-4.568,-5.072,5.146,8.04,32,-1.143,1.707,4.983,7.958,-8.441,-7.732,-1.289,2.068,330.5,307.1,290.5,304.7,313.6,308.5,308.8,322.0,317.5,303.8,1,norm,1.11,1.628,-1.34,-1.641,-4.75,-4.447,-1.46,-1.207,-1.208,-1.608,1.181,-1.998,303.1,306.7,-5.091,-7.689,1.311,-1.648,7.605,4.955,-4.74,-8.05,16,4.363,4.495,4.976,4.875,1.727,1.992,1.797,1.63,16,4.517,4.709,80,57.480750554,norm,0,59,59,59,426.291,426.302,426.306855916,426.307,426.309,426.312,down,1,1.19650528879,8.80349471121,001,001,1920_1080,Intel(R) Core(TM) i5-3570 CPU @ 3.40GHz,orientation_search,LEPPC096,Intel(R) HD Graphics 2500,2018_Aug_30_1212,testMonitor,
305.7,298.6,290.5,306.7,36,20,,309.9,319.8,309.9,8.032,7.686,7.951,8.206,7.809,8.188,7.704,4.73,-4.445,-8.365,1.965,-1.907,8.186,4.43,-5.192,-8.254,296.6,301.0,-8.164,317.3,330.5,312.8,303.0,308.3,36,310.1,4,5,prime,10,0,79,norm,36,-4.825,down,norm,310.489421491,316.1,309.8,302.4,310.1,0,321.7,302.5,318.4,10,6,8.254,4.532,1.443,-1.829,-4.93,-7.925,304.2,6,389.5,-8.404,-7.904,20,-8.438,-7.97,-4.604,-5.103,-4.573,-4.39,4.798,8.056,24,-1.195,1.383,4.493,7.551,-8.345,-8.181,-2.061,1.811,322.1,295.3,324.4,310.8,323.1,316.1,311.9,319.3,317.4,304.8,2,norm,1.305,1.492,-1.214,-1.551,-4.373,-4.528,-1.831,-1.776,-1.573,-1.259,2.047,-1.491,292.9,318.7,-4.488,-8.426,1.601,-1.746,8.068,4.907,-4.567,-7.833,16,4.307,5.008,4.799,4.817,1.783,1.262,1.562,1.315,16,4.827,5.289,80,57.480750554,norm,0,60,60,60,427.542,427.555,427.573580517,427.574,427.575,427.578,down,1,1.43329130632,8.56670869368,001,001,1920_1080,Intel(R) Core(TM) i5-3570 CPU @ 3.40GHz,orientation_search,LEPPC096,Intel(R) HD Graphics 2500,2018_Aug_30_1212,testMonitor,
319.7,290.5,315.8,,36,20,329.4,327.4,308.9,296.2,7.98,8.042,8.038,8.098,8.481,7.843,8.353,5.136,-5.237,-8.072,1.206,-2.03,8.132,4.905,-4.641,-7.75,319.2,330.5,-7.557,304.9,313.9,310.4,310.3,294.1,36,309.2,3,5,prime,10,0,90,norm,36,-5.169,up,norm,310.489421491,315.1,326.5,301.5,295.8,3,317.1,301.6,306.2,10,6,8.308,4.605,1.83,-1.306,-5.031,-8.362,301.8,6,400.5,-8.27,-8.174,20,-8.325,-8.431,-4.372,-5.134,-5.257,-4.508,4.428,7.606,21,-1.772,1.5,4.682,8.245,-7.503,-8.027,-1.575,1.125,290.9,311.2,301.4,308.6,293.8,315.8,310.5,310.6,308.4,304.7,3,norm,1.683,1.222,-1.775,-1.175,-4.641,-4.54,-2.052,-1.791,-1.348,-1.536,1.745,-1.546,314.1,328.0,-5.194,-7.943,1.204,-1.747,8.424,4.893,-4.981,-8.029,16,5.126,4.78,5.299,4.931,2.026,1.305,1.528,1.418,16,4.912,4.319,80,57.480750554,norm,0,61,61,61,429.044,429.054,429.064784275,429.065,429.067,429.069,up,1,1.48728217669,8.51271782331,001,001,1920_1080,Intel(R) Core(TM) i5-3570 CPU @ 3.40GHz,orientation_search,LEPPC096,Intel(R) HD Graphics 2500,2018_Aug_30_1212,testMonitor,
313.2,315.0,304.4,312.9,36,20,,292.8,318.2,318.6,8.327,7.865,8.179,8.222,8.204,8.231,8.227,5.237,-4.759,-8.242,1.63,-1.381,7.661,4.303,-4.835,-7.694,304.8,298.0,-7.994,305.2,323.1,315.7,305.4,328.1,36,299.7,4,5,prime,10,0,85,norm,36,-5.28,down,norm,310.489421491,308.1,304.8,315.0,315.3,0,297.5,304.1,314.3,10,6,7.521,4.648,1.942,-1.599,-4.334,-7.562,303.9,6,395.5,-7.693,-8.072,20,-7.605,-7.893,-4.916,-5.032,-5.054,-5.271,4.814,7.757,24,-1.904,1.196,4.323,7.971,-7.701,-8.241,-2.021,1.377,330.5,294.2,307.1,308.4,311.6,303.0,310.6,307.1,297.0,321.5,4,norm,1.296,1.968,-1.131,-1.653,-4.704,-5.12,-1.592,-1.837,-1.23,-1.99,1.99,-1.165,312.2,290.5,-5.022,-8.4,2.026,-2.083,8.026,4.713,-4.405,-8.468,16,4.583,4.956,4.913,5.217,2.071,1.884,1.845,1.129,16,5.212,4.673,80,57.480750554,norm,0,62,62,62,430.594,430.603,430.610121375,430.61,430.612,430.615,down,1,0.842615748083,9.15738425192,001,001,1920_1080,Intel(R) Core(TM) i5-3570 CPU @ 3.40GHz,orientation_search,LEPPC096,Intel(R) HD Graphics 2500,2018_Aug_30_1212,testMonitor,
293.8,297.9,310.9,300.1,36,20,298.4,309.8,292.7,313.0,7.596,7.652,7.655,7.669,7.756,8.358,8.104,4.45,-4.304,-8.341,1.304,-1.714,7.754,4.348,-4.92,-7.987,323.1,305.7,-8.436,301.9,298.9,315.9,303.6,290.5,36,306.9,2,5,prime,10,0,108,norm,36,-4.832,down,norm,310.489421491,315.3,319.0,309.8,300.7,0,302.0,315.4,,10,6,8.159,4.976,1.454,-1.701,-5.072,-7.607,300.2,6,418.5,-7.596,-7.529,20,-7.767,-7.53,-4.305,-4.4,-4.634,-4.477,4.904,8.259,12,-1.578,1.463,4.808,8.47,-8.176,-8.053,-1.231,1.321,305.6,308.8,301.8,311.1,308.0,320.3,322.2,313.3,313.7,308.9,5,norm,2.083,1.422,-1.487,-1.825,-5.278,-5.003,-1.366,-1.353,-1.751,-1.236,1.579,-1.384,327.6,305.5,-4.652,-8.066,1.79,-1.981,8.13,4.686,-4.516,-7.916,16,4.682,5.133,4.331,4.64,1.941,1.389,1.526,1.538,16,5.288,5.133,80,57.480750554,norm,0,63,63,63,431.499,431.508,431.514997967,431.515,431.517,431.52,down,1,0.962434978625,9.03756502138,001,001,1920_1080,Intel(R) Core(TM) i5-3570 CPU @ 3.40GHz,orientation_search,LEPPC096,Intel(R) HD Graphics 2500,2018_Aug_30_1212,testMonitor,
399.0,403.5,402.2,402.6,36,-40,402.6,401.2,400.9,397.7,8.245,7.65,7.547,7.614,8.13,8.4,8.256,5.022,-4.413,-8.387,1.487,-1.871,7.711,4.937,-4.312,-8.296,399.3,401.5,-8.385,401.5,397.3,402.6,405.9,402.9,36,391.7,2,5,probe,5,0,74,norm,36,-5.25,down,norm,401.726378574,402.3,393.4,409.5,,2,401.9,399.6,400.1,10,6,8.294,5.286,1.696,-2.087,-4.817,-8.123,404.3,1,327.7,-8.496,-7.694,20,-8.086,-7.721,-4.59,-4.568,-4.682,-4.441,5.209,8.02,14,-1.827,1.677,4.986,7.804,-8.101,-8.092,-1.579,1.194,401.4,400.5,399.5,411.7,398.7,402.2,408.5,410.1,408.3,397.8,0,norm,2.015,1.375,-2.053,-1.113,-4.335,-5.105,-1.553,-1.351,-2.083,-1.306,1.719,-1.988,405.9,397.7,-4.394,-8.221,2.061,-1.989,8.239,5.16,-4.997,-8.43,17,4.568,4.74,4.851,4.639,1.152,1.105,1.951,1.514,17,4.845,4.766,20,310.489421491,norm,0,64,64,64,432.515,432.524,432.543611749,432.544,432.546,432.548,down,1,1.63560229874,8.36439770126,001,001,1920_1080,Intel(R) Core(TM) i5-3570 CPU @ 3.40GHz,orientation_search,LEPPC096,Intel(R) HD Graphics 2500,2018_Aug_30_1212,testMonitor,
171.0,164.3,,175.4,36,30,158.4,172.3,170.4,161.4,8.258,7.737,7.991,7.844,8.27,8.236,8.423,4.502,-5.208,-7.983,1.854,-1.649,7.567,4.64,-5.001,-7.729,170.8,172.1,-8.289,156.6,164.5,181.8,163.1,168.6,36,175.8,3,5,prime,10,0,78,norm,36,-4.395,down,norm,164.216126235,179.2,160.4,157.3,168.1,2,171.0,170.2,158.6,10,5,8.144,4.752,1.76,-1.616,-5.08,-8.271,158.7,5,242.2,-7.903,-7.973,30,-8.44,-8.103,-5.057,-4.887,-4.941,-4.714,5.046,7.709,20,-1.305,1.441,4.556,8.052,-7.765,-7.516,-1.653,1.758,166.6,146.3,158.0,167.0,144.2,180.7,171.8,152.2,184.2,155.8,0,norm,1.818,1.271,-1.107,-1.939,-4.639,-4.591,-1.221,-1.975,-1.371,-1.453,2.02,-1.726,163.7,161.3,-4.648,-7.772,1.888,-1.426,7.902,4.797,-4.924,-8.185,18,4.865,5.053,5.188,4.305,1.449,1.3,1.47,1.657,18,4.437,4.91,-40,310.489421491,norm,0,65,65,65,434.216,472.059,472.07206842,472.072,472.074,472.077,down,1,0.809439867622,9.19056013238,001,001,1920_1080,Intel(R) Core(TM) i5-3570 CPU @ 3.40GHz,orientation_search,LEPPC096,Intel(R) HD Graphics 2500,2018_Aug_30_1212,testMonitor,
169.1,169.6,156.7,172.7,36,30,167.6,166.0,162.1,144.2,7.563,8.007,7.89,8.286,7.841,7.594,8.043,4.611,-5.118,-7.823,1.437,-1.244,7.659,4.303,-5.244,-7.981,160.7,169.1,-7.659,155.2,157.6,172.8,163.3,168.7,36,181.0,1,5,prime,10,0,84,norm,36,-4.377,down,norm,164.216126235,168.4,159.4,176.6,157.6,0,178.7,169.5,184.2,10,5,8.062,4.875,1.908,-1.463,-4.749,-7.992,167.7,5,248.2,-7.8,-8.191,30,-7.848,-7.918,-4.982,-4.711,-4.644,-4.672,4.953,8.367,6,-1.582,1.848,4.402,8.274,-8.071,-7.918,-1.787,1.74,170.5,174.0,162.5,166.1,160.8,164.9,169.9,,167.7,172.8,1,norm,1.624,1.594,-1.447,-1.785,-5.03,-4.881,-1.368,-1.91,-1.755,-1.263,1.977,-1.137,153.9,171.4,-4.31,-7.908,1.884,-1.293,7.944,4.653,-4.771,-7.728,18,4.666,4.617,5.103,5.277,2.027,1.762,1.611,2.065,18,4.39,4.541,-40,310.489421491,norm,0,66,66,66,472.918,472.928,472.945542778,472.946,472.948,472.951,down,1,1.55546070887,8.44453929113,001,001,1920_1080,Intel(R) Core(TM) i5-3570 CPU @ 3.40GHz,orientation_search,LEPPC096,Intel(R) HD Graphics 2500,2018_Aug_30_1212,testMonitor,
158.6,182.4,167.8,177.2,36,30,,184.2,165.6,154.2,7.982,7.908,8.436,7.557,7.521,7.928,7.618,4.495,-4.465,-8.341,1.558,-1.996,8.359,4.312,-5.204,-8.021,174.4,162.7,-8.22,167.6,168.3,151.3,159.6,164.0,36,168.8,4,5,prime,10,0,68,norm,36,-5.15,down,norm,164.216126235,163.6,165.9,168.7,169.5,0,151.0,155.5,161.7,10,5,7.81,4.676,1.583,-2.044,-4.663,-8.435,147.6,5,232.2,-7.789,-8.19,30,-7.754,-7.962,-5.174,-4.815,-4.471,-4.752,4.827,8.221,24,-1.393,1.244,5.019,7.827,-7.629,-8.2,-1.339,1.407,158.0,174.3,165.6,161.0,177.6,175.6,171.5,144.2,170.0,161.2,2,norm,1.332,1.439,-1.537,-1.95,-5.128,-4.652,-1.384,-1.583,-1.124,-2.026,1.935,-1.304,182.5,162.6,-5.003,-8.334,1.939,-2.097,7.596,4.365,-4.806,-8.178,18,4.305,5.135,4.566,5.054,1.734,2.074,1.114,1.401,18,4.937,4.979,-40,310.489421491,norm,0,67,67,67,474.523,474.533,474.552363468,474.553,474.554,474.557,down,1,1.12417214995,8.87582785005,001,001,1920_1080,Intel(R) Core(TM) i5-3570 CPU @ 3.40GHz,orientation_search,LEPPC096,Intel(R) HD Graphics 2500,2018_Aug_30_1212,testMonitor,
160.9,155.2,157.8,144.2,36,30,165.4,175.2,169.2,177.4,8.472,7.802,7.997,8.083,7.697,8.5,7.67,4.541,-4.328,-7.584,1.825,-1.447,8.356,5.24,-4.854,-8.473,184.1,169.4,-7.533,174.4,157.4,177.1,158.2,148.7,36,184.2,0,5,prime,10,0,95,norm,36,-5.121,up,norm,164.216126235,167.7,163.4,158.8,167.4,3,161.6,158.1,169.3,10,5,7.972,4.772,1.466,-1.846,-4.946,-8.334,162.9,5,259.2,-8.173,-8.378,30,-8.192,-7.637,-5.282,-4.809,-5.145,-4.458,4.499,7.67,3,-1.401,1.188,4.314,8.429,-7.894,-7.788,-1.479,2.055,170.7,173.7,,157.4,153.3,149.2,156.8,171.7,166.1,183.3,3,norm,1.369,2.055,-1.481,-1.335,-5.106,-5.139,-1.834,-1.863,-1.193,-2.095,1.368,-1.987,154.3,178.5,-4.652,-7.69,1.547,-1.911,8.043,4.695,-4.827,-8.243,18,4.892,5.188,4.91,5.231,1.297,1.119,1.139,1.39,18,5.028,5.04,-40,310.489421491,norm,0,68,68,68,475.723,475.732,475.738910862,475.739,475.741,475.743,up,1,0.942476023627,9.05752397637,001,001,1920_1080,Intel(R) Core(TM) i5-3570 CPU @ 3.40GHz,orientation_search,LEPPC096,Intel(R) HD Graphics 2500,2018_Aug_30_1212,testMonitor,
165.0,166.9,160.7,148.9,36,30,181.4,178.8,166.7,160.2,8.093,8.489,7.521,7.852,8.327,8.455,8.451,4.769,-4.462,-7.668,1.119,-1.226,8.313,4.313,-4.739,-7.891,166.5,162.0,-7.865,150.9,167.5,144.6,167.6,163.8,36,179.7,2,5,prime,10,0,86,norm,36,-4.31,down,norm,164.216126235,173.3,162.0,159.2,179.5,0,171.9,146.3,,10,5,8.241,5.185,1.787,-1.214,-4.844,-7.607,159.2,5,250.2,-8.478,-7.626,30,-8.438,-8.03,-5.037,-4.454,-4.667,-5.283,4.984,7.772,12,-1.264,1.673,4.939,8.113,-8.461,-8.243,-1.336,1.447,162.2,184.2,166.3,162.7,169.8,160.8,146.0,144.2,170.1,165.5,4,norm,1.267,1.824,-2.054,-1.407,-4.822,-4.88,-1.64,-1.311,-1.1,-1.689,1.214,-1.253,167.1,164.8,-4.611,-8.041,1.647,-1.128,7.691,4.956,-5.15,-7.858,18,4.349,5.035,4.886,4.679,1.879,1.176,1.294,1.872,18,4.503,5.112,-40,310.489421491,norm,0,69,69,69,476.717,476.727,476.736114863,476.736,476.738,476.741,down,1,1.26487790787,8.73512209213,001,001,1920_1080,Intel(R) Core(TM) i5-3570 CPU @ 3.40GHz,orientation_search,LEPPC096,Intel(R) HD Graphics 2500,2018_Aug_30_1212,testMonitor,
283.6,282.7,284.0,280.2,36,60,272.6,274.1,287.7,289.5,8.243,8.249,7.763,7.931,8.218,7.562,8.364,4.821,-5.191,-8.04,1.562,-1.919,8.357,4.917,-5.141,-8.281,283.7,282.0,-7.739,279.7,280.5,282.0,281.3,281.6,36,281.5,3,5,probe,5,0,85,norm,36,-4.677,down,norm,282.567926575,277.4,276.5,282.9,284.2,1,292.6,278.1,287.4,10,5,8.192,5.215,1.594,-1.293,-4.673,-8.072,279.6,1,197.6,-7.569,-8.18,30,-7.666,-7.734,-5.175,-5.242,-4.999,-4.856,4.848,7.582,19,-1.309,1.525,4.76,7.501,-8.406,-8.233,-1.885,1.767,285.8,281.6,282.6,290.2,273.8,278.7,285.5,276.9,275.9,276.3,0,norm,1.626,1.869,-1.672,-1.262,-5.062,-4.961,-1.84,-1.111,-1.356,-1.356,1.807,-1.628,,289.6,-5.087,-7.518,1.586,-2.02,7.966,4.707,-4.702,-7.5,19,4.993,4.995,5.245,4.525,1.693,1.622,1.73,1.196,19,5.047,5.159,30,164.216126235,norm,0,70,70,70,478.048,478.069,478.0798162,478.08,478.082,478.085,down,1,1.06125931911,8.93874068089,001,001,1920_1080,Intel(R) Core(TM) i5-3570 CPU @ 3.40GHz,orientation_search,LEPPC096,Intel(R) HD Graphics 2500,2018_Aug_30_1212,testMonitor,
279.6,287.1,299.4,300.7,36,0,292.5,288.1,308.5,290.5,8.14,8.051,7.797,8.137,7.718,7.531,7.918,4.347,-4.819,-7.62,1.676,-1.194,8.417,5.225,-5.196,-7.597,297.6,291.0,-7.719,,294.1,302.1,310.7,279.6,36,302.8,5,5,prime,10,0,83,norm,36,-4.313,down,norm,293.662986546,283.3,289.5,273.7,281.6,1,283.7,287.7,288.0,10,6,8.373,5.186,1.551,-1.728,-5.229,-7.521,289.3,6,376.7,-7.971,-7.733,0,-8.48,-7.969,-4.518,-5.293,-5.141,-5.019,4.523,8.284,31,-1.526,1.124,5.268,7.626,-7.881,-8.26,-1.344,1.249,279.7,308.6,279.6,290.6,296.2,292.4,292.1,313.7,297.7,297.2,0,norm,1.695,1.804,-1.558,-1.608,-5.261,-5.285,-1.413,-1.379,-1.739,-1.759,1.716,-2.076,278.9,275.2,-5.018,-7.51,1.631,-1.764,8.295,4.826,-4.883,-7.837,20,5.056,5.259,4.9,4.48,1.891,1.578,1.596,1.123,20,5.17,5.044,60,164.216126235,norm,0,71,71,71,479.179,479.19,479.194861134,479.195,479.197,479.199,down,1,0.845426838747,9.15457316125,001,001,1920_1080,Intel(R) Core(TM) i5-3570 CPU @ 3.40GHz,orientation_search,LEPPC096,Intel(R) HD Graphics 2500,2018_Aug_30_1212,testMonitor,
299.7,296.0,294.7,287.4,36,0,285.0,307.8,308.8,278.2,7.533,8.025,7.504,7.567,7.671,7.512,8.293,4.907,-4.935,-8.471,1.578,-1.437,7.966,5.055,-4.353,-8.495,294.3,295.2,-7.576,291.3,276.5,298.9,296.0,288.1,36,313.7,1,5,prime,10,0,62,norm,36,-5.207,down,norm,293.662986546,304.5,290.7,295.1,298.7,0,288.0,302.4,302.3,10,6,7.734,5.017,1.943,-1.834,-4.748,-7.867,295.7,6,355.7,-7.775,-7.955,0,-7.692,-7.671,-4.441,-4.652,-4.824,-4.373,4.315,7.969,6,-1.995,1.181,4.999,7.875,-7.668,-8.383,-1.835,1.698,300.2,296.2,293.8,287.8,293.8,313.3,299.0,,273.7,295.3,1,norm,1.69,1.352,-1.979,-1.944,-4.44,-4.427,-1.858,-1.52,-1.814,-1.684,2.08,-1.775,278.7,277.3,-5.083,-7.958,2.0,-1.563,8.24,4.394,-5.286,-8.342,20,4.344,5.285,4.732,4.481,2.0,1.969,1.992,1.297,20,4.733,4.673,60,164.216126235,norm,0,72,72,72,480.076,480.097,480.10776079,480.108,480.11,480.113,down,1,0.891891182146,9.10810881785,001,001,1920_1080,Intel(R) Core(TM) i5-3570 CPU @ 3.40GHz,orientation_search,LEPPC096,Intel(R) HD Graphics 2500,2018_Aug_30_1212,testMonitor,
285.6,302.3,298.4,302.2,36,0,291.0,296.5,294.0,293.9,8.121,8.172,7.534,7.598,7.657,8.179,8.135,5.236,-5.212,-8.014,1.733,-2.006,8.306,4.852,-5.241,-7.731,275.9,297.1,-8.453,277.9,286.6,282.2,296.3,287.3,36,273.7,1,5,prime,10,0,107,norm,36,-4.353,up,norm,293.662986546,303.9,300.4,288.4,313.7,5,,303.0,300.7,10,6,8.43,4.45,1.308,-1.789,-4.68,-8.298,304.1,6,400.7,-7.939,-8.167,0,-7.655,-7.804,-4.567,-4.833,-4.728,-4.399,4.504,8.124,11,-1.379,2.089,5.027,7.764,-8.307,-7.518,-1.462,1.667,285.1,291.2,301.3,293.8,291.5,286.5,288.7,308.0,293.2,302.9,2,norm,1.663,1.696,-1.657,-1.117,-4.369,-4.424,-1.977,-1.334,-1.885,-1.283,1.442,-2.069,291.8,285.4,-5.132,-7.985,1.41,-1.808,8.077,5.242,-4.755,-8.027,20,4.996,4.933,5.196,4.985,1.946,2.057,2.011,2.068,20,4.335,4.373,60,164.216126235,norm,0,73,73,73,481.042,481.056,481.074976705,481.075,481.078,481.081,up,1,1.17838095304,8.82161904696,001,001,1920_1080,Intel(R) Core(TM) i5-3570 CPU @ 3.40GHz,orientation_search,LEPPC096,Intel(R) HD Graphics 2500,2018_Aug_30_1212,testMonitor,
286.3,291.8,291.8,283.0,36,0,294.6,301.6,,311.0,8.305,8.208,8.348,8.038,8.116,8.029,7.682,5.075,-4.54,-8.118,1.65,-1.154,7.978,5.121,-4.786,-7.806,282.0,295.8,-7.514,285.4,300.6,289.2,300.7,287.9,36,292.2,4,5,prime,10,0,66,norm,36,-4.851,up,norm,293.662986546,299.1,307.4,282.2,313.7,4,281.8,290.3,293.4,10,6,7.882,5.218,1.981,-2.039,-5.144,-8.041,296.6,6,359.7,-8.416,-7.971,0,-7.997,-8.278,-4.61,-5.264,-4.366,-4.335,5.221,8.144,28,-1.596,1.909,4.644,7.614,-7.512,-7.896,-1.576,1.981,295.7,279.2,293.2,286.2,274.2,295.9,288.7,293.1,299.9,299.9,3,norm,1.654,1.441,-1.278,-1.914,-4.441,-4.356,-1.538,-1.633,-2.098,-2.069,1.125,-1.855,273.7,276.4,-4.407,-8.404,1.923,-1.569,8.156,4.526,-4.33,-8.296,20,5.038,4.316,5.01,4.988,1.958,1.809,1.97,1.849,20,4.759,5.189,60,164.216126235,norm,0,74,74,74,482.277,482.286,482.305202706,482.305,482.307,482.31,up,1,2.80695175205,7.19304824795,001,001,1920_1080,Intel(R) Core(TM) i5-3570 CPU @ 3.40GHz,orientation_search,LEPPC096,Intel(R) HD Graphics 2500,2018_Aug_30_1212,testMonitor,
293.8,303.5,287.7,284.9,36,0,284.8,,299.3,299.2,7.925,7.885,8.19,8.342,7.564,7.957,8.007,4.351,-5.129,-7.771,2.034,-2.043,7.605,5.255,-4.387,-8.073,297.2,286.0,-8.241,293.6,299.5,293.0,309.0,289.6,36,287.5,4,5,prime,10,0,111,norm,36,-4.779,down,norm,293.662986546,279.6,294.2,313.7,300.2,1,302.2,296.7,285.0,10,6,8.048,4.698,1.446,-1.889,-4.905,-8.162,298.4,6,404.7,-8.404,-7.805,0,-8.06,-7.988,-4.797,-4.839,-5.196,-5.151,4.489,7.836,25,-2.052,1.333,4.347,7.693,-7.787,-8.04,-1.461,2.047,295.7,278.3,273.7,295.8,278.2,282.4,296.7,290.8,283.1,278.7,4,norm,2.006,1.305,-1.676,-1.714,-5.275,-5.037,-1.59,-1.603,-1.126,-1.822,1.453,-1.656,280.3,277.2,-4.323,-7.695,1.902,-1.443,8.398,4.904,-5.191,-8.075,20,5.027,4.472,4.432,4.619,2.034,1.211,1.956,1.765,20,4.555,4.487,60,164.216126235,norm,0,75,75,75,485.133,485.143,485.149254939,485.149,485.151,485.154,down,1,1.02469099283,8.97530900717,001,001,1920_1080,Intel(R) Core(TM) i5-3570 CPU @ 3.40GHz,orientation_search,LEPPC096,Intel(R) HD Graphics 2500,2018_Aug_30_1212,testMonitor,
306.7,289.3,284.4,305.9,36,0,296.3,279.0,290.2,283.5,8.186,7.959,7.847,8.49,7.817,8.091,7.999,4.999,-4.553,-8.112,1.106,-1.345,7.764,4.811,-4.929,-7.931,313.7,293.1,-7.59,,310.0,295.7,294.5,295.5,36,288.9,5,5,prime,10,0,113,norm,36,-5.11,down,norm,293.662986546,290.3,296.5,274.5,285.9,1,290.9,293.9,273.7,10,6,7.596,5.291,1.612,-1.167,-4.742,-7.707,287.1,6,406.7,-7.954,-8.377,0,-7.75,-8.219,-4.757,-4.376,-5.176,-4.891,4.839,7.781,31,-1.159,1.27,4.724,8.167,-7.541,-7.614,-1.235,1.63,281.8,297.7,294.9,305.7,304.2,286.8,301.1,293.8,282.1,301.7,5,norm,1.821,1.275,-1.262,-1.586,-4.802,-4.733,-1.936,-1.574,-1.192,-1.311,1.292,-1.462,291.9,283.1,-5.09,-7.848,1.653,-1.569,8.098,5.128,-4.33,-7.611,20,4.609,5.075,4.695,4.322,1.615,1.63,1.634,1.555,20,5.291,4.452,60,164.216126235,norm,0,76,76,76,486.211,486.22,486.236132219,486.236,486.238,486.24,down,1,0.770662331355,9.22933766864,001,001,1920_1080,Intel(R) Core(TM) i5-3570 CPU @ 3.40GHz,orientation_search,LEPPC096,Intel(R) HD Graphics 2500,2018_Aug_30_1212,testMonitor,
375.6,377.3,363.5,373.5,36,-20,377.8,374.2,378.5,378.6,8.465,8.063,7.836,8.282,8.355,7.731,7.943,4.434,-5.14,-7.625,1.775,-1.917,8.289,4.876,-5.252,-7.529,369.1,380.1,-8.118,369.7,374.9,382.7,381.8,375.4,36,368.9,0,5,probe,5,0,79,norm,36,-4.891,up,norm,373.540257447,382.5,377.3,375.2,368.5,4,370.0,383.5,375.7,10,6,7.509,5.283,2.026,-2.047,-4.848,-8.371,374.0,2,294.5,-8.132,-7.501,0,-7.521,-7.688,-5.076,-4.905,-4.654,-4.979,5.142,8.294,4,-1.401,1.863,5.115,7.989,-8.172,-8.085,-2.016,1.955,369.4,369.7,372.3,369.6,374.1,375.1,372.5,373.5,372.7,,0,norm,1.173,1.951,-1.679,-1.681,-4.714,-5.09,-1.483,-1.705,-1.227,-1.3,1.605,-1.637,377.2,370.7,-5.192,-8.062,1.138,-1.774,8.369,4.783,-4.81,-7.611,21,4.934,4.457,5.082,4.528,2.004,1.218,1.676,1.791,21,5.298,4.386,0,293.662986546,norm,0,77,77,77,487.027,487.037,487.047239785,487.047,487.049,487.052,up,1,1.23354902234,8.76645097766,001,001,1920_1080,Intel(R) Core(TM) i5-3570 CPU @ 3.40GHz,orientation_search,LEPPC096,Intel(R) HD Graphics 2500,2018_Aug_30_1212,testMonitor,
402.5,406.0,404.8,399.0,36,-20,391.6,398.2,387.5,393.0,8.223,7.847,7.749,8.124,7.998,8.239,8.26,5.102,-4.472,-7.605,1.512,-1.718,8.052,4.66,-5.026,-7.586,398.8,401.3,-7.724,395.6,399.7,395.2,399.9,392.3,36,394.5,2,5,probe,5,0,103,norm,36,-4.347,up,norm,397.540257447,,397.5,395.4,394.2,5,396.8,407.5,400.2,10,6,7.606,5.132,1.687,-1.801,-4.42,-8.249,401.0,2,294.5,-7.631,-8.418,0,-7.803,-7.691,-4.613,-4.673,-4.314,-5.27,4.346,8.221,17,-1.881,1.161,4.355,8.238,-8.117,-8.207,-1.565,1.982,394.5,396.2,398.4,395.6,396.0,395.1,399.1,397.3,399.3,391.3,1,norm,2.099,1.465,-1.543,-1.237,-4.431,-5.009,-2.028,-1.196,-1.168,-1.228,2.024,-2.046,396.4,396.3,-4.427,-8.498,1.422,-1.832,7.949,4.484,-4.608,-7.753,21,4.886,4.72,4.645,4.373,1.947,2.021,1.288,1.491,21,4.955,4.522,0,293.662986546,norm,0,78,78,78,488.317,488.33,488.349476856,488.35,488.351,488.354,up,1,0.950180035974,9.04981996403,001,001,1920_1080,Intel(R) Core(TM) i5-3570 CPU @ 3.40GHz,orientation_search,LEPPC096,Intel(R) HD Graphics 2500,2018_Aug_30_1212,testMonitor,
277.7,267.8,284.8,295.5,36,-60,293.6,290.9,289.3,285.4,7.984,7.682,7.656,7.569,7.976,7.817,7.811,4.631,-5.245,-7.694,1.56,-1.189,7.794,4.714,-4.319,-7.97,287.2,290.9,-8.368,286.0,280.5,295.5,303.9,281.3,36,280.4,1,5,prime,10,0,62,norm,36,-4.403,down,norm,287.823670079,277.3,299.5,291.6,282.8,0,275.9,292.6,285.3,10,5,8.393,5.095,1.72,-1.547,-4.721,-8.006,288.8,5,349.8,-8.312,-7.641,-60,-7.594,-8.108,-4.424,-5.206,-5.214,-5.013,4.596,8.43,6,-1.456,1.276,4.932,7.639,-7.621,-7.726,-1.276,1.955,291.5,287.3,297.6,296.1,284.0,307.8,271.2,,284.4,293.0,0,norm,1.846,1.721,-1.331,-1.579,-4.985,-4.382,-2.069,-1.673,-1.233,-1.624,1.404,-1.402,284.8,294.3,-5.093,-8.487,1.458,-1.899,8.027,4.974,-4.593,-7.695,22,4.346,4.707,5.152,5.069,1.85,1.686,1.471,1.59,22,5.251,5.063,-20,293.662986546,norm,0,79,79,79,489.337,489.347,489.356040193,489.356,489.358,489.36,down,1,0.841348900933,9.15865109907,001,001,1920_1080,Intel(R) Core(TM) i5-3570 CPU @ 3.40GHz,orientation_search,LEPPC096,Intel(R) HD Graphics 2500,2018_Aug_30_1212,testMonitor,
297.9,276.5,288.2,300.3,36,-60,294.2,279.2,288.1,298.3,7.793,7.82,7.522,7.735,7.941,7.832,8.268,4.9,-4.471,-8.038,1.808,-1.112,8.426,4.486,-4.935,-8.06,287.6,272.9,-8.113,290.9,293.4,267.8,279.7,292.6,36,275.8,0,5,prime,10,0,98,norm,36,-4.814,down,norm,287.823670079,286.2,298.8,273.7,278.4,1,281.2,267.8,282.0,10,5,8.034,5.175,1.4,-1.978,-4.999,-8.189,307.8,5,385.8,-7.828,-7.62,-60,-8.222,-7.89,-4.629,-5.03,-4.994,-4.302,4.589,7.724,1,-1.579,1.143,4.479,7.775,-7.91,-7.633,-1.928,1.358,289.4,289.2,282.1,275.5,,296.4,282.9,292.6,299.7,298.3,1,norm,1.21,1.494,-1.4,-1.197,-5.163,-4.996,-1.821,-1.258,-1.714,-1.498,1.754,-1.191,279.6,287.3,-4.409,-7.904,1.45,-2.018,7.851,4.522,-4.95,-8.026,22,4.367,5.289,5.127,4.481,1.518,1.886,2.013,2.074,22,4.498,4.791,-20,293.662986546,norm,0,80,80,80,490.234,490.243,490.260770389,490.261,490.263,490.265,down,1,0.941408696603,9.0585913034,001,001,1920_1080,Intel(R) Core(TM) i5-3570 CPU @ 3.40GHz,orientation_search,LEPPC096,Intel(R) HD Graphics 2500,2018_Aug_30_1212,testMonitor,
289.8,299.0,283.8,281.0,36,-60,300.9,268.1,286.6,285.6,8.118,7.621,8.306,7.998,8.229,7.615,7.685,4.659,-4.951,-8.228,1.109,-1.667,7.919,5.058,-5.247,-8.087,,290.6,-8.257,279.0,281.0,307.8,290.4,297.1,36,288.4,5,5,prime,10,0,109,norm,36,-5.24,up,norm,287.823670079,291.5,296.4,286.4,293.0,5,292.8,304.2,280.9,10,5,8.494,5.137,1.372,-1.302,-4.733,-8.164,292.0,5,396.8,-8.372,-8.165,-60,-8.023,-7.877,-4.32,-5.082,-4.72,-4.325,5.176,7.628,35,-1.373,2.092,4.719,8.071,-8.26,-8.308,-1.775,1.947,297.7,291.8,287.0,294.9,279.1,306.0,284.8,267.8,279.3,301.3,2,norm,1.514,1.461,-1.731,-1.536,-4.399,-4.363,-1.718,-1.956,-1.39,-1.153,1.348,-1.32,275.4,291.9,-4.638,-8.352,2.053,-1.561,7.776,5.278,-5.113,-7.507,22,5.011,5.109,4.417,4.768,1.275,1.998,1.195,1.718,22,4.868,4.84,-20,293.662986546,norm,0,81,81,81,491.239,491.249,491.259025418,491.259,491.261,491.264,up,1,2.73748614905,7.26251385095,001,001,1920_1080,Intel(R) Core(TM) i5-3570 CPU @ 3.40GHz,orientation_search,LEPPC096,Intel(R) HD Graphics 2500,2018_Aug_30_1212,testMonitor,
291.7,298.9,288.5,289.3,36,-60,298.3,284.2,283.5,307.8,7.726,7.848,8.273,8.343,8.121,7.666,8.474,5.183,-4.54,-7.897,2.044,-1.923,8.259,5.168,-5.135,-7.612,274.3,272.7,-7.768,281.3,,278.8,284.0,277.3,36,294.3,5,5,prime,10,0,62,norm,36,-4.924,down,norm,287.823670079,272.3,296.7,281.2,271.4,0,297.1,278.1,284.9,10,5,8.375,4.859,1.449,-1.74,-4.315,-7.971,277.5,5,349.8,-7.81,-8.228,-60,-7.991,-7.986,-4.681,-4.53,-4.363,-4.69,4.699,7.856,30,-1.658,1.715,4.812,8.014,-8.315,-7.624,-2.081,1.919,284.1,285.6,305.1,289.6,294.8,296.2,269.6,272.0,272.3,277.5,3,norm,1.913,1.759,-1.908,-1.163,-4.569,-5.138,-1.141,-1.937,-1.989,-1.586,1.89,-1.48,279.3,267.8,-4.569,-7.906,1.238,-1.638,7.978,4.744,-4.351,-8.413,22,4.691,4.495,4.443,4.475,1.699,1.774,1.486,1.569,22,5.016,5.076,-20,293.662986546,norm,0,82,82,82,494.021,494.03,494.036827612,494.037,494.039,494.041,down,1,1.66934957345,8.33065042655,001,001,1920_1080,Intel(R) Core(TM) i5-3570 CPU @ 3.40GHz,orientation_search,LEPPC096,Intel(R) HD Graphics 2500,2018_Aug_30_1212,testMonitor,
275.2,302.9,293.1,295.7,36,-60,284.1,283.2,293.6,289.2,7.646,8.043,8.134,8.384,7.569,8.002,8.185,5.203,-5.019,-7.751,1.317,-1.317,7.516,5.237,-4.486,-7.704,291.2,290.7,-7.82,287.5,274.4,290.0,272.1,275.2,36,293.4,1,5,prime,10,0,84,norm,36,-4.572,up,norm,287.823670079,277.0,294.0,289.3,279.8,3,307.8,297.8,267.8,10,5,7.888,4.575,1.106,-1.506,-4.904,-8.475,282.3,5,371.8,-8.401,-7.879,-60,-7.647,-8.135,-4.618,-4.711,-4.899,-4.903,4.469,8.34,9,-1.706,1.165,5.054,8.089,-7.595,-7.904,-1.96,1.66,,282.7,279.1,292.7,292.1,293.0,289.2,298.5,280.1,299.3,4,norm,1.928,1.154,-1.537,-1.852,-4.894,-4.38,-1.424,-1.713,-1.899,-2.013,1.396,-1.703,296.9,302.6,-4.734,-7.814,1.319,-1.153,7.529,5.06,-5.17,-7.629,22,4.544,4.529,4.498,4.525,2.012,1.745,1.179,2.064,22,4.884,4.481,-20,293.662986546,norm,0,83,83,83,495.753,495.762,495.768291634,495.768,495.77,495.773,up,1,2.04542931388,7.95457068612,001,001,1920_1080,Intel(R) Core(TM) i5-3570 CPU @ 3.40GHz,orientation_search,LEPPC096,Intel(R) HD Graphics 2500,2018_Aug_30_1212,testMonitor,
320.3,320.5,316.4,318.4,36,20,316.8,,317.3,319.9,8.234,8.369,8.371,8.491,8.065,8.272,8.063,5.052,-4.748,-7.815,1.346,-1.463,7.716,4.702,-5.207,-7.644,324.5,321.3,-8.402,323.5,316.5,314.9,321.8,316.2,36,316.4,4,5,probe,5,0,88,norm,36,-4.501,down,norm,318.418138656,316.6,320.8,323.4,328.4,1,326.0,326.1,326.1,10,5,8.215,5.065,1.955,-1.122,-4.352,-8.337,322.5,2,230.4,-8.287,-8.441,-60,-8.292,-8.271,-4.638,-4.43,-4.797,-4.374,4.36,8.236,25,-1.99,1.463,5.157,7.727,-7.976,-7.896,-1.815,1.911,322.4,322.9,325.1,308.4,317.8,313.7,317.1,313.7,314.1,323.3,0,norm,1.413,1.973,-1.283,-1.791,-4.456,-4.821,-1.666,-1.577,-2.084,-1.883,1.65,-1.977,317.5,314.3,-5.1,-7.916,1.968,-1.488,7.7,5.14,-4.579,-8.484,23,5.285,4.322,4.497,4.366,1.916,1.874,1.827,1.857,23,4.55,5.05,-60,287.823670079,norm,0,84,84,84,497.859,497.868,497.874102499,497.874,497.876,497.879,down,1,0.843722315072,9.15627768493,001,001,1920_1080,Intel(R) Core(TM) i5-3570 CPU @ 3.40GHz,orientation_search,LEPPC096,Intel(R) HD Graphics 2500,2018_Aug_30_1212,testMonitor,
,320.6,312.6,327.3,36,20,315.1,317.4,313.8,309.6,8.015,8.015,8.223,7.835,8.294,8.07,7.959,4.862,-4.885,-7.581,1.989,-1.906,8.045,4.942,-4.553,-8.238,315.4,317.4,-8.324,317.5,307.4,321.5,316.9,321.1,36,324.0,3,5,probe,5,0,87,norm,36,-4.86,up,norm,317.418138656,325.6,327.4,319.9,322.4,4,311.1,325.8,324.7,10,5,8.195,5.079,1.862,-1.389,-4.482,-8.423,317.4,2,230.4,-7.645,-8.223,-60,-7.923,-7.616,-4.786,-5.225,-4.355,-4.834,5.078,8.204,22,-1.469,1.233,4.747,8.491,-7.761,-8.014,-1.881,1.283,323.3,317.7,313.4,312.0,320.9,313.8,322.4,320.2,312.2,321.8,1,norm,1.476,1.655,-1.39,-1.881,-4.39,-5.284,-1.819,-1.242,-1.275,-1.96,1.933,-1.896,319.4,317.8,-4.813,-8.107,1.686,-1.187,7.976,4.86,-4.769,-7.672,23,4.984,4.992,4.985,4.317,1.726,1.633,1.93,2.075,23,4.677,4.443,-60,287.823670079,norm,0,85,85,85,498.763,498.772,498.778925362,498.779,498.781,498.783,up,1,1.43451287659,8.56548712341,001,001,1920_1080,Intel(R) Core(TM) i5-3570 CPU @ 3.40GHz,orientation_search,LEPPC096,Intel(R) HD Graphics 2500,2018_Aug_30_1212,testMonitor,
145.6,135.3,143.5,118.6,36,40,,135.4,136.1,138.2,8.123,7.645,8.482,8.085,7.942,7.58,8.259,4.757,-4.912,-8.385,1.976,-1.978,8.016,5.037,-4.424,-8.42,140.2,158.6,-7.677,141.2,149.6,145.7,152.6,154.2,36,145.9,4,5,prime,10,0,116,norm,36,-5.264,down,norm,138.616444526,136.4,130.4,145.0,139.4,0,138.2,134.5,141.4,10,5,7.812,4.965,1.723,-1.404,-5.072,-8.158,130.4,5,254.6,-8.486,-7.558,40,-7.526,-8.078,-5.133,-4.669,-4.454,-4.386,5.243,8.176,24,-1.782,1.249,4.815,8.155,-8.055,-7.755,-1.806,1.491,141.7,139.3,137.3,143.5,132.6,146.0,149.2,142.3,127.1,130.7,0,norm,1.829,1.584,-1.324,-1.837,-5.049,-4.699,-1.879,-1.391,-1.614,-1.801,1.573,-1.106,154.2,138.8,-4.799,-8.479,1.814,-1.143,7.765,4.399,-5.009,-7.585,24,4.776,4.65,4.812,4.327,1.29,1.323,1.338,1.884,24,4.516,4.781,20,287.823670079,norm,0,86,86,86,500.261,500.27,500.276535799,500.277,500.278,500.281,down,1,1.80747273803,8.19252726197,001,001,1920_1080,Intel(R) Core(TM) i5-3570 CPU @ 3.40GHz,orientation_search,LEPPC096,Intel(R) HD Graphics 2500,2018_Aug_30_1212,testMonitor,
118.6,147.1,134.2,158.6,36,40,136.4,122.7,147.1,132.0,7.823,8.119,8.096,7.987,8.311,7.706,7.948,5.249,-4.457,-8.147,1.482,-1.386,7.895,5.192,-4.673,-7.671,151.6,136.7,-7.989,146.1,135.0,144.4,146.4,128.4,36,146.9,0,5,prime,10,0,61,norm,36,-4.578,up,norm,138.616444526,144.4,147.4,136.0,157.0,5,124.1,139.1,137.7,10,5,8.481,4.922,1.133,-2.082,-5.259,-8.135,146.0,5,199.6,-7.606,-7.737,40,-8.404,-8.174,-5.299,-4.525,-4.967,-4.474,5.054,7.964,5,-1.218,1.206,4.522,8.429,-7.629,-7.517,-1.985,1.339,146.8,151.2,137.3,132.3,127.8,150.9,132.9,126.2,,143.9,1,norm,1.996,1.321,-1.597,-1.692,-4.687,-4.571,-2.013,-1.713,-1.716,-1.664,1.248,-1.472,147.1,120.5,-5.117,-8.036,1.221,-1.586,8.143,5.281,-4.364,-7.513,24,5.217,4.494,4.955,4.366,1.376,1.333,1.331,1.257,24,4.952,4.595,20,287.823670079,norm,0,87,87,87,502.121,502.134,502.153658568,502.154,502.156,502.158,up,1,1.80443013158,8.19556986842,001,001,1920_1080,Intel(R) Core(TM) i5-3570 CPU @ 3.40GHz,orientation_search,LEPPC096,Intel(R) HD Graphics 2500,2018_Aug_30_1212,testMonitor,
148.4,145.6,145.5,137.2,36,40,129.8,143.1,122.1,145.2,7.946,7.738,7.876,8.485,8.438,7.687,7.583,4.927,-5.197,-8.287,1.661,-1.769,8.002,5.175,-4.895,-7.574,146.3,118.6,-7.75,139.6,149.3,133.7,125.4,153.2,36,139.2,2,5,prime,10,0,66,norm,36,-4.658,down,norm,138.616444526,157.8,131.5,139.5,133.2,0,137.8,158.6,,10,5,7.801,4.493,1.909,-1.526,-4.623,-7.979,147.3,5,204.6,-7.947,-8.115,40,-7.51,-8.264,-4.463,-4.484,-4.778,-5.287,4.43,8.384,12,-1.95,1.915,4.611,8.174,-8.095,-7.824,-1.962,1.653,142.8,131.9,128.1,135.1,136.5,143.7,148.3,148.0,147.1,132.1,2,norm,1.882,1.571,-1.714,-1.215,-4.564,-4.388,-1.711,-1.771,-1.677,-1.886,1.177,-1.543,131.3,134.7,-4.867,-7.869,1.708,-1.996,8.438,4.701,-4.992,-7.614,24,4.415,4.837,4.629,4.836,1.22,1.714,1.896,1.199,24,5.157,4.549,20,287.823670079,norm,0,88,88,88,504.004,504.014,504.02035226,504.021,504.022,504.025,down,1,1.07874464714,8.92125535286,001,001,1920_1080,Intel(R) Core(TM) i5-3570 CPU @ 3.40GHz,orientation_search,LEPPC096,Intel(R) HD Graphics 2500,2018_Aug_30_1212,testMonitor,
147.3,144.3,142.0,150.6,36,40,118.6,135.8,146.4,137.5,8.397,8.265,8.367,8.339,7.517,8.287,8.151,4.404,-5.018,-7.754,1.972,-1.594,7.974,5.025,-5.198,-7.943,151.3,144.4,-8.269,125.4,148.7,,144.1,152.3,36,128.9,5,5,prime,10,0,72,norm,36,-4.816,up,norm,138.616444526,144.2,151.1,128.5,153.5,3,140.6,142.8,128.1,10,5,7.553,4.756,1.226,-1.942,-4.802,-8.107,149.1,5,210.6,-7.713,-7.897,40,-7.978,-8.044,-4.565,-4.834,-5.099,-4.308,4.351,8.461,33,-1.914,1.819,4.713,8.125,-8.073,-8.327,-1.935,1.166,158.6,151.4,144.9,148.4,145.4,138.5,136.3,150.2,147.6,133.7,3,norm,1.207,2.058,-1.966,-1.943,-4.956,-4.504,-1.108,-1.491,-1.209,-1.738,1.871,-1.814,135.4,135.8,-5.151,-8.431,1.653,-2.052,8.472,5.068,-4.368,-7.654,24,4.411,4.952,4.386,4.635,1.237,1.609,2.052,1.15,24,5.036,4.607,20,287.823670079,norm,0,89,89,89,505.143,505.153,505.159109905,505.159,505.161,505.164,up,1,1.2458691637,8.7541308363,001,001,1920_1080,Intel(R) Core(TM) i5-3570 CPU @ 3.40GHz,orientation_search,LEPPC096,Intel(R) HD Graphics 2500,2018_Aug_30_1212,testMonitor,
150.2,158.6,127.9,130.4,36,40,135.8,155.8,136.2,146.7,8.015,7.748,8.322,7.665,8.185,7.929,7.784,5.087,-4.692,-8.285,1.803,-1.698,7.986,4.383,-5.285,-7.961,136.0,142.6,-8.122,137.0,146.3,141.4,133.2,143.2,36,130.7,2,5,prime,10,0,60,norm,36,-4.686,down,norm,138.616444526,130.8,140.5,135.0,155.5,1,133.8,,139.1,10,5,8.194,4.631,1.612,-1.297,-4.519,-8.131,126.0,5,198.6,-8.398,-7.811,40,-8.388,-7.969,-4.481,-4.787,-4.772,-5.076,4.596,8.056,13,-1.567,1.643,5.294,8.446,-7.879,-8.497,-1.937,2.094,137.0,142.5,118.6,145.2,144.9,135.5,145.6,143.2,149.8,136.9,4,norm,1.148,1.327,-1.33,-1.364,-4.529,-4.786,-1.135,-1.979,-1.289,-1.576,1.77,-1.655,147.6,127.7,-4.532,-8.48,1.31,-1.639,7.851,4.46,-4.857,-7.762,24,5.161,4.708,4.404,4.385,2.007,1.443,1.88,2.044,24,5.251,4.343,20,287.823670079,norm,0,90,90,90,506.443,506.456,506.474816546,506.475,506.477,506.479,down,1,1.04513018462,8.95486981538,001,001,1920_1080,Intel(R) Core(TM) i5-3570 CPU @ 3.40GHz,orientation_search,LEPPC096,Intel(R) HD Graphics 2500,2018_Aug_30_1212,testMonitor,
251.6,248.4,241.0,246.5,36,10,251.9,242.5,243.0,239.3,7.69,7.792,8.483,7.893,8.22,8.383,7.872,4.715,-5.203,-8.185,1.661,-1.816,8.276,5.007,-4.386,-7.74,239.0,245.3,-8.455,248.4,249.0,240.9,243.4,247.0,36,234.8,1,5,probe,5,0,64,norm,36,-4.945,up,norm,244.844487539,246.2,245.7,243.3,254.6,3,243.5,247.4,254.8,10,5,7.53,4.573,1.782,-2.022,-4.887,-8.015,234.9,2,180.8,-7.896,-8.194,40,-8.451,-7.901,-4.343,-4.493,-4.894,-4.997,4.625,8.172,9,-1.321,1.835,4.459,7.84,-8.068,-7.665,-1.836,2.001,,243.9,250.0,247.4,242.5,247.0,243.2,239.4,247.2,238.2,0,norm,1.544,1.574,-1.42,-1.636,-4.385,-5.113,-1.892,-1.534,-1.23,-1.37,1.562,-1.56,247.0,250.0,-5.162,-7.759,1.534,-2.002,7.673,4.571,-4.673,-8.333,25,4.314,4.748,4.957,4.951,2.043,1.972,1.864,1.375,25,4.667,4.795,40,138.616444526,norm,0,91,91,91,507.557,507.566,507.575868207,507.576,507.578,507.58,up,1,0.909265129045,9.09073487096,001,001,1920_1080,Intel(R) Core(TM) i5-3570 CPU @ 3.40GHz,orientation_search,LEPPC096,Intel(R) HD Graphics 2500,2018_Aug_30_1212,testMonitor,
257.0,255.6,252.0,246.2,36,10,249.7,249.6,257.2,255.2,7.944,7.654,7.562,7.633,8.196,8.235,7.611,4.583,-4.633,-7.845,1.126,-1.304,7.636,4.782,-4.816,-8.225,251.5,,-8.329,255.3,251.5,253.2,257.2,254.5,36,251.5,5,5,probe,5,0,75,norm,36,-4.537,up,norm,255.844487539,245.8,265.8,246.8,250.0,4,258.5,254.0,254.5,10,5,7.882,5.108,1.3,-2.006,-4.621,-7.924,255.8,2,180.8,-8.029,-7.681,40,-8.491,-7.961,-4.893,-5.005,-4.403,-4.399,5.234,7.525,34,-1.931,1.857,4.489,7.529,-8.294,-7.522,-1.971,1.778,260.1,259.5,261.0,260.9,256.8,253.7,255.9,259.1,264.2,250.4,1,norm,1.875,1.204,-1.209,-1.877,-5.054,-4.838,-1.839,-1.997,-1.941,-1.68,1.46,-1.631,252.5,250.6,-4.883,-7.637,1.477,-1.125,7.816,5.073,-5.256,-7.903,25,4.424,4.919,4.421,4.895,1.221,1.929,2.019,2.099,25,5.067,4.69,40,138.616444526,norm,0,92,92,92,508.522,508.532,508.543068125,508.543,508.545,508.548,down,0,1.09579622264,-10,001,001,1920_1080,Intel(R) Core(TM) i5-3570 CPU @ 3.40GHz,orientation_search,LEPPC096,Intel(R) HD Graphics 2500,2018_Aug_30_1212,testMonitor,
135.1,127.3,131.5,134.6,36,10,142.5,153.7,160.4,135.5,8.085,7.682,7.813,8.326,7.656,7.725,8.48,4.305,-5.206,-7.736,1.304,-1.621,7.807,4.404,-4.627,-7.861,133.7,145.4,-7.697,134.1,143.7,148.8,142.4,130.9,36,150.1,1,5,prime,10,0,72,norm,36,-4.478,down,norm,142.845703712,148.5,144.4,156.6,151.0,0,147.0,140.9,136.8,10,6,7.528,4.729,1.309,-1.666,-4.443,-7.529,162.8,6,214.8,-7.863,-8.06,10,-7.694,-7.915,-5.255,-4.448,-4.338,-4.549,4.736,7.967,6,-1.287,1.383,4.835,7.887,-7.531,-7.916,-1.768,1.901,151.4,151.2,147.8,132.3,128.7,122.8,149.3,,143.6,139.1,0,norm,1.271,1.783,-1.528,-1.724,-4.709,-5.269,-1.913,-1.97,-1.143,-1.926,1.331,-1.504,152.4,142.4,-5.004,-8.229,1.205,-1.28,7.98,4.538,-4.809,-7.657,26,4.341,4.318,4.363,4.665,1.419,1.504,1.657,1.619,26,5.011,4.479,10,138.616444526,norm,0,93,93,93,510.716,510.726,510.742631414,510.743,510.745,510.747,down,1,1.29685093251,8.70314906749,001,001,1920_1080,Intel(R) Core(TM) i5-3570 CPU @ 3.40GHz,orientation_search,LEPPC096,Intel(R) HD Graphics 2500,2018_Aug_30_1212,testMonitor,
138.3,139.0,158.5,137.0,36,10,122.8,151.5,136.5,161.1,7.925,7.564,8.43,8.453,7.937,7.651,7.747,5.195,-5.187,-8.123,1.963,-1.833,8.146,5.168,-4.488,-7.948,152.1,155.6,-8.007,144.8,133.3,162.8,135.0,134.8,36,125.0,0,5,prime,10,0,100,norm,36,-4.438,down,norm,142.845703712,146.5,142.2,140.3,131.1,2,155.4,137.3,139.4,10,6,8.269,4.638,1.398,-1.889,-5.04,-7.987,125.8,6,242.8,-7.655,-7.787,10,-7.55,-8.242,-5.054,-4.766,-4.359,-4.524,4.935,8.465,2,-1.707,1.81,4.658,8.404,-7.909,-7.73,-2.034,2.099,140.8,156.0,132.5,,137.3,144.2,136.6,136.9,134.6,147.7,1,norm,1.968,1.68,-1.172,-1.847,-4.62,-4.598,-1.936,-1.678,-1.699,-1.113,1.739,-1.21,136.3,150.8,-5.078,-8.405,1.997,-1.716,7.709,4.572,-4.969,-7.502,26,4.906,4.842,5.226,5.103,1.503,1.844,1.312,1.632,26,4.41,4.575,10,138.616444526,norm,0,94,94,94,512.077,512.086,512.099786625,512.1,512.102,512.104,down,1,1.43523579747,8.56476420253,001,001,1920_1080,Intel(R) Core(TM) i5-3570 CPU @ 3.40GHz,orientation_search,LEPPC096,Intel(R) HD Graphics 2500,2018_Aug_30_1212,testMonitor,
137.3,132.4,142.2,130.4,36,10,123.0,160.9,148.9,124.5,7.697,8.254,7.869,7.576,8.077,7.536,8.388,5.145,-5.123,-7.688,1.505,-1.44,8.396,4.747,-4.38,-8.25,150.1,148.9,-8.488,147.9,148.3,162.8,154.5,156.1,36,,4,5,prime,10,0,105,norm,36,-4.313,up,norm,142.845703712,143.7,156.6,145.3,136.5,3,122.8,139.2,155.2,10,6,8.229,5.188,1.679,-1.635,-4.8,-7.567,130.3,6,247.8,-7.89,-8.439,10,-7.659,-8.355,-4.731,-4.415,-4.857,-4.43,4.712,7.638,27,-2.089,1.855,4.913,8.124,-7.877,-7.958,-1.657,1.333,152.9,132.9,136.7,138.4,134.9,137.0,128.7,146.5,147.8,146.2,2,norm,1.161,2.009,-1.105,-1.402,-5.193,-5.165,-1.478,-1.95,-1.818,-1.415,1.427,-1.636,135.5,149.9,-5.249,-7.662,1.631,-1.783,8.184,4.632,-5.256,-8.388,26,4.305,4.802,4.812,4.371,1.836,1.117,1.87,1.64,26,4.633,5.141,10,138.616444526,norm,0,95,95,95,513.572,513.581,513.597340617,513.597,513.599,513.602,up,1,0.963217966833,9.03678203317,001,001,1920_1080,Intel(R) Core(TM) i5-3570 CPU @ 3.40GHz,orientation_search,LEPPC096,Intel(R) HD Graphics 2500,2018_Aug_30_1212,testMonitor,
