d_ori_22,d_ori_23,d_ori_20,d_ori_21,set_size,ctpd,d_ori_24,d_ori_25,d_ori_28,d_ori_29,stim_pos_x_30,stim_pos_x_31,stim_pos_x_32,stim_pos_x_33,stim_pos_x_34,stim_pos_x_35,stim_pos_y_11,stim_pos_y_10,stim_pos_y_13,stim_pos_y_12,stim_pos_y_15,stim_pos_y_14,stim_pos_y_17,stim_pos_y_16,stim_pos_y_19,stim_pos_y_18,d_ori_35,d_ori_34,stim_pos_x_3,d_ori_31,d_ori_30,d_ori_33,d_ori_32,d_ori_26,test_set_size,d_ori_27,targetCol,dsd_test,seq_type,dsd,blockRepN,targetDist,dtype_test,prime_set_size,stim_pos_y_25,correctResponse,dtype,distrMean,d_ori_17,d_ori_16,d_ori_15,d_ori_14,targetRow,d_ori_11,d_ori_13,d_ori_12,dsd_prime,streak_length_prime,stim_pos_y_35,stim_pos_y_34,stim_pos_y_33,stim_pos_y_32,stim_pos_y_31,stim_pos_y_30,d_ori_10,nextProbe,targetOri,stim_pos_x_1,stim_pos_x_2,ctpd_prime,stim_pos_x_4,stim_pos_x_5,stim_pos_x_6,stim_pos_x_7,stim_pos_x_8,stim_pos_x_9,stim_pos_y_28,stim_pos_y_29,targetPos,stim_pos_y_20,stim_pos_y_21,stim_pos_y_22,stim_pos_y_23,stim_pos_y_24,stim_pos_x_0,stim_pos_y_26,stim_pos_y_27,d_ori_9,d_ori_8,d_ori_3,d_ori_2,d_ori_1,d_ori_0,d_ori_7,d_ori_6,d_ori_5,d_ori_4,trialN,dtype_prime,stim_pos_x_18,stim_pos_x_19,stim_pos_x_12,stim_pos_x_13,stim_pos_x_10,stim_pos_x_11,stim_pos_x_16,stim_pos_x_17,stim_pos_x_14,stim_pos_x_15,stim_pos_y_9,stim_pos_y_8,d_ori_19,d_ori_18,stim_pos_y_1,stim_pos_y_0,stim_pos_y_3,stim_pos_y_2,stim_pos_y_5,stim_pos_y_4,stim_pos_y_7,stim_pos_y_6,totBlockN,stim_pos_x_27,stim_pos_x_26,stim_pos_x_25,stim_pos_x_24,stim_pos_x_23,stim_pos_x_22,stim_pos_x_21,stim_pos_x_20,blockN,stim_pos_x_29,stim_pos_x_28,prevDistrCTPD,prevDistrMean,prevDistrType,trials.thisRepN,trials.thisTrialN,trials.thisN,trials.thisIndex,timeStart,timeBeforeDraw,timeDraw,timeAfterSaving,timeAfterWritingToTemp,timeAfterPreparingNext,answer,correct,rt,trialScore,session,participant,resolution,cpu_info,expName,pc_name,graphic_card,date,monitorName,
179.2,,197.5,196.0,36,10,199.1,171.1,199.6,175.8,8.486,7.98,8.409,7.678,8.418,8.138,7.848,4.693,-4.831,-8.487,1.897,-1.144,7.665,4.782,-4.766,-8.386,191.5,191.6,-7.847,199.8,177.0,167.5,183.7,203.9,36,186.2,3,5,prime,10,0,98,norm,36,-4.621,up,norm,186.883258285,188.2,166.9,193.8,200.4,5,172.7,206.9,176.8,10,5,8.33,4.574,1.622,-1.549,-4.443,-8.317,193.1,5,284.9,-8.306,-7.782,10,-8.209,-8.459,-4.872,-4.308,-4.805,-5.042,4.625,7.671,23,-1.52,1.257,4.402,7.796,-7.805,-8.351,-2.073,1.636,189.6,187.0,185.6,186.6,172.4,195.5,185.2,198.9,197.3,182.4,0,norm,2.094,1.189,-1.689,-1.192,-5.214,-4.972,-2.1,-1.697,-1.569,-1.459,2.024,-2.1,186.5,193.5,-5.114,-7.963,2.01,-1.598,8.367,4.653,-5.146,-7.542,0,4.708,4.629,4.372,4.41,1.531,1.503,1.265,1.661,0,4.847,4.994,,,,0,0,0,0,64.8,64.824,64.84022718,64.841,64.841,64.843,up,1,1.5312739557,8.4687260443,001,305,1600_900,Intel(R) Core(TM) i5-3230M CPU @ 2.60GHz,orientation_search,Thebeast,AMD Radeon HD 7500M/7600M Series,2018_Nov_08_1325,testMonitor,
182.8,195.5,187.9,191.0,36,10,193.7,186.1,176.8,177.7,7.81,7.5,7.843,7.934,7.925,7.679,7.697,4.49,-4.827,-8.319,1.691,-1.777,7.615,5.188,-5.098,-8.227,,177.2,-8.285,166.9,191.0,198.0,185.9,191.4,36,195.6,5,5,prime,10,0,82,norm,36,-5.21,up,norm,186.883258285,192.5,190.0,182.5,190.3,5,179.5,190.7,188.4,10,5,7.535,4.781,1.429,-1.346,-4.614,-8.066,185.6,5,268.9,-7.988,-7.994,10,-7.755,-8.159,-4.624,-4.834,-4.683,-5.29,4.94,8.487,35,-1.957,1.513,4.595,7.833,-7.61,-8.434,-1.911,1.876,184.2,184.8,174.1,201.1,176.5,203.4,188.3,179.8,190.8,184.4,1,norm,1.184,1.791,-1.35,-1.31,-4.693,-4.558,-1.363,-1.674,-1.911,-1.502,1.731,-1.861,206.9,176.6,-4.348,-7.737,2.042,-2.045,7.838,5.026,-4.728,-8.389,0,5.299,5.187,4.92,5.232,2.04,1.328,1.251,1.666,0,4.73,5.039,,,,0,1,1,1,66.391,66.402,66.406661293,66.407,66.445,66.448,up,1,2.30946756867,7.69053243133,001,305,1600_900,Intel(R) Core(TM) i5-3230M CPU @ 2.60GHz,orientation_search,Thebeast,AMD Radeon HD 7500M/7600M Series,2018_Nov_08_1325,testMonitor,
181.1,191.0,175.4,185.6,36,10,168.6,188.1,178.2,183.2,8.277,8.388,8.464,7.503,7.794,8.331,8.245,5.292,-4.862,-7.603,1.17,-1.661,7.837,5.235,-4.417,-7.932,197.4,184.0,-8.167,188.0,187.0,185.9,201.4,193.3,36,193.1,2,5,prime,10,0,95,norm,36,-4.978,up,norm,186.883258285,169.9,188.3,,191.8,3,194.7,194.1,178.7,10,5,7.758,4.373,1.277,-1.785,-4.702,-7.674,194.9,5,281.9,-7.669,-7.767,10,-7.915,-7.991,-4.567,-5.208,-4.419,-4.497,4.835,7.713,15,-1.381,1.716,4.702,7.65,-7.909,-8.063,-1.781,1.295,195.6,194.5,180.6,183.2,186.9,185.4,200.5,197.2,184.0,206.9,2,norm,1.45,1.614,-1.955,-1.616,-4.631,-5.245,-1.174,-1.531,-2.056,-1.861,1.103,-2.089,183.8,166.9,-5.29,-8.108,1.196,-1.787,7.917,4.834,-4.42,-7.986,0,4.881,4.555,5.031,4.655,1.241,1.589,1.214,1.481,0,4.965,5.151,,,,0,2,2,2,68.774,68.784,68.7897112961,68.79,68.792,68.795,up,1,1.74565767794,8.25434232206,001,305,1600_900,Intel(R) Core(TM) i5-3230M CPU @ 2.60GHz,orientation_search,Thebeast,AMD Radeon HD 7500M/7600M Series,2018_Nov_08_1325,testMonitor,
183.3,184.2,187.7,194.7,36,10,197.5,200.1,189.9,176.5,8.498,8.354,7.588,8.144,8.027,7.629,7.899,4.843,-5.076,-8.492,1.663,-1.483,8.035,4.327,-4.465,-7.619,170.9,177.7,-8.172,190.2,184.4,196.9,166.9,185.3,36,169.9,3,5,prime,10,0,99,norm,36,-4.788,down,norm,186.883258285,179.4,186.7,193.3,190.8,1,182.1,186.6,186.8,10,5,8.479,5.164,1.807,-1.737,-4.361,-8.066,192.6,5,285.9,-8.247,-7.876,10,-8.156,-8.196,-4.902,-5.095,-4.946,-5.189,5.192,7.603,19,-1.863,1.58,4.822,7.746,-7.747,-7.715,-2.037,1.298,187.5,173.3,199.5,176.9,179.1,194.0,203.2,194.0,206.9,180.0,3,norm,1.948,1.915,-1.922,-1.608,-4.412,-4.968,-1.469,-1.521,-1.3,-1.624,2.02,-2.016,,183.6,-4.698,-8.334,1.76,-1.164,8.053,5.113,-4.97,-7.943,0,4.867,4.663,4.477,4.464,1.998,1.991,1.788,1.214,0,5.036,4.709,,,,0,3,3,3,70.557,70.566,70.5728229574,70.573,70.575,70.578,up,0,2.16284901802,-10,001,305,1600_900,Intel(R) Core(TM) i5-3230M CPU @ 2.60GHz,orientation_search,Thebeast,AMD Radeon HD 7500M/7600M Series,2018_Nov_08_1325,testMonitor,
192.1,,206.9,192.2,36,10,176.4,177.9,197.9,191.8,7.613,7.537,8.012,7.727,8.138,8.112,8.314,4.832,-4.645,-8.366,1.18,-1.364,7.523,4.976,-4.673,-8.043,192.9,186.3,-7.716,173.7,167.0,194.1,193.6,170.7,36,190.4,3,5,prime,10,0,87,norm,36,-4.524,up,norm,186.883258285,181.5,180.9,177.6,179.3,5,191.7,184.4,198.8,10,5,8.069,4.476,1.561,-1.283,-5.173,-8.279,189.2,5,273.9,-7.907,-8.194,10,-7.557,-7.678,-4.848,-5.044,-4.944,-4.95,4.96,8.496,23,-1.765,1.101,5.099,8.053,-8.227,-8.21,-1.175,1.89,182.0,194.9,186.2,188.0,169.7,195.7,186.6,166.9,180.9,188.7,4,norm,1.665,1.568,-1.788,-2.06,-4.978,-4.312,-1.644,-2.008,-1.743,-1.296,1.481,-1.244,177.5,191.3,-4.819,-7.669,1.775,-1.795,8.2,4.756,-4.346,-7.723,0,5.105,4.392,4.559,5.183,1.478,1.661,1.522,1.302,0,4.632,4.916,,,,0,4,4,4,73.79,73.8,73.8057542626,73.806,73.808,73.811,down,0,2.56280488623,-10,001,305,1600_900,Intel(R) Core(TM) i5-3230M CPU @ 2.60GHz,orientation_search,Thebeast,AMD Radeon HD 7500M/7600M Series,2018_Nov_08_1325,testMonitor,
308.5,307.5,295.7,300.0,36,30,301.0,305.8,299.9,304.4,7.624,8.413,8.383,8.235,7.831,8.335,8.005,4.9,-4.405,-7.64,1.649,-1.723,8.215,4.93,-4.628,-7.562,311.5,313.8,-8.405,299.8,299.8,297.6,309.7,306.0,36,307.8,0,5,probe,5,0,102,norm,36,-4.706,up,norm,303.826903354,302.1,298.6,302.5,293.8,5,301.3,302.6,296.8,10,5,8.0,5.192,2.016,-1.925,-4.784,-8.36,301.8,2,201.8,-8.387,-8.134,10,-7.519,-8.464,-4.337,-5.133,-4.706,-4.716,5.069,8.286,5,-1.25,1.292,5.262,8.034,-8.116,-7.682,-2.052,1.454,307.1,305.2,300.5,304.5,300.5,308.3,310.5,308.7,,300.7,0,norm,2.039,1.207,-1.626,-1.113,-4.754,-5.081,-1.575,-1.965,-1.531,-2.094,1.11,-1.685,300.7,309.9,-5.149,-7.535,1.126,-1.346,7.96,4.395,-4.773,-7.891,1,4.648,4.803,4.683,4.564,1.501,1.761,1.611,1.976,1,4.888,4.507,10,186.883258285,norm,0,5,5,5,77.423,77.433,77.438617357,77.439,77.441,77.444,up,1,1.14619341717,8.85380658283,001,305,1600_900,Intel(R) Core(TM) i5-3230M CPU @ 2.60GHz,orientation_search,Thebeast,AMD Radeon HD 7500M/7600M Series,2018_Nov_08_1325,testMonitor,
277.7,272.8,273.5,279.0,36,30,274.0,270.1,284.8,276.7,8.147,7.967,7.857,8.396,8.397,8.175,7.913,4.995,-4.641,-7.754,1.383,-1.66,7.788,4.555,-4.874,-7.745,269.6,274.2,-7.974,273.4,276.9,278.0,275.9,276.5,36,267.7,0,5,probe,5,0,73,norm,36,-4.611,down,norm,274.826903354,274.1,275.3,264.8,276.8,1,281.7,284.5,276.0,10,5,7.588,4.886,1.26,-1.4,-4.341,-8.395,273.1,2,201.8,-8.337,-8.042,10,-7.779,-8.466,-4.434,-4.315,-5.218,-4.726,4.416,8.161,1,-1.809,1.202,5.298,8.066,-7.792,-7.767,-1.815,1.948,279.8,273.3,271.2,278.3,,270.5,270.2,274.6,271.6,274.3,1,norm,2.062,1.76,-1.189,-1.663,-4.935,-5.293,-1.709,-1.564,-1.358,-1.64,1.265,-1.197,273.1,278.7,-4.705,-7.532,1.694,-1.529,7.999,4.33,-4.574,-7.713,1,5.248,5.294,4.304,5.133,1.518,1.579,1.65,1.103,1,4.347,5.263,10,186.883258285,norm,0,6,6,6,78.606,78.617,78.6218037028,78.622,78.624,78.629,up,0,2.44398067044,-10,001,305,1600_900,Intel(R) Core(TM) i5-3230M CPU @ 2.60GHz,orientation_search,Thebeast,AMD Radeon HD 7500M/7600M Series,2018_Nov_08_1325,testMonitor,
270.9,270.6,277.4,278.1,36,40,261.0,277.6,282.6,274.7,8.401,8.074,8.387,8.13,8.497,8.274,7.754,4.872,-4.454,-7.692,1.116,-1.622,7.57,5.152,-5.077,-8.046,278.3,273.6,-8.188,284.4,295.5,272.2,284.2,264.7,36,278.2,2,5,prime,10,0,70,norm,36,-4.535,up,norm,275.488879039,282.8,268.7,,278.3,3,268.8,287.4,262.8,10,5,7.542,5.136,1.668,-1.252,-4.896,-8.13,288.2,5,345.5,-7.791,-7.745,40,-8.297,-7.79,-4.486,-4.454,-4.585,-4.88,4.37,7.502,15,-1.547,1.446,4.925,8.352,-7.522,-7.698,-1.258,1.394,269.9,277.6,260.7,275.6,271.7,268.1,277.4,272.9,286.9,275.5,0,norm,2.082,1.289,-1.542,-1.257,-4.815,-4.742,-1.462,-1.15,-1.103,-1.296,1.237,-1.303,255.5,267.3,-5.033,-7.824,1.512,-1.96,7.767,4.575,-4.446,-8.158,2,4.916,4.868,5.231,4.34,1.297,1.304,1.2,2.052,2,5.243,4.845,30,186.883258285,norm,0,7,7,7,82.122,82.132,82.1380444334,82.138,82.141,82.144,down,0,1.1123062919,-10,001,305,1600_900,Intel(R) Core(TM) i5-3230M CPU @ 2.60GHz,orientation_search,Thebeast,AMD Radeon HD 7500M/7600M Series,2018_Nov_08_1325,testMonitor,
274.2,266.8,273.7,,36,40,295.5,275.8,269.4,275.3,8.308,7.877,7.889,8.128,7.84,7.583,8.235,4.503,-5.053,-8.464,1.549,-1.451,7.826,4.931,-5.165,-8.014,277.0,264.6,-8.213,282.8,278.1,275.4,262.4,267.1,36,277.1,3,5,prime,10,0,68,norm,36,-4.35,up,norm,275.488879039,289.2,262.8,277.9,276.1,3,288.9,279.9,270.0,10,5,8.222,5.236,1.724,-1.666,-4.527,-8.307,263.0,5,343.5,-8.134,-7.514,40,-7.768,-8.041,-4.625,-4.518,-4.737,-4.446,5.072,8.278,21,-2.0,1.793,4.485,7.636,-7.947,-8.171,-1.992,1.213,255.5,283.4,274.3,279.2,281.9,283.7,272.1,262.1,288.1,271.3,1,norm,2.085,1.225,-1.303,-1.709,-4.794,-4.463,-1.589,-1.44,-1.877,-1.493,1.838,-1.284,277.8,260.7,-5.209,-8.491,1.21,-1.893,8.466,4.485,-5.011,-8.032,2,4.515,4.895,5.207,4.938,1.214,2.076,1.468,1.369,2,4.634,4.756,30,186.883258285,norm,0,8,8,8,84.305,84.314,84.3211463051,84.321,84.324,84.326,up,1,0.763090124346,9.23690987565,001,305,1600_900,Intel(R) Core(TM) i5-3230M CPU @ 2.60GHz,orientation_search,Thebeast,AMD Radeon HD 7500M/7600M Series,2018_Nov_08_1325,testMonitor,
285.0,275.0,271.1,293.5,36,40,279.2,285.6,282.9,291.3,7.709,8.296,8.279,7.88,8.25,8.109,7.992,4.592,-5.299,-7.604,1.94,-1.285,7.787,5.084,-5.248,-8.169,259.4,,-7.712,262.9,274.4,281.4,276.1,273.9,36,276.9,5,5,prime,10,0,117,norm,36,-4.59,up,norm,275.488879039,270.2,275.2,292.0,280.9,4,272.6,272.2,278.0,10,5,7.756,4.816,1.718,-1.698,-4.633,-7.571,293.2,5,392.5,-8.221,-7.552,40,-7.864,-8.323,-5.276,-5.042,-5.186,-4.916,5.079,7.69,34,-2.077,1.581,4.307,8.499,-7.607,-7.866,-1.534,1.871,259.5,281.2,295.5,282.2,274.4,281.6,283.4,273.2,255.5,283.5,2,norm,1.72,1.575,-1.275,-1.395,-4.431,-4.683,-1.158,-1.263,-1.668,-1.754,1.449,-1.565,287.2,285.2,-4.777,-8.14,2.02,-1.445,7.912,4.363,-5.211,-7.645,2,4.353,4.868,5.026,4.417,2.024,1.546,1.782,2.082,2,5.141,5.232,30,186.883258285,norm,0,9,9,9,85.105,85.117,85.1210019887,85.121,85.123,85.126,up,1,1.89632427303,8.10367572697,001,305,1600_900,Intel(R) Core(TM) i5-3230M CPU @ 2.60GHz,orientation_search,Thebeast,AMD Radeon HD 7500M/7600M Series,2018_Nov_08_1325,testMonitor,
,280.1,292.4,287.4,36,40,266.1,276.7,270.8,270.2,7.598,8.23,8.431,7.729,8.361,8.263,8.33,5.023,-4.642,-7.618,1.521,-1.528,7.878,5.248,-5.015,-8.214,277.2,264.0,-8.457,259.2,259.1,280.3,271.6,279.3,36,258.7,3,5,prime,10,0,118,norm,36,-5.127,up,norm,275.488879039,266.7,295.5,263.5,260.9,4,292.0,281.7,267.4,10,5,7.62,4.922,1.119,-1.894,-4.955,-7.775,284.9,5,393.5,-7.875,-7.561,40,-7.906,-7.647,-5.228,-4.646,-5.164,-4.886,5.133,7.893,22,-1.197,1.739,5.017,8.48,-7.999,-8.173,-1.245,1.201,277.1,261.4,269.8,277.7,271.4,286.0,255.5,273.0,266.0,266.5,3,norm,1.605,1.179,-2.073,-1.404,-4.566,-4.444,-1.228,-1.129,-1.205,-1.379,1.2,-1.914,271.7,280.4,-4.611,-7.581,1.706,-2.001,8.057,4.328,-4.36,-7.994,2,4.667,4.411,5.178,5.093,1.377,1.688,1.542,2.057,2,4.375,4.563,30,186.883258285,norm,0,10,10,10,87.038,87.048,87.0541289264,87.054,87.057,87.059,up,1,1.27925782825,8.72074217175,001,305,1600_900,Intel(R) Core(TM) i5-3230M CPU @ 2.60GHz,orientation_search,Thebeast,AMD Radeon HD 7500M/7600M Series,2018_Nov_08_1325,testMonitor,
288.9,279.5,284.1,281.4,36,40,276.1,293.3,270.5,271.2,8.112,8.296,7.718,8.488,8.335,7.876,8.22,5.18,-4.668,-7.558,1.592,-1.885,7.549,4.904,-4.58,-7.809,275.3,269.8,-8.232,272.5,268.5,279.3,283.1,287.6,36,275.2,1,5,prime,10,0,112,norm,36,-4.812,up,norm,275.488879039,275.3,262.9,274.2,278.8,3,281.4,278.0,295.5,10,5,7.643,4.816,1.713,-1.332,-4.313,-7.881,272.0,5,387.5,-7.691,-7.651,40,-7.655,-8.2,-5.273,-4.903,-5.049,-4.805,4.988,7.615,9,-2.013,1.71,4.34,7.89,-7.863,-7.789,-1.23,1.587,,260.4,255.5,272.1,283.7,282.1,276.0,266.4,285.7,273.6,4,norm,1.899,1.81,-1.845,-1.37,-4.928,-4.357,-1.272,-2.016,-1.337,-1.816,1.212,-1.603,274.6,274.1,-4.442,-8.11,1.994,-1.192,8.327,5.082,-4.52,-8.161,2,4.614,4.712,5.282,4.758,1.388,1.202,1.878,1.867,2,5.227,5.273,30,186.883258285,norm,0,11,11,11,88.355,88.368,88.387325417,88.388,88.39,88.393,up,1,1.6456088093,8.3543911907,001,305,1600_900,Intel(R) Core(TM) i5-3230M CPU @ 2.60GHz,orientation_search,Thebeast,AMD Radeon HD 7500M/7600M Series,2018_Nov_08_1325,testMonitor,
395.3,385.7,392.1,393.5,36,40,395.0,396.2,401.3,393.1,8.255,7.868,7.754,8.316,8.124,7.531,8.073,4.875,-4.861,-7.663,2.078,-1.564,8.393,4.518,-5.101,-7.757,394.4,387.9,-7.914,393.9,399.1,400.6,401.2,,36,401.8,4,5,probe,5,0,73,norm,36,-5.027,down,norm,391.800746173,394.9,396.7,394.4,400.2,2,387.8,397.5,381.8,10,5,8.03,4.559,2.024,-1.244,-5.077,-8.309,391.7,1,318.8,-8.194,-7.998,40,-7.626,-8.438,-4.557,-4.34,-5.289,-4.666,4.509,7.934,26,-2.008,1.984,4.966,8.102,-8.109,-8.431,-1.875,1.425,395.8,389.2,396.2,385.5,388.7,390.8,388.2,393.5,393.9,386.4,0,norm,1.877,1.528,-1.443,-1.808,-5.199,-4.904,-2.021,-1.137,-2.077,-1.949,1.128,-1.267,398.2,398.6,-5.0,-8.45,1.922,-1.911,7.515,4.668,-4.416,-8.338,3,4.425,4.369,4.727,4.707,1.495,1.963,1.168,2.001,3,4.7,4.381,40,275.488879039,norm,0,12,12,12,90.055,90.066,90.0871413109,90.087,90.09,90.092,down,1,1.32953726372,8.67046273628,001,305,1600_900,Intel(R) Core(TM) i5-3230M CPU @ 2.60GHz,orientation_search,Thebeast,AMD Radeon HD 7500M/7600M Series,2018_Nov_08_1325,testMonitor,
138.0,146.2,149.8,130.4,36,20,150.3,143.9,129.5,139.8,7.713,8.031,7.699,8.417,8.183,8.326,7.938,5.133,-4.602,-7.635,2.062,-1.836,7.993,4.363,-4.433,-8.277,125.3,139.2,-7.837,131.5,142.7,140.4,138.7,,36,140.0,4,5,prime,10,0,77,norm,36,-5.132,down,norm,140.127097149,129.2,141.5,126.9,120.5,2,144.4,137.1,124.0,10,6,8.293,4.706,2.016,-1.351,-5.177,-7.636,131.3,6,217.1,-8.029,-8.273,20,-8.082,-8.17,-5.137,-4.935,-4.408,-4.328,4.704,7.847,26,-1.273,1.151,4.85,8.43,-8.211,-7.603,-1.586,1.888,141.1,148.7,137.3,160.1,148.8,154.6,129.0,134.8,120.1,129.3,0,norm,1.542,1.469,-2.036,-1.864,-4.894,-4.465,-1.179,-1.764,-1.152,-1.105,1.319,-1.488,135.1,140.6,-5.137,-7.58,1.945,-1.302,7.919,5.026,-4.701,-7.671,4,4.386,4.36,4.379,4.999,1.779,1.815,1.308,1.943,4,4.399,4.529,40,275.488879039,norm,0,13,13,13,91.454,91.465,91.4701905245,91.47,91.473,91.476,up,0,1.59579595488,-10,001,305,1600_900,Intel(R) Core(TM) i5-3230M CPU @ 2.60GHz,orientation_search,Thebeast,AMD Radeon HD 7500M/7600M Series,2018_Nov_08_1325,testMonitor,
138.3,150.2,132.3,138.1,36,20,141.7,158.8,144.4,143.5,8.492,8.167,7.568,8.168,7.807,7.827,8.306,5.127,-4.559,-7.812,1.3,-1.436,7.848,5.186,-4.854,-7.672,147.0,138.2,-8.339,134.3,147.0,137.4,135.7,143.3,36,140.0,1,5,prime,10,0,92,norm,36,-4.346,up,norm,140.127097149,140.4,120.1,160.1,138.1,4,128.4,145.1,159.7,10,6,8.228,5.024,1.546,-1.386,-4.458,-8.197,,6,232.1,-8.201,-8.142,20,-7.781,-8.044,-5.058,-5.068,-5.051,-5.107,4.951,8.038,10,-1.315,1.918,4.697,8.339,-7.611,-7.604,-1.355,1.71,130.1,142.9,138.2,143.3,130.4,141.0,140.9,127.9,132.3,134.8,1,norm,2.009,1.845,-1.655,-1.669,-5.062,-4.426,-1.582,-1.423,-2.069,-2.015,1.273,-1.174,158.4,146.0,-4.402,-7.591,1.816,-1.335,8.263,4.9,-4.47,-8.058,4,4.702,4.423,4.303,5.116,1.931,1.897,1.46,1.786,4,4.768,4.554,40,275.488879039,norm,0,14,14,14,94.121,94.131,94.1365823216,94.137,94.139,94.142,up,1,3.49566142796,6.50433857204,001,305,1600_900,Intel(R) Core(TM) i5-3230M CPU @ 2.60GHz,orientation_search,Thebeast,AMD Radeon HD 7500M/7600M Series,2018_Nov_08_1325,testMonitor,
123.3,146.1,140.2,142.1,36,20,,156.0,129.0,136.6,7.777,7.575,8.255,8.264,8.189,8.157,8.055,5.003,-4.444,-8.36,1.757,-1.385,8.204,4.515,-4.559,-8.384,137.5,138.3,-7.792,139.7,144.1,142.1,160.1,140.5,36,138.5,4,5,prime,10,0,62,norm,36,-4.823,down,norm,140.127097149,132.6,131.6,139.3,152.6,0,136.2,133.1,144.9,10,6,8.296,5.243,2.021,-1.641,-5.258,-7.769,139.3,6,202.1,-8.068,-8.028,20,-7.566,-7.619,-4.866,-4.706,-4.645,-4.333,5.068,7.963,24,-1.164,1.979,4.334,7.695,-8.404,-8.414,-1.553,1.144,127.7,131.9,144.7,139.5,144.5,136.3,138.9,120.1,149.8,147.1,2,norm,1.754,2.094,-1.842,-1.971,-5.061,-5.027,-1.863,-1.522,-1.421,-1.752,1.557,-1.302,126.9,138.2,-5.194,-8.006,1.406,-1.163,8.265,4.841,-4.458,-7.959,4,4.608,4.463,5.155,5.047,1.774,1.156,1.497,1.525,4,4.585,5.277,40,275.488879039,norm,0,15,15,15,97.653,97.664,97.6694518107,97.67,97.672,97.675,up,0,1.44575462575,-10,001,305,1600_900,Intel(R) Core(TM) i5-3230M CPU @ 2.60GHz,orientation_search,Thebeast,AMD Radeon HD 7500M/7600M Series,2018_Nov_08_1325,testMonitor,
133.5,148.8,146.6,144.1,36,20,129.5,157.2,156.7,128.3,8.202,8.273,7.784,7.527,7.817,7.668,8.459,4.605,-4.612,-8.433,2.073,-1.591,8.278,4.696,-4.949,-7.789,133.8,151.2,-7.9,139.5,148.1,151.8,142.1,134.9,36,145.0,0,5,prime,10,0,83,norm,36,-4.4,down,norm,140.127097149,120.1,130.2,160.1,148.1,1,142.3,146.1,139.0,10,6,7.654,5.258,2.048,-1.622,-4.901,-7.622,128.9,6,223.1,-7.835,-7.921,20,-8.101,-7.714,-5.024,-4.402,-4.706,-4.439,4.504,8.296,1,-1.539,1.533,4.911,8.498,-7.727,-7.865,-1.612,1.144,125.6,147.1,143.0,142.8,,146.5,136.3,133.2,147.5,155.9,3,norm,1.425,1.275,-1.657,-2.007,-5.033,-4.94,-1.244,-1.512,-1.868,-1.658,1.449,-1.259,135.9,132.9,-4.557,-7.531,1.733,-1.39,7.552,4.316,-4.931,-7.941,4,4.724,5.221,4.642,5.233,1.254,1.985,1.29,1.598,4,4.737,4.317,40,275.488879039,norm,0,16,16,16,100.17,100.18,100.1857857,100.186,100.188,100.191,down,1,1.86263570127,8.13736429873,001,305,1600_900,Intel(R) Core(TM) i5-3230M CPU @ 2.60GHz,orientation_search,Thebeast,AMD Radeon HD 7500M/7600M Series,2018_Nov_08_1325,testMonitor,
152.5,132.5,139.0,129.8,36,20,130.3,147.4,136.5,135.8,8.337,7.564,7.508,7.774,8.443,7.886,7.852,4.353,-4.59,-8.024,1.844,-1.381,7.537,4.677,-4.857,-7.616,144.7,144.0,-7.919,146.5,153.1,138.2,141.2,138.3,36,149.9,1,5,prime,10,0,119,norm,36,-5.084,down,norm,140.127097149,125.5,149.7,149.9,139.3,0,143.4,150.2,120.1,10,6,8.332,5.298,2.068,-2.012,-4.872,-8.38,160.1,6,259.1,-7.803,-8.104,20,-8.139,-8.359,-4.362,-4.53,-4.69,-4.496,4.587,8.367,6,-2.076,2.042,4.34,7.845,-7.695,-8.033,-1.85,1.707,145.9,153.5,123.1,146.9,127.2,152.4,148.9,,138.0,144.9,4,norm,1.541,1.64,-1.453,-1.832,-4.874,-4.671,-1.13,-1.73,-1.536,-1.314,1.675,-1.418,123.6,127.7,-4.786,-8.341,1.719,-1.892,7.884,4.417,-4.637,-8.391,4,4.638,5.056,5.267,4.692,1.834,1.118,1.549,1.834,4,4.403,4.734,40,275.488879039,norm,0,17,17,17,102.07,102.08,102.085594725,102.086,102.088,102.091,up,0,1.56246935841,-10,001,305,1600_900,Intel(R) Core(TM) i5-3230M CPU @ 2.60GHz,orientation_search,Thebeast,AMD Radeon HD 7500M/7600M Series,2018_Nov_08_1325,testMonitor,
143.8,147.1,143.8,152.9,36,20,130.5,148.5,145.5,120.1,8.305,8.23,8.21,8.47,8.25,8.222,8.097,5.026,-4.537,-7.614,1.605,-1.351,8.377,5.127,-4.919,-7.976,132.8,134.5,-7.613,135.6,137.8,147.7,,127.4,36,143.0,5,5,prime,10,0,61,norm,36,-4.895,down,norm,140.127097149,151.7,156.2,149.4,135.2,2,142.0,135.8,144.2,10,6,8.438,4.583,1.928,-1.236,-4.366,-8.333,131.0,6,201.1,-7.685,-8.103,20,-7.949,-8.372,-4.95,-4.451,-5.146,-4.742,4.339,7.615,32,-1.246,1.779,4.722,8.472,-7.531,-8.002,-1.257,1.734,160.1,132.2,154.7,141.5,130.1,147.4,133.3,147.5,145.6,154.9,5,norm,1.645,1.821,-1.392,-2.01,-4.907,-4.77,-1.901,-1.795,-2.021,-2.035,1.357,-1.572,136.5,142.6,-4.703,-8.237,1.982,-1.214,8.096,5.255,-5.094,-7.589,4,5.126,4.989,5.228,4.935,1.239,2.051,2.098,1.229,4,4.345,4.642,40,275.488879039,norm,0,18,18,18,104.703,104.713,104.718596767,104.719,104.721,104.724,down,1,2.34581115231,7.65418884769,001,305,1600_900,Intel(R) Core(TM) i5-3230M CPU @ 2.60GHz,orientation_search,Thebeast,AMD Radeon HD 7500M/7600M Series,2018_Nov_08_1325,testMonitor,
,277.0,278.9,277.9,36,-30,283.5,281.7,275.0,279.3,7.855,7.924,7.624,7.805,8.235,7.994,7.51,4.996,-5.184,-7.878,1.712,-1.129,7.818,4.822,-4.909,-8.113,271.0,263.5,-8.17,265.9,277.3,275.5,267.8,276.7,36,274.4,3,5,probe,5,0,110,norm,36,-4.357,up,norm,273.493060159,271.1,277.1,274.4,279.7,4,278.9,267.7,270.3,10,6,8.248,4.73,1.568,-1.766,-4.856,-8.138,268.7,1,163.5,-8.472,-7.575,20,-8.43,-7.589,-5.274,-4.469,-5.24,-4.919,4.656,7.512,22,-1.287,1.193,5.139,8.05,-8.394,-8.101,-1.863,1.149,271.0,267.2,275.1,270.9,264.8,269.1,278.7,278.7,272.9,268.8,0,norm,1.918,1.825,-2.065,-1.883,-4.897,-4.371,-1.452,-1.272,-2.087,-1.931,1.226,-1.228,278.7,271.0,-4.382,-8.075,1.698,-1.773,8.131,4.762,-5.191,-7.998,5,4.951,4.93,5.017,5.106,1.347,2.089,1.155,1.966,5,5.163,4.301,20,140.127097149,norm,0,19,19,19,107.086,107.096,107.101615191,107.102,107.104,107.107,up,1,2.91230723927,7.08769276073,001,305,1600_900,Intel(R) Core(TM) i5-3230M CPU @ 2.60GHz,orientation_search,Thebeast,AMD Radeon HD 7500M/7600M Series,2018_Nov_08_1325,testMonitor,
156.5,150.1,150.6,138.5,36,-40,155.5,165.9,148.2,175.1,7.814,8.01,7.884,8.276,7.532,7.804,8.024,5.044,-4.965,-7.547,1.568,-1.307,7.988,5.273,-4.641,-8.303,155.4,172.7,-8.213,154.6,154.1,149.2,150.8,159.0,36,172.7,2,5,prime,10,0,73,norm,36,-4.763,up,norm,158.510821937,,150.7,151.2,157.7,5,166.8,155.4,157.6,10,6,8.342,5.26,2.008,-1.193,-5.215,-7.565,178.5,6,231.5,-7.753,-7.613,-40,-7.781,-8.235,-4.88,-5.0,-4.568,-5.043,5.15,7.518,17,-1.606,2.025,5.135,8.414,-7.811,-8.452,-1.583,1.494,163.6,166.7,156.3,145.9,157.6,152.7,161.6,146.8,155.4,153.6,0,norm,1.286,1.619,-1.618,-1.955,-5.186,-4.639,-1.78,-1.225,-1.723,-1.782,1.671,-1.129,163.0,154.4,-4.786,-8.425,1.244,-1.876,7.859,4.602,-4.526,-8.426,6,5.081,4.339,4.388,4.474,1.25,1.9,2.075,1.409,6,5.074,5.08,-30,140.127097149,norm,0,20,20,20,110.035,110.046,110.051280887,110.052,110.055,110.06,up,1,2.02526011301,7.97473988699,001,305,1600_900,Intel(R) Core(TM) i5-3230M CPU @ 2.60GHz,orientation_search,Thebeast,AMD Radeon HD 7500M/7600M Series,2018_Nov_08_1325,testMonitor,
175.7,145.2,157.4,148.4,36,-40,146.3,171.2,159.4,148.8,8.082,7.843,8.008,7.805,7.585,7.541,7.965,4.442,-5.068,-7.515,2.077,-1.58,8.431,5.272,-4.893,-7.957,159.2,161.2,-8.029,158.4,161.2,156.6,,162.8,36,163.8,5,5,prime,10,0,117,norm,36,-4.794,down,norm,158.510821937,169.2,149.2,168.6,157.0,2,156.6,169.3,158.2,10,6,7.974,4.443,1.84,-1.757,-4.459,-7.624,153.8,6,275.5,-8.423,-7.869,-40,-8.04,-7.97,-5.194,-5.112,-4.944,-4.316,4.997,8.206,32,-1.435,2.099,4.903,8.165,-7.957,-7.851,-1.539,1.808,169.2,164.3,147.1,170.4,164.8,150.8,166.0,147.4,166.2,160.1,1,norm,1.358,1.82,-1.703,-2.045,-4.755,-4.757,-1.945,-1.467,-1.185,-1.73,1.859,-1.102,169.8,178.5,-5.3,-7.519,1.702,-1.339,7.556,4.828,-4.777,-8.15,6,4.311,4.53,5.103,5.225,1.536,1.18,1.731,1.746,6,5.071,4.937,-30,140.127097149,norm,0,21,21,21,112.102,112.112,112.117669211,112.118,112.12,112.123,up,0,3.1288379448,-10,001,305,1600_900,Intel(R) Core(TM) i5-3230M CPU @ 2.60GHz,orientation_search,Thebeast,AMD Radeon HD 7500M/7600M Series,2018_Nov_08_1325,testMonitor,
151.4,145.0,155.9,160.9,36,-40,153.5,144.4,161.3,165.0,7.702,8.156,7.929,8.414,7.557,7.874,8.286,4.393,-5.058,-8.339,1.861,-1.401,7.626,4.78,-4.962,-7.514,160.7,168.9,-7.685,162.3,177.0,173.1,146.3,175.6,36,162.5,2,5,prime,10,0,86,norm,36,-4.386,up,norm,158.510821937,,151.7,155.0,154.8,5,165.1,152.4,156.5,10,6,7.616,4.742,1.336,-1.968,-4.611,-8.118,151.7,6,244.5,-7.531,-7.877,-40,-7.987,-7.726,-5.255,-4.53,-5.298,-4.971,5.205,8.017,17,-1.294,1.642,5.194,7.849,-8.33,-7.524,-1.7,1.841,148.8,154.7,172.8,178.5,143.5,138.5,157.3,169.4,176.6,164.0,2,norm,1.705,1.547,-1.649,-1.829,-4.905,-5.178,-1.371,-2.054,-1.637,-1.903,1.391,-1.158,149.2,159.1,-4.916,-8.483,1.205,-1.217,7.561,4.988,-5.253,-8.379,6,4.401,5.292,4.885,5.135,1.322,1.102,1.257,1.865,6,4.877,4.462,-30,140.127097149,norm,0,22,22,22,116.318,116.328,116.333826099,116.334,116.336,116.339,down,0,0.812795609869,-10,001,305,1600_900,Intel(R) Core(TM) i5-3230M CPU @ 2.60GHz,orientation_search,Thebeast,AMD Radeon HD 7500M/7600M Series,2018_Nov_08_1325,testMonitor,
155.4,138.5,163.8,172.3,36,-40,159.7,141.5,161.0,163.6,7.971,7.692,8.023,8.395,7.87,7.607,7.741,4.417,-4.938,-8.292,1.32,-1.612,7.552,4.651,-4.933,-8.233,147.6,174.7,-7.835,167.4,150.1,143.0,158.4,155.7,36,157.8,2,5,prime,10,0,115,norm,36,-4.365,up,norm,158.510821937,158.9,,159.3,147.4,4,147.8,171.2,161.2,10,6,7.619,4.419,1.18,-1.894,-4.755,-7.769,151.3,6,273.5,-8.291,-8.418,-40,-7.603,-8.405,-5.051,-5.034,-5.05,-5.175,5.045,7.661,16,-2.047,1.658,5.267,8.23,-7.878,-7.604,-1.351,1.752,167.7,155.2,178.5,156.6,161.8,166.3,162.6,153.3,159.3,155.2,3,norm,1.894,2.051,-1.176,-1.769,-5.161,-4.305,-1.133,-1.178,-1.898,-1.963,1.537,-1.493,165.5,169.3,-4.713,-8.127,1.688,-2.012,7.933,4.568,-4.359,-8.235,6,4.367,4.965,5.069,4.39,1.745,1.194,1.105,1.455,6,4.359,4.75,-30,140.127097149,norm,0,23,23,23,118.201,118.211,118.216876497,118.217,118.219,118.222,up,1,1.04589862639,8.95410137361,001,305,1600_900,Intel(R) Core(TM) i5-3230M CPU @ 2.60GHz,orientation_search,Thebeast,AMD Radeon HD 7500M/7600M Series,2018_Nov_08_1325,testMonitor,
,157.7,162.2,176.2,36,-40,156.9,158.9,159.4,145.8,8.451,7.676,8.196,7.79,8.382,7.907,8.224,5.295,-4.33,-8.172,1.123,-1.214,7.68,4.824,-4.333,-8.116,167.5,159.1,-7.64,154.9,158.8,162.8,166.1,148.1,36,158.5,3,5,prime,10,0,66,norm,36,-5.079,up,norm,158.510821937,142.9,178.5,160.1,141.0,4,156.8,145.3,151.1,10,6,7.808,4.78,1.974,-2.071,-4.514,-7.822,163.5,6,224.5,-8.237,-8.483,-40,-7.595,-8.329,-4.555,-5.032,-5.021,-4.563,4.763,8.109,22,-1.148,1.204,4.814,8.031,-8.403,-7.703,-1.553,1.546,163.5,159.7,170.8,153.5,159.6,155.7,164.7,146.6,155.4,156.0,4,norm,2.095,2.052,-1.327,-2.03,-4.505,-4.994,-1.56,-1.62,-1.749,-1.704,1.482,-1.266,138.5,153.3,-4.604,-8.027,1.705,-1.497,7.767,4.58,-4.493,-7.706,6,4.502,4.976,4.773,5.118,1.97,1.772,1.735,1.263,6,4.737,4.921,-30,140.127097149,norm,0,24,24,24,119.284,119.294,119.300123711,119.3,119.302,119.305,up,1,2.12939649993,7.87060350007,001,305,1600_900,Intel(R) Core(TM) i5-3230M CPU @ 2.60GHz,orientation_search,Thebeast,AMD Radeon HD 7500M/7600M Series,2018_Nov_08_1325,testMonitor,
169.5,164.5,138.5,148.5,36,-40,155.4,170.0,166.0,158.6,8.167,7.924,7.729,8.052,7.835,7.648,8.134,4.779,-4.549,-8.394,1.807,-1.397,7.885,4.996,-5.283,-8.156,159.7,172.3,-7.788,148.4,156.5,161.5,162.6,146.7,36,167.2,2,5,prime,10,0,117,norm,36,-4.902,up,norm,158.510821937,161.3,164.4,,173.0,3,142.4,147.7,156.0,10,6,8.48,4.79,1.926,-1.903,-5.262,-7.627,155.0,6,275.5,-8.023,-7.641,-40,-7.856,-8.206,-5.096,-4.991,-5.159,-4.938,4.528,8.402,15,-2.013,1.111,4.595,8.115,-8.077,-8.149,-1.681,1.587,162.4,160.2,178.5,173.0,159.9,148.5,165.6,154.5,164.0,164.2,5,norm,1.278,1.189,-1.947,-1.831,-4.972,-4.741,-1.762,-1.452,-1.763,-1.427,1.462,-1.374,168.2,163.0,-4.57,-7.759,2.059,-1.681,8.005,4.363,-4.973,-7.531,6,4.374,4.829,4.966,4.989,1.365,1.31,2.047,2.095,6,5.087,4.938,-30,140.127097149,norm,0,25,25,25,121.451,121.461,121.466465376,121.467,121.469,121.474,up,1,1.29392276228,8.70607723772,001,305,1600_900,Intel(R) Core(TM) i5-3230M CPU @ 2.60GHz,orientation_search,Thebeast,AMD Radeon HD 7500M/7600M Series,2018_Nov_08_1325,testMonitor,
212.5,198.7,197.4,200.5,36,-10,201.4,198.4,195.4,203.1,7.897,8.499,8.022,7.741,7.599,7.558,7.902,5.208,-5.233,-7.633,1.588,-1.833,7.751,5.281,-5.008,-7.642,195.6,206.0,-8.145,205.2,211.3,210.3,196.0,203.8,36,202.0,0,5,probe,5,0,81,norm,36,-4.669,up,norm,204.316968362,202.3,204.7,207.2,206.6,3,209.9,201.2,214.3,10,6,7.943,4.84,1.838,-2.008,-4.54,-8.308,202.5,1,123.3,-8.182,-8.357,-40,-7.649,-7.665,-4.908,-4.608,-4.684,-4.436,4.888,8.26,3,-1.262,1.217,5.103,7.587,-7.668,-8.31,-1.785,1.126,206.1,208.7,,200.6,205.8,201.2,201.5,206.6,203.1,214.2,0,norm,1.291,1.864,-1.164,-1.957,-5.091,-5.291,-1.24,-1.922,-1.153,-1.674,2.087,-1.548,205.1,194.3,-4.502,-7.683,1.269,-1.646,7.822,4.477,-4.862,-8.085,7,4.719,4.734,4.4,4.816,1.662,2.031,1.519,1.846,7,4.869,4.795,-40,158.510821937,norm,0,26,26,26,122.784,122.794,122.799647262,122.8,122.802,122.805,up,1,1.94589396847,8.05410603153,001,305,1600_900,Intel(R) Core(TM) i5-3230M CPU @ 2.60GHz,orientation_search,Thebeast,AMD Radeon HD 7500M/7600M Series,2018_Nov_08_1325,testMonitor,
191.6,205.7,167.5,196.9,36,-80,188.2,206.0,176.8,182.5,8.138,7.887,8.156,8.348,7.696,7.751,8.267,5.016,-5.228,-8.005,1.678,-1.78,7.826,4.624,-4.865,-8.188,199.8,174.4,-7.793,171.6,183.0,185.6,,191.3,36,180.6,5,5,prime,10,0,71,norm,36,-5.085,down,norm,187.50432353,177.0,189.6,191.8,173.3,2,181.8,191.3,206.0,10,6,8.236,5.08,1.275,-1.328,-4.469,-8.479,182.8,6,258.5,-8.055,-8.475,-80,-8.36,-7.589,-4.586,-4.476,-4.526,-4.622,5.004,8.306,32,-1.25,1.407,4.932,7.578,-7.696,-8.417,-1.394,2.068,194.6,182.4,191.0,192.0,176.9,178.9,182.7,174.1,207.5,182.5,0,norm,1.117,1.797,-1.413,-1.789,-4.417,-4.986,-1.522,-2.008,-2.053,-2.008,1.513,-1.766,196.8,194.3,-4.846,-8.33,1.816,-1.271,7.755,4.443,-4.865,-8.183,8,5.088,4.344,4.715,5.17,1.157,1.342,1.324,1.344,8,4.971,5.174,-10,158.510821937,norm,0,27,27,27,124.767,124.777,124.782762712,124.783,124.785,124.788,down,1,5.21173186827,4.78826813173,001,305,1600_900,Intel(R) Core(TM) i5-3230M CPU @ 2.60GHz,orientation_search,Thebeast,AMD Radeon HD 7500M/7600M Series,2018_Nov_08_1325,testMonitor,
190.2,192.8,193.1,197.3,36,-80,193.6,196.0,185.1,199.3,8.01,7.87,8.185,7.551,7.907,8.216,8.174,4.682,-5.002,-7.614,1.445,-1.913,7.589,5.059,-4.536,-7.934,171.4,204.7,-7.874,167.5,183.6,195.5,191.2,196.5,36,199.2,0,5,prime,10,0,82,norm,36,-4.732,up,norm,187.50432353,177.0,174.0,178.3,187.0,3,172.0,190.0,195.9,10,6,8.265,5.239,1.249,-1.602,-4.834,-7.786,192.4,6,269.5,-8.453,-7.709,-80,-7.952,-8.142,-5.203,-4.538,-5.119,-5.151,5.092,7.838,3,-1.49,1.634,4.829,7.973,-7.602,-8.271,-1.904,1.689,177.2,178.0,,191.8,190.1,184.0,189.3,181.9,207.5,182.2,1,norm,1.679,1.925,-1.171,-1.464,-4.525,-5.2,-1.674,-1.649,-1.128,-1.165,1.738,-1.731,168.8,192.7,-4.554,-8.132,1.87,-1.894,8.397,5.21,-5.168,-8.485,8,5.233,5.029,4.642,4.94,1.739,1.595,1.343,1.467,8,5.175,4.796,-10,158.510821937,norm,0,28,28,28,130.016,130.026,130.032085933,130.032,130.036,130.04,up,1,2.04340229943,7.95659770057,001,305,1600_900,Intel(R) Core(TM) i5-3230M CPU @ 2.60GHz,orientation_search,Thebeast,AMD Radeon HD 7500M/7600M Series,2018_Nov_08_1325,testMonitor,
191.2,194.2,170.2,177.5,36,-80,194.9,177.5,184.3,178.7,8.033,8.349,8.417,8.357,8.239,7.592,7.63,4.495,-4.669,-7.857,1.337,-1.726,7.79,4.708,-5.08,-7.599,198.7,179.2,-8.008,176.6,180.5,195.2,203.9,191.1,36,193.8,0,5,prime,10,0,63,norm,36,-4.362,up,norm,187.50432353,178.5,184.2,185.6,189.0,3,181.6,207.5,174.2,10,6,7.91,5.078,1.514,-1.973,-4.969,-8.318,184.5,6,250.5,-7.887,-7.856,-80,-7.71,-7.697,-4.913,-5.191,-4.65,-4.897,4.823,7.531,3,-1.948,1.363,4.924,7.938,-7.872,-7.773,-1.933,1.222,190.4,192.1,,180.5,193.4,196.1,190.9,180.4,200.7,167.5,2,norm,1.653,1.911,-1.472,-1.321,-5.288,-5.216,-1.919,-1.352,-1.509,-1.169,1.525,-1.861,172.7,175.6,-4.338,-7.546,1.606,-1.981,8.044,5.28,-4.58,-7.869,8,4.585,5.211,4.811,4.745,1.993,1.948,1.919,1.705,8,4.974,4.991,-10,158.510821937,norm,0,29,29,29,132.099,132.109,132.115182752,132.116,132.118,132.121,up,1,1.96223614684,8.03776385316,001,305,1600_900,Intel(R) Core(TM) i5-3230M CPU @ 2.60GHz,orientation_search,Thebeast,AMD Radeon HD 7500M/7600M Series,2018_Nov_08_1325,testMonitor,
175.5,184.4,167.5,175.2,36,-80,177.8,187.4,193.9,184.7,7.688,8.262,8.088,8.292,7.839,7.829,7.557,4.748,-4.508,-7.927,1.705,-1.834,7.657,4.825,-4.564,-8.166,179.9,207.3,-7.715,190.9,179.9,192.4,205.3,199.5,36,195.5,3,5,prime,10,0,99,norm,36,-4.848,down,norm,187.50432353,173.3,176.8,202.2,190.3,1,174.5,207.5,193.4,10,6,8.334,4.627,1.331,-1.206,-5.166,-7.901,182.1,6,286.5,-8.277,-7.861,-80,-7.952,-8.223,-4.566,-5.098,-4.437,-4.686,4.904,7.631,19,-1.445,1.619,4.394,8.168,-7.728,-8.383,-1.847,1.189,180.9,179.7,189.2,198.1,190.6,183.4,196.0,175.0,181.9,186.5,3,norm,1.158,1.477,-1.642,-1.219,-5.091,-4.461,-1.816,-1.701,-1.623,-1.565,1.345,-1.931,,170.4,-5.292,-7.564,1.791,-1.963,8.047,4.994,-5.12,-8.306,8,5.114,4.815,4.628,4.333,1.996,1.355,1.275,1.822,8,4.441,5.222,-10,158.510821937,norm,0,30,30,30,134.099,134.109,134.114962883,134.115,134.117,134.12,down,1,1.87945788179,8.12054211821,001,305,1600_900,Intel(R) Core(TM) i5-3230M CPU @ 2.60GHz,orientation_search,Thebeast,AMD Radeon HD 7500M/7600M Series,2018_Nov_08_1325,testMonitor,
182.7,,192.5,172.7,36,-80,196.5,186.8,175.7,191.1,7.74,7.687,7.821,7.592,7.708,7.51,7.565,4.735,-4.305,-7.561,1.675,-1.631,8.127,4.598,-4.889,-8.001,195.6,199.0,-8.028,187.2,205.9,191.2,186.0,179.0,36,191.3,3,5,prime,10,0,61,norm,36,-4.992,up,norm,187.50432353,188.3,174.9,180.8,192.5,5,183.5,201.8,196.0,10,6,8.473,5.102,1.438,-1.537,-4.346,-7.822,207.5,6,248.5,-7.655,-7.824,-80,-7.799,-7.915,-4.47,-4.71,-4.307,-4.961,4.71,8.394,23,-1.27,1.169,4.541,8.315,-7.797,-8.274,-1.446,1.271,179.8,195.7,188.1,167.5,190.1,183.9,201.1,188.9,180.1,176.3,4,norm,2.018,1.193,-1.201,-1.26,-4.411,-4.838,-2.091,-1.816,-1.194,-1.794,1.199,-1.905,186.9,200.9,-5.0,-8.036,1.306,-1.675,8.219,5.02,-4.648,-8.473,8,4.452,4.831,5.117,4.901,1.919,2.085,1.205,1.416,8,4.534,4.598,-10,158.510821937,norm,0,31,31,31,136.015,136.025,136.031332377,136.032,136.034,136.037,down,0,3.02843894302,-10,001,305,1600_900,Intel(R) Core(TM) i5-3230M CPU @ 2.60GHz,orientation_search,Thebeast,AMD Radeon HD 7500M/7600M Series,2018_Nov_08_1325,testMonitor,
,207.5,192.7,184.5,36,-80,175.3,186.2,184.1,187.2,7.589,8.35,7.94,8.256,8.36,7.697,7.765,4.999,-4.986,-8.337,1.914,-1.334,8.393,4.537,-5.163,-8.1,180.6,184.9,-7.658,207.4,189.4,202.5,202.6,179.2,36,174.8,3,5,prime,10,0,82,norm,36,-5.274,up,norm,187.50432353,167.5,184.8,187.6,192.6,4,186.4,205.8,191.9,10,6,8.112,5.029,1.372,-1.313,-5.18,-8.424,192.0,6,269.5,-8.003,-8.151,-80,-8.342,-8.436,-4.431,-5.025,-5.114,-4.354,4.979,8.117,22,-1.799,2.04,4.527,8.322,-8.47,-7.612,-1.345,1.753,190.1,183.1,186.9,182.7,181.3,175.0,188.3,186.2,190.7,193.1,5,norm,1.564,1.364,-1.253,-2.044,-4.427,-4.6,-1.615,-1.99,-1.711,-1.293,1.924,-1.497,177.8,174.9,-4.429,-7.977,1.494,-1.399,7.714,5.055,-4.424,-7.914,8,4.507,4.842,4.649,4.966,1.529,1.759,2.002,1.305,8,5.088,5.194,-10,158.510821937,norm,0,32,32,32,140.115,140.125,140.130867691,140.131,140.133,140.136,up,1,1.17967830382,8.82032169618,001,305,1600_900,Intel(R) Core(TM) i5-3230M CPU @ 2.60GHz,orientation_search,Thebeast,AMD Radeon HD 7500M/7600M Series,2018_Nov_08_1325,testMonitor,
189.9,195.7,191.9,192.8,36,-80,188.2,195.5,191.7,184.7,8.328,7.676,8.33,8.457,7.821,7.725,8.484,4.813,-5.291,-8.309,1.466,-1.327,8.323,4.497,-5.264,-7.647,194.4,190.9,-8.242,195.3,191.7,182.5,188.7,194.1,36,181.7,0,5,probe,5,0,76,norm,36,-4.764,down,norm,191.745714315,187.4,184.6,183.9,187.1,1,192.8,191.1,193.0,10,6,7.765,5.128,1.48,-1.512,-5.186,-8.082,198.1,1,115.7,-7.609,-8.031,-80,-8.111,-7.502,-5.229,-4.577,-4.825,-4.699,4.444,7.863,1,-1.831,1.851,4.892,7.513,-7.992,-7.8,-1.983,1.955,201.7,190.9,194.1,190.4,,191.2,201.2,195.3,190.8,186.1,0,norm,1.59,1.243,-1.739,-1.655,-4.798,-4.368,-1.832,-2.079,-1.314,-1.436,2.087,-1.292,190.6,194.5,-4.339,-8.429,1.759,-1.265,8.314,4.693,-4.689,-8.019,9,4.587,4.766,4.644,5.25,1.714,1.547,2.096,2.069,9,4.722,4.841,-80,187.50432353,norm,0,33,33,33,141.332,141.342,141.34734037,141.348,141.35,141.353,down,1,2.26247235843,7.73752764157,001,305,1600_900,Intel(R) Core(TM) i5-3230M CPU @ 2.60GHz,orientation_search,Thebeast,AMD Radeon HD 7500M/7600M Series,2018_Nov_08_1325,testMonitor,
254.1,248.5,257.8,235.2,36,20,252.2,,252.1,239.6,7.632,8.415,8.269,8.0,8.363,8.365,7.805,4.376,-4.768,-8.477,1.299,-1.843,7.614,4.593,-4.803,-8.105,257.0,241.8,-8.279,251.2,253.5,255.4,244.2,272.4,36,259.2,4,5,prime,10,0,99,norm,36,-5.293,down,norm,252.363031484,243.6,239.6,261.0,259.4,1,256.1,262.4,245.2,10,5,7.931,5.088,1.992,-1.549,-5.032,-7.546,242.4,5,351.4,-7.652,-7.868,20,-8.395,-8.467,-4.451,-5.035,-5.293,-5.123,5.201,7.578,25,-2.097,1.485,4.641,8.295,-7.733,-8.471,-1.131,1.724,245.6,250.9,232.4,260.4,262.7,262.6,264.1,239.8,268.0,239.4,0,norm,1.495,1.672,-2.081,-1.199,-5.084,-5.155,-1.121,-1.251,-1.566,-1.352,1.769,-1.593,239.9,261.4,-4.976,-7.559,1.104,-1.488,7.975,4.667,-5.044,-7.811,10,4.791,4.324,4.97,4.773,1.99,1.384,2.015,1.674,10,4.581,5.107,-80,187.50432353,norm,0,34,34,34,143.631,143.641,143.647122632,143.647,143.649,143.652,down,1,1.64609946939,8.35390053061,001,305,1600_900,Intel(R) Core(TM) i5-3230M CPU @ 2.60GHz,orientation_search,Thebeast,AMD Radeon HD 7500M/7600M Series,2018_Nov_08_1325,testMonitor,
260.7,263.5,268.6,232.4,36,20,257.4,242.0,254.3,253.6,8.164,7.863,8.202,7.614,8.242,8.086,7.648,5.134,-4.9,-7.652,1.557,-1.328,7.847,5.116,-5.287,-7.566,266.4,252.8,-8.284,268.0,254.9,252.7,262.1,242.1,36,267.0,3,5,prime,10,0,77,norm,36,-4.403,down,norm,252.363031484,264.7,260.0,256.4,261.3,1,245.6,250.5,272.4,10,5,8.376,4.444,1.764,-1.419,-5.239,-7.752,246.3,5,329.4,-8.408,-7.515,20,-7.619,-8.401,-4.85,-4.424,-4.536,-4.32,4.738,8.264,19,-1.965,1.346,4.768,8.288,-8.411,-8.491,-1.982,1.723,243.8,235.0,244.2,253.2,234.6,241.2,239.4,245.0,258.0,246.6,1,norm,1.378,1.519,-1.662,-1.559,-4.361,-4.719,-1.93,-1.322,-1.755,-1.834,1.154,-2.048,,262.8,-4.725,-8.259,1.734,-1.333,7.518,4.597,-5.125,-8.448,10,4.535,5.061,5.023,4.363,1.852,1.105,1.651,1.632,10,4.579,4.405,-80,187.50432353,norm,0,35,35,35,145.314,145.324,145.330194898,145.33,145.333,145.335,down,1,1.07942930271,8.92057069729,001,305,1600_900,Intel(R) Core(TM) i5-3230M CPU @ 2.60GHz,orientation_search,Thebeast,AMD Radeon HD 7500M/7600M Series,2018_Nov_08_1325,testMonitor,
256.3,259.1,259.2,232.4,36,20,241.3,254.3,272.4,241.8,8.165,8.004,7.801,7.605,7.556,8.469,7.818,4.919,-4.78,-8.012,1.739,-1.104,7.608,4.374,-4.911,-7.792,259.9,247.6,-8.154,247.9,255.5,246.3,263.8,258.0,36,259.6,1,5,prime,10,0,119,norm,36,-5.16,down,norm,252.363031484,266.8,244.5,248.5,239.4,0,256.1,266.0,260.0,10,5,8.442,4.325,1.343,-1.835,-5.285,-8.292,259.9,5,371.4,-8.255,-8.119,20,-8.397,-8.246,-4.573,-4.572,-4.689,-4.381,4.566,7.691,6,-1.129,1.64,5.095,7.532,-7.56,-7.872,-1.602,1.814,258.5,239.8,258.2,267.0,243.5,257.7,251.5,,251.2,246.2,2,norm,1.506,1.879,-1.845,-1.715,-5.104,-4.667,-1.43,-1.803,-1.928,-1.332,2.007,-1.999,257.7,258.2,-4.693,-8.365,1.137,-1.736,7.64,4.783,-4.345,-8.464,10,4.677,5.044,4.895,4.727,1.987,1.837,1.925,1.332,10,4.729,4.916,-80,187.50432353,norm,0,36,36,36,146.431,146.441,146.446716998,146.447,146.45,146.453,down,1,3.37771747926,6.62228252074,001,305,1600_900,Intel(R) Core(TM) i5-3230M CPU @ 2.60GHz,orientation_search,Thebeast,AMD Radeon HD 7500M/7600M Series,2018_Nov_08_1325,testMonitor,
267.7,250.8,244.3,268.2,36,20,261.7,250.0,245.0,,7.572,7.598,7.646,8.158,8.323,8.479,7.943,4.641,-4.399,-8.291,1.641,-1.701,8.039,4.914,-4.374,-7.709,257.3,251.0,-8.13,249.4,249.6,250.2,248.4,257.5,36,254.0,4,5,prime,10,0,90,norm,36,-5.041,up,norm,252.363031484,252.9,251.6,248.0,272.4,5,259.0,261.4,249.4,10,5,7.846,4.359,1.466,-1.956,-4.34,-8.402,243.1,5,342.4,-8.258,-7.699,20,-7.629,-8.316,-4.968,-4.97,-4.813,-4.823,4.922,7.551,29,-1.338,2.034,4.545,8.456,-8.174,-7.843,-1.839,1.424,256.8,242.1,267.6,243.1,263.9,253.9,252.0,232.4,242.8,243.0,3,norm,2.013,1.895,-1.159,-1.73,-5.269,-4.319,-1.776,-1.862,-1.131,-2.088,1.863,-1.721,272.3,261.5,-4.828,-7.971,1.269,-2.024,8.307,4.632,-5.039,-7.996,10,4.727,4.964,4.69,5.088,1.309,1.495,1.136,1.674,10,4.532,4.528,-80,187.50432353,norm,0,37,37,37,149.847,149.856,149.862994913,149.863,149.865,149.868,up,1,1.47941911846,8.52058088154,001,305,1600_900,Intel(R) Core(TM) i5-3230M CPU @ 2.60GHz,orientation_search,Thebeast,AMD Radeon HD 7500M/7600M Series,2018_Nov_08_1325,testMonitor,
263.8,246.1,267.9,249.0,36,20,254.8,251.6,264.8,241.8,8.336,7.557,8.29,8.5,8.194,7.502,7.527,4.916,-4.636,-7.953,1.228,-1.729,7.957,5.21,-5.06,-7.841,259.8,246.7,-8.403,253.4,243.7,235.3,232.4,249.7,36,272.4,1,5,prime,10,0,60,norm,36,-4.36,up,norm,252.363031484,256.8,246.3,238.0,247.8,3,250.9,261.0,242.6,10,5,8.042,4.892,2.005,-1.703,-4.697,-8.01,243.8,5,312.4,-7.57,-8.399,20,-7.795,-8.078,-4.318,-5.059,-4.595,-4.322,4.921,8.332,9,-1.125,1.654,4.526,7.608,-8.457,-8.254,-2.098,1.803,,239.8,255.3,252.8,242.8,244.0,237.5,263.3,266.8,240.2,4,norm,1.167,1.312,-1.52,-1.857,-5.157,-4.81,-1.373,-1.991,-1.533,-1.218,1.327,-1.184,251.3,261.9,-4.344,-7.789,1.96,-1.398,8.148,4.49,-5.174,-8.05,10,4.388,5.221,4.763,4.818,1.374,1.263,1.389,1.526,10,4.59,4.785,-80,187.50432353,norm,0,38,38,38,151.364,151.375,151.379458671,151.38,151.382,151.385,up,1,1.52969579074,8.47030420926,001,305,1600_900,Intel(R) Core(TM) i5-3230M CPU @ 2.60GHz,orientation_search,Thebeast,AMD Radeon HD 7500M/7600M Series,2018_Nov_08_1325,testMonitor,
352.7,362.8,356.9,363.1,36,80,355.4,363.6,361.0,,7.945,7.879,8.339,8.145,7.677,7.918,7.987,4.806,-4.936,-7.648,1.823,-1.366,7.944,5.006,-4.551,-8.226,359.7,352.7,-7.975,362.4,354.8,365.4,370.3,368.5,36,371.7,4,5,probe,5,0,95,norm,36,-5.088,up,norm,362.487086534,366.6,363.1,366.2,360.7,5,363.9,372.5,364.9,10,5,8.228,5.152,1.611,-1.187,-4.673,-8.351,366.4,1,267.5,-7.996,-8.068,20,-7.975,-7.847,-5.197,-5.243,-4.667,-4.687,4.966,7.708,29,-1.647,1.29,5.209,7.863,-7.826,-8.141,-1.18,1.88,365.6,359.5,364.9,365.1,352.5,364.6,361.4,364.6,359.9,361.9,0,norm,1.707,2.08,-1.692,-1.654,-4.819,-4.388,-2.045,-1.389,-1.302,-1.853,1.722,-1.473,358.0,361.4,-4.336,-7.602,1.997,-1.383,7.81,4.772,-4.339,-8.111,11,4.591,4.419,4.903,4.995,1.571,1.774,1.213,2.033,11,5.158,4.63,20,252.363031484,norm,0,39,39,39,152.93,152.941,152.945893574,152.946,152.948,152.951,down,0,1.7459363634,-10,001,305,1600_900,Intel(R) Core(TM) i5-3230M CPU @ 2.60GHz,orientation_search,Thebeast,AMD Radeon HD 7500M/7600M Series,2018_Nov_08_1325,testMonitor,
105.7,101.6,111.2,106.7,36,30,94.2,116.0,118.4,91.3,7.527,8.457,8.416,7.576,8.219,8.099,8.038,4.802,-4.99,-8.198,1.616,-1.342,7.701,4.899,-5.05,-7.502,,104.2,-8.184,108.9,108.3,123.7,102.0,105.2,36,100.8,5,5,prime,10,0,103,norm,36,-4.414,up,norm,105.833062993,125.8,112.6,94.8,108.4,5,116.4,106.9,107.6,10,5,8.468,5.221,1.191,-1.607,-4.847,-8.061,101.1,5,208.8,-8.151,-8.317,30,-8.169,-7.934,-5.166,-4.74,-4.446,-4.701,4.732,7.996,35,-1.538,1.562,5.208,7.905,-8.29,-8.112,-1.675,1.978,119.1,91.1,103.2,85.8,109.0,96.8,102.7,115.6,98.9,103.3,0,norm,1.457,1.806,-1.578,-2.021,-5.182,-5.275,-1.177,-1.849,-1.763,-1.999,1.571,-1.862,118.6,102.6,-5.15,-8.478,1.836,-1.263,8.257,4.466,-4.967,-7.95,12,4.5,4.929,5.158,4.439,1.874,1.891,1.153,1.708,12,4.592,5.234,80,252.363031484,norm,0,40,40,40,155.746,155.756,155.762231568,155.762,155.765,155.768,up,1,1.06197001407,8.93802998593,001,305,1600_900,Intel(R) Core(TM) i5-3230M CPU @ 2.60GHz,orientation_search,Thebeast,AMD Radeon HD 7500M/7600M Series,2018_Nov_08_1325,testMonitor,
97.4,106.9,91.9,106.8,36,30,108.7,105.2,85.8,102.3,7.752,7.535,8.454,7.886,8.418,8.432,7.603,5.114,-5.118,-7.739,1.396,-1.535,7.706,4.92,-4.7,-7.934,116.2,98.6,-7.893,110.6,110.7,125.8,113.5,111.2,36,118.0,0,5,prime,10,0,67,norm,36,-4.87,up,norm,105.833062993,109.3,97.9,113.7,105.7,4,114.8,117.0,112.4,10,5,7.693,4.824,2.096,-1.826,-4.475,-8.413,109.7,5,172.8,-7.883,-8.035,30,-8.145,-8.284,-4.657,-5.036,-4.875,-4.444,4.676,8.207,4,-1.12,2.018,4.702,8.443,-7.819,-8.125,-1.565,1.549,115.1,110.0,88.9,92.6,106.1,118.8,103.2,120.1,99.5,,1,norm,1.789,1.826,-1.539,-1.692,-4.752,-4.93,-2.022,-1.236,-1.168,-1.592,1.905,-1.228,120.4,90.6,-4.437,-8.385,1.894,-1.477,7.516,5.114,-4.538,-7.807,12,4.996,4.993,4.497,4.304,2.068,1.411,1.875,1.194,12,4.963,4.367,80,252.363031484,norm,0,41,41,41,156.846,156.856,156.86208662,156.862,156.864,156.867,up,1,2.17907356428,7.82092643572,001,305,1600_900,Intel(R) Core(TM) i5-3230M CPU @ 2.60GHz,orientation_search,Thebeast,AMD Radeon HD 7500M/7600M Series,2018_Nov_08_1325,testMonitor,
91.0,94.9,101.6,88.5,36,30,,90.9,97.0,105.2,7.611,8.184,7.625,8.162,7.659,7.842,7.963,5.049,-5.257,-8.195,2.093,-1.114,8.157,4.48,-4.52,-8.158,122.4,91.2,-7.941,97.9,118.4,102.3,109.1,125.8,36,93.9,4,5,prime,10,0,113,norm,36,-5.041,down,norm,105.833062993,104.4,104.9,114.1,98.2,0,102.3,112.9,103.2,10,5,7.631,5.041,1.879,-1.269,-4.46,-7.766,99.2,5,218.8,-7.992,-8.145,30,-8.283,-7.686,-4.741,-4.999,-4.899,-5.252,4.853,7.54,24,-2.003,1.504,4.661,7.61,-8.479,-7.975,-1.941,1.879,92.9,111.6,118.1,95.8,94.9,91.3,101.8,91.7,109.1,123.0,2,norm,1.118,1.156,-1.216,-1.617,-4.47,-5.127,-1.377,-2.07,-1.978,-1.482,1.833,-1.35,98.1,85.8,-4.601,-7.889,1.838,-1.692,7.891,4.562,-4.786,-8.337,12,4.629,4.449,4.613,4.346,2.007,1.473,1.718,1.582,12,5.118,5.05,80,252.363031484,norm,0,42,42,42,159.063,159.072,159.078514299,159.079,159.081,159.084,up,0,1.14540670314,-10,001,305,1600_900,Intel(R) Core(TM) i5-3230M CPU @ 2.60GHz,orientation_search,Thebeast,AMD Radeon HD 7500M/7600M Series,2018_Nov_08_1325,testMonitor,
88.7,119.6,101.5,95.1,36,30,90.7,100.3,100.7,102.3,8.391,8.429,7.855,7.502,7.946,7.852,8.135,4.565,-4.689,-7.729,2.069,-2.032,8.499,4.411,-5.185,-8.082,125.8,113.8,-8.3,85.8,99.9,99.4,101.1,104.8,36,110.3,2,5,prime,10,0,93,norm,36,-4.72,down,norm,105.833062993,100.1,105.5,111.1,106.8,0,111.0,104.3,,10,5,7.997,4.733,1.643,-1.868,-4.785,-8.38,105.4,5,198.8,-8.487,-7.508,30,-7.607,-7.971,-4.831,-4.324,-4.622,-4.897,4.849,8.076,12,-1.972,1.466,4.753,8.253,-7.851,-8.179,-1.79,1.485,102.0,98.5,95.2,108.3,107.1,108.7,112.2,121.6,105.1,107.2,3,norm,1.398,1.375,-1.839,-1.776,-4.824,-4.984,-1.674,-1.348,-1.978,-1.402,2.065,-1.19,103.4,91.8,-5.279,-7.534,1.589,-1.452,8.397,4.564,-4.771,-7.826,12,5.271,4.522,4.335,5.28,1.802,1.737,1.15,1.354,12,4.952,4.584,80,252.363031484,norm,0,43,43,43,161.262,161.273,161.278231113,161.278,161.281,161.283,down,1,1.64581249443,8.35418750557,001,305,1600_900,Intel(R) Core(TM) i5-3230M CPU @ 2.60GHz,orientation_search,Thebeast,AMD Radeon HD 7500M/7600M Series,2018_Nov_08_1325,testMonitor,
114.1,89.4,90.5,107.0,36,30,100.1,110.9,95.1,97.7,8.342,8.195,7.804,8.318,8.192,7.847,8.261,4.893,-5.007,-7.692,1.486,-1.547,8.328,4.663,-5.216,-8.037,92.8,85.8,-7.631,125.8,103.8,,103.2,104.7,36,100.1,5,5,prime,10,0,68,norm,36,-5.284,up,norm,105.833062993,96.4,87.3,101.4,114.8,3,90.3,113.3,116.8,10,5,8.34,4.63,1.816,-1.179,-4.515,-8.214,115.1,5,173.8,-8.434,-7.984,30,-7.849,-7.882,-4.946,-4.925,-4.434,-4.564,5.124,7.76,33,-1.669,1.602,4.957,8.266,-8.183,-7.759,-1.401,1.397,111.4,110.2,111.5,94.7,112.7,94.7,114.5,102.8,111.2,120.8,4,norm,1.644,1.108,-1.446,-1.318,-4.461,-4.462,-1.86,-1.808,-1.918,-1.482,1.73,-1.876,109.6,117.0,-4.433,-7.559,2.014,-1.848,7.965,4.911,-4.745,-8.369,12,5.056,4.382,5.135,4.813,1.578,1.63,1.283,1.456,12,4.433,4.859,80,252.363031484,norm,0,44,44,44,162.945,162.956,162.961359038,162.962,162.964,162.967,down,0,2.01248400321,-10,001,305,1600_900,Intel(R) Core(TM) i5-3230M CPU @ 2.60GHz,orientation_search,Thebeast,AMD Radeon HD 7500M/7600M Series,2018_Nov_08_1325,testMonitor,
206.0,204.2,207.3,216.2,36,-20,205.6,208.1,210.4,202.2,8.313,7.537,8.356,7.783,7.661,8.089,8.108,4.657,-5.115,-7.701,1.761,-1.957,8.136,5.054,-5.022,-8.389,209.6,203.6,-8.489,200.9,212.9,217.6,210.7,208.4,36,205.6,1,5,probe,5,0,76,norm,36,-4.311,up,norm,207.575369998,209.1,209.3,208.0,206.5,4,211.0,209.1,208.8,10,5,8.115,5.162,1.639,-1.95,-5.156,-7.878,,1,131.6,-7.541,-8.395,30,-7.785,-8.153,-5.008,-4.633,-5.141,-5.236,5.218,8.094,10,-1.29,1.103,4.32,7.999,-8.31,-8.143,-1.227,1.692,208.3,210.5,208.9,210.9,208.3,208.3,200.6,209.3,210.3,197.6,0,norm,2.037,1.524,-1.146,-1.832,-5.284,-5.158,-1.822,-1.742,-1.332,-2.047,1.992,-1.9,207.9,208.2,-4.923,-7.502,1.183,-1.221,7.731,5.211,-4.528,-7.923,13,5.124,5.085,4.937,4.732,1.463,1.718,1.618,1.644,13,4.576,4.692,30,105.833062993,norm,0,45,45,45,166.012,166.022,166.027613939,166.028,166.03,166.033,up,1,0.863066361089,9.13693363891,001,305,1600_900,Intel(R) Core(TM) i5-3230M CPU @ 2.60GHz,orientation_search,Thebeast,AMD Radeon HD 7500M/7600M Series,2018_Nov_08_1325,testMonitor,
234.7,239.1,245.7,234.8,36,0,249.8,233.6,233.8,254.2,7.923,7.621,7.902,7.707,8.325,7.846,7.786,4.802,-4.994,-7.543,1.308,-1.391,7.688,4.414,-5.265,-7.847,242.5,218.4,-7.538,258.4,244.5,243.1,246.1,243.0,36,251.2,2,5,prime,10,0,117,norm,36,-4.629,down,norm,238.368776527,249.1,244.6,247.0,249.8,0,235.0,257.3,,10,5,8.111,4.717,1.797,-1.915,-4.309,-7.922,250.8,5,355.4,-8.094,-8.049,0,-8.159,-8.309,-5.194,-5.23,-4.929,-4.414,4.958,7.887,12,-1.642,1.586,4.819,7.724,-8.431,-7.9,-1.781,1.346,242.4,232.6,238.9,256.3,233.3,222.4,237.6,256.9,223.7,238.6,0,norm,1.807,1.704,-1.962,-1.653,-5.201,-4.583,-1.967,-1.931,-1.684,-1.285,1.947,-1.114,225.0,249.4,-5.189,-7.504,1.485,-1.158,8.408,5.209,-5.236,-8.022,14,5.266,4.448,4.554,5.238,1.536,1.892,2.05,1.718,14,4.769,4.832,-20,105.833062993,norm,0,46,46,46,166.912,166.922,166.927522834,166.928,166.931,166.934,down,1,2.81135165605,7.18864834395,001,305,1600_900,Intel(R) Core(TM) i5-3230M CPU @ 2.60GHz,orientation_search,Thebeast,AMD Radeon HD 7500M/7600M Series,2018_Nov_08_1325,testMonitor,
240.0,258.4,239.4,250.0,36,0,239.9,225.2,244.6,239.3,8.091,8.168,8.27,7.841,8.06,8.443,8.078,5.259,-4.606,-7.502,1.871,-1.781,7.897,4.615,-5.187,-8.23,240.7,222.0,-8.456,229.9,232.8,255.8,236.4,234.4,36,,4,5,prime,10,0,116,norm,36,-4.903,up,norm,238.368776527,231.7,237.5,240.0,240.5,3,226.3,244.0,246.7,10,5,8.137,4.983,1.681,-2.098,-4.443,-8.252,220.3,5,354.4,-7.824,-7.638,0,-8.465,-7.619,-5.047,-5.285,-4.954,-4.326,4.908,7.759,27,-1.236,1.45,5.123,7.814,-7.876,-7.99,-1.352,1.318,258.2,239.7,225.7,222.1,243.2,234.8,228.9,252.3,229.6,257.3,1,norm,1.596,2.028,-1.338,-2.023,-4.753,-5.037,-1.54,-1.896,-1.775,-2.08,1.107,-1.189,229.5,254.3,-5.139,-7.877,1.423,-1.283,7.515,4.83,-4.648,-8.385,14,4.896,5.164,4.777,4.33,1.974,1.837,1.343,1.261,14,4.487,4.757,-20,105.833062993,norm,0,47,47,47,169.778,169.788,169.793780262,169.794,169.796,169.799,up,1,1.47914832777,8.52085167223,001,305,1600_900,Intel(R) Core(TM) i5-3230M CPU @ 2.60GHz,orientation_search,Thebeast,AMD Radeon HD 7500M/7600M Series,2018_Nov_08_1325,testMonitor,
,244.5,253.1,233.9,36,0,256.2,231.7,233.3,231.3,8.484,7.944,8.356,7.7,8.012,7.929,7.694,4.532,-4.788,-7.772,1.859,-1.41,7.647,5.238,-4.401,-7.683,236.2,233.5,-8.178,248.0,233.5,218.4,240.7,235.2,36,240.9,3,5,prime,10,0,90,norm,36,-5.297,up,norm,238.368776527,258.4,224.1,233.8,239.0,4,223.3,244.0,243.1,10,5,8.259,5.138,1.466,-1.202,-4.404,-8.166,253.7,5,328.4,-8.038,-7.583,0,-7.536,-7.803,-4.936,-4.503,-4.945,-4.751,4.82,7.611,22,-1.145,1.818,5.213,8.065,-7.861,-8.405,-1.81,2.095,250.4,239.3,252.3,234.7,235.6,255.0,241.0,231.4,238.0,231.4,2,norm,1.501,1.421,-1.787,-2.042,-4.419,-5.031,-1.668,-1.431,-1.404,-1.739,1.235,-1.205,224.1,226.9,-4.317,-7.639,1.112,-1.158,8.353,4.905,-4.335,-7.534,14,5.047,4.439,4.427,4.931,1.846,1.282,1.107,1.436,14,4.529,4.414,-20,105.833062993,norm,0,48,48,48,171.294,171.304,171.310294151,171.311,171.313,171.316,up,1,2.29593158706,7.70406841294,001,305,1600_900,Intel(R) Core(TM) i5-3230M CPU @ 2.60GHz,orientation_search,Thebeast,AMD Radeon HD 7500M/7600M Series,2018_Nov_08_1325,testMonitor,
247.2,253.0,247.6,254.1,36,0,241.1,248.9,258.4,225.0,8.441,7.557,7.668,8.126,7.707,8.422,7.856,4.422,-4.427,-8.326,1.446,-1.71,8.343,4.989,-5.105,-7.533,248.5,229.3,-7.844,239.1,226.2,233.7,249.8,255.2,36,248.0,3,5,prime,10,0,115,norm,36,-4.51,down,norm,238.368776527,238.2,243.6,240.0,234.0,0,232.0,232.8,249.9,10,5,7.599,4.784,1.545,-1.296,-4.472,-7.575,219.8,5,353.4,-7.62,-7.581,0,-7.736,-8.103,-4.591,-4.554,-5.094,-4.554,4.962,8.027,18,-1.512,1.654,4.834,7.854,-8.015,-7.995,-1.561,1.937,246.3,242.7,218.4,231.0,235.2,238.1,243.9,235.9,237.2,237.4,3,norm,1.829,1.896,-1.665,-1.194,-4.77,-4.674,-1.899,-2.095,-1.429,-1.849,1.572,-1.232,240.0,,-5.12,-8.164,1.538,-1.466,8.202,5.29,-4.322,-7.894,14,4.912,4.774,5.233,5.087,1.164,1.802,2.057,1.908,14,4.725,4.622,-20,105.833062993,norm,0,49,49,49,173.627,173.637,173.643358799,173.644,173.646,173.648,down,1,1.11484801379,8.88515198621,001,305,1600_900,Intel(R) Core(TM) i5-3230M CPU @ 2.60GHz,orientation_search,Thebeast,AMD Radeon HD 7500M/7600M Series,2018_Nov_08_1325,testMonitor,
218.4,237.1,232.9,239.1,36,0,238.9,230.0,,226.5,7.649,7.536,8.226,8.201,7.533,8.158,7.687,4.317,-4.43,-7.641,1.345,-2.026,8.062,5.209,-5.224,-8.084,222.2,236.4,-8.05,251.1,258.1,232.2,234.7,225.4,36,248.7,4,5,prime,10,0,78,norm,36,-5.16,up,norm,238.368776527,221.8,256.0,251.6,226.3,4,235.1,248.4,223.7,10,5,8.448,4.49,1.807,-1.169,-4.473,-8.068,237.2,5,316.4,-8.147,-7.889,0,-7.995,-7.707,-5.24,-5.258,-4.568,-4.374,5.249,8.328,28,-1.485,1.775,5.001,8.01,-7.584,-8.498,-1.575,1.944,235.5,243.7,244.9,228.9,235.3,258.4,226.6,230.7,241.5,234.3,4,norm,1.247,1.351,-1.38,-2.045,-4.375,-4.575,-1.94,-1.858,-1.334,-1.874,1.552,-1.152,246.7,249.0,-5.251,-7.992,1.261,-1.116,8.166,4.867,-4.479,-7.909,14,4.885,4.859,4.826,4.916,1.15,1.913,1.131,1.546,14,4.829,5.209,-20,105.833062993,norm,0,50,50,50,174.795,174.805,174.809868623,174.81,174.812,174.815,up,1,0.929377315639,9.07062268436,001,305,1600_900,Intel(R) Core(TM) i5-3230M CPU @ 2.60GHz,orientation_search,Thebeast,AMD Radeon HD 7500M/7600M Series,2018_Nov_08_1325,testMonitor,
344.9,349.2,355.2,351.5,36,-60,352.9,345.3,358.1,348.3,7.632,8.206,8.161,7.789,7.78,8.146,8.445,5.18,-5.168,-8.198,1.158,-1.397,8.094,4.526,-4.994,-8.04,349.2,357.0,-8.034,342.2,351.5,354.6,348.0,356.5,36,361.9,1,5,probe,5,0,116,norm,36,-4.794,up,norm,351.871217018,343.8,350.7,355.2,348.1,3,348.2,361.1,347.5,10,5,7.735,4.647,1.383,-1.728,-4.883,-7.514,348.5,2,235.9,-8.454,-8.489,0,-8.216,-7.954,-4.328,-4.526,-4.871,-4.312,5.106,8.465,9,-1.134,1.515,4.342,7.569,-8.443,-8.326,-1.645,1.377,,350.1,353.2,357.0,360.4,345.7,355.7,346.4,353.0,341.9,0,norm,1.373,1.516,-1.307,-2.07,-4.479,-5.215,-1.766,-2.087,-1.312,-1.922,1.187,-1.354,349.2,355.6,-4.554,-8.35,1.409,-1.36,8.483,4.821,-4.6,-8.376,15,4.498,4.381,5.128,4.571,1.189,1.455,1.453,1.834,15,4.924,4.95,0,238.368776527,norm,0,51,51,51,175.778,175.789,175.793079206,175.793,175.795,175.798,up,1,1.14574420464,8.85425579536,001,305,1600_900,Intel(R) Core(TM) i5-3230M CPU @ 2.60GHz,orientation_search,Thebeast,AMD Radeon HD 7500M/7600M Series,2018_Nov_08_1325,testMonitor,
352.9,343.3,341.5,344.6,36,-60,343.4,351.7,348.7,,8.266,7.775,7.822,7.774,8.461,7.803,7.748,4.865,-4.542,-7.509,1.243,-2.07,8.095,4.767,-4.374,-8.198,348.4,353.5,-8.106,347.3,356.5,354.9,352.2,349.9,36,357.9,4,5,probe,5,0,114,norm,36,-5.052,up,norm,349.871217018,355.0,346.9,346.5,339.9,5,351.4,354.7,347.5,10,5,8.384,5.175,1.437,-1.803,-4.34,-8.342,347.2,2,235.9,-7.523,-7.609,0,-7.529,-8.137,-4.432,-5.169,-4.692,-5.276,4.448,7.67,29,-1.379,1.705,4.805,7.526,-7.969,-7.786,-1.321,1.761,353.8,358.3,359.2,346.8,353.3,352.8,350.7,349.8,350.6,352.7,1,norm,1.289,1.982,-2.012,-1.805,-4.716,-4.618,-1.812,-1.43,-1.533,-1.92,1.733,-1.158,348.0,345.4,-5.044,-7.655,1.429,-1.136,7.563,4.978,-5.272,-7.903,15,4.964,4.315,4.334,4.706,1.176,1.917,1.755,1.362,15,4.941,5.127,0,238.368776527,norm,0,52,52,52,176.96,176.971,176.976260025,176.977,176.979,176.982,up,1,1.66303415042,8.33696584958,001,305,1600_900,Intel(R) Core(TM) i5-3230M CPU @ 2.60GHz,orientation_search,Thebeast,AMD Radeon HD 7500M/7600M Series,2018_Nov_08_1325,testMonitor,
16.2,1.5,23.0,23.7,36,-20,32.9,41.1,29.5,29.4,8.414,7.595,7.678,7.559,7.568,7.788,8.159,5.068,-4.901,-8.136,2.014,-1.918,7.519,4.318,-4.409,-7.503,15.0,33.7,-7.749,26.1,22.9,29.3,12.1,13.3,36,33.5,0,5,prime,10,0,118,norm,36,-4.463,down,norm,21.4688820415,28.8,20.2,18.6,30.9,0,8.6,27.4,29.5,10,6,8.168,4.631,1.381,-1.809,-5.283,-7.783,21.5,6,139.5,-8.195,-8.151,-20,-7.713,-7.733,-4.91,-4.77,-4.89,-5.165,4.745,7.707,0,-2.095,1.425,4.882,7.984,-7.884,-8.067,-1.755,1.701,41.5,25.3,34.5,25.0,13.8,,33.4,35.2,17.4,31.4,0,norm,1.67,1.711,-1.266,-2.024,-4.836,-4.398,-1.714,-1.282,-2.057,-1.528,1.329,-1.105,32.8,35.9,-4.808,-7.54,1.744,-1.133,7.596,4.427,-5.183,-8.249,16,4.49,4.328,4.686,5.215,2.089,1.422,1.75,1.514,16,4.98,4.35,-60,238.368776527,norm,0,53,53,53,178.66,178.67,178.676083025,178.676,178.678,178.681,down,1,2.51262097752,7.48737902248,001,305,1600_900,Intel(R) Core(TM) i5-3230M CPU @ 2.60GHz,orientation_search,Thebeast,AMD Radeon HD 7500M/7600M Series,2018_Nov_08_1325,testMonitor,
15.2,22.1,15.2,5.5,36,-20,28.3,3.3,17.7,25.6,7.668,7.803,7.828,7.768,7.957,8.044,8.346,4.872,-5.029,-7.771,1.239,-1.785,8.393,4.545,-4.757,-7.64,13.8,21.4,-7.914,14.7,26.5,18.7,26.7,15.4,36,,4,5,prime,10,0,61,norm,36,-4.52,up,norm,21.4688820415,7.8,1.5,34.0,27.9,3,11.8,28.8,31.2,10,6,7.836,5.237,1.537,-1.649,-4.839,-7.969,15.5,6,82.5,-7.664,-8.298,-20,-8.137,-8.36,-4.614,-4.728,-4.566,-4.632,5.103,8.364,27,-1.804,1.573,4.976,8.394,-7.665,-8.157,-1.385,1.365,9.3,22.3,30.1,20.4,16.7,14.0,19.0,12.5,5.4,41.5,1,norm,1.65,1.438,-1.943,-1.748,-4.512,-4.558,-1.408,-1.705,-1.617,-1.599,1.122,-1.971,23.2,13.0,-5.067,-8.46,1.761,-1.405,7.672,4.989,-5.19,-7.761,16,5.287,5.011,5.009,5.122,1.303,1.254,2.082,1.97,16,4.988,5.242,-60,238.368776527,norm,0,54,54,54,181.21,181.221,181.242452795,181.243,181.245,181.248,up,1,1.62915452517,8.37084547483,001,305,1600_900,Intel(R) Core(TM) i5-3230M CPU @ 2.60GHz,orientation_search,Thebeast,AMD Radeon HD 7500M/7600M Series,2018_Nov_08_1325,testMonitor,
10.4,21.9,23.6,17.6,36,-20,4.4,23.0,19.6,10.6,8.083,8.495,7.835,8.379,8.297,8.154,7.791,4.888,-4.438,-8.4,1.572,-1.235,8.411,5.193,-5.026,-7.976,16.4,12.1,-7.513,22.7,22.5,,30.0,15.5,36,32.1,5,5,prime,10,0,95,norm,36,-5.296,up,norm,21.4688820415,29.0,31.8,26.0,15.6,3,20.0,33.7,25.7,10,6,7.811,4.892,1.984,-1.178,-4.689,-8.408,32.3,6,116.5,-7.515,-7.741,-20,-8.483,-7.51,-4.928,-5.146,-4.832,-5.156,4.584,7.84,33,-1.382,1.185,5.293,8.274,-8.03,-8.11,-1.382,1.483,38.0,17.3,11.9,27.6,21.3,1.5,13.1,10.8,41.5,38.2,2,norm,1.924,1.563,-1.254,-1.629,-4.66,-4.733,-1.138,-2.054,-1.622,-1.83,1.751,-1.923,30.3,18.1,-4.88,-7.981,1.388,-1.338,7.568,5.158,-5.034,-8.442,16,5.268,4.381,5.05,5.142,1.533,1.425,2.086,1.354,16,4.394,4.789,-60,238.368776527,norm,0,55,55,55,182.893,182.903,182.908888408,182.909,182.911,182.914,up,1,1.21275700444,8.78724299556,001,305,1600_900,Intel(R) Core(TM) i5-3230M CPU @ 2.60GHz,orientation_search,Thebeast,AMD Radeon HD 7500M/7600M Series,2018_Nov_08_1325,testMonitor,
21.5,26.9,18.3,19.9,36,-20,27.5,18.4,31.2,12.9,8.189,8.242,7.625,8.375,7.619,8.487,8.016,4.427,-5.257,-8.255,2.053,-1.712,8.37,5.177,-4.439,-8.109,1.5,27.1,-7.721,26.5,24.5,40.2,7.3,22.0,36,41.5,2,5,prime,10,0,75,norm,36,-4.657,up,norm,21.4688820415,28.1,37.7,,13.3,3,13.6,24.1,22.0,10,6,7.819,4.573,1.467,-1.514,-4.877,-8.096,38.8,6,96.5,-8.372,-8.285,-20,-8.031,-8.071,-5.259,-4.479,-4.787,-4.45,4.825,8.493,15,-1.463,1.628,4.739,7.763,-7.665,-7.906,-1.392,1.936,29.3,10.3,23.4,15.3,33.2,35.9,5.1,23.3,24.1,27.0,3,norm,1.625,1.454,-2.091,-1.898,-5.14,-5.072,-1.785,-1.427,-1.386,-1.403,1.25,-1.477,31.5,18.3,-4.734,-8.064,1.802,-1.433,7.515,4.386,-4.59,-7.889,16,4.756,5.15,4.986,4.771,1.692,2.079,1.126,1.758,16,5.207,5.237,-60,238.368776527,norm,0,56,56,56,184.143,184.152,184.158718868,184.159,184.161,184.164,up,1,1.47967569855,8.52032430145,001,305,1600_900,Intel(R) Core(TM) i5-3230M CPU @ 2.60GHz,orientation_search,Thebeast,AMD Radeon HD 7500M/7600M Series,2018_Nov_08_1325,testMonitor,
19.1,29.8,8.0,20.9,36,-20,4.1,6.4,22.8,15.1,8.216,7.66,7.996,7.916,7.981,8.048,7.704,4.616,-4.46,-8.411,1.796,-1.478,8.433,4.398,-4.949,-8.347,10.5,27.7,-7.636,21.4,1.5,28.1,25.1,11.6,36,30.6,2,5,prime,10,0,85,norm,36,-4.667,up,norm,21.4688820415,,23.5,31.0,29.8,5,12.3,21.6,41.5,10,6,8.347,4.475,1.608,-1.245,-4.96,-7.685,15.6,6,106.5,-7.889,-7.8,-20,-8.081,-8.238,-4.534,-4.357,-4.326,-5.268,4.559,7.531,17,-1.382,1.271,5.265,8.454,-7.515,-7.666,-1.369,1.405,31.4,28.5,31.7,14.4,18.2,21.6,22.7,19.9,19.5,16.0,4,norm,1.773,1.822,-1.535,-1.605,-5.294,-4.434,-1.592,-1.335,-1.753,-1.432,1.157,-1.505,15.0,18.3,-4.738,-8.348,1.163,-1.761,8.213,4.301,-4.417,-8.051,16,4.567,4.478,4.849,4.945,1.926,1.513,1.101,1.644,16,4.345,4.856,-60,238.368776527,norm,0,57,57,57,185.659,185.669,185.675236705,185.676,185.678,185.68,up,1,0.979552145363,9.02044785464,001,305,1600_900,Intel(R) Core(TM) i5-3230M CPU @ 2.60GHz,orientation_search,Thebeast,AMD Radeon HD 7500M/7600M Series,2018_Nov_08_1325,testMonitor,
13.1,33.2,41.5,19.3,36,-20,32.9,16.9,29.4,25.9,7.91,8.1,7.961,7.854,8.077,8.492,7.678,4.815,-4.31,-7.505,1.45,-1.366,7.808,4.318,-4.988,-8.398,1.5,24.1,-7.522,26.3,,18.9,26.1,7.7,36,30.4,5,5,prime,10,0,81,norm,36,-4.504,down,norm,21.4688820415,18.1,29.9,15.1,11.8,0,26.7,24.1,11.2,10,6,8.318,4.518,1.759,-1.329,-4.599,-7.787,11.2,6,102.5,-7.952,-8.073,-20,-7.638,-7.695,-5.046,-5.125,-5.234,-4.843,4.803,8.262,30,-1.864,1.94,4.853,7.653,-8.237,-7.522,-1.922,1.157,9.8,21.8,19.4,9.2,7.2,29.6,20.5,2.3,41.4,19.9,5,norm,2.077,1.763,-1.81,-1.54,-4.692,-4.809,-1.613,-1.623,-1.383,-1.581,1.983,-1.571,18.0,18.0,-4.441,-7.674,1.151,-1.104,7.719,4.997,-5.22,-7.951,16,4.458,4.983,5.049,5.244,2.01,1.185,1.731,1.973,16,5.094,4.745,-60,238.368776527,norm,0,58,58,58,186.676,186.686,186.691740726,186.692,186.694,186.698,down,1,1.17921093332,8.82078906668,001,305,1600_900,Intel(R) Core(TM) i5-3230M CPU @ 2.60GHz,orientation_search,Thebeast,AMD Radeon HD 7500M/7600M Series,2018_Nov_08_1325,testMonitor,
78.9,80.7,76.3,74.8,36,0,81.5,83.4,75.9,91.5,8.295,7.876,7.935,7.578,7.979,7.99,7.621,5.099,-4.944,-7.665,1.594,-1.273,8.016,4.541,-5.164,-8.031,82.3,82.2,-8.239,77.2,80.5,79.6,87.7,84.0,36,85.6,2,5,probe,5,0,76,norm,36,-4.608,down,norm,81.5134367542,80.6,79.2,81.8,,2,84.6,91.1,75.5,10,6,7.922,4.683,1.21,-1.54,-4.738,-7.774,81.3,1,5.5,-7.676,-7.751,-20,-7.952,-8.064,-4.408,-5.093,-5.169,-5.207,5.217,8.456,14,-1.708,1.816,4.358,7.694,-8.217,-7.863,-1.825,2.071,71.5,79.8,80.2,87.4,82.0,88.3,77.3,77.4,87.0,87.4,0,norm,1.498,1.228,-2.04,-1.651,-5.064,-4.502,-1.823,-1.232,-1.471,-1.115,1.281,-1.345,80.6,76.2,-4.804,-7.849,1.123,-1.269,7.744,4.965,-5.042,-8.323,17,4.532,4.327,4.606,4.356,1.835,2.094,1.79,1.865,17,4.555,4.396,-20,21.4688820415,norm,0,59,59,59,187.893,187.905,187.924949533,187.925,187.928,187.931,down,1,4.06157330178,5.93842669822,001,305,1600_900,Intel(R) Core(TM) i5-3230M CPU @ 2.60GHz,orientation_search,Thebeast,AMD Radeon HD 7500M/7600M Series,2018_Nov_08_1325,testMonitor,
359.8,360.1,344.8,,36,-40,357.7,351.0,361.0,353.2,7.948,8.489,8.451,8.434,7.725,7.554,7.664,4.804,-4.846,-8.419,1.443,-1.175,7.96,5.174,-4.721,-8.041,349.2,352.6,-8.295,353.6,355.9,362.5,345.7,355.6,36,352.1,3,5,prime,10,0,80,norm,36,-4.512,up,norm,358.472226003,356.1,355.0,354.0,360.1,3,349.2,354.9,368.5,10,5,7.667,5.21,1.864,-1.843,-4.93,-8.47,349.5,5,438.5,-8.263,-7.624,-40,-7.723,-7.72,-4.734,-4.396,-4.739,-4.781,4.492,7.862,21,-2.063,1.368,4.398,7.55,-7.991,-7.794,-1.689,2.041,368.5,355.2,352.8,362.0,357.1,361.2,338.5,340.5,372.8,368.4,0,norm,1.936,1.751,-1.75,-1.28,-4.325,-5.005,-1.415,-1.264,-1.303,-1.609,1.13,-1.988,345.8,378.5,-5.13,-7.865,2.05,-2.04,8.023,4.887,-4.611,-8.421,18,5.053,4.394,4.502,5.2,1.922,1.988,1.438,1.708,18,4.438,5.239,0,21.4688820415,norm,0,60,60,60,192.008,201.901,201.906487608,201.907,201.909,201.912,down,0,1.47915819623,-10,001,305,1600_900,Intel(R) Core(TM) i5-3230M CPU @ 2.60GHz,orientation_search,Thebeast,AMD Radeon HD 7500M/7600M Series,2018_Nov_08_1325,testMonitor,
365.9,359.6,354.4,366.0,36,-40,369.3,376.5,358.1,361.9,7.965,8.322,8.147,8.054,7.852,7.793,8.108,4.999,-4.66,-8.115,1.868,-1.267,7.6,4.327,-5.02,-8.468,368.7,366.3,-8.123,360.7,338.5,359.3,342.8,356.0,36,356.8,3,5,prime,10,0,95,norm,36,-4.844,down,norm,358.472226003,362.3,354.2,356.3,367.4,1,375.4,349.4,343.8,10,5,7.858,4.902,1.444,-2.089,-4.699,-8.388,378.5,5,453.5,-8.459,-8.114,-40,-7.831,-7.655,-4.457,-4.407,-5.174,-5.053,4.892,7.593,19,-1.906,2.036,4.746,7.703,-8.31,-7.99,-1.394,2.054,351.2,354.3,343.3,349.0,348.8,366.3,363.0,357.5,356.7,373.7,1,norm,1.876,1.271,-1.616,-1.301,-4.962,-5.282,-1.515,-1.252,-2.023,-2.074,1.694,-1.513,,352.4,-4.456,-8.456,1.6,-1.61,8.072,4.696,-5.17,-8.359,18,4.879,5.114,4.36,4.335,1.678,1.849,1.816,1.37,18,5.025,4.377,0,21.4688820415,norm,0,61,61,61,204.44,204.451,204.456155593,204.456,204.459,204.462,up,0,0.6958610078,-10,001,305,1600_900,Intel(R) Core(TM) i5-3230M CPU @ 2.60GHz,orientation_search,Thebeast,AMD Radeon HD 7500M/7600M Series,2018_Nov_08_1325,testMonitor,
354.5,367.7,350.9,371.4,36,-40,355.1,339.0,355.3,361.3,8.5,7.71,7.867,8.37,7.98,7.646,7.701,4.374,-4.312,-7.99,2.048,-1.412,8.095,4.545,-4.884,-8.491,350.6,358.8,-7.56,353.7,368.7,355.0,,361.2,36,364.4,5,5,prime,10,0,112,norm,36,-4.304,down,norm,358.472226003,349.1,349.5,378.5,356.3,2,356.8,350.6,360.1,10,5,7.569,4.878,1.122,-1.669,-5.112,-8.188,349.3,5,470.5,-8.055,-7.927,-40,-8.424,-8.054,-4.979,-4.632,-5.245,-4.527,4.659,8.348,32,-1.591,1.175,5.279,7.984,-7.615,-8.478,-1.863,1.245,356.3,364.9,355.7,357.7,365.4,339.8,340.7,359.6,370.5,349.8,2,norm,2.056,1.217,-1.343,-1.135,-5.294,-4.923,-1.37,-1.346,-1.294,-1.956,2.084,-1.491,362.9,338.5,-4.576,-7.84,1.91,-1.431,8.057,4.706,-5.195,-7.633,18,4.74,4.539,4.854,5.098,1.196,1.261,1.898,1.416,18,4.499,4.858,0,21.4688820415,norm,0,62,62,62,206.207,206.218,206.222597443,206.223,206.225,206.228,down,1,0.512817952083,9.48718204792,001,305,1600_900,Intel(R) Core(TM) i5-3230M CPU @ 2.60GHz,orientation_search,Thebeast,AMD Radeon HD 7500M/7600M Series,2018_Nov_08_1325,testMonitor,
367.5,348.8,361.8,349.2,36,-40,,369.7,363.3,354.1,7.953,7.797,7.789,8.268,8.387,8.012,8.285,4.353,-4.525,-7.736,1.446,-1.285,8.143,4.715,-5.132,-8.442,357.6,366.9,-8.196,344.9,367.1,352.9,355.5,350.7,36,353.6,4,5,prime,10,0,76,norm,36,-5.015,down,norm,358.472226003,352.1,356.6,350.9,349.1,0,371.3,347.5,352.7,10,5,8.099,4.313,1.442,-1.157,-5.042,-8.315,353.1,5,434.5,-8.021,-8.372,-40,-8.292,-8.447,-4.393,-4.326,-4.751,-4.547,5.019,7.851,24,-1.739,1.221,4.324,8.182,-7.959,-8.354,-1.115,1.627,370.8,378.5,349.9,357.8,338.5,350.1,368.4,347.5,339.4,356.2,3,norm,1.536,1.112,-1.389,-1.271,-4.557,-5.192,-1.393,-1.881,-1.508,-1.704,1.868,-2.078,376.6,356.7,-5.228,-8.286,1.535,-1.378,8.175,5.087,-4.889,-8.438,18,4.781,4.909,4.518,4.609,1.269,1.44,1.131,1.193,18,4.521,4.848,0,21.4688820415,norm,0,63,63,63,206.757,206.768,206.772533851,206.773,206.775,206.778,down,1,2.52893591892,7.47106408108,001,305,1600_900,Intel(R) Core(TM) i5-3230M CPU @ 2.60GHz,orientation_search,Thebeast,AMD Radeon HD 7500M/7600M Series,2018_Nov_08_1325,testMonitor,
368.6,358.6,358.1,355.9,36,-40,,371.0,359.8,354.4,7.575,8.493,7.714,8.43,8.466,8.306,7.648,4.53,-4.302,-7.762,1.596,-1.287,8.043,4.988,-4.774,-8.358,353.5,357.9,-7.616,348.5,338.5,364.9,374.8,361.7,36,360.9,4,5,prime,10,0,119,norm,36,-4.835,down,norm,358.472226003,351.0,369.8,358.5,352.1,0,368.9,366.0,365.2,10,5,8.036,5.04,1.559,-1.296,-4.478,-8.032,359.8,5,477.5,-8.341,-8.062,-40,-8.171,-7.847,-4.908,-5.065,-5.082,-5.071,5.227,7.78,24,-1.374,1.633,5.056,7.891,-7.774,-8.18,-1.569,1.694,372.3,361.5,374.7,353.1,351.2,367.1,366.5,354.5,362.5,372.0,4,norm,1.226,1.495,-1.652,-1.85,-4.86,-5.209,-1.16,-1.923,-1.176,-1.931,1.314,-1.608,378.5,371.0,-4.974,-7.509,2.067,-1.68,8.442,5.091,-5.018,-7.683,18,4.925,4.728,4.481,5.007,1.122,1.627,1.643,1.452,18,5.292,4.874,0,21.4688820415,norm,0,64,64,64,209.323,209.335,209.355588828,209.356,209.358,209.362,down,1,1.66192217176,8.33807782824,001,305,1600_900,Intel(R) Core(TM) i5-3230M CPU @ 2.60GHz,orientation_search,Thebeast,AMD Radeon HD 7500M/7600M Series,2018_Nov_08_1325,testMonitor,
386.8,382.4,394.5,392.7,36,10,388.6,388.0,389.8,381.8,8.277,7.623,7.546,8.262,7.544,7.617,8.109,5.281,-4.656,-8.022,1.154,-1.937,8.345,5.138,-5.104,-8.106,377.7,384.9,-8.102,397.7,386.0,378.9,384.8,386.6,36,387.7,2,5,probe,5,0,66,norm,36,-5.218,down,norm,387.653703431,386.6,384.2,384.3,389.2,0,392.7,388.7,,10,5,7.676,4.602,1.921,-1.308,-4.358,-7.798,390.1,1,321.7,-8.5,-7.639,-40,-8.366,-7.654,-4.757,-5.01,-4.663,-4.684,4.652,7.898,12,-1.697,1.611,4.835,7.742,-8.413,-8.436,-2.089,1.479,384.9,383.0,394.2,382.8,394.5,386.7,381.5,391.1,392.0,389.1,0,norm,1.458,1.698,-1.521,-1.563,-4.89,-4.984,-1.506,-2.021,-1.352,-1.215,1.332,-1.115,383.5,387.5,-5.131,-7.704,1.454,-1.205,8.431,4.97,-4.809,-7.857,19,4.435,4.926,4.829,5.109,1.644,2.0,1.879,1.528,19,4.544,4.304,-40,358.472226003,norm,0,65,65,65,211.039,211.05,211.055334458,211.056,211.058,211.061,down,1,0.929226525492,9.07077347451,001,305,1600_900,Intel(R) Core(TM) i5-3230M CPU @ 2.60GHz,orientation_search,Thebeast,AMD Radeon HD 7500M/7600M Series,2018_Nov_08_1325,testMonitor,
249.8,,247.8,275.1,36,-60,251.3,268.8,254.7,276.6,7.684,8.424,8.107,7.554,8.069,7.759,7.887,5.141,-4.827,-7.847,1.701,-1.143,7.528,4.576,-4.996,-8.066,246.3,241.7,-8.027,249.8,269.2,262.0,240.5,273.0,36,255.0,3,5,prime,10,0,107,norm,36,-5.191,up,norm,260.5267772,262.1,247.5,269.9,257.9,5,249.0,261.4,244.7,10,6,8.258,4.407,1.686,-1.19,-5.096,-8.008,246.7,6,367.5,-7.826,-8.35,-60,-8.419,-8.299,-4.87,-5.101,-4.668,-4.679,4.517,7.98,23,-1.405,1.251,5.208,7.701,-7.763,-8.472,-1.83,1.179,258.8,280.5,260.1,254.7,261.0,265.9,257.0,252.3,247.7,275.4,0,norm,1.804,1.959,-1.897,-1.797,-4.39,-4.875,-1.958,-1.778,-1.585,-1.977,1.414,-1.594,266.6,254.7,-4.904,-7.558,1.167,-2.084,8.323,4.605,-5.219,-8.023,20,4.583,5.097,4.815,5.023,1.293,1.339,1.34,1.29,20,4.87,4.307,10,358.472226003,norm,0,66,66,66,212.006,212.017,212.021896151,212.022,212.024,212.028,down,0,2.32869686522,-10,001,305,1600_900,Intel(R) Core(TM) i5-3230M CPU @ 2.60GHz,orientation_search,Thebeast,AMD Radeon HD 7500M/7600M Series,2018_Nov_08_1325,testMonitor,
258.7,254.7,,253.0,36,-60,258.2,244.7,243.2,263.3,8.094,7.852,8.394,7.835,7.813,7.568,7.571,4.954,-4.726,-8.108,2.069,-1.982,7.672,4.6,-4.781,-7.547,270.3,271.4,-8.466,249.5,253.9,276.8,267.2,266.9,36,260.0,3,5,prime,10,0,95,norm,36,-5.228,down,norm,260.5267772,240.5,268.5,266.2,249.1,2,242.3,280.5,255.3,10,6,8.281,4.739,1.152,-1.747,-5.149,-7.626,275.0,6,355.5,-7.996,-7.901,-60,-8.004,-8.024,-5.162,-4.487,-4.925,-4.953,5.023,8.335,20,-1.201,1.414,4.447,7.654,-7.574,-7.574,-1.394,1.867,252.8,270.3,260.4,251.9,269.0,261.5,257.0,260.8,267.9,242.6,1,norm,1.832,1.404,-1.774,-1.596,-4.508,-5.116,-1.279,-1.58,-1.389,-2.075,1.639,-1.955,257.1,260.8,-4.515,-8.368,1.698,-1.484,7.537,4.767,-5.111,-8.234,20,5.08,4.875,4.771,5.012,1.181,1.477,1.637,1.281,20,5.144,4.919,10,358.472226003,norm,0,67,67,67,215.422,215.433,215.438127486,215.438,215.441,215.444,up,0,0.662259278528,-10,001,305,1600_900,Intel(R) Core(TM) i5-3230M CPU @ 2.60GHz,orientation_search,Thebeast,AMD Radeon HD 7500M/7600M Series,2018_Nov_08_1325,testMonitor,
257.7,256.4,253.1,,36,-60,253.9,257.4,261.7,258.0,8.135,7.622,7.91,8.222,7.986,7.982,8.381,4.531,-4.376,-8.071,2.089,-1.184,7.517,4.667,-4.697,-8.175,279.9,271.2,-7.63,252.3,269.9,264.2,269.2,263.0,36,261.3,3,5,prime,10,0,77,norm,36,-4.95,up,norm,260.5267772,261.2,240.5,248.8,271.7,3,246.2,265.7,280.5,10,6,8.148,5.179,1.176,-1.741,-4.404,-8.025,269.0,6,337.5,-7.811,-8.076,-60,-7.627,-8.058,-4.514,-4.6,-4.967,-4.731,5.246,7.654,21,-1.235,1.754,5.02,8.473,-8.462,-7.907,-1.172,1.562,268.4,274.3,269.5,266.4,253.2,268.4,264.1,240.6,269.4,268.8,2,norm,1.499,1.697,-1.919,-2.019,-5.164,-4.862,-1.312,-1.947,-1.92,-1.925,1.195,-1.823,277.7,269.3,-5.278,-8.333,1.802,-1.803,7.501,4.505,-4.414,-7.835,20,5.068,5.252,4.792,4.71,1.253,1.805,1.603,1.835,20,4.395,4.457,10,358.472226003,norm,0,68,68,68,217.172,217.183,217.187917288,217.188,217.19,217.193,up,1,0.97921188068,9.02078811932,001,305,1600_900,Intel(R) Core(TM) i5-3230M CPU @ 2.60GHz,orientation_search,Thebeast,AMD Radeon HD 7500M/7600M Series,2018_Nov_08_1325,testMonitor,
248.3,247.5,263.5,275.6,36,-60,260.3,262.4,258.4,258.5,7.916,7.678,8.268,7.938,7.523,7.631,8.346,4.573,-5.23,-7.72,2.099,-1.429,7.949,5.162,-4.539,-7.685,274.0,,-8.229,268.5,269.2,270.2,257.5,262.9,36,271.3,5,5,prime,10,0,112,norm,36,-4.72,up,norm,260.5267772,253.8,257.0,245.2,256.4,4,254.3,279.3,278.3,10,6,8.144,5.12,1.102,-1.182,-4.885,-8.299,268.4,6,372.5,-7.69,-7.81,-60,-8.221,-8.286,-4.414,-4.438,-4.347,-5.018,5.06,7.958,34,-1.337,2.008,5.085,8.008,-7.968,-8.145,-1.617,1.373,262.1,244.6,280.5,267.3,267.8,245.5,246.2,251.3,261.4,240.5,3,norm,1.253,1.733,-1.232,-1.532,-4.922,-4.409,-1.425,-1.567,-1.735,-1.56,2.088,-2.01,249.3,271.6,-4.454,-7.703,1.957,-1.963,7.943,4.621,-4.928,-8.194,20,4.656,4.866,4.774,4.328,1.674,1.541,1.65,1.474,20,4.928,5.1,10,358.472226003,norm,0,69,69,69,218.189,218.201,218.221161384,218.221,218.224,218.227,down,0,2.56229409447,-10,001,305,1600_900,Intel(R) Core(TM) i5-3230M CPU @ 2.60GHz,orientation_search,Thebeast,AMD Radeon HD 7500M/7600M Series,2018_Nov_08_1325,testMonitor,
276.9,275.3,242.3,259.0,36,-60,278.9,254.6,240.5,268.6,8.047,8.061,7.764,8.354,8.103,7.772,8.288,4.596,-4.679,-7.884,1.391,-1.667,8.448,4.513,-4.836,-8.201,272.2,254.0,-8.143,258.2,259.4,274.9,262.8,266.5,36,250.1,2,5,prime,10,0,63,norm,36,-5.111,up,norm,260.5267772,,263.5,258.6,256.2,5,257.9,266.8,256.9,10,6,8.494,4.304,1.766,-1.517,-4.857,-7.532,248.0,6,323.5,-7.903,-8.011,-60,-7.511,-8.132,-4.949,-4.474,-4.62,-5.036,4.849,8.098,17,-1.983,1.283,5.108,7.976,-8.265,-7.606,-1.663,2.007,259.0,240.8,275.7,252.4,269.5,261.1,261.0,280.5,264.8,273.4,4,norm,1.893,1.104,-1.53,-1.795,-4.638,-4.883,-1.202,-1.598,-1.674,-1.451,1.903,-1.859,255.7,280.1,-4.671,-7.951,1.143,-1.224,8.457,5.28,-4.418,-8.179,20,4.784,4.907,4.304,4.914,2.014,1.447,1.324,1.629,20,4.363,4.521,10,358.472226003,norm,0,70,70,70,221.838,221.85,221.854001584,221.854,221.857,221.86,up,1,1.46205180392,8.53794819608,001,305,1600_900,Intel(R) Core(TM) i5-3230M CPU @ 2.60GHz,orientation_search,Thebeast,AMD Radeon HD 7500M/7600M Series,2018_Nov_08_1325,testMonitor,
254.1,258.7,245.8,259.0,36,-60,258.7,258.3,278.9,267.0,7.995,7.71,7.583,8.039,7.846,7.711,7.853,4.945,-5.297,-7.854,1.307,-1.771,8.088,5.291,-4.803,-7.887,,252.0,-8.078,264.3,242.4,254.5,267.7,273.1,36,280.5,5,5,prime,10,0,88,norm,36,-5.163,up,norm,260.5267772,272.8,240.5,276.9,266.3,5,263.0,262.4,269.0,10,6,7.642,5.111,1.182,-2.039,-4.454,-7.537,269.7,6,348.5,-7.881,-7.722,-60,-7.543,-8.104,-4.748,-4.8,-5.252,-4.749,4.346,7.945,35,-1.987,1.266,4.338,7.619,-7.598,-7.774,-1.976,1.827,262.1,258.5,274.8,246.5,243.4,262.8,261.0,243.8,259.3,241.6,5,norm,1.451,1.907,-1.38,-1.279,-5.121,-5.004,-1.273,-1.353,-1.385,-1.969,1.68,-1.792,260.9,253.4,-5.038,-7.76,1.562,-1.78,8.451,5.23,-5.269,-7.732,20,4.32,5.255,4.357,4.558,1.858,1.697,1.913,1.487,20,4.301,4.424,10,358.472226003,norm,0,71,71,71,223.338,223.349,223.353816846,223.354,223.356,223.36,up,1,2.24552899316,7.75447100684,001,305,1600_900,Intel(R) Core(TM) i5-3230M CPU @ 2.60GHz,orientation_search,Thebeast,AMD Radeon HD 7500M/7600M Series,2018_Nov_08_1325,testMonitor,
322.8,321.4,324.2,314.6,36,60,322.5,318.6,311.0,319.1,7.907,8.2,8.123,8.051,8.417,8.102,7.595,4.69,-4.8,-8.475,1.667,-1.443,7.716,4.634,-4.33,-7.767,307.7,323.4,-7.529,324.9,316.0,317.0,,323.5,36,327.4,5,5,probe,5,0,114,norm,36,-4.377,down,norm,317.440462468,312.9,307.4,316.4,320.2,2,322.3,314.2,307.6,10,6,8.454,5.001,1.963,-1.725,-4.72,-7.527,322.2,1,203.4,-8.282,-8.032,-60,-7.553,-7.612,-4.414,-5.167,-4.36,-4.998,4.629,7.546,32,-2.035,1.334,4.647,8.321,-8.128,-8.209,-1.139,1.982,325.0,314.1,318.8,318.2,324.8,325.8,318.1,322.9,322.2,324.5,0,norm,1.76,1.248,-1.53,-1.444,-5.014,-4.376,-1.813,-1.863,-1.833,-1.968,1.829,-1.376,316.2,315.3,-4.715,-7.96,1.207,-2.06,7.927,5.144,-4.523,-8.342,21,4.718,4.939,4.397,5.0,2.032,1.475,1.543,1.194,21,4.314,4.87,-60,260.5267772,norm,0,72,72,72,225.621,225.632,225.636860612,225.637,225.639,225.643,up,0,2.57871166792,-10,001,305,1600_900,Intel(R) Core(TM) i5-3230M CPU @ 2.60GHz,orientation_search,Thebeast,AMD Radeon HD 7500M/7600M Series,2018_Nov_08_1325,testMonitor,
94.6,87.7,103.2,90.0,36,-30,94.2,95.4,100.1,83.7,7.908,7.61,8.301,8.287,8.08,8.163,8.453,5.276,-4.338,-7.939,1.401,-1.633,7.564,4.635,-5.234,-8.033,104.2,94.1,-8.22,77.3,102.6,113.9,86.9,99.4,36,88.2,3,5,prime,10,0,63,norm,36,-5.253,down,norm,93.8885651346,84.1,73.9,94.9,104.0,0,75.7,98.0,92.0,10,5,8.298,4.618,1.934,-1.766,-4.464,-8.111,101.5,5,156.9,-7.86,-7.714,-30,-8.409,-8.487,-4.67,-4.982,-4.461,-4.552,5.224,7.569,18,-1.776,1.655,4.744,7.969,-8.232,-7.806,-1.805,1.294,87.3,83.1,96.0,98.1,97.8,81.3,81.2,94.7,87.0,82.4,0,norm,1.403,1.664,-1.492,-1.814,-4.767,-5.152,-1.667,-1.914,-1.397,-1.373,1.348,-1.189,88.3,,-4.547,-8.193,2.019,-1.746,7.681,4.854,-4.543,-8.141,22,4.398,4.738,5.221,4.687,1.32,1.689,1.999,1.307,22,5.212,4.779,60,260.5267772,norm,0,73,73,73,229.271,229.282,229.286404571,229.287,229.289,229.292,down,1,1.67921961757,8.32078038243,001,305,1600_900,Intel(R) Core(TM) i5-3230M CPU @ 2.60GHz,orientation_search,Thebeast,AMD Radeon HD 7500M/7600M Series,2018_Nov_08_1325,testMonitor,
96.1,102.0,100.0,80.8,36,-30,113.9,88.1,112.7,88.6,7.838,8.427,7.929,8.09,8.021,8.21,7.699,5.275,-4.944,-8.377,1.907,-1.571,7.884,5.244,-4.826,-7.659,95.2,96.0,-8.083,96.0,83.7,85.1,113.7,103.0,36,94.2,2,5,prime,10,0,99,norm,36,-5.214,down,norm,93.8885651346,101.9,73.9,81.2,,2,86.6,103.4,92.4,10,5,8.391,5.179,1.553,-1.83,-4.339,-7.756,86.1,5,192.9,-7.973,-7.964,-30,-7.928,-7.818,-5.298,-5.199,-4.868,-5.126,4.741,8.473,14,-1.563,2.05,4.952,7.917,-7.539,-8.029,-1.87,1.942,83.6,76.1,99.8,99.0,85.4,94.6,93.1,74.3,108.3,93.8,1,norm,1.391,1.678,-1.644,-1.691,-4.738,-4.333,-1.953,-1.116,-1.135,-2.025,1.668,-1.897,95.1,99.9,-4.948,-8.263,1.832,-1.527,7.607,4.424,-4.392,-7.566,22,4.598,4.467,4.488,4.425,1.756,1.589,1.942,1.263,22,4.744,4.894,60,260.5267772,norm,0,74,74,74,230.988,231.001,231.019604693,231.02,231.022,231.025,up,0,3.79629119394,-10,001,305,1600_900,Intel(R) Core(TM) i5-3230M CPU @ 2.60GHz,orientation_search,Thebeast,AMD Radeon HD 7500M/7600M Series,2018_Nov_08_1325,testMonitor,
,88.5,90.1,85.9,36,-30,99.0,101.7,96.2,93.0,7.539,7.518,7.648,8.44,8.265,7.674,7.832,4.822,-5.053,-7.718,1.973,-1.417,7.813,4.661,-5.221,-8.159,91.8,78.7,-7.984,78.4,96.3,85.3,89.5,78.9,36,94.7,3,5,prime,10,0,102,norm,36,-4.967,up,norm,93.8885651346,90.2,93.3,84.3,84.7,4,88.2,83.7,90.7,10,5,8.15,4.945,1.692,-1.262,-4.813,-8.228,80.7,5,195.9,-7.867,-8.237,-30,-8.497,-7.875,-4.445,-5.295,-4.538,-5.221,4.853,8.173,22,-1.754,2.082,4.671,7.559,-7.885,-8.344,-2.063,1.647,102.1,86.8,96.2,90.8,93.1,113.9,100.1,73.9,102.7,100.1,2,norm,1.82,1.215,-1.266,-1.953,-4.805,-4.43,-1.143,-1.873,-1.934,-2.025,1.268,-1.338,91.0,98.0,-4.674,-7.803,1.685,-1.858,8.438,4.66,-5.273,-7.545,22,4.898,5.132,5.187,4.424,1.717,1.183,1.313,1.456,22,4.376,4.957,60,260.5267772,norm,0,75,75,75,235.886,235.897,235.902291142,235.903,235.905,235.908,up,1,2.14569880971,7.85430119029,001,305,1600_900,Intel(R) Core(TM) i5-3230M CPU @ 2.60GHz,orientation_search,Thebeast,AMD Radeon HD 7500M/7600M Series,2018_Nov_08_1325,testMonitor,
101.6,92.4,81.2,103.7,36,-30,96.7,98.5,100.6,104.4,8.226,8.436,7.878,7.628,8.173,7.657,8.16,4.588,-4.985,-7.737,1.358,-1.614,8.157,4.797,-5.111,-8.441,76.9,108.7,-8.329,106.3,107.6,83.6,82.9,85.5,36,100.6,0,5,prime,10,0,99,norm,36,-4.558,up,norm,93.8885651346,86.6,92.1,77.0,85.3,3,92.8,91.6,106.9,10,5,8.465,5.288,2.059,-1.444,-4.597,-7.972,95.8,5,192.9,-8.304,-8.352,-30,-7.767,-8.358,-4.81,-5.02,-5.06,-5.043,4.884,7.632,3,-1.849,1.131,4.984,8.086,-7.704,-8.113,-1.963,1.528,91.7,86.2,,104.6,112.3,110.7,85.2,113.9,73.9,88.9,3,norm,1.894,1.591,-1.879,-2.041,-4.956,-4.676,-1.795,-1.909,-1.988,-1.182,1.116,-1.288,90.5,84.8,-4.324,-8.162,1.871,-1.197,8.027,4.872,-4.447,-7.978,22,4.602,4.399,5.216,5.273,1.811,1.863,1.664,1.801,22,5.19,4.784,60,260.5267772,norm,0,76,76,76,238.07,238.08,238.085299461,238.086,238.088,238.091,up,1,4.2460089953,5.7539910047,001,305,1600_900,Intel(R) Core(TM) i5-3230M CPU @ 2.60GHz,orientation_search,Thebeast,AMD Radeon HD 7500M/7600M Series,2018_Nov_08_1325,testMonitor,
94.7,83.2,,113.9,36,-30,95.7,106.4,97.0,82.6,7.737,8.364,8.352,7.936,7.84,8.32,8.403,4.466,-4.328,-8.416,1.71,-2.086,8.055,5.201,-5.254,-8.037,73.9,88.5,-8.005,78.9,95.4,75.9,112.7,94.8,36,85.2,3,5,prime,10,0,77,norm,36,-4.527,down,norm,93.8885651346,82.7,110.2,76.5,108.8,2,109.3,79.5,89.8,10,5,8.485,5.286,2.056,-1.276,-4.455,-8.067,113.5,5,170.9,-7.892,-8.344,-30,-7.993,-8.206,-4.41,-5.037,-5.018,-4.453,5.246,8.4,20,-1.621,1.793,5.224,8.196,-7.691,-8.347,-2.047,1.447,112.4,76.0,103.2,103.1,92.5,106.0,90.9,100.6,90.7,95.4,4,norm,1.801,1.193,-1.892,-1.815,-4.392,-5.286,-1.643,-2.094,-1.374,-1.385,1.755,-1.585,107.4,86.0,-4.715,-8.424,2.077,-1.475,7.996,5.062,-4.797,-8.058,22,4.814,4.841,5.085,5.107,2.035,1.133,2.063,1.481,22,4.815,4.525,60,260.5267772,norm,0,77,77,77,242.369,242.386,242.401509559,242.402,242.405,242.411,up,0,2.02546853499,-10,001,305,1600_900,Intel(R) Core(TM) i5-3230M CPU @ 2.60GHz,orientation_search,Thebeast,AMD Radeon HD 7500M/7600M Series,2018_Nov_08_1325,testMonitor,
184.5,177.6,180.3,171.2,36,80,179.9,183.8,182.3,182.8,7.934,7.63,8.353,8.26,8.489,7.684,7.94,5.07,-4.691,-7.862,1.601,-1.355,7.934,4.485,-5.219,-7.653,181.8,185.2,-8.387,180.1,182.8,175.4,,176.3,36,183.4,5,5,probe,5,0,113,norm,36,-5.199,down,norm,181.246866271,189.2,182.1,190.3,191.2,2,180.5,186.3,182.1,10,5,7.891,5.23,1.19,-1.638,-4.307,-7.983,174.7,2,68.2,-7.513,-7.775,-30,-7.809,-8.012,-4.343,-4.676,-4.674,-4.492,4.758,7.68,32,-2.008,1.891,4.613,7.866,-8.344,-8.166,-1.683,1.198,183.5,187.1,185.5,182.8,180.7,175.9,177.8,189.2,184.1,177.0,0,norm,1.8,1.286,-1.512,-1.171,-4.42,-4.353,-1.817,-1.679,-1.925,-1.176,1.558,-1.105,179.7,183.3,-4.855,-8.015,1.634,-1.628,7.513,4.941,-4.663,-8.248,23,5.094,5.046,4.667,4.325,1.138,1.676,1.83,1.989,23,4.951,5.138,-30,93.8885651346,norm,0,78,78,78,245.485,245.496,245.5010654,245.501,245.504,245.507,down,1,1.19569955971,8.80430044029,001,305,1600_900,Intel(R) Core(TM) i5-3230M CPU @ 2.60GHz,orientation_search,Thebeast,AMD Radeon HD 7500M/7600M Series,2018_Nov_08_1325,testMonitor,
170.0,174.6,170.7,181.5,36,80,169.3,174.7,168.8,171.9,7.672,8.398,8.063,7.648,7.691,7.752,8.031,4.46,-4.942,-7.942,1.344,-1.408,8.063,5.202,-4.411,-7.524,174.0,168.7,-8.255,176.5,165.9,180.0,169.4,180.4,36,183.2,1,5,probe,5,0,105,norm,36,-5.175,up,norm,173.246866271,163.2,167.2,167.4,168.8,4,174.9,168.0,171.2,10,5,8.12,5.186,1.393,-1.373,-4.768,-7.899,,2,68.2,-7.796,-8.025,-30,-8.259,-7.659,-4.594,-4.514,-4.518,-5.126,4.74,7.575,10,-1.101,1.129,4.465,8.402,-8.358,-8.229,-1.936,2.023,174.3,178.7,176.7,177.3,178.1,175.4,178.5,170.5,176.6,166.0,1,norm,2.074,1.745,-1.449,-1.584,-4.993,-5.217,-1.138,-2.026,-1.49,-1.263,1.798,-1.84,176.9,175.7,-5.104,-8.284,1.941,-2.096,7.627,4.367,-5.203,-7.744,23,4.458,4.665,4.771,4.531,1.812,1.729,2.055,1.752,23,4.586,4.555,-30,93.8885651346,norm,0,79,79,79,246.718,246.729,246.734227627,246.734,246.737,246.74,down,0,2.86209254094,-10,001,305,1600_900,Intel(R) Core(TM) i5-3230M CPU @ 2.60GHz,orientation_search,Thebeast,AMD Radeon HD 7500M/7600M Series,2018_Nov_08_1325,testMonitor,
167.1,167.6,161.9,178.3,36,60,163.2,184.5,176.6,171.9,8.025,8.303,8.263,8.153,7.663,7.953,8.255,4.921,-4.651,-8.044,1.424,-1.57,8.288,5.169,-5.074,-8.178,157.3,160.8,-7.747,150.6,159.0,170.6,,158.0,36,156.5,5,5,prime,10,0,67,norm,36,-4.547,down,norm,164.481174766,168.8,165.2,157.5,154.0,2,153.3,152.4,155.5,10,6,8.292,4.401,1.394,-1.456,-5.238,-7.718,163.8,6,231.5,-8.089,-8.279,60,-8.023,-8.407,-5.298,-5.228,-4.382,-4.497,4.476,7.935,32,-1.426,1.964,4.714,8.394,-8.247,-7.568,-1.895,1.243,144.5,165.7,161.0,152.4,163.7,180.5,168.2,160.8,163.5,170.6,0,norm,1.263,1.763,-1.305,-1.361,-5.245,-4.723,-1.549,-1.189,-1.324,-1.882,2.055,-1.333,159.7,171.8,-4.969,-8.373,1.59,-1.978,7.524,4.566,-4.952,-8.449,24,4.448,5.282,4.473,4.69,1.967,2.006,2.097,1.592,24,4.308,5.009,80,93.8885651346,norm,0,80,80,80,250.651,250.661,250.667098774,250.667,250.669,250.673,up,0,0.412503424355,-10,001,305,1600_900,Intel(R) Core(TM) i5-3230M CPU @ 2.60GHz,orientation_search,Thebeast,AMD Radeon HD 7500M/7600M Series,2018_Nov_08_1325,testMonitor,
167.3,165.7,183.6,144.5,36,60,172.4,178.5,170.5,158.0,8.49,8.297,8.103,8.287,8.067,7.595,8.485,5.028,-5.202,-7.925,2.01,-1.883,7.694,4.319,-5.091,-7.768,162.1,158.1,-8.016,159.4,178.6,183.9,151.5,164.7,36,173.4,3,5,prime,10,0,68,norm,36,-4.757,down,norm,164.481174766,164.8,163.8,154.7,160.1,0,173.8,151.0,173.3,10,6,8.052,4.458,1.373,-2.047,-4.526,-7.66,169.1,6,232.5,-8.087,-7.972,60,-7.883,-7.843,-5.11,-4.48,-5.251,-4.947,4.867,8.251,18,-1.131,2.055,4.445,8.276,-8.099,-7.546,-1.785,1.22,163.6,162.9,169.1,170.0,177.8,176.5,157.6,163.2,165.4,173.8,1,norm,2.069,1.28,-1.237,-1.145,-4.916,-4.609,-1.561,-1.253,-1.525,-1.521,1.371,-1.428,184.5,,-4.622,-8.239,1.125,-1.36,7.899,5.114,-4.374,-7.811,24,5.236,5.205,5.239,4.642,1.221,1.159,2.042,1.581,24,5.269,4.579,80,93.8885651346,norm,0,81,81,81,252.151,252.161,252.166912852,252.167,252.17,252.173,up,0,2.42868652307,-10,001,305,1600_900,Intel(R) Core(TM) i5-3230M CPU @ 2.60GHz,orientation_search,Thebeast,AMD Radeon HD 7500M/7600M Series,2018_Nov_08_1325,testMonitor,
169.6,168.3,144.5,167.6,36,60,176.4,178.7,150.2,152.1,8.057,7.863,7.925,8.433,7.975,8.379,8.27,4.758,-4.915,-8.128,1.183,-1.149,7.616,4.966,-4.713,-7.878,164.4,159.3,-7.914,178.2,168.8,160.2,173.3,168.6,36,168.9,1,5,prime,10,0,117,norm,36,-4.669,up,norm,164.481174766,179.6,184.5,174.4,164.3,5,,180.8,158.4,10,6,7.816,4.685,1.735,-1.596,-4.845,-8.347,169.0,6,281.5,-7.863,-8.468,60,-7.636,-7.986,-4.465,-4.753,-5.295,-4.546,5.247,8.029,11,-2.025,1.856,4.379,8.439,-8.054,-8.203,-1.55,1.382,163.6,173.7,169.3,159.2,175.4,160.6,153.5,174.6,157.8,153.3,2,norm,1.276,1.143,-1.361,-1.32,-5.158,-5.035,-1.914,-1.47,-1.246,-1.321,1.707,-1.22,160.7,160.2,-4.767,-8.103,1.332,-1.496,7.851,4.463,-5.048,-7.932,24,4.88,5.228,4.488,4.612,1.554,1.166,1.606,1.176,24,4.371,4.706,80,93.8885651346,norm,0,82,82,82,255.667,255.679,255.699806815,255.7,255.702,255.706,down,0,0.695441005926,-10,001,305,1600_900,Intel(R) Core(TM) i5-3230M CPU @ 2.60GHz,orientation_search,Thebeast,AMD Radeon HD 7500M/7600M Series,2018_Nov_08_1325,testMonitor,
161.5,161.2,151.5,181.5,36,60,150.4,161.8,164.3,159.0,8.288,7.911,7.799,8.319,8.075,8.2,8.459,5.095,-4.989,-8.258,1.888,-1.495,7.694,4.535,-4.676,-7.798,162.0,155.1,-7.518,156.4,174.0,155.0,155.1,157.1,36,169.1,2,5,prime,10,0,115,norm,36,-5.112,down,norm,164.481174766,184.5,176.5,172.0,153.4,0,171.2,163.8,,10,6,8.218,4.891,1.108,-1.752,-4.396,-7.611,168.1,6,279.5,-8.425,-8.167,60,-7.815,-7.926,-4.668,-4.483,-4.974,-5.139,4.395,7.574,12,-1.533,1.727,4.745,7.607,-7.865,-8.107,-1.463,1.349,144.5,167.3,148.2,160.1,150.3,151.4,171.9,153.7,150.4,161.4,3,norm,2.019,1.841,-1.358,-1.516,-4.767,-4.503,-2.07,-1.164,-1.998,-1.466,2.068,-1.828,150.3,168.0,-4.643,-8.324,1.191,-1.501,7.836,4.871,-5.173,-7.987,24,4.94,4.814,5.052,4.729,1.969,1.962,1.176,1.687,24,4.763,4.864,80,93.8885651346,norm,0,83,83,83,257.451,257.469,257.482964266,257.483,257.486,257.49,up,0,0.344457988365,-10,001,305,1600_900,Intel(R) Core(TM) i5-3230M CPU @ 2.60GHz,orientation_search,Thebeast,AMD Radeon HD 7500M/7600M Series,2018_Nov_08_1325,testMonitor,
170.0,167.1,184.5,159.4,36,60,145.2,155.4,149.8,154.2,8.199,8.121,8.328,8.425,8.042,7.948,7.537,5.298,-5.274,-8.173,1.736,-1.964,8.324,4.348,-4.812,-7.748,164.1,162.0,-7.533,174.3,174.5,175.4,180.7,172.1,36,172.1,1,5,prime,10,0,70,norm,36,-4.878,up,norm,164.481174766,157.1,162.8,149.2,168.3,5,,151.3,165.2,10,6,8.057,4.489,2.063,-1.167,-5.232,-8.075,148.8,6,234.5,-7.546,-7.724,60,-7.711,-7.841,-4.976,-4.319,-4.705,-4.584,4.392,8.427,11,-2.008,1.884,4.687,8.141,-7.516,-8.495,-1.481,1.804,159.2,165.8,144.5,155.1,168.8,165.9,167.4,175.0,174.0,176.1,4,norm,1.598,1.633,-1.8,-1.69,-4.978,-5.252,-2.053,-1.378,-1.126,-1.469,1.422,-1.913,154.7,173.4,-4.356,-8.453,1.817,-1.288,7.504,4.463,-5.093,-8.311,24,4.812,4.664,4.721,4.789,1.773,1.291,2.082,1.214,24,4.713,5.282,80,93.8885651346,norm,0,84,84,84,258.884,258.894,258.899423366,258.9,258.902,258.905,down,0,2.84556720385,-10,001,305,1600_900,Intel(R) Core(TM) i5-3230M CPU @ 2.60GHz,orientation_search,Thebeast,AMD Radeon HD 7500M/7600M Series,2018_Nov_08_1325,testMonitor,
162.1,179.0,165.5,151.8,36,60,166.7,175.6,169.2,165.2,8.46,8.259,7.822,8.062,7.935,7.589,8.428,4.946,-4.921,-7.662,1.202,-2.026,7.763,4.625,-4.91,-8.314,168.9,144.5,-8.25,162.4,165.6,172.7,150.8,174.8,36,155.8,0,5,prime,10,0,117,norm,36,-4.693,up,norm,164.481174766,171.9,153.8,184.5,161.9,4,156.0,163.9,173.1,10,6,8.238,4.618,1.596,-2.062,-5.2,-7.654,167.6,6,281.5,-8.375,-8.309,60,-8.23,-8.427,-4.339,-5.183,-4.68,-5.224,5.019,7.553,4,-1.88,1.423,5.008,8.355,-7.808,-8.229,-1.971,1.953,154.7,165.5,163.6,162.3,167.9,159.9,168.2,175.1,161.4,,5,norm,1.903,1.647,-1.47,-1.397,-4.751,-4.705,-1.317,-1.309,-1.723,-1.143,1.35,-1.63,157.6,165.0,-4.949,-7.947,1.387,-1.67,8.396,4.738,-4.869,-8.157,24,5.031,4.516,4.923,4.915,1.644,1.895,1.178,1.613,24,4.759,4.609,80,93.8885651346,norm,0,85,85,85,262.866,262.878,262.882232499,262.883,262.885,262.888,down,0,3.71212147528,-10,001,305,1600_900,Intel(R) Core(TM) i5-3230M CPU @ 2.60GHz,orientation_search,Thebeast,AMD Radeon HD 7500M/7600M Series,2018_Nov_08_1325,testMonitor,
287.0,283.3,287.1,289.9,36,-10,283.6,282.1,298.5,287.1,7.628,8.49,8.071,8.186,8.091,7.675,7.638,4.918,-4.346,-8.426,1.408,-1.64,7.549,4.853,-4.647,-7.889,287.7,285.6,-8.368,279.4,294.3,292.5,295.4,291.5,36,284.1,0,5,probe,5,0,69,norm,36,-5.056,up,norm,288.531554943,281.9,291.8,278.5,286.3,5,281.5,289.1,290.2,10,6,8.482,4.461,1.206,-1.117,-4.341,-7.721,285.5,1,219.5,-7.502,-7.602,60,-8.105,-8.073,-4.916,-5.223,-4.48,-4.876,5.094,8.468,5,-1.161,1.379,4.975,8.416,-7.639,-7.842,-1.508,1.328,283.6,281.8,292.5,291.3,291.6,291.6,289.1,286.5,,289.8,0,norm,1.675,1.548,-1.692,-1.961,-4.481,-4.72,-1.784,-1.273,-1.547,-1.56,1.871,-1.687,283.3,285.0,-4.466,-8.49,1.752,-1.938,7.97,4.366,-4.399,-8.131,25,4.348,5.117,4.733,4.681,1.704,1.125,1.452,1.39,25,5.221,4.633,60,164.481174766,norm,0,86,86,86,267.649,267.66,267.664977054,267.665,267.668,267.671,up,1,0.612319713015,9.38768028699,001,305,1600_900,Intel(R) Core(TM) i5-3230M CPU @ 2.60GHz,orientation_search,Thebeast,AMD Radeon HD 7500M/7600M Series,2018_Nov_08_1325,testMonitor,
208.1,195.1,184.4,181.9,36,-10,194.2,188.7,187.0,189.1,7.654,8.228,8.203,8.291,8.124,8.37,7.561,5.095,-5.063,-8.281,1.953,-1.889,8.015,4.926,-4.758,-7.71,200.9,176.0,-7.682,187.8,190.7,176.2,181.6,181.9,36,196.0,0,5,prime,10,0,93,norm,36,-4.598,down,norm,191.252666837,192.6,196.9,185.9,203.6,2,185.6,171.3,199.2,10,5,7.924,4.719,1.374,-1.706,-5.145,-8.47,188.9,5,284.3,-8.081,-7.863,-10,-8.405,-7.612,-4.746,-4.611,-5.166,-4.642,5.269,7.78,2,-2.029,1.417,4.826,8.469,-7.713,-7.695,-1.41,1.108,174.1,194.3,181.6,,179.4,181.6,184.7,175.1,203.8,201.9,0,norm,1.48,1.17,-1.542,-1.877,-4.385,-4.939,-1.302,-1.569,-1.178,-1.248,2.084,-1.749,211.3,204.2,-4.901,-7.598,1.294,-1.635,8.471,5.136,-4.548,-8.437,26,4.676,4.492,5.133,4.783,1.701,1.915,1.174,1.627,26,4.506,4.446,-10,164.481174766,norm,0,87,87,87,268.299,268.31,268.314884172,268.315,268.317,268.32,down,1,2.4123996081,7.5876003919,001,305,1600_900,Intel(R) Core(TM) i5-3230M CPU @ 2.60GHz,orientation_search,Thebeast,AMD Radeon HD 7500M/7600M Series,2018_Nov_08_1325,testMonitor,
187.1,188.2,194.6,189.2,36,-10,201.9,192.8,191.0,190.0,8.076,8.341,7.631,8.104,7.808,7.79,7.957,4.354,-5.042,-8.269,2.011,-1.213,8.267,4.584,-4.655,-8.251,195.2,189.6,-8.225,192.1,206.8,199.1,189.4,192.1,36,187.4,0,5,prime,10,0,111,norm,36,-4.822,down,norm,191.252666837,179.3,186.5,202.8,187.4,0,193.3,193.1,194.9,10,5,8.468,4.68,1.645,-1.341,-4.553,-8.284,191.3,5,302.3,-7.99,-7.606,-10,-7.803,-8.366,-5.197,-5.12,-4.499,-4.622,5.248,8.494,0,-1.95,1.418,4.851,7.795,-8.384,-8.425,-1.576,2.099,211.3,178.5,191.1,192.5,181.8,,183.9,171.3,191.3,197.4,1,norm,1.507,2.017,-1.926,-2.025,-4.901,-4.776,-1.392,-1.364,-1.557,-1.292,1.506,-1.888,207.3,193.6,-5.205,-7.997,1.396,-1.624,8.441,5.153,-5.173,-8.183,26,4.817,5.173,4.633,4.933,1.146,1.224,1.498,1.121,26,4.654,4.619,-10,164.481174766,norm,0,88,88,88,270.749,270.76,270.764579473,270.765,270.767,270.77,down,1,1.79529408421,8.20470591579,001,305,1600_900,Intel(R) Core(TM) i5-3230M CPU @ 2.60GHz,orientation_search,Thebeast,AMD Radeon HD 7500M/7600M Series,2018_Nov_08_1325,testMonitor,
177.8,175.9,192.2,196.3,36,-10,193.3,180.8,196.8,201.5,8.027,8.456,7.929,7.816,8.273,7.524,7.859,5.085,-4.351,-7.771,2.062,-1.503,7.7,5.12,-5.154,-8.169,171.3,208.1,-8.027,,210.4,205.7,205.6,184.1,36,203.7,5,5,prime,10,0,102,norm,36,-4.318,down,norm,191.252666837,182.3,184.5,203.2,199.4,1,179.3,189.5,175.6,10,5,8.297,4.309,2.066,-1.912,-5.057,-7.944,206.8,5,293.3,-8.307,-7.727,-10,-7.542,-8.359,-4.939,-5.259,-4.681,-5.001,4.711,8.497,31,-2.039,1.337,4.778,8.467,-7.601,-8.09,-2.048,1.446,184.8,188.6,201.4,177.0,180.1,187.2,203.5,203.1,211.3,185.9,2,norm,1.442,1.332,-1.51,-1.675,-4.534,-5.105,-1.364,-1.841,-1.268,-1.383,1.546,-2.022,182.3,172.4,-4.615,-7.706,1.132,-1.748,7.751,5.238,-4.563,-7.625,26,4.736,5.057,4.856,4.711,1.278,1.81,1.358,1.671,26,4.361,4.563,-10,164.481174766,norm,0,89,89,89,272.582,272.592,272.597685963,272.598,272.6,272.603,down,1,1.02946605287,8.97053394713,001,305,1600_900,Intel(R) Core(TM) i5-3230M CPU @ 2.60GHz,orientation_search,Thebeast,AMD Radeon HD 7500M/7600M Series,2018_Nov_08_1325,testMonitor,
193.1,192.7,179.7,203.4,36,-10,196.0,198.4,195.1,179.9,8.278,7.693,8.184,8.188,7.583,8.084,8.052,4.611,-4.925,-8.245,1.576,-1.724,8.222,5.099,-5.054,-8.188,193.4,189.9,-8.135,204.1,188.1,193.4,207.6,171.4,36,191.1,2,5,prime,10,0,92,norm,36,-4.92,down,norm,191.252666837,175.5,211.3,189.3,204.1,1,193.1,,191.8,10,5,7.508,4.773,1.247,-1.644,-5.177,-7.726,188.8,5,283.3,-7.581,-8.423,-10,-8.141,-7.72,-4.911,-4.427,-4.456,-4.424,5.175,8.47,13,-1.357,1.277,5.172,7.967,-7.973,-8.128,-1.535,1.651,195.8,196.0,193.8,208.7,201.5,198.6,185.1,202.4,204.6,184.2,3,norm,1.976,1.281,-1.753,-1.191,-4.431,-5.296,-1.803,-1.85,-1.446,-1.62,1.868,-1.194,171.3,195.5,-5.018,-8.254,1.779,-2.069,7.567,4.358,-4.689,-7.585,26,5.138,5.028,4.907,4.686,1.218,1.178,1.837,1.904,26,4.698,4.73,-10,164.481174766,norm,0,90,90,90,273.665,273.675,273.680887388,273.681,273.683,273.686,down,1,1.12932742068,8.87067257932,001,305,1600_900,Intel(R) Core(TM) i5-3230M CPU @ 2.60GHz,orientation_search,Thebeast,AMD Radeon HD 7500M/7600M Series,2018_Nov_08_1325,testMonitor,
178.5,192.6,191.3,192.3,36,-10,187.6,187.5,202.3,183.9,8.381,8.114,8.017,7.651,7.676,7.963,8.282,4.899,-5.168,-7.629,1.249,-1.649,7.724,4.717,-4.874,-7.743,199.4,199.5,-8.085,187.1,194.2,199.2,203.3,192.5,36,198.4,0,5,prime,10,0,104,norm,36,-5.204,up,norm,191.252666837,205.6,205.1,181.4,193.3,4,191.2,195.9,171.3,10,5,8.419,5.232,1.899,-1.225,-4.797,-7.719,205.4,5,295.3,-7.943,-8.006,-10,-7.504,-8.381,-4.788,-4.376,-4.967,-5.015,4.913,8.186,4,-1.519,1.727,5.024,7.765,-7.55,-8.104,-1.674,1.281,190.4,194.8,211.3,184.8,186.7,188.1,178.0,195.0,196.7,,4,norm,1.789,1.796,-1.13,-1.786,-4.302,-4.559,-2.091,-1.678,-1.378,-2.053,1.678,-1.811,191.3,201.9,-5.044,-8.381,1.778,-2.047,8.288,4.637,-5.184,-8.448,26,4.424,4.446,4.704,4.479,1.826,1.441,2.04,2.023,26,4.611,4.34,-10,164.481174766,norm,0,91,91,91,274.831,274.842,274.847447739,274.848,274.85,274.853,up,1,1.24566794115,8.75433205885,001,305,1600_900,Intel(R) Core(TM) i5-3230M CPU @ 2.60GHz,orientation_search,Thebeast,AMD Radeon HD 7500M/7600M Series,2018_Nov_08_1325,testMonitor,
292.9,296.4,304.8,295.9,36,60,293.4,293.4,286.1,,7.978,7.538,7.929,8.272,8.461,8.447,8.106,4.688,-4.58,-8.457,1.675,-1.984,7.967,4.605,-4.362,-8.303,290.6,299.1,-8.415,295.2,295.1,295.9,293.9,293.3,36,292.6,4,5,probe,5,0,114,norm,36,-4.375,up,norm,296.124137255,289.1,299.2,290.8,296.2,5,297.4,296.8,294.4,10,5,7.501,4.693,1.808,-1.531,-4.475,-7.905,304.6,1,182.1,-8.375,-7.596,-10,-8.499,-7.896,-4.443,-5.178,-4.327,-5.111,4.365,8.103,29,-1.947,1.843,4.756,8.225,-7.762,-8.086,-2.058,1.491,292.5,297.3,299.3,306.1,295.8,296.8,292.7,291.7,301.9,297.6,0,norm,1.996,1.865,-2.096,-1.837,-4.524,-4.538,-1.401,-2.003,-1.704,-2.033,1.601,-1.191,293.3,288.9,-5.251,-7.583,1.766,-1.451,7.928,4.393,-5.276,-7.75,27,4.455,4.601,4.987,4.947,1.484,1.625,2.05,1.897,27,5.058,4.391,-10,191.252666837,norm,0,92,92,92,276.115,276.126,276.130587426,276.131,276.133,276.136,down,0,2.91216079125,-10,001,305,1600_900,Intel(R) Core(TM) i5-3230M CPU @ 2.60GHz,orientation_search,Thebeast,AMD Radeon HD 7500M/7600M Series,2018_Nov_08_1325,testMonitor,
153.2,136.7,164.3,157.3,36,80,130.4,131.5,128.7,161.2,8.03,8.22,8.455,7.965,7.869,7.544,7.882,4.431,-4.775,-8.256,1.37,-1.482,7.918,4.648,-5.195,-8.107,137.6,152.9,-7.854,143.4,168.7,142.0,146.3,165.7,36,145.2,1,5,prime,10,0,91,norm,36,-4.933,down,norm,148.746588094,140.2,149.4,158.6,130.6,2,151.2,132.9,166.9,10,5,7.537,4.444,1.7,-1.779,-4.997,-8.404,167.8,5,239.7,-7.633,-7.538,80,-7.869,-8.042,-4.522,-4.6,-4.865,-4.668,5.253,7.696,8,-1.95,1.41,5.018,7.75,-8.261,-8.462,-1.614,1.438,156.1,,150.6,141.7,150.5,141.1,157.0,139.8,152.1,141.2,0,norm,1.329,1.627,-1.636,-1.261,-4.32,-5.276,-1.241,-1.613,-1.969,-1.212,1.583,-1.207,143.3,156.7,-5.153,-8.213,1.203,-1.78,7.558,4.52,-4.692,-7.741,28,4.357,4.864,4.98,4.336,1.996,1.954,1.836,1.137,28,4.657,4.607,60,191.252666837,norm,0,93,93,93,280.098,280.108,280.113421034,280.114,280.116,280.119,up,0,0.795586585518,-10,001,305,1600_900,Intel(R) Core(TM) i5-3230M CPU @ 2.60GHz,orientation_search,Thebeast,AMD Radeon HD 7500M/7600M Series,2018_Nov_08_1325,testMonitor,
153.2,147.9,142.8,148.9,36,80,150.8,145.6,132.7,162.5,7.878,8.261,8.128,8.379,8.047,7.654,7.827,4.563,-4.788,-8.232,1.567,-1.233,8.488,5.022,-4.579,-8.262,144.0,145.4,-8.472,148.9,168.7,145.1,147.1,160.9,36,155.0,1,5,prime,10,0,107,norm,36,-4.802,down,norm,148.746588094,134.7,168.0,153.1,151.3,2,152.3,160.3,147.6,10,5,7.671,4.398,2.025,-1.683,-5.009,-7.802,145.8,5,255.7,-7.559,-8.422,80,-7.657,-8.491,-5.038,-4.463,-4.439,-5.041,4.975,7.916,8,-1.912,1.263,5.282,8.111,-7.623,-8.277,-1.208,1.619,138.6,,140.5,168.7,145.4,143.9,150.5,145.6,128.7,156.7,1,norm,1.991,1.934,-1.862,-1.336,-4.307,-4.918,-1.182,-1.551,-1.233,-1.292,1.148,-1.24,148.4,141.6,-5.008,-7.994,2.013,-1.178,8.475,4.792,-5.27,-7.946,28,4.469,4.332,4.692,4.35,1.619,1.45,1.433,1.458,28,5.176,4.995,60,191.252666837,norm,0,94,94,94,281.964,281.975,281.979853726,281.98,281.982,281.986,up,0,3.76176853949,-10,001,305,1600_900,Intel(R) Core(TM) i5-3230M CPU @ 2.60GHz,orientation_search,Thebeast,AMD Radeon HD 7500M/7600M Series,2018_Nov_08_1325,testMonitor,
