d_ori_22,d_ori_23,d_ori_20,d_ori_21,set_size,ctpd,d_ori_24,d_ori_25,d_ori_28,d_ori_29,stim_pos_x_30,stim_pos_x_31,stim_pos_x_32,stim_pos_x_33,stim_pos_x_34,stim_pos_x_35,stim_pos_y_11,stim_pos_y_10,stim_pos_y_13,stim_pos_y_12,stim_pos_y_15,stim_pos_y_14,stim_pos_y_17,stim_pos_y_16,stim_pos_y_19,stim_pos_y_18,d_ori_35,d_ori_34,stim_pos_x_3,d_ori_31,d_ori_30,d_ori_33,d_ori_32,d_ori_26,test_set_size,d_ori_27,targetCol,dsd_test,seq_type,dsd,blockRepN,targetDist,dtype_test,prime_set_size,stim_pos_y_25,correctResponse,dtype,distrMean,d_ori_17,d_ori_16,d_ori_15,d_ori_14,targetRow,d_ori_11,d_ori_13,d_ori_12,dsd_prime,streak_length_prime,stim_pos_y_35,stim_pos_y_34,stim_pos_y_33,stim_pos_y_32,stim_pos_y_31,stim_pos_y_30,d_ori_10,nextProbe,targetOri,stim_pos_x_1,stim_pos_x_2,ctpd_prime,stim_pos_x_4,stim_pos_x_5,stim_pos_x_6,stim_pos_x_7,stim_pos_x_8,stim_pos_x_9,stim_pos_y_28,stim_pos_y_29,targetPos,stim_pos_y_20,stim_pos_y_21,stim_pos_y_22,stim_pos_y_23,stim_pos_y_24,stim_pos_x_0,stim_pos_y_26,stim_pos_y_27,d_ori_9,d_ori_8,d_ori_3,d_ori_2,d_ori_1,d_ori_0,d_ori_7,d_ori_6,d_ori_5,d_ori_4,trialN,dtype_prime,stim_pos_x_18,stim_pos_x_19,stim_pos_x_12,stim_pos_x_13,stim_pos_x_10,stim_pos_x_11,stim_pos_x_16,stim_pos_x_17,stim_pos_x_14,stim_pos_x_15,stim_pos_y_9,stim_pos_y_8,d_ori_19,d_ori_18,stim_pos_y_1,stim_pos_y_0,stim_pos_y_3,stim_pos_y_2,stim_pos_y_5,stim_pos_y_4,stim_pos_y_7,stim_pos_y_6,totBlockN,stim_pos_x_27,stim_pos_x_26,stim_pos_x_25,stim_pos_x_24,stim_pos_x_23,stim_pos_x_22,stim_pos_x_21,stim_pos_x_20,blockN,stim_pos_x_29,stim_pos_x_28,prevDistrCTPD,prevDistrMean,prevDistrType,trials.thisRepN,trials.thisTrialN,trials.thisN,trials.thisIndex,timeStart,timeBeforeDraw,timeDraw,timeAfterSaving,timeAfterWritingToTemp,timeAfterPreparingNext,answer,correct,rt,trialScore,session,participant,resolution,cpu_info,expName,pc_name,graphic_card,date,monitorName,
27.7,18.3,36.9,31.8,36,10,36.4,31.0,12.5,31.4,7.504,8.22,7.96,7.636,8.482,7.598,7.952,5.116,-4.529,-7.85,1.71,-1.916,7.682,5.109,-4.497,-8.122,32.0,25.0,-8.005,11.3,27.4,28.7,42.8,34.6,36,37.7,0,5,prime,10,0,106,norm,36,-5.191,down,norm,29.1095919497,28.3,23.8,33.8,15.1,1,35.6,28.2,47.9,10,6,7.689,4.369,1.768,-1.925,-4.817,-7.896,38.9,6,135.1,-7.737,-8.462,10,-7.586,-7.581,-4.828,-4.737,-4.488,-4.674,5.138,8.305,1,-1.954,1.199,4.696,8.466,-8.183,-7.887,-1.409,1.434,45.6,49.1,24.0,39.6,,29.3,40.9,31.7,9.1,40.8,0,norm,1.514,1.242,-2.033,-1.444,-4.919,-4.557,-1.907,-1.527,-1.53,-1.311,1.212,-1.253,31.0,27.2,-4.858,-8.159,1.709,-2.013,8.106,4.639,-4.48,-7.776,0,5.211,4.641,4.771,4.566,1.598,1.716,1.641,1.588,0,4.658,4.999,,,,0,0,0,0,4150.278,4150.304,4150.32380399,4150.324,4150.324,4150.327,down,1,1.27179622626,8.72820377374,001,022,1920_1200,Intel(R) Core(TM) i5-3570 CPU @ 3.40GHz,orientation_search,LEPPC096,Intel(R) HD Graphics 2500,2019_Jan_02_1538,testMonitor,
28.9,37.7,33.9,,36,10,41.0,19.8,29.3,45.5,7.891,8.03,7.5,7.598,8.34,7.737,7.734,4.698,-4.726,-7.735,1.437,-1.104,7.734,4.96,-5.012,-7.979,22.5,21.6,-8.497,18.4,28.3,32.0,27.0,34.6,36,15.7,3,5,prime,10,0,102,norm,36,-4.426,up,norm,29.1095919497,30.5,39.9,41.1,9.1,3,23.4,24.2,23.7,10,6,8.029,4.819,1.168,-2.091,-5.07,-7.911,23.2,6,131.1,-8.48,-8.132,10,-7.635,-7.624,-4.598,-5.09,-4.94,-5.129,4.494,8.355,21,-1.335,1.324,4.476,7.733,-7.502,-8.498,-1.172,2.047,33.1,45.2,36.3,33.9,38.7,28.3,45.4,10.4,28.5,31.1,1,norm,1.902,1.508,-1.955,-1.185,-4.799,-5.276,-2.02,-1.454,-1.676,-1.352,1.303,-1.635,45.4,43.0,-4.546,-8.025,1.765,-2.09,7.849,4.469,-4.44,-7.889,0,5.13,5.276,4.661,4.528,1.565,1.32,1.947,1.711,0,5.24,4.923,,,,0,1,1,1,4151.615,4151.625,4151.64485811,4151.645,4151.646,4151.649,up,1,1.63866986226,8.36133013774,001,022,1920_1200,Intel(R) Core(TM) i5-3570 CPU @ 3.40GHz,orientation_search,LEPPC096,Intel(R) HD Graphics 2500,2019_Jan_02_1538,testMonitor,
38.9,22.4,30.9,9.1,36,10,26.1,32.2,9.5,23.2,7.759,8.413,7.869,7.642,7.864,8.106,7.587,5.03,-5.071,-8.059,2.0,-1.17,7.919,4.428,-4.409,-8.044,29.1,21.1,-8.1,28.6,43.8,28.4,23.7,23.0,36,33.8,0,5,prime,10,0,78,norm,36,-4.917,up,norm,29.1095919497,37.4,49.1,39.6,19.4,5,33.5,35.3,46.0,10,6,7.865,4.404,1.169,-2.044,-4.676,-8.199,12.9,6,107.1,-8.393,-7.702,10,-7.687,-7.534,-4.604,-4.973,-4.569,-4.795,4.847,8.363,5,-1.543,1.494,4.388,8.015,-8.002,-7.672,-1.278,1.87,47.8,21.2,32.5,29.9,22.1,13.1,32.2,30.4,,29.7,2,norm,2.027,1.645,-1.667,-1.276,-4.895,-4.911,-1.868,-1.723,-1.285,-1.732,1.365,-1.824,20.5,13.3,-5.156,-8.385,1.352,-1.352,8.317,4.917,-4.349,-7.876,0,4.623,4.896,4.723,5.004,1.627,1.225,2.071,1.652,0,5.052,5.113,,,,0,2,2,2,4153.32,4153.333,4153.35254838,4153.353,4153.354,4153.357,up,1,2.77793859742,7.22206140258,001,022,1920_1200,Intel(R) Core(TM) i5-3570 CPU @ 3.40GHz,orientation_search,LEPPC096,Intel(R) HD Graphics 2500,2019_Jan_02_1538,testMonitor,
37.4,34.4,21.5,33.4,36,10,10.7,24.3,32.8,29.2,7.912,8.224,8.341,8.464,7.873,7.664,7.666,5.264,-4.78,-7.781,2.096,-1.131,7.827,5.193,-5.275,-7.886,45.2,31.6,-7.783,15.5,32.7,25.3,,33.3,36,24.5,5,5,prime,10,0,117,norm,36,-5.24,down,norm,29.1095919497,32.7,31.1,41.1,23.5,2,28.2,24.5,49.1,10,6,8.035,4.893,1.589,-1.763,-5.227,-8.198,18.4,6,146.1,-7.631,-8.013,10,-8.222,-7.611,-4.335,-4.657,-4.851,-4.797,4.585,7.687,32,-2.06,1.912,4.83,8.348,-8.338,-7.8,-1.617,1.888,40.1,20.4,22.2,25.9,42.6,39.3,25.1,25.1,41.8,9.1,3,norm,1.472,1.422,-1.664,-1.782,-4.526,-4.965,-1.896,-1.162,-1.997,-1.461,1.84,-1.917,21.0,31.0,-5.187,-8.415,1.966,-1.127,8.216,4.352,-5.232,-8.281,0,4.599,4.407,5.171,4.729,1.332,1.825,1.599,1.926,0,4.37,4.62,,,,0,3,3,3,4156.154,4156.162,4156.1698034,4156.17,4156.172,4156.174,down,1,2.8039011256,7.1960988744,001,022,1920_1200,Intel(R) Core(TM) i5-3570 CPU @ 3.40GHz,orientation_search,LEPPC096,Intel(R) HD Graphics 2500,2019_Jan_02_1538,testMonitor,
36.1,,38.0,45.0,36,10,28.5,27.7,37.8,21.9,8.316,8.264,8.327,8.239,8.375,8.066,8.022,4.877,-5.174,-7.873,2.017,-1.313,8.386,4.443,-4.945,-8.436,47.6,36.7,-8.426,29.9,26.2,17.0,39.9,38.8,36,24.0,3,5,prime,10,0,72,norm,36,-4.577,up,norm,29.1095919497,42.0,20.2,49.1,17.7,5,36.4,45.8,43.4,10,6,8.066,5.285,2.048,-1.218,-4.634,-8.085,29.3,6,101.1,-7.528,-7.529,10,-7.739,-8.048,-4.562,-4.697,-4.62,-4.563,5.009,8.401,23,-1.418,1.249,4.776,8.368,-8.312,-7.801,-1.858,1.12,38.1,36.9,43.5,31.6,41.7,18.1,30.3,26.9,9.1,40.6,4,norm,1.802,1.532,-1.834,-1.517,-4.5,-4.474,-1.737,-2.004,-1.748,-1.466,1.187,-1.674,28.4,19.0,-4.41,-8.393,1.504,-2.028,7.532,5.029,-4.511,-8.333,0,5.017,4.825,5.049,4.923,1.775,1.758,1.675,1.176,0,4.983,4.942,,,,0,4,4,4,4158.995,4159.006,4159.01096927,4159.011,4159.014,4159.017,up,1,3.2600690032,6.7399309968,001,022,1920_1200,Intel(R) Core(TM) i5-3570 CPU @ 3.40GHz,orientation_search,LEPPC096,Intel(R) HD Graphics 2500,2019_Jan_02_1538,testMonitor,
35.2,9.1,35.4,19.1,36,10,13.4,20.8,22.0,48.4,7.713,8.082,8.158,8.446,8.436,7.866,7.501,4.335,-4.976,-8.495,1.939,-1.524,7.742,4.913,-4.926,-8.188,,34.8,-7.979,45.0,36.1,12.9,46.7,21.2,36,24.5,5,5,prime,10,0,109,norm,36,-4.469,up,norm,29.1095919497,36.3,43.4,26.4,28.6,5,37.0,33.2,49.1,10,6,7.778,4.84,2.019,-1.99,-4.485,-7.633,32.1,6,138.1,-7.648,-7.682,10,-7.586,-8.039,-4.607,-4.982,-4.843,-4.658,4.358,8.348,35,-1.451,1.468,5.251,8.094,-7.755,-8.349,-1.751,1.381,20.6,16.9,46.9,18.7,31.2,25.2,21.2,36.2,42.3,41.0,5,norm,2.084,1.661,-1.568,-1.117,-5.168,-4.751,-1.462,-1.77,-2.07,-1.51,1.161,-1.814,26.9,32.4,-4.967,-7.918,1.267,-1.471,8.168,4.957,-5.129,-8.218,0,4.93,5.068,4.57,4.947,1.9,1.382,1.851,1.6,0,5.253,4.686,,,,0,5,5,5,4162.316,4162.325,4162.33156911,4162.332,4162.333,4162.336,up,1,2.09274259031,7.90725740969,001,022,1920_1200,Intel(R) Core(TM) i5-3570 CPU @ 3.40GHz,orientation_search,LEPPC096,Intel(R) HD Graphics 2500,2019_Jan_02_1538,testMonitor,
97.8,100.3,99.2,104.0,36,-40,107.7,99.9,97.2,102.8,8.477,7.625,8.241,8.107,7.809,8.103,7.558,4.596,-5.27,-8.266,1.772,-1.313,8.126,4.858,-5.178,-7.966,94.5,112.1,-8.447,100.9,99.0,101.3,102.6,105.3,36,106.3,0,5,probe,5,0,67,norm,36,-5.072,up,norm,102.109712028,96.8,103.9,92.1,105.2,5,108.0,100.5,101.4,10,6,7.757,4.56,1.268,-1.326,-4.704,-8.434,103.0,1,35.1,-7.836,-7.563,10,-8.124,-7.685,-5.071,-4.31,-4.99,-4.675,4.638,7.9,5,-1.201,1.672,4.421,8.041,-8.099,-7.88,-1.443,1.199,107.1,105.8,103.1,106.5,100.4,104.7,107.6,99.1,,101.3,0,norm,1.271,1.489,-1.936,-1.243,-5.14,-4.331,-1.981,-1.119,-1.467,-1.255,1.344,-1.527,102.2,95.8,-4.669,-7.843,1.273,-1.257,7.708,4.818,-4.802,-7.844,1,4.705,4.422,4.628,4.752,1.604,1.223,1.436,1.945,1,4.506,4.402,10,29.1095919497,norm,0,6,6,6,4164.468,4164.478,4164.48421197,4164.484,4164.486,4164.489,up,1,2.07575379804,7.92424620196,001,022,1920_1200,Intel(R) Core(TM) i5-3570 CPU @ 3.40GHz,orientation_search,LEPPC096,Intel(R) HD Graphics 2500,2019_Jan_02_1538,testMonitor,
145.8,138.8,126.6,138.1,36,10,122.8,129.6,138.1,,7.754,8.29,8.363,7.79,7.842,7.783,7.766,4.865,-5.171,-8.162,1.251,-1.623,8.384,4.5,-4.552,-7.624,150.1,129.1,-7.769,139.7,137.8,136.1,119.3,143.6,36,134.4,4,5,prime,10,0,103,norm,36,-4.932,up,norm,133.70902969,113.7,124.9,131.2,135.0,5,135.0,141.3,147.9,10,5,7.775,4.814,1.351,-1.175,-4.374,-8.29,128.9,5,236.7,-7.535,-8.398,10,-8.233,-8.18,-5.117,-4.404,-5.084,-4.854,5.097,7.693,29,-1.646,1.805,4.994,7.566,-8.177,-8.329,-1.617,1.664,153.7,137.5,118.5,140.4,129.1,127.8,127.9,139.6,134.6,126.6,0,norm,1.59,1.535,-1.938,-1.614,-4.972,-4.389,-1.853,-1.121,-1.678,-1.897,1.486,-1.801,131.8,123.2,-5.008,-7.588,1.812,-1.749,8.351,5.213,-5.284,-7.955,2,5.168,5.179,4.421,5.233,1.276,2.06,1.939,1.651,2,4.432,5.256,-40,29.1095919497,norm,0,7,7,7,4166.597,4166.606,4166.62047095,4166.621,4166.622,4166.625,up,1,2.09460048477,7.90539951523,001,022,1920_1200,Intel(R) Core(TM) i5-3570 CPU @ 3.40GHz,orientation_search,LEPPC096,Intel(R) HD Graphics 2500,2019_Jan_02_1538,testMonitor,
118.9,113.7,124.2,134.2,36,10,132.6,122.9,123.4,124.6,7.978,7.611,7.698,8.001,7.803,7.956,8.491,5.112,-5.202,-8.257,1.412,-1.265,7.961,4.48,-4.67,-7.668,113.7,,-8.053,135.8,143.5,138.0,124.3,147.1,36,131.2,5,5,prime,10,0,114,norm,36,-4.355,up,norm,133.70902969,138.9,144.4,138.7,125.6,4,132.8,153.7,137.3,10,5,7.517,4.924,1.148,-1.945,-4.852,-7.682,135.8,5,247.7,-8.183,-7.609,10,-8.372,-7.888,-4.409,-4.533,-4.926,-5.249,4.83,8.338,34,-1.889,1.64,4.675,8.401,-8.145,-8.274,-1.361,2.035,135.3,138.3,141.6,128.0,144.0,133.7,135.4,141.3,121.8,139.6,1,norm,1.937,1.357,-1.993,-1.435,-4.586,-4.83,-1.665,-1.807,-1.114,-1.857,1.75,-1.242,133.4,138.5,-4.873,-7.74,1.753,-1.137,7.927,4.588,-4.564,-8.325,2,5.245,4.663,4.952,4.458,1.374,1.715,1.259,1.102,2,4.401,4.448,-40,29.1095919497,norm,0,8,8,8,4168.758,4168.767,4168.77534479,4168.776,4168.777,4168.78,up,1,1.97499101993,8.02500898007,001,022,1920_1200,Intel(R) Core(TM) i5-3570 CPU @ 3.40GHz,orientation_search,LEPPC096,Intel(R) HD Graphics 2500,2019_Jan_02_1538,testMonitor,
128.4,129.7,120.1,132.7,36,10,122.8,138.9,136.0,137.8,7.636,8.21,7.973,8.051,8.48,7.761,8.456,4.712,-5.111,-7.904,1.318,-1.352,7.844,5.135,-4.409,-8.327,131.5,132.9,-7.813,153.7,121.6,135.6,139.5,141.6,36,131.1,2,5,prime,10,0,99,norm,36,-4.612,up,norm,133.70902969,,131.2,151.3,132.1,5,138.8,113.7,151.7,10,5,8.103,4.597,1.328,-1.166,-5.19,-8.276,149.6,5,232.7,-8.019,-8.302,10,-7.885,-7.685,-5.023,-4.935,-4.545,-5.107,4.39,7.701,17,-1.907,2.038,4.391,7.599,-7.501,-8.036,-1.853,1.745,152.8,130.8,136.4,134.1,136.0,141.0,133.7,137.8,133.0,145.6,2,norm,1.355,1.565,-1.75,-1.349,-4.698,-5.105,-1.31,-1.93,-2.041,-1.325,1.54,-1.791,123.2,126.9,-4.767,-7.951,1.771,-1.413,8.412,4.374,-5.224,-7.847,2,4.963,4.458,5.034,4.312,1.249,1.842,1.776,1.471,2,4.76,4.575,-40,29.1095919497,norm,0,9,9,9,4170.771,4170.781,4170.78748887,4170.788,4170.79,4170.792,up,1,1.67353036171,8.32646963829,001,022,1920_1200,Intel(R) Core(TM) i5-3570 CPU @ 3.40GHz,orientation_search,LEPPC096,Intel(R) HD Graphics 2500,2019_Jan_02_1538,testMonitor,
135.0,132.1,119.7,136.6,36,10,113.7,130.5,137.7,137.6,8.307,8.461,7.747,8.049,8.346,7.582,7.912,4.799,-5.283,-8.118,1.707,-1.975,7.856,5.254,-4.984,-7.789,148.5,136.1,-8.274,,147.7,119.4,143.8,143.1,36,140.3,5,5,prime,10,0,112,norm,36,-4.312,down,norm,133.70902969,121.1,121.4,153.7,131.2,1,132.3,138.1,140.0,10,5,7.793,4.322,1.467,-1.136,-4.308,-7.817,132.2,5,245.7,-8.211,-7.646,10,-7.781,-8.336,-4.827,-4.813,-4.307,-4.69,4.509,7.807,31,-1.175,1.79,4.832,8.34,-8.169,-7.97,-1.277,1.318,122.4,129.0,134.0,134.5,151.3,124.3,150.3,137.9,146.7,128.5,3,norm,1.542,1.966,-1.51,-1.804,-5.155,-4.515,-1.563,-1.942,-1.644,-1.149,1.543,-1.937,141.4,136.5,-5.06,-7.861,1.898,-1.979,7.983,4.784,-4.414,-8.489,2,5.092,5.263,4.574,5.081,2.011,1.313,1.785,1.106,2,4.338,4.853,-40,29.1095919497,norm,0,10,10,10,4172.502,4172.513,4172.51789012,4172.518,4172.52,4172.522,down,1,1.92519552415,8.07480447585,001,022,1920_1200,Intel(R) Core(TM) i5-3570 CPU @ 3.40GHz,orientation_search,LEPPC096,Intel(R) HD Graphics 2500,2019_Jan_02_1538,testMonitor,
140.3,140.7,143.0,134.5,36,10,,127.7,152.1,131.1,7.574,7.961,8.029,8.09,7.827,8.379,8.23,4.563,-5.088,-8.375,1.654,-1.12,8.13,5.003,-5.122,-8.306,127.9,139.4,-8.071,135.1,133.1,141.0,124.8,115.2,36,125.3,4,5,prime,10,0,110,norm,36,-5.152,down,norm,133.70902969,118.1,136.4,147.0,137.9,0,132.7,131.7,121.6,10,5,7.93,5.293,1.673,-1.258,-5.166,-7.984,128.8,5,243.7,-8.365,-7.906,10,-8.099,-7.894,-5.294,-4.529,-4.496,-4.985,4.74,8.462,24,-1.796,1.855,4.58,8.429,-7.52,-7.662,-1.981,1.756,153.7,152.3,137.5,137.0,134.5,128.7,137.2,113.7,127.6,134.8,4,norm,1.602,1.451,-1.398,-1.704,-4.425,-4.617,-1.267,-1.177,-1.279,-1.863,2.041,-1.304,137.1,130.4,-4.841,-7.678,1.381,-1.908,8.32,5.263,-4.316,-8.469,2,4.319,4.576,4.823,4.695,1.68,1.579,1.789,1.748,2,4.851,5.172,-40,29.1095919497,norm,0,11,11,11,4174.468,4174.477,4174.48359469,4174.484,4174.485,4174.488,down,1,1.87399159042,8.12600840958,001,022,1920_1200,Intel(R) Core(TM) i5-3570 CPU @ 3.40GHz,orientation_search,LEPPC096,Intel(R) HD Graphics 2500,2019_Jan_02_1538,testMonitor,
253.3,233.3,250.8,235.2,36,-60,242.5,247.1,243.9,249.9,7.639,7.714,7.62,7.739,8.109,7.865,7.785,4.604,-4.643,-7.811,1.524,-1.302,8.028,4.573,-4.961,-8.253,250.4,244.3,-7.528,249.3,245.6,246.2,240.9,252.4,36,247.4,1,5,probe,5,0,96,norm,36,-4.536,up,norm,243.277983288,239.7,236.9,252.1,247.8,3,241.4,237.6,241.6,10,5,8.374,4.412,2.053,-1.229,-4.564,-7.979,237.8,2,147.3,-8.156,-7.764,10,-8.312,-8.371,-4.412,-4.394,-5.113,-4.414,5.217,7.761,9,-1.293,1.905,4.361,7.991,-7.546,-7.839,-1.759,1.808,,235.2,240.7,236.2,240.3,243.3,241.0,243.6,246.7,242.7,0,norm,1.956,1.624,-2.065,-1.915,-5.184,-4.877,-1.651,-1.673,-2.01,-2.084,1.711,-1.503,243.7,248.5,-5.048,-7.504,1.837,-1.655,8.341,5.135,-5.061,-7.915,3,4.409,4.401,4.419,4.736,1.19,1.809,1.542,1.809,3,4.603,4.32,10,133.70902969,norm,0,12,12,12,4176.395,4176.405,4176.41683726,4176.417,4176.419,4176.421,up,1,2.70506446034,7.29493553966,001,022,1920_1200,Intel(R) Core(TM) i5-3570 CPU @ 3.40GHz,orientation_search,LEPPC096,Intel(R) HD Graphics 2500,2019_Jan_02_1538,testMonitor,
,215.6,210.8,209.7,36,-60,211.1,212.9,210.7,223.3,7.814,7.932,7.734,8.129,7.691,8.269,7.86,5.279,-5.069,-7.618,1.536,-1.275,8.246,4.752,-5.162,-8.131,216.3,212.3,-7.899,210.5,217.0,210.1,215.5,219.1,36,209.0,3,5,probe,5,0,66,norm,36,-4.318,up,norm,213.277983288,206.0,215.3,220.1,209.6,4,211.9,205.1,211.7,10,5,8.258,4.407,1.718,-1.321,-5.296,-8.464,213.4,2,147.3,-8.321,-8.418,10,-7.949,-7.644,-5.128,-4.32,-4.686,-4.52,4.598,7.859,22,-1.92,1.602,4.446,8.154,-8.295,-7.596,-1.31,1.178,208.8,221.4,212.2,221.1,212.7,213.5,213.6,222.7,217.7,203.3,1,norm,1.714,2.052,-1.429,-1.786,-5.208,-4.36,-1.451,-1.529,-1.89,-1.868,1.835,-1.294,215.5,212.3,-5.257,-8.179,1.414,-1.208,7.705,4.511,-4.988,-8.477,3,5.032,4.951,5.231,4.927,1.323,1.71,2.052,1.926,3,4.899,4.952,10,133.70902969,norm,0,13,13,13,4179.158,4179.167,4179.17799806,4179.178,4179.18,4179.183,up,1,1.68588000205,8.31411999795,001,022,1920_1200,Intel(R) Core(TM) i5-3570 CPU @ 3.40GHz,orientation_search,LEPPC096,Intel(R) HD Graphics 2500,2019_Jan_02_1538,testMonitor,
105.6,84.5,82.3,84.5,36,20,79.1,101.4,104.9,105.5,8.477,8.282,7.563,7.787,8.24,8.351,7.784,4.68,-4.666,-8.252,1.872,-1.41,7.524,5.098,-4.881,-8.338,,96.8,-8.436,88.5,93.8,94.8,81.5,99.7,36,83.4,5,5,prime,10,0,97,norm,36,-4.839,up,norm,90.6014195003,100.7,82.1,97.6,91.8,5,86.3,85.0,74.3,10,6,7.749,5.231,1.859,-2.093,-4.54,-8.275,94.7,6,187.6,-8.29,-8.321,20,-8.455,-7.508,-5.213,-4.673,-4.389,-5.264,4.549,7.921,35,-1.785,1.644,4.505,8.101,-7.677,-8.241,-1.148,1.908,110.6,87.5,95.9,85.8,91.4,94.4,82.6,70.6,98.4,97.1,0,norm,2.083,1.186,-1.725,-1.987,-4.667,-5.268,-1.241,-1.861,-2.043,-1.463,1.572,-1.621,91.6,83.2,-4.46,-7.5,1.195,-1.832,7.726,4.991,-5.15,-8.146,4,4.469,5.132,5.169,5.136,1.676,1.374,1.581,1.441,4,5.209,4.437,-60,133.70902969,norm,0,14,14,14,4180.91,4180.92,4180.92605731,4180.926,4180.928,4180.931,up,1,3.68477281166,6.31522718834,001,022,1920_1200,Intel(R) Core(TM) i5-3570 CPU @ 3.40GHz,orientation_search,LEPPC096,Intel(R) HD Graphics 2500,2019_Jan_02_1538,testMonitor,
97.7,96.2,87.6,92.7,36,20,72.2,92.9,81.5,110.6,7.972,8.457,8.047,7.631,7.876,8.452,7.703,4.744,-4.889,-8.079,1.608,-2.009,8.468,4.594,-4.74,-7.888,,99.1,-7.984,74.5,73.7,88.5,91.9,93.6,36,70.6,5,5,prime,10,0,85,norm,36,-4.679,up,norm,90.6014195003,77.2,88.4,88.3,84.6,5,77.1,90.8,99.8,10,6,8.14,4.362,2.007,-2.057,-4.91,-8.13,88.0,6,175.6,-7.914,-7.703,20,-8.159,-8.239,-5.289,-4.859,-4.732,-4.489,5.144,7.789,35,-2.01,1.42,4.559,7.857,-8.413,-7.98,-1.754,1.192,95.6,100.5,93.3,84.5,89.6,100.9,104.5,94.6,79.0,93.7,1,norm,1.518,2.018,-1.742,-2.093,-4.532,-4.318,-1.548,-1.867,-1.344,-1.116,1.206,-1.852,95.9,87.0,-5.173,-7.745,1.676,-1.738,7.697,4.762,-4.631,-7.608,4,5.005,4.385,4.874,5.015,1.692,1.483,1.392,1.396,4,4.756,4.419,-60,133.70902969,norm,0,15,15,15,4184.654,4184.665,4184.67013786,4184.67,4184.673,4184.675,up,1,3.07444497101,6.92555502899,001,022,1920_1200,Intel(R) Core(TM) i5-3570 CPU @ 3.40GHz,orientation_search,LEPPC096,Intel(R) HD Graphics 2500,2019_Jan_02_1538,testMonitor,
83.5,87.7,110.6,93.2,36,20,105.8,106.1,98.0,102.7,7.628,8.354,8.263,7.709,7.977,8.33,8.179,4.502,-4.809,-7.84,1.1,-2.081,8.429,4.66,-5.182,-7.766,84.5,80.5,-7.77,104.2,101.1,77.8,98.1,,36,95.2,4,5,prime,10,0,61,norm,36,-5.258,down,norm,90.6014195003,79.2,92.0,70.6,94.0,2,85.9,94.0,84.0,10,6,7.929,4.933,1.893,-1.4,-5.075,-8.049,85.6,6,151.6,-7.507,-7.859,20,-8.089,-7.902,-4.938,-4.63,-4.834,-5.029,4.643,8.342,26,-1.288,1.785,4.391,7.843,-7.827,-8.05,-1.882,1.486,92.6,86.7,106.5,105.2,90.2,90.2,77.9,104.3,84.5,84.6,2,norm,1.434,1.213,-2.039,-1.37,-5.092,-4.785,-1.704,-1.963,-1.168,-1.156,1.948,-1.215,83.7,86.5,-4.57,-8.497,1.839,-1.88,8.255,4.467,-4.94,-7.655,4,4.704,4.899,4.705,4.738,1.226,1.34,1.171,1.23,4,4.785,4.708,-60,133.70902969,norm,0,16,16,16,4187.783,4187.793,4187.80459629,4187.805,4187.806,4187.809,down,1,4.9906954351,5.0093045649,001,022,1920_1200,Intel(R) Core(TM) i5-3570 CPU @ 3.40GHz,orientation_search,LEPPC096,Intel(R) HD Graphics 2500,2019_Jan_02_1538,testMonitor,
90.1,84.5,102.2,105.6,36,20,83.7,104.6,110.6,90.3,8.31,8.332,7.682,8.438,8.212,7.867,7.877,5.051,-5.192,-8.392,1.895,-1.452,7.943,4.3,-4.922,-8.417,96.7,82.0,-8.075,91.9,81.3,,70.6,94.8,36,87.9,5,5,prime,10,0,91,norm,36,-4.667,up,norm,90.6014195003,94.7,96.6,84.0,91.6,3,100.4,87.6,88.8,10,6,7.641,4.474,1.764,-1.632,-4.605,-8.208,76.0,6,181.6,-7.809,-8.298,20,-8.307,-7.859,-4.939,-4.935,-4.721,-4.346,4.559,8.039,33,-1.496,1.151,4.952,7.705,-8.204,-7.622,-1.321,1.655,87.6,99.3,101.4,94.5,108.7,88.8,96.6,83.3,95.4,78.3,3,norm,1.645,1.544,-1.352,-2.045,-4.769,-5.119,-1.868,-1.559,-1.366,-1.282,1.313,-2.076,79.6,104.8,-4.904,-8.304,1.556,-1.806,8.224,5.135,-4.317,-8.09,4,4.945,5.082,4.915,4.363,1.707,2.079,1.626,1.722,4,5.163,4.461,-60,133.70902969,norm,0,17,17,17,4192.832,4192.842,4192.85866509,4192.859,4192.861,4192.863,up,1,6.92523144445,3.07476855555,001,022,1920_1200,Intel(R) Core(TM) i5-3570 CPU @ 3.40GHz,orientation_search,LEPPC096,Intel(R) HD Graphics 2500,2019_Jan_02_1538,testMonitor,
89.0,92.9,73.8,87.1,36,20,91.1,86.0,92.1,102.3,8.011,8.067,8.079,8.139,7.62,7.501,8.155,4.522,-4.897,-7.623,2.089,-1.152,7.654,4.702,-4.869,-7.864,92.4,70.6,-7.638,99.6,104.8,85.8,89.7,83.4,36,103.8,0,5,prime,10,0,67,norm,36,-4.691,up,norm,90.6014195003,81.9,92.6,88.1,107.1,5,85.4,110.6,92.7,10,6,8.338,4.723,1.449,-1.902,-4.892,-7.807,83.7,6,157.6,-7.807,-8.108,20,-8.167,-8.176,-4.745,-4.924,-4.416,-4.946,5.11,7.737,5,-1.28,1.846,4.924,7.976,-7.958,-8.001,-1.53,1.444,86.7,79.9,86.4,87.7,77.6,105.4,79.1,91.0,,98.6,4,norm,2.01,1.428,-1.668,-1.982,-5.048,-4.879,-1.728,-1.194,-1.545,-1.992,1.173,-1.441,80.7,92.6,-4.85,-7.683,1.856,-2.082,8.484,4.946,-4.67,-7.711,4,4.504,4.502,4.325,4.453,1.623,1.967,2.058,2.013,4,4.974,5.187,-60,133.70902969,norm,0,18,18,18,4199.821,4199.831,4199.84738612,4199.848,4199.849,4199.852,up,1,1.53281092943,8.46718907057,001,022,1920_1200,Intel(R) Core(TM) i5-3570 CPU @ 3.40GHz,orientation_search,LEPPC096,Intel(R) HD Graphics 2500,2019_Jan_02_1538,testMonitor,
108.9,87.8,93.1,80.5,36,20,93.2,94.3,91.9,87.1,7.863,8.308,8.358,8.151,7.553,7.872,8.342,4.897,-4.557,-7.587,1.168,-1.807,8.189,4.721,-4.681,-7.811,,84.7,-7.895,83.9,98.0,87.0,97.7,77.0,36,88.5,5,5,prime,10,0,75,norm,36,-4.706,up,norm,90.6014195003,70.6,87.6,90.6,98.0,5,88.3,94.7,93.6,10,6,7.832,5.038,1.828,-1.256,-4.918,-8.042,84.9,6,165.6,-7.728,-7.617,20,-8.069,-8.081,-4.76,-5.228,-5.258,-4.824,4.991,8.221,35,-1.66,1.526,4.555,8.446,-7.591,-7.928,-2.012,1.504,84.5,84.2,101.4,107.6,90.1,79.6,90.0,81.1,98.2,91.7,5,norm,1.872,1.446,-1.439,-1.969,-5.23,-4.833,-1.257,-1.375,-1.169,-1.831,1.853,-1.553,86.3,110.6,-4.724,-8.359,1.245,-1.866,7.683,4.377,-5.051,-7.843,4,4.623,5.041,4.763,4.977,1.122,1.187,1.775,1.477,4,5.233,4.564,-60,133.70902969,norm,0,19,19,19,4201.424,4201.433,4201.44081089,4201.441,4201.443,4201.445,up,1,2.78593644824,7.21406355176,001,022,1920_1200,Intel(R) Core(TM) i5-3570 CPU @ 3.40GHz,orientation_search,LEPPC096,Intel(R) HD Graphics 2500,2019_Jan_02_1538,testMonitor,
207.9,193.2,191.7,194.8,36,-60,197.3,189.8,202.7,197.3,8.142,7.509,8.256,7.756,8.098,8.212,7.627,5.038,-4.582,-8.259,1.494,-1.601,8.213,5.217,-4.939,-7.883,190.9,207.8,-8.105,206.8,192.3,203.3,204.4,,36,209.8,4,5,probe,5,0,94,norm,36,-4.663,down,norm,199.815256264,207.7,192.7,193.4,197.2,2,193.0,200.3,199.5,10,6,7.773,4.766,1.92,-1.963,-4.528,-8.179,208.7,2,105.8,-7.978,-7.886,20,-7.662,-8.393,-5.012,-4.914,-4.865,-4.592,4.948,7.967,26,-1.999,2.071,4.908,7.724,-8.054,-7.933,-1.441,1.321,194.2,197.7,199.2,192.6,206.5,201.9,196.7,196.5,207.3,204.1,0,norm,1.297,1.997,-1.731,-1.486,-4.336,-5.166,-1.843,-1.606,-1.459,-1.231,1.561,-1.675,202.8,197.2,-4.313,-7.862,1.734,-1.515,8.016,4.366,-5.067,-8.341,5,4.338,4.517,4.76,4.951,1.746,1.877,1.709,1.212,5,5.268,4.758,20,90.6014195003,norm,0,20,20,20,4204.248,4204.257,4204.2638835,4204.264,4204.266,4204.268,down,1,1.85342495525,8.14657504475,001,022,1920_1200,Intel(R) Core(TM) i5-3570 CPU @ 3.40GHz,orientation_search,LEPPC096,Intel(R) HD Graphics 2500,2019_Jan_02_1538,testMonitor,
199.6,203.7,200.9,195.4,36,-60,,197.3,195.4,195.5,7.635,7.842,8.292,8.005,7.541,8.151,7.524,4.479,-4.449,-8.288,1.76,-1.871,8.295,4.437,-5.101,-7.931,198.1,202.3,-7.919,198.0,195.0,193.0,196.0,202.2,36,203.3,4,5,probe,5,0,91,norm,36,-4.702,down,norm,196.815256264,198.5,205.0,191.6,198.0,0,186.8,196.3,193.8,10,6,7.907,5.122,2.018,-1.926,-5.204,-8.119,199.0,2,105.8,-8.146,-7.664,20,-7.755,-8.155,-4.948,-4.684,-4.963,-4.616,4.877,7.523,24,-1.941,1.788,4.645,8.139,-8.377,-7.724,-1.68,1.804,199.5,194.5,188.3,206.8,197.4,190.6,195.2,192.7,201.9,197.4,1,norm,1.718,1.909,-1.54,-2.064,-4.826,-4.767,-1.762,-1.582,-1.661,-1.363,2.054,-1.906,197.9,197.6,-4.388,-8.155,1.137,-1.817,7.705,5.172,-4.839,-7.525,5,4.805,5.223,4.534,4.824,1.984,1.991,1.793,1.389,5,4.507,4.811,20,90.6014195003,norm,0,21,21,21,4206.154,4206.164,4206.18063654,4206.181,4206.183,4206.185,down,1,1.24417291247,8.75582708753,001,022,1920_1200,Intel(R) Core(TM) i5-3570 CPU @ 3.40GHz,orientation_search,LEPPC096,Intel(R) HD Graphics 2500,2019_Jan_02_1538,testMonitor,
81.8,78.1,68.1,82.3,36,-20,67.3,68.1,70.2,70.2,7.645,8.109,8.2,7.904,8.202,8.172,8.337,5.176,-4.883,-7.672,1.4,-1.339,7.522,4.825,-5.254,-7.705,98.4,62.9,-7.939,79.2,76.7,64.6,73.2,85.4,36,71.5,2,5,prime,10,0,82,norm,36,-5.272,up,norm,78.3707745254,,82.1,58.4,68.1,5,77.7,82.1,82.5,10,6,8.059,5.215,1.18,-1.782,-4.394,-7.929,70.0,6,160.4,-8.289,-8.136,-20,-7.949,-8.487,-4.549,-5.103,-5.231,-4.695,4.338,7.697,17,-1.278,1.696,4.905,7.78,-8.1,-8.412,-1.512,1.662,88.7,72.1,86.7,96.0,77.5,86.1,75.2,83.2,86.1,83.8,0,norm,1.167,1.442,-1.598,-1.974,-5.067,-4.983,-1.676,-1.596,-1.619,-1.424,1.401,-1.735,81.5,77.5,-4.749,-8.179,1.503,-1.507,7.987,5.108,-4.449,-8.107,6,5.29,5.027,4.954,5.174,1.479,1.566,1.237,2.02,6,4.738,4.344,-60,90.6014195003,norm,0,22,22,22,4207.446,4207.455,4207.46206937,4207.462,4207.464,4207.467,up,1,2.33386288105,7.66613711895,001,022,1920_1200,Intel(R) Core(TM) i5-3570 CPU @ 3.40GHz,orientation_search,LEPPC096,Intel(R) HD Graphics 2500,2019_Jan_02_1538,testMonitor,
68.9,79.5,86.4,66.3,36,-20,78.6,82.1,75.2,80.1,8.387,8.287,8.475,8.374,8.22,8.425,8.391,4.915,-4.349,-8.087,1.603,-1.585,8.167,5.245,-4.369,-8.338,69.9,85.3,-7.731,78.0,80.7,84.3,72.2,78.9,36,85.2,2,5,prime,10,0,74,norm,36,-4.543,up,norm,78.3707745254,77.0,,84.1,98.4,4,70.5,90.9,73.3,10,6,7.896,4.97,1.57,-2.01,-4.817,-7.908,63.5,6,152.4,-7.516,-8.458,-20,-8.015,-7.759,-4.483,-5.288,-4.873,-4.775,5.096,7.755,16,-1.734,1.981,4.475,8.499,-7.653,-8.025,-1.952,1.489,77.5,76.2,71.1,82.9,97.4,58.4,63.4,78.5,66.7,59.1,1,norm,1.17,1.845,-1.278,-1.679,-4.412,-4.83,-1.341,-1.564,-1.369,-1.211,1.32,-1.964,97.6,85.9,-4.738,-7.88,1.279,-1.387,7.831,4.566,-4.572,-8.042,6,5.081,5.071,4.844,4.414,1.115,1.294,1.411,1.56,6,4.665,5.237,-60,90.6014195003,norm,0,23,23,23,4209.817,4209.826,4209.83310131,4209.833,4209.835,4209.838,up,1,3.2280114945,6.7719885055,001,022,1920_1200,Intel(R) Core(TM) i5-3570 CPU @ 3.40GHz,orientation_search,LEPPC096,Intel(R) HD Graphics 2500,2019_Jan_02_1538,testMonitor,
80.7,93.5,88.7,76.8,36,-20,98.4,58.4,,83.7,8.494,7.874,7.945,7.808,8.431,8.499,8.194,5.094,-4.604,-8.193,1.865,-1.864,7.597,5.151,-4.797,-8.456,79.9,63.0,-8.02,64.4,76.1,70.9,76.2,81.2,36,75.7,4,5,prime,10,0,71,norm,36,-4.619,up,norm,78.3707745254,66.1,79.6,77.9,88.4,4,75.0,68.8,70.1,10,6,7.619,4.941,1.901,-1.248,-4.485,-7.762,81.3,6,149.4,-7.884,-8.384,-20,-8.204,-8.487,-4.564,-4.561,-5.259,-5.165,4.411,8.243,28,-1.32,1.448,5.165,7.84,-7.876,-7.763,-2.017,2.098,87.6,69.0,89.1,81.1,75.7,84.0,89.9,64.6,90.3,81.7,2,norm,1.572,1.785,-2.006,-1.485,-4.891,-5.032,-1.724,-1.785,-1.894,-1.444,1.915,-1.123,80.1,90.0,-4.599,-7.796,1.772,-2.093,8.244,4.736,-4.996,-7.999,6,4.326,5.011,4.67,4.333,1.209,1.514,1.769,1.689,6,4.708,4.639,-60,90.6014195003,norm,0,24,24,24,4213.098,4213.108,4213.12247947,4213.123,4213.124,4213.127,up,1,3.65379261008,6.34620738992,001,022,1920_1200,Intel(R) Core(TM) i5-3570 CPU @ 3.40GHz,orientation_search,LEPPC096,Intel(R) HD Graphics 2500,2019_Jan_02_1538,testMonitor,
81.3,69.0,70.0,73.8,36,-20,84.6,75.0,75.2,67.9,7.579,7.677,7.852,7.788,8.457,8.191,7.579,4.47,-5.131,-8.085,1.44,-1.926,7.831,4.938,-4.76,-7.804,76.3,79.3,-7.978,80.9,87.1,85.0,75.1,75.1,36,85.2,1,5,prime,10,0,114,norm,36,-5.127,up,norm,78.3707745254,67.2,69.7,75.5,59.4,5,,79.6,86.1,10,6,8.374,4.794,1.159,-1.944,-5.055,-7.613,58.4,6,192.4,-7.523,-7.969,-20,-7.91,-8.102,-5.187,-5.0,-4.475,-4.903,4.513,8.456,11,-1.538,1.606,4.495,8.326,-8.347,-8.445,-1.882,1.373,66.7,84.7,80.0,65.6,79.3,80.1,73.2,72.2,72.6,81.6,3,norm,1.861,1.477,-1.985,-1.398,-4.427,-4.434,-1.599,-1.847,-1.941,-1.496,1.428,-1.146,98.4,84.8,-4.426,-8.062,1.198,-1.518,7.649,5.285,-5.237,-8.342,6,4.342,5.272,4.414,5.074,1.456,1.373,2.083,1.519,6,4.804,5.107,-60,90.6014195003,norm,0,25,25,25,4216.82,4216.83,4216.83628765,4216.836,4216.838,4216.841,up,1,5.52773077283,4.47226922717,001,022,1920_1200,Intel(R) Core(TM) i5-3570 CPU @ 3.40GHz,orientation_search,LEPPC096,Intel(R) HD Graphics 2500,2019_Jan_02_1538,testMonitor,
87.7,76.3,71.1,83.0,36,-20,74.5,67.1,79.1,70.3,8.444,7.585,7.752,7.719,7.885,7.915,8.166,4.779,-4.748,-7.637,1.165,-1.727,7.872,4.717,-4.667,-8.125,87.8,76.2,-8.108,79.1,58.4,,75.2,85.3,36,68.6,5,5,prime,10,0,84,norm,36,-4.439,up,norm,78.3707745254,88.8,73.6,73.3,87.3,3,89.4,78.1,78.3,10,6,8.448,4.793,1.523,-1.801,-5.008,-8.202,78.9,6,162.4,-8.107,-7.646,-20,-8.029,-8.087,-4.781,-5.252,-4.797,-4.51,4.309,7.661,33,-1.258,1.192,4.318,7.583,-8.161,-7.518,-1.987,1.693,75.7,83.9,82.5,85.8,72.6,92.0,79.7,94.0,96.5,79.1,4,norm,1.372,1.653,-1.777,-1.676,-4.669,-4.63,-1.895,-1.365,-1.105,-1.873,1.653,-1.248,77.0,98.4,-5.171,-8.106,1.288,-1.187,7.938,4.603,-5.157,-8.491,6,4.38,4.773,4.865,5.004,1.819,1.885,1.357,1.812,6,5.266,5.028,-60,90.6014195003,norm,0,26,26,26,4222.405,4222.414,4222.42283776,4222.423,4222.425,4222.427,up,1,3.41523896055,6.58476103945,001,022,1920_1200,Intel(R) Core(TM) i5-3570 CPU @ 3.40GHz,orientation_search,LEPPC096,Intel(R) HD Graphics 2500,2019_Jan_02_1538,testMonitor,
74.4,98.4,69.5,87.6,36,-20,78.1,70.3,82.2,83.8,8.303,8.433,7.547,7.889,8.197,8.266,7.526,5.282,-5.083,-8.155,1.545,-1.562,7.908,4.918,-4.665,-7.664,83.7,81.6,-7.644,80.3,62.8,79.9,66.0,91.7,36,,4,5,prime,10,0,75,norm,36,-4.853,up,norm,78.3707745254,77.5,58.4,67.8,62.8,3,74.9,76.8,83.3,10,6,8.313,5.004,1.933,-1.184,-5.282,-8.111,97.2,6,153.4,-8.311,-7.916,-20,-7.774,-7.775,-4.449,-5.195,-5.278,-4.828,5.29,7.599,27,-1.765,1.293,4.32,7.55,-7.731,-7.842,-1.39,1.374,67.7,87.8,86.0,88.9,76.8,73.1,83.4,76.2,91.8,92.6,5,norm,1.742,1.992,-1.438,-1.921,-4.495,-5.062,-1.961,-1.182,-1.747,-1.459,2.067,-1.547,80.9,68.4,-4.947,-7.894,1.948,-1.914,7.578,5.068,-4.443,-8.118,6,4.636,4.915,4.73,4.576,1.524,1.948,1.137,2.092,6,4.483,4.756,-60,90.6014195003,norm,0,27,27,27,4225.875,4225.885,4225.89867065,4225.899,4225.901,4225.903,up,1,2.52935050666,7.47064949334,001,022,1920_1200,Intel(R) Core(TM) i5-3570 CPU @ 3.40GHz,orientation_search,LEPPC096,Intel(R) HD Graphics 2500,2019_Jan_02_1538,testMonitor,
115.9,115.3,126.8,118.8,36,-20,119.5,125.4,110.2,122.9,7.512,7.519,7.536,8.109,8.386,7.867,7.972,5.0,-5.27,-7.511,1.799,-1.722,8.389,4.717,-4.896,-8.036,118.4,114.2,-7.728,123.5,115.7,126.9,120.4,123.6,36,123.6,0,5,probe,5,0,63,norm,36,-4.489,down,norm,120.157176624,117.2,120.8,121.7,129.6,0,119.0,126.0,125.7,10,6,8.473,4.458,1.218,-1.413,-5.193,-7.822,123.0,2,57.2,-8.327,-8.191,-20,-8.113,-8.372,-4.489,-4.8,-4.508,-5.269,4.757,8.041,0,-1.688,1.234,4.93,7.509,-8.062,-7.808,-1.771,1.243,113.0,130.2,116.7,112.2,118.9,,127.2,115.5,120.1,120.6,0,norm,1.351,2.001,-1.588,-1.588,-4.823,-5.079,-1.821,-1.587,-2.023,-1.339,1.723,-1.646,120.8,112.2,-4.598,-7.84,1.893,-1.764,8.313,4.321,-4.874,-7.594,7,4.528,5.072,5.124,5.038,1.826,1.787,1.429,1.192,7,4.839,4.758,-20,78.3707745254,norm,0,28,28,28,4228.465,4228.476,4228.48099997,4228.481,4228.483,4228.486,down,1,1.2222705855,8.7777294145,001,022,1920_1200,Intel(R) Core(TM) i5-3570 CPU @ 3.40GHz,orientation_search,LEPPC096,Intel(R) HD Graphics 2500,2019_Jan_02_1538,testMonitor,
149.8,143.3,139.9,147.2,36,-20,139.3,146.6,149.1,136.2,7.678,8.194,8.183,8.444,8.315,7.785,7.666,5.165,-4.461,-8.164,2.073,-2.01,7.775,5.01,-4.679,-8.41,140.3,145.2,-7.717,144.9,133.1,142.7,,139.4,36,131.2,5,5,probe,5,0,84,norm,36,-4.915,down,norm,141.157176624,142.1,137.3,132.0,140.4,2,147.6,147.6,147.8,10,6,7.898,4.969,1.502,-1.489,-5.16,-7.712,142.9,2,57.2,-8.365,-7.647,-20,-8.353,-8.012,-5.022,-5.264,-4.768,-5.12,5.119,7.684,32,-1.38,1.808,4.817,7.91,-8.48,-8.08,-1.464,1.672,147.3,142.2,151.2,140.2,142.3,134.9,139.3,138.0,147.1,138.5,1,norm,1.851,1.564,-1.395,-1.363,-5.249,-4.946,-1.509,-1.414,-1.524,-1.2,1.224,-1.736,146.0,141.1,-4.582,-8.197,1.21,-1.153,7.829,4.578,-4.583,-8.297,7,4.506,4.779,5.169,4.592,1.666,1.556,1.345,1.354,7,4.929,5.173,-20,78.3707745254,norm,0,29,29,29,4229.74,4229.75,4229.76752714,4229.768,4229.77,4229.773,down,1,1.1285916526,8.8714083474,001,022,1920_1200,Intel(R) Core(TM) i5-3570 CPU @ 3.40GHz,orientation_search,LEPPC096,Intel(R) HD Graphics 2500,2019_Jan_02_1538,testMonitor,
82.6,106.9,109.8,98.2,36,-80,100.9,105.7,98.5,112.5,8.392,7.532,7.65,8.499,8.035,7.888,8.072,5.044,-5.215,-7.54,1.97,-1.539,8.237,4.433,-4.904,-8.435,121.7,106.1,-8.163,103.3,100.9,98.3,102.7,110.3,36,112.1,1,5,prime,10,0,82,norm,36,-4.733,up,norm,102.579467384,82.6,106.4,102.4,112.0,4,104.4,110.2,89.9,10,6,7.5,5.14,1.323,-1.66,-4.872,-7.532,,6,184.6,-8.477,-7.694,-80,-7.556,-8.311,-5.097,-4.436,-4.346,-5.189,5.229,7.639,10,-1.315,1.993,5.031,7.694,-8.045,-8.0,-1.745,1.722,113.2,105.2,115.2,99.2,113.7,108.1,99.4,110.1,89.1,121.0,0,norm,1.455,1.691,-1.921,-1.89,-4.932,-4.862,-1.299,-1.632,-1.12,-1.964,1.635,-1.464,122.6,86.9,-4.364,-7.951,1.495,-1.552,7.717,4.371,-4.713,-7.602,8,4.519,4.423,4.444,4.72,1.832,1.716,1.457,1.27,8,4.868,4.408,-20,78.3707745254,norm,0,30,30,30,4230.938,4230.95,4230.97076359,4230.971,4230.973,4230.977,up,1,4.22678839322,5.77321160678,001,022,1920_1200,Intel(R) Core(TM) i5-3570 CPU @ 3.40GHz,orientation_search,LEPPC096,Intel(R) HD Graphics 2500,2019_Jan_02_1538,testMonitor,
122.6,95.7,103.0,107.0,36,-80,88.7,103.6,99.2,104.9,8.405,7.954,7.685,7.769,7.737,7.514,7.986,5.282,-5.052,-8.071,1.393,-1.922,7.672,4.533,-5.192,-8.196,98.1,104.1,-8.169,121.3,115.8,102.6,91.3,108.2,36,99.8,2,5,prime,10,0,68,norm,36,-5.086,up,norm,102.579467384,112.8,99.7,,111.2,3,96.2,102.4,103.2,10,6,7.844,4.684,1.151,-1.33,-5.137,-8.482,108.7,6,170.6,-7.526,-8.274,-80,-7.62,-8.388,-4.831,-4.763,-4.62,-4.751,5.016,7.593,15,-1.834,1.979,4.806,8.088,-8.16,-8.261,-1.686,1.466,100.4,94.4,89.6,97.4,101.4,106.5,100.2,94.8,119.0,98.7,1,norm,1.352,1.381,-1.52,-1.289,-4.807,-4.478,-2.058,-1.578,-1.384,-1.475,1.953,-1.234,82.6,102.0,-4.818,-7.863,1.99,-1.903,7.738,4.9,-4.905,-8.09,8,4.754,4.41,4.407,5.024,1.68,1.174,1.5,1.675,8,4.581,4.896,-20,78.3707745254,norm,0,31,31,31,4235.243,4235.254,4235.25929264,4235.259,4235.261,4235.264,up,1,6.94640812101,3.05359187899,001,022,1920_1200,Intel(R) Core(TM) i5-3570 CPU @ 3.40GHz,orientation_search,LEPPC096,Intel(R) HD Graphics 2500,2019_Jan_02_1538,testMonitor,
85.3,105.8,87.7,100.4,36,-80,98.8,104.1,113.8,104.7,7.928,8.183,7.832,7.844,8.217,7.63,8.0,4.532,-4.807,-7.963,1.714,-2.077,7.833,5.206,-4.467,-7.685,92.2,104.2,-8.484,,122.6,82.6,105.9,104.2,36,94.8,5,5,prime,10,0,119,norm,36,-5.068,down,norm,102.579467384,86.3,101.5,113.9,119.5,1,86.7,108.1,96.1,10,6,7.732,4.648,1.626,-1.128,-4.82,-8.27,101.3,6,221.6,-7.624,-7.762,-80,-7.855,-7.507,-4.856,-4.79,-4.515,-5.084,4.697,7.627,31,-1.996,1.286,4.785,7.954,-8.29,-7.801,-1.377,1.101,113.2,100.2,99.2,110.2,85.4,114.0,107.4,85.8,112.4,95.1,2,norm,2.019,1.22,-2.035,-2.083,-4.566,-4.718,-1.913,-1.411,-2.043,-1.472,1.152,-1.227,98.7,108.6,-4.844,-8.166,1.781,-2.064,7.609,4.337,-5.269,-7.976,8,5.192,4.685,4.675,5.138,1.181,1.172,1.733,2.008,8,5.035,4.437,-20,78.3707745254,norm,0,32,32,32,4242.243,4242.253,4242.26253966,4242.263,4242.264,4242.267,down,1,1.92359933472,8.07640066528,001,022,1920_1200,Intel(R) Core(TM) i5-3570 CPU @ 3.40GHz,orientation_search,LEPPC096,Intel(R) HD Graphics 2500,2019_Jan_02_1538,testMonitor,
107.3,112.6,97.2,,36,-80,117.5,91.7,92.7,99.4,7.986,8.082,8.208,7.979,8.39,7.993,7.751,4.602,-4.932,-7.627,1.122,-1.384,8.044,4.93,-5.189,-7.604,107.0,82.6,-8.325,110.3,87.4,91.0,105.9,115.9,36,104.6,3,5,prime,10,0,69,norm,36,-4.794,up,norm,102.579467384,84.2,122.6,111.8,91.6,3,87.4,97.7,110.8,10,6,7.65,4.511,1.274,-1.909,-5.283,-8.249,114.3,6,171.6,-8.271,-8.274,-80,-7.833,-7.601,-4.433,-4.802,-5.207,-4.541,4.869,7.583,21,-1.179,1.413,4.742,7.938,-8.41,-8.074,-1.155,1.487,102.0,107.9,87.6,106.0,105.3,116.7,108.1,89.4,110.1,104.1,3,norm,2.085,1.603,-1.186,-1.144,-4.571,-4.72,-2.061,-1.924,-1.113,-1.752,1.735,-1.489,86.3,107.2,-4.739,-8.443,1.437,-1.928,7.865,4.855,-4.965,-7.915,8,4.651,5.101,4.333,4.827,1.989,1.491,1.591,1.746,8,5.109,5.194,-20,78.3707745254,norm,0,33,33,33,4244.229,4244.25,4244.26138749,4244.262,4244.264,4244.267,up,1,2.96698954689,7.03301045311,001,022,1920_1200,Intel(R) Core(TM) i5-3570 CPU @ 3.40GHz,orientation_search,LEPPC096,Intel(R) HD Graphics 2500,2019_Jan_02_1538,testMonitor,
97.6,107.4,100.6,108.3,36,-80,89.2,111.0,105.2,98.8,7.861,8.33,7.694,8.013,8.345,8.409,8.36,4.545,-5.191,-8.079,1.835,-1.658,7.994,4.591,-4.92,-7.768,93.2,100.4,-7.919,82.6,102.0,107.5,96.1,96.9,36,113.9,1,5,prime,10,0,108,norm,36,-4.798,up,norm,102.579467384,98.7,114.1,116.4,99.0,4,110.6,87.5,112.4,10,6,7.567,4.591,1.344,-1.64,-4.852,-7.841,,6,210.6,-8.053,-8.198,-80,-7.974,-7.881,-5.273,-5.199,-4.497,-5.211,4.483,7.604,10,-1.478,1.118,5.22,7.586,-7.692,-7.856,-1.24,1.48,108.5,112.2,95.7,104.5,96.5,109.4,105.8,92.8,106.0,112.2,4,norm,1.467,1.783,-1.135,-1.628,-4.849,-4.451,-1.199,-1.875,-1.967,-1.549,1.968,-1.559,98.0,122.6,-5.191,-7.709,1.318,-1.304,8.057,5.078,-4.768,-7.676,8,4.725,4.456,4.422,4.351,1.586,2.083,1.987,1.878,8,4.926,5.076,-20,78.3707745254,norm,0,34,34,34,4247.267,4247.276,4247.28567595,4247.286,4247.288,4247.29,up,1,3.14306391097,6.85693608903,001,022,1920_1200,Intel(R) Core(TM) i5-3570 CPU @ 3.40GHz,orientation_search,LEPPC096,Intel(R) HD Graphics 2500,2019_Jan_02_1538,testMonitor,
107.0,101.3,108.9,111.4,36,-80,110.3,105.6,122.6,103.1,7.801,8.242,7.897,8.122,8.326,7.637,7.779,4.429,-4.848,-7.75,2.013,-1.591,7.689,4.614,-4.686,-8.43,96.4,101.8,-8.325,116.2,94.0,108.8,103.6,113.7,36,106.3,0,5,prime,10,0,67,norm,36,-5.131,up,norm,102.579467384,109.5,107.5,97.0,85.8,5,116.7,113.6,98.6,10,6,7.509,4.528,1.905,-1.274,-5.24,-7.594,106.2,6,169.6,-7.54,-7.591,-80,-7.536,-7.583,-5.096,-5.086,-4.662,-4.688,5.111,8.164,5,-1.755,1.661,4.66,8.141,-7.933,-7.607,-1.88,1.576,93.8,119.2,110.9,102.0,112.8,96.3,95.3,104.1,,82.6,5,norm,1.481,1.319,-1.907,-1.205,-4.667,-4.387,-1.995,-1.443,-2.075,-1.167,1.717,-1.107,105.0,110.2,-4.555,-7.705,1.959,-1.14,8.254,5.179,-4.846,-8.028,8,5.121,4.917,4.439,5.01,1.219,2.023,1.858,1.318,8,4.313,4.471,-20,78.3707745254,norm,0,35,35,35,4250.449,4250.46,4250.46514101,4250.465,4250.467,4250.47,up,1,5.1251239854,4.8748760146,001,022,1920_1200,Intel(R) Core(TM) i5-3570 CPU @ 3.40GHz,orientation_search,LEPPC096,Intel(R) HD Graphics 2500,2019_Jan_02_1538,testMonitor,
138.5,147.6,150.8,144.7,36,30,137.9,142.1,145.2,130.8,8.307,8.078,7.634,7.719,7.588,7.949,8.231,4.626,-5.01,-8.478,1.162,-1.61,7.911,4.806,-4.427,-8.224,138.8,144.4,-8.283,141.0,139.0,141.3,137.1,136.1,36,137.5,2,5,probe,5,0,118,norm,36,-4.828,up,norm,140.806420056,,147.2,146.1,139.5,5,136.1,147.3,133.9,10,6,7.565,4.847,1.8,-1.595,-4.391,-7.744,144.2,2,22.8,-7.698,-8.054,-80,-8.173,-8.445,-4.621,-5.172,-4.355,-4.774,5.143,8.247,17,-1.685,1.252,4.396,7.806,-7.752,-7.884,-1.422,1.27,143.0,135.9,137.1,142.3,147.2,136.6,144.4,134.4,137.8,143.4,0,norm,1.305,1.571,-1.725,-1.821,-4.363,-4.952,-1.422,-1.537,-1.224,-1.911,1.314,-1.254,142.7,144.0,-4.307,-7.637,1.203,-1.73,8.377,4.383,-5.285,-8.191,9,4.646,5.269,4.323,4.771,1.35,1.635,1.843,2.009,9,4.941,5.156,-80,102.579467384,norm,0,36,36,36,4255.628,4255.637,4255.64698677,4255.647,4255.649,4255.652,up,1,1.58988888855,8.41011111145,001,022,1920_1200,Intel(R) Core(TM) i5-3570 CPU @ 3.40GHz,orientation_search,LEPPC096,Intel(R) HD Graphics 2500,2019_Jan_02_1538,testMonitor,
133.2,131.2,134.6,140.0,36,30,134.7,141.7,138.6,131.2,7.81,7.694,7.959,8.119,8.32,8.028,8.274,4.604,-4.859,-8.428,1.863,-1.459,7.517,5.086,-4.87,-7.672,138.5,139.7,-8.415,136.9,137.8,127.8,,132.2,36,140.1,5,5,probe,5,0,115,norm,36,-4.823,down,norm,137.806420056,133.3,147.8,131.0,138.0,2,130.1,141.2,132.4,10,6,7.997,4.529,2.083,-1.281,-4.302,-7.687,138.9,2,22.8,-7.685,-7.683,-80,-8.235,-7.6,-4.818,-4.993,-4.535,-5.161,4.455,7.694,32,-1.691,1.499,5.061,8.073,-8.197,-8.019,-1.978,1.859,139.6,134.9,143.9,138.9,141.9,147.6,131.3,136.3,133.5,138.6,1,norm,1.228,1.706,-1.922,-1.783,-4.59,-4.741,-2.044,-1.104,-1.932,-1.4,1.446,-1.598,136.2,138.4,-4.448,-7.605,1.744,-1.287,8.1,4.552,-4.478,-8.416,9,4.537,5.23,4.945,5.029,1.675,1.42,1.828,2.012,9,4.612,4.475,-80,102.579467384,norm,0,37,37,37,4257.274,4257.283,4257.30059525,4257.301,4257.303,4257.305,down,1,0.875500544842,9.12449945516,001,022,1920_1200,Intel(R) Core(TM) i5-3570 CPU @ 3.40GHz,orientation_search,LEPPC096,Intel(R) HD Graphics 2500,2019_Jan_02_1538,testMonitor,
51.6,64.6,53.9,55.2,36,0,46.8,46.8,50.7,60.3,7.679,8.008,8.307,7.867,8.308,7.604,8.128,5.256,-4.613,-7.605,1.481,-1.857,7.666,4.324,-4.378,-7.508,61.7,59.6,-7.705,44.8,52.1,71.6,45.5,58.6,36,53.6,2,5,prime,10,0,80,norm,36,-4.588,up,norm,56.7687562359,76.8,36.8,,53.3,3,44.1,41.8,69.0,10,5,7.723,4.487,1.174,-1.911,-5.064,-8.022,59.8,5,136.8,-7.51,-7.929,0,-8.497,-7.852,-5.277,-4.896,-5.114,-4.726,4.336,8.455,15,-1.162,1.854,4.797,8.48,-8.431,-7.919,-1.934,1.766,55.2,54.7,47.2,41.2,47.9,59.3,48.5,62.0,59.6,66.8,0,norm,1.383,1.716,-1.859,-1.596,-5.299,-4.664,-2.059,-1.949,-1.868,-1.51,1.649,-1.722,50.0,44.1,-4.924,-8.056,1.762,-1.486,7.559,4.79,-4.603,-8.395,10,4.83,4.304,4.522,4.926,1.612,1.422,2.031,1.168,10,5.174,4.425,30,102.579467384,norm,0,38,38,38,4258.221,4258.231,4258.23864873,4258.239,4258.241,4258.243,up,1,3.59931177914,6.40068822086,001,022,1920_1200,Intel(R) Core(TM) i5-3570 CPU @ 3.40GHz,orientation_search,LEPPC096,Intel(R) HD Graphics 2500,2019_Jan_02_1538,testMonitor,
55.5,44.0,37.3,40.7,36,0,45.7,70.9,59.5,55.1,8.318,7.884,8.214,8.171,8.098,7.58,8.292,4.389,-4.434,-7.921,1.707,-1.983,8.318,4.842,-4.593,-7.991,57.1,49.2,-8.418,66.9,58.6,43.2,49.3,65.0,36,70.2,1,5,prime,10,0,108,norm,36,-4.891,down,norm,56.7687562359,66.7,55.5,57.0,65.0,2,57.5,76.6,56.0,10,5,8.063,4.869,1.897,-1.261,-4.758,-8.082,36.8,5,164.8,-7.91,-7.562,0,-8.154,-8.145,-4.706,-4.48,-5.246,-4.808,4.435,7.642,8,-1.882,1.743,5.205,7.745,-8.033,-7.681,-1.494,1.656,46.6,,53.3,57.4,50.1,76.8,60.9,64.2,69.6,53.2,1,norm,1.438,1.172,-1.589,-1.948,-5.23,-4.609,-1.217,-2.071,-1.82,-1.707,1.646,-1.803,50.8,53.5,-4.906,-8.083,1.852,-1.785,7.971,4.966,-4.877,-7.667,10,5.257,4.749,4.956,4.836,1.67,1.221,1.317,1.285,10,4.718,4.408,30,102.579467384,norm,0,39,39,39,4261.876,4261.89,4261.90772136,4261.908,4261.91,4261.913,down,1,3.93987213581,6.06012786419,001,022,1920_1200,Intel(R) Core(TM) i5-3570 CPU @ 3.40GHz,orientation_search,LEPPC096,Intel(R) HD Graphics 2500,2019_Jan_02_1538,testMonitor,
40.4,48.8,53.4,68.8,36,0,55.9,61.4,76.8,46.7,7.813,7.732,7.721,8.119,7.898,7.951,8.037,4.498,-4.883,-7.581,1.647,-1.472,8.128,4.488,-4.846,-8.39,47.2,42.2,-7.754,62.6,70.5,64.4,61.8,50.1,36,49.2,0,5,prime,10,0,88,norm,36,-4.785,down,norm,56.7687562359,52.9,76.6,52.7,54.4,2,56.3,55.0,52.8,10,5,7.812,5.293,1.796,-1.991,-4.375,-8.029,69.5,5,144.8,-7.995,-7.956,0,-8.039,-7.798,-4.775,-4.614,-5.089,-4.596,4.871,7.668,2,-2.089,1.763,4.517,8.453,-8.486,-8.286,-2.055,1.978,47.7,42.7,55.8,,69.0,68.9,49.6,59.6,52.1,57.2,2,norm,1.682,1.733,-1.397,-1.451,-4.513,-4.882,-1.56,-1.626,-1.836,-1.348,1.271,-1.132,53.3,46.5,-4.532,-8.431,1.879,-1.336,8.007,5.203,-5.053,-8.072,10,5.088,5.226,4.44,5.18,1.657,1.773,1.363,1.831,10,4.403,4.415,30,102.579467384,norm,0,40,40,40,4265.885,4265.894,4265.91152679,4265.912,4265.914,4265.916,down,1,1.36381588281,8.63618411719,001,022,1920_1200,Intel(R) Core(TM) i5-3570 CPU @ 3.40GHz,orientation_search,LEPPC096,Intel(R) HD Graphics 2500,2019_Jan_02_1538,testMonitor,
55.4,45.3,55.5,54.3,36,0,57.2,60.6,61.9,48.4,8.169,8.089,7.853,8.063,7.899,7.786,8.214,4.549,-4.644,-7.684,1.755,-1.488,8.253,5.0,-5.087,-7.649,50.9,67.4,-8.294,60.7,64.0,52.7,45.7,52.5,36,47.0,2,5,prime,10,0,101,norm,36,-5.217,up,norm,56.7687562359,54.3,,76.8,69.7,4,73.2,67.9,58.7,10,5,7.541,5.232,2.02,-1.169,-4.464,-7.851,52.0,5,157.8,-8.263,-7.761,0,-8.485,-7.552,-5.208,-4.664,-4.826,-4.613,5.017,7.624,16,-1.23,1.629,4.478,8.5,-8.265,-8.361,-2.005,1.56,56.0,58.5,36.8,58.2,67.1,67.1,70.8,70.6,42.6,57.5,3,norm,1.981,1.268,-1.202,-2.012,-4.544,-4.732,-1.725,-1.661,-1.455,-1.4,1.642,-1.507,72.0,56.6,-4.71,-7.885,1.827,-1.295,7.906,4.921,-4.491,-7.868,10,5.245,5.244,5.129,4.314,1.119,1.888,1.798,1.376,10,4.755,4.618,30,102.579467384,norm,0,41,41,41,4267.3,4267.31,4267.3164681,4267.317,4267.318,4267.321,up,1,1.35397855045,8.64602144955,001,022,1920_1200,Intel(R) Core(TM) i5-3570 CPU @ 3.40GHz,orientation_search,LEPPC096,Intel(R) HD Graphics 2500,2019_Jan_02_1538,testMonitor,
66.4,56.9,55.1,65.9,36,0,41.2,61.3,69.4,67.1,8.238,8.167,7.573,8.14,7.503,8.131,8.397,4.785,-4.828,-8.119,2.032,-1.996,7.83,4.959,-4.478,-8.073,50.0,63.1,-7.66,40.1,46.6,61.1,48.7,36.8,36,70.0,0,5,prime,10,0,66,norm,36,-4.925,down,norm,56.7687562359,57.0,53.8,65.1,56.0,2,50.1,62.4,54.5,10,5,8.475,4.629,1.828,-1.729,-4.622,-7.635,70.2,5,122.8,-7.597,-8.037,0,-8.234,-8.267,-5.201,-4.421,-4.498,-5.209,5.045,8.472,2,-1.356,1.694,4.602,8.253,-8.32,-8.048,-1.615,1.364,67.5,52.7,38.2,,76.8,37.1,57.2,56.0,47.6,63.2,4,norm,1.585,2.059,-1.889,-1.484,-5.204,-5.052,-1.165,-1.764,-1.62,-1.236,1.735,-1.276,46.2,63.8,-4.84,-7.858,1.616,-2.083,7.528,5.245,-4.312,-8.051,10,4.689,4.868,4.434,5.161,1.353,1.15,1.622,1.377,10,4.424,5.262,30,102.579467384,norm,0,42,42,42,4268.707,4268.717,4268.73500388,4268.735,4268.737,4268.739,down,1,0.924786817553,9.07521318245,001,022,1920_1200,Intel(R) Core(TM) i5-3570 CPU @ 3.40GHz,orientation_search,LEPPC096,Intel(R) HD Graphics 2500,2019_Jan_02_1538,testMonitor,
165.8,172.8,168.4,175.8,36,-30,170.0,161.4,172.4,172.9,7.942,7.586,8.08,7.725,8.265,7.89,7.83,4.887,-4.567,-7.975,1.975,-2.063,7.721,5.094,-4.881,-7.899,169.2,168.0,-8.42,171.1,,172.1,177.8,181.4,36,169.4,5,5,probe,5,0,112,norm,36,-4.889,down,norm,171.436528358,175.2,175.0,163.8,164.0,0,175.9,176.8,167.6,10,5,7.567,4.886,1.32,-1.403,-5.297,-8.031,167.9,1,59.4,-7.583,-7.986,0,-7.776,-7.914,-4.647,-4.989,-4.585,-5.273,4.74,7.693,30,-1.799,1.797,4.754,8.084,-8.121,-8.442,-1.382,1.257,169.6,170.0,180.0,170.9,178.1,176.1,177.6,175.7,169.9,163.6,0,norm,1.538,1.116,-1.904,-1.458,-5.271,-5.174,-1.688,-1.346,-1.451,-1.184,1.61,-1.82,172.7,170.7,-4.525,-7.634,1.129,-1.974,8.136,5.295,-5.063,-7.508,11,4.975,4.49,4.675,4.525,1.682,1.637,1.88,1.191,11,5.046,5.265,0,56.7687562359,norm,0,43,43,43,4269.703,4269.712,4269.72073265,4269.721,4269.723,4269.725,down,1,1.18035521856,8.81964478144,001,022,1920_1200,Intel(R) Core(TM) i5-3570 CPU @ 3.40GHz,orientation_search,LEPPC096,Intel(R) HD Graphics 2500,2019_Jan_02_1538,testMonitor,
233.5,227.4,222.6,242.0,36,-10,245.8,215.1,231.3,235.8,7.601,8.266,8.027,8.095,8.144,8.417,8.115,5.247,-4.476,-7.993,1.952,-1.277,7.523,5.071,-5.076,-8.466,220.7,251.4,-7.963,230.7,241.3,245.8,214.2,231.9,36,219.5,2,5,prime,10,0,69,norm,36,-4.849,up,norm,231.362100133,241.2,223.1,,239.5,3,236.3,239.1,232.1,10,5,7.65,4.71,1.21,-1.24,-5.295,-8.407,218.2,5,300.4,-8.457,-7.932,-10,-8.022,-8.335,-4.838,-4.571,-4.903,-4.465,5.201,8.132,15,-1.999,1.566,4.852,7.615,-7.879,-8.266,-1.803,1.193,228.5,243.7,239.9,211.4,230.5,221.8,238.9,237.9,237.1,219.1,0,norm,1.83,1.56,-1.676,-1.581,-4.951,-5.134,-1.273,-1.726,-1.587,-1.267,1.348,-1.463,235.3,243.8,-4.326,-7.893,1.362,-1.678,8.48,4.86,-4.914,-7.674,12,4.493,4.692,4.512,5.168,1.673,2.039,2.09,1.329,12,4.658,5.192,-30,56.7687562359,norm,0,44,44,44,4270.938,4270.951,4270.97101594,4270.971,4270.973,4270.977,up,1,1.13111271428,8.86888728572,001,022,1920_1200,Intel(R) Core(TM) i5-3570 CPU @ 3.40GHz,orientation_search,LEPPC096,Intel(R) HD Graphics 2500,2019_Jan_02_1538,testMonitor,
218.6,236.5,228.0,230.3,36,-10,228.0,221.2,222.3,241.9,7.846,7.638,7.731,7.962,8.05,7.764,7.777,4.552,-4.318,-7.937,2.023,-1.784,8.279,5.029,-5.001,-8.217,227.4,,-8.48,242.8,226.6,241.0,235.8,227.6,36,235.2,5,5,prime,10,0,81,norm,36,-4.798,up,norm,231.362100133,232.5,231.6,233.2,250.0,4,243.7,215.8,223.1,10,5,8.119,4.89,1.815,-2.016,-4.455,-8.215,232.9,5,312.4,-8.0,-8.471,-10,-8.136,-7.923,-4.93,-4.662,-4.949,-5.139,5.111,8.074,34,-1.719,2.057,5.158,7.771,-8.369,-7.893,-1.176,1.5,232.7,231.8,234.1,223.0,234.0,238.0,246.0,228.2,232.5,251.4,1,norm,1.227,1.599,-1.663,-1.175,-5.089,-5.164,-2.001,-1.485,-2.08,-1.274,1.482,-1.662,231.8,211.4,-4.828,-7.832,1.597,-1.612,8.28,5.288,-4.818,-8.414,12,4.823,4.331,5.133,4.636,1.496,1.721,1.658,1.507,12,5.268,4.795,-30,56.7687562359,norm,0,45,45,45,4272.141,4272.155,4272.17326292,4272.173,4272.175,4272.178,up,1,0.85595265765,9.14404734235,001,022,1920_1200,Intel(R) Core(TM) i5-3570 CPU @ 3.40GHz,orientation_search,LEPPC096,Intel(R) HD Graphics 2500,2019_Jan_02_1538,testMonitor,
246.6,232.2,251.4,235.8,36,-10,222.5,229.0,216.3,233.4,8.061,7.767,8.136,7.921,8.227,8.303,7.501,4.645,-4.843,-8.04,1.129,-2.044,7.954,5.101,-5.267,-7.904,236.1,239.5,-8.208,228.5,231.1,238.3,230.1,232.6,36,229.4,0,5,prime,10,0,118,norm,36,-5.247,down,norm,231.362100133,226.3,229.7,220.9,220.0,1,218.3,242.5,242.7,10,5,7.851,5.014,1.234,-2.042,-4.319,-8.041,241.2,5,349.4,-7.984,-8.066,-10,-8.429,-8.445,-4.638,-5.217,-4.512,-4.642,5.263,8.071,1,-1.533,1.901,4.822,7.836,-8.336,-8.039,-1.555,1.601,217.7,233.3,236.8,231.4,,230.0,211.4,237.2,219.4,239.3,2,norm,2.035,1.633,-2.024,-1.359,-4.745,-4.557,-1.973,-1.127,-1.61,-1.85,1.488,-1.955,215.9,234.3,-5.188,-8.458,1.484,-1.577,8.215,4.35,-5.238,-7.993,12,5.078,4.322,4.983,4.376,1.417,1.546,1.622,1.929,12,5.047,4.542,-30,56.7687562359,norm,0,46,46,46,4273.072,4273.082,4273.08805786,4273.088,4273.09,4273.093,down,1,0.770570710165,9.22942928984,001,022,1920_1200,Intel(R) Core(TM) i5-3570 CPU @ 3.40GHz,orientation_search,LEPPC096,Intel(R) HD Graphics 2500,2019_Jan_02_1538,testMonitor,
225.6,237.2,233.9,,36,-10,236.6,228.0,245.3,236.4,7.927,8.469,7.519,8.267,8.293,8.025,8.168,5.16,-4.92,-7.933,1.347,-1.13,8.133,5.09,-4.858,-7.925,224.7,229.0,-8.01,231.8,229.5,231.9,233.5,243.7,36,251.4,3,5,prime,10,0,91,norm,36,-4.649,up,norm,231.362100133,246.9,223.9,227.8,250.2,3,213.4,249.2,240.7,10,5,7.953,5.157,1.802,-1.328,-5.26,-7.788,239.0,5,322.4,-7.77,-7.682,-10,-8.249,-7.678,-4.749,-5.166,-4.653,-5.225,4.359,8.465,21,-1.279,1.481,5.262,8.039,-8.331,-8.012,-1.195,1.951,233.9,228.0,238.3,235.1,226.3,233.2,236.6,217.4,220.1,211.4,3,norm,1.368,1.66,-1.746,-1.513,-5.038,-5.048,-1.756,-1.373,-1.147,-1.452,2.056,-1.973,226.7,245.1,-4.656,-8.305,1.271,-1.895,8.158,4.904,-5.056,-7.826,12,4.591,4.617,5.023,5.25,1.487,2.072,1.185,1.778,12,4.347,5.165,-30,56.7687562359,norm,0,47,47,47,4273.884,4273.894,4273.89946723,4273.9,4273.901,4273.904,up,1,0.689439432035,9.31056056796,001,022,1920_1200,Intel(R) Core(TM) i5-3570 CPU @ 3.40GHz,orientation_search,LEPPC096,Intel(R) HD Graphics 2500,2019_Jan_02_1538,testMonitor,
225.9,234.6,227.0,240.6,36,-10,228.7,240.1,231.0,232.3,8.461,8.432,8.321,7.633,7.99,7.859,7.515,4.504,-4.718,-8.459,1.521,-1.762,8.296,4.509,-4.661,-7.945,,229.9,-7.913,225.1,228.3,229.6,226.2,226.2,36,223.9,5,5,prime,10,0,109,norm,36,-4.651,up,norm,231.362100133,225.3,219.9,251.4,233.7,5,237.0,222.1,224.4,10,5,8.374,5.234,1.733,-1.972,-4.864,-7.889,215.2,5,340.4,-7.896,-7.889,-10,-8.24,-8.485,-4.948,-4.649,-4.63,-4.548,4.711,7.917,35,-2.011,1.56,5.211,8.308,-7.691,-8.311,-1.313,1.224,239.0,230.4,229.8,230.6,236.3,237.0,224.0,233.4,211.4,238.4,4,norm,1.461,1.337,-2.072,-1.19,-4.564,-4.999,-1.404,-1.467,-1.949,-1.88,1.241,-1.793,247.3,226.7,-5.086,-7.542,1.31,-1.68,7.81,5.09,-4.999,-7.502,12,4.871,4.416,5.272,4.439,1.162,1.86,1.289,1.858,12,4.788,5.043,-30,56.7687562359,norm,0,48,48,48,4274.632,4274.642,4274.64851384,4274.649,4274.651,4274.653,up,1,1.0778266106,8.9221733894,001,022,1920_1200,Intel(R) Core(TM) i5-3570 CPU @ 3.40GHz,orientation_search,LEPPC096,Intel(R) HD Graphics 2500,2019_Jan_02_1538,testMonitor,
283.9,292.2,281.1,284.2,36,-40,278.6,278.2,274.0,279.1,7.58,8.138,7.687,8.204,7.74,7.812,8.231,4.354,-5.277,-7.811,1.989,-1.698,7.643,4.903,-5.266,-7.945,279.6,277.7,-7.825,277.9,283.0,273.0,278.0,288.9,36,278.6,1,5,probe,5,0,60,norm,36,-5.258,up,norm,283.024960204,279.0,286.4,285.3,284.3,5,,284.5,288.5,10,5,7.808,5.186,1.27,-1.201,-4.767,-7.907,281.8,1,223.0,-7.815,-7.988,-10,-7.576,-8.058,-5.203,-4.765,-4.985,-4.947,4.95,8.317,11,-1.287,1.197,5.116,8.292,-7.632,-8.419,-1.426,1.774,276.5,291.0,280.7,280.5,283.2,283.0,285.7,277.2,275.0,282.6,0,norm,2.066,1.788,-1.142,-1.521,-4.793,-4.492,-1.932,-1.54,-1.952,-1.968,1.86,-1.611,282.5,288.6,-4.476,-7.578,1.338,-1.369,7.607,4.704,-4.338,-8.369,13,5.11,5.04,4.942,4.401,1.32,1.963,1.368,1.332,13,4.571,4.634,-10,231.362100133,norm,0,49,49,49,4275.764,4275.773,4275.78598716,4275.786,4275.788,4275.79,up,1,1.0786316479,8.9213683521,001,022,1920_1200,Intel(R) Core(TM) i5-3570 CPU @ 3.40GHz,orientation_search,LEPPC096,Intel(R) HD Graphics 2500,2019_Jan_02_1538,testMonitor,
232.7,236.4,234.8,224.2,36,80,239.5,237.2,222.2,247.9,8.447,7.848,8.247,7.513,8.155,8.097,8.299,4.75,-5.297,-8.435,1.601,-1.308,8.497,4.448,-5.14,-8.49,220.4,235.7,-8.048,230.2,237.6,,239.2,258.4,36,249.8,5,5,prime,10,0,78,norm,36,-5.095,up,norm,239.814683435,236.7,226.1,243.2,258.1,3,240.9,259.8,242.4,10,5,7.634,4.33,2.047,-1.635,-4.496,-7.732,219.8,5,317.8,-8.443,-7.952,80,-8.382,-7.595,-5.057,-4.65,-4.568,-5.179,4.806,7.735,33,-1.812,1.537,4.31,7.989,-8.293,-7.877,-2.078,1.686,235.2,235.8,236.8,233.2,253.6,249.8,239.6,244.7,251.6,227.3,0,norm,1.215,1.462,-1.796,-1.797,-4.82,-4.61,-1.268,-1.521,-1.398,-1.764,1.323,-1.356,241.8,233.7,-4.5,-7.61,1.35,-1.436,7.567,4.52,-4.59,-7.609,14,4.859,5.182,4.858,5.148,1.543,1.233,2.046,1.374,14,4.963,5.183,-40,231.362100133,norm,0,50,50,50,4276.91,4276.919,4276.92567426,4276.926,4276.928,4276.93,up,1,1.045141855,8.954858145,001,022,1920_1200,Intel(R) Core(TM) i5-3570 CPU @ 3.40GHz,orientation_search,LEPPC096,Intel(R) HD Graphics 2500,2019_Jan_02_1538,testMonitor,
238.9,226.8,222.4,226.5,36,80,242.6,256.3,221.4,226.4,7.862,8.406,7.521,7.751,8.189,8.003,7.885,4.37,-4.793,-8.318,1.778,-1.239,8.048,4.893,-4.533,-7.963,256.0,,-8.474,239.9,232.9,248.1,247.7,230.9,36,239.2,5,5,prime,10,0,101,norm,36,-4.673,up,norm,239.814683435,241.2,229.4,244.0,249.7,4,259.8,243.0,238.8,10,5,8.146,4.491,1.775,-2.051,-5.092,-8.298,226.2,5,340.8,-7.597,-8.166,80,-8.471,-8.206,-5.26,-4.7,-4.948,-4.545,4.552,7.85,34,-1.582,1.185,4.345,8.346,-8.393,-7.975,-1.747,1.182,237.0,219.8,256.5,227.7,254.8,238.4,244.7,226.6,234.9,231.5,1,norm,1.982,1.598,-1.655,-1.305,-5.21,-5.278,-1.28,-1.113,-1.208,-1.506,1.415,-1.126,237.6,236.6,-5.153,-7.64,1.335,-1.396,7.642,4.976,-4.759,-8.498,14,4.891,5.278,4.751,4.412,1.742,2.012,1.352,2.099,14,5.257,5.06,-40,231.362100133,norm,0,51,51,51,4278.008,4278.017,4278.03243029,4278.033,4278.035,4278.037,up,1,1.57134314752,8.42865685248,001,022,1920_1200,Intel(R) Core(TM) i5-3570 CPU @ 3.40GHz,orientation_search,LEPPC096,Intel(R) HD Graphics 2500,2019_Jan_02_1538,testMonitor,
252.9,238.7,237.4,234.1,36,80,230.6,236.5,245.4,245.1,7.67,8.22,7.739,8.376,8.181,7.773,8.449,4.335,-4.891,-8.081,1.655,-1.726,8.411,4.608,-5.124,-7.936,246.9,234.0,-7.922,223.2,249.9,247.1,,244.8,36,259.8,5,5,prime,10,0,98,norm,36,-4.87,down,norm,239.814683435,247.9,254.3,243.9,242.3,2,228.4,235.3,231.3,10,5,7.722,4.574,1.744,-1.437,-4.367,-8.191,239.6,5,337.8,-7.912,-8.155,80,-7.601,-7.925,-4.803,-4.532,-5.154,-5.144,5.065,7.558,32,-1.519,1.981,4.799,7.578,-7.98,-7.86,-1.571,2.091,229.8,219.8,239.0,238.5,238.3,241.0,253.9,227.8,233.0,231.8,2,norm,1.432,1.399,-1.371,-1.204,-5.014,-4.406,-1.412,-2.008,-1.956,-1.961,2.055,-1.135,229.4,234.4,-4.373,-7.539,1.143,-1.787,8.281,4.493,-4.323,-8.307,14,4.973,4.953,4.848,4.868,1.409,1.291,2.088,1.822,14,4.439,4.917,-40,231.362100133,norm,0,52,52,52,4279.656,4279.677,4279.68802073,4279.688,4279.69,4279.693,down,1,1.80297987558,8.19702012442,001,022,1920_1200,Intel(R) Core(TM) i5-3570 CPU @ 3.40GHz,orientation_search,LEPPC096,Intel(R) HD Graphics 2500,2019_Jan_02_1538,testMonitor,
243.4,222.4,245.4,244.1,36,80,233.4,240.0,251.1,254.8,7.797,8.039,8.015,8.345,8.371,7.739,8.227,4.812,-4.793,-7.711,2.026,-1.541,7.825,5.185,-5.203,-8.14,223.7,233.4,-8.073,236.1,244.9,234.7,249.4,248.3,36,259.8,1,5,prime,10,0,69,norm,36,-4.535,down,norm,239.814683435,230.7,245.5,228.3,236.9,2,231.8,219.8,236.1,10,5,7.944,4.816,2.086,-2.008,-4.321,-8.151,227.8,5,308.8,-8.202,-7.577,80,-8.319,-8.018,-5.031,-4.54,-4.329,-4.586,4.554,8.46,8,-1.245,1.639,4.52,7.851,-8.074,-7.973,-1.667,1.254,245.3,,252.9,238.3,223.2,244.4,231.1,229.4,240.0,238.5,3,norm,1.328,1.946,-1.477,-1.46,-4.827,-4.689,-1.317,-1.546,-1.775,-1.53,1.233,-1.263,234.5,231.6,-4.716,-8.383,1.554,-1.542,8.484,4.68,-4.861,-8.424,14,4.493,4.805,4.745,4.688,1.836,1.708,1.767,2.067,14,4.303,5.219,-40,231.362100133,norm,0,53,53,53,4281.513,4281.522,4281.52873382,4281.529,4281.531,4281.533,down,1,2.73451759642,7.26548240358,001,022,1920_1200,Intel(R) Core(TM) i5-3570 CPU @ 3.40GHz,orientation_search,LEPPC096,Intel(R) HD Graphics 2500,2019_Jan_02_1538,testMonitor,
241.2,225.2,236.0,236.2,36,80,259.2,232.1,237.9,234.2,8.121,7.669,8.397,8.142,8.455,7.905,8.481,4.492,-4.934,-7.991,1.929,-1.87,8.019,5.16,-4.533,-7.669,246.2,238.1,-7.55,236.7,245.7,221.4,250.0,233.9,36,253.8,0,5,prime,10,0,115,norm,36,-4.602,down,norm,239.814683435,241.6,238.6,240.3,236.0,1,251.8,223.3,232.3,10,5,7.951,4.529,1.999,-1.981,-4.351,-7.88,228.6,5,354.8,-7.919,-8.151,80,-7.552,-7.834,-5.025,-4.82,-4.393,-4.807,4.984,7.809,1,-1.256,2.061,4.491,8.263,-8.032,-7.89,-1.696,1.265,233.1,244.0,259.8,254.0,,246.9,246.2,230.6,242.3,228.6,4,norm,1.239,1.913,-1.907,-1.834,-4.71,-5.051,-1.92,-2.06,-2.084,-1.24,1.265,-1.34,238.9,239.6,-5.042,-7.757,1.427,-1.884,8.256,4.408,-4.698,-8.416,14,4.723,5.281,4.526,4.993,1.149,1.278,1.719,1.426,14,5.029,4.587,-40,231.362100133,norm,0,54,54,54,4284.288,4284.298,4284.30448219,4284.305,4284.306,4284.309,down,1,2.61572795958,7.38427204042,001,022,1920_1200,Intel(R) Core(TM) i5-3570 CPU @ 3.40GHz,orientation_search,LEPPC096,Intel(R) HD Graphics 2500,2019_Jan_02_1538,testMonitor,
386.4,378.8,373.7,378.3,36,-10,375.9,373.4,379.7,374.1,7.845,8.138,7.527,7.626,8.356,8.03,7.748,4.838,-5.268,-7.669,1.937,-1.522,8.329,5.147,-4.938,-8.075,382.4,383.2,-7.516,375.8,383.7,376.7,390.7,376.7,36,370.7,2,5,probe,5,0,61,norm,36,-5.254,up,norm,380.680745237,388.8,,383.7,376.3,4,378.5,376.4,377.9,10,5,7.906,5.279,1.454,-1.183,-5.298,-8.379,378.3,2,319.7,-7.91,-7.797,80,-8.141,-8.117,-5.182,-5.2,-5.044,-4.728,4.385,7.714,16,-1.6,1.499,5.139,7.937,-8.479,-7.748,-1.187,1.223,375.7,386.9,382.0,382.0,384.0,382.0,378.6,383.4,374.6,385.7,0,norm,1.285,1.635,-1.299,-1.208,-5.045,-4.649,-2.008,-1.235,-1.252,-1.24,2.012,-1.633,374.8,377.7,-4.702,-7.722,1.245,-1.753,8.085,4.861,-4.948,-8.475,15,4.79,5.297,5.099,4.746,1.413,1.571,1.636,1.191,15,4.379,5.127,80,239.814683435,norm,0,55,55,55,4286.941,4286.951,4286.95736894,4286.958,4286.959,4286.962,up,1,0.97861806459,9.02138193541,001,022,1920_1200,Intel(R) Core(TM) i5-3570 CPU @ 3.40GHz,orientation_search,LEPPC096,Intel(R) HD Graphics 2500,2019_Jan_02_1538,testMonitor,
422.9,413.2,422.6,420.4,36,-10,412.2,408.1,409.1,414.5,8.127,8.416,7.576,7.808,8.113,8.342,7.958,4.36,-5.172,-8.096,1.126,-1.459,8.43,5.225,-4.367,-7.78,422.1,412.0,-8.124,423.1,410.0,420.5,412.1,413.5,36,416.5,2,5,probe,5,0,95,norm,36,-4.413,up,norm,414.680745237,,414.8,412.1,415.4,5,412.0,412.1,421.9,10,5,8.339,5.217,1.316,-1.167,-4.344,-7.998,417.6,2,319.7,-8.026,-8.101,80,-7.566,-7.52,-5.169,-4.754,-4.402,-4.548,4.687,8.308,17,-1.939,1.511,4.965,8.15,-8.353,-7.501,-1.684,1.26,412.7,404.7,411.6,407.1,412.5,413.2,416.9,412.0,414.4,424.7,1,norm,1.174,1.132,-1.555,-1.974,-4.777,-4.899,-1.652,-1.27,-1.395,-1.899,2.07,-1.97,418.1,420.9,-4.918,-7.594,1.887,-1.581,8.451,4.831,-4.464,-8.389,15,4.502,4.369,4.856,4.337,1.41,1.939,1.46,2.039,15,4.634,4.438,80,239.814683435,norm,0,56,56,56,4287.973,4287.982,4287.98898454,4287.989,4287.991,4287.993,up,1,1.14801427153,8.85198572847,001,022,1920_1200,Intel(R) Core(TM) i5-3570 CPU @ 3.40GHz,orientation_search,LEPPC096,Intel(R) HD Graphics 2500,2019_Jan_02_1538,testMonitor,
87.8,100.6,94.0,109.0,36,40,110.2,114.4,104.3,92.5,8.147,7.618,7.742,7.994,7.64,7.948,8.016,5.094,-4.557,-7.582,1.928,-2.046,8.291,5.079,-4.731,-7.861,100.0,94.6,-8.233,99.8,111.6,102.3,107.5,91.7,36,110.2,1,5,prime,10,0,95,norm,36,-5.27,up,norm,100.657622685,88.6,100.3,97.3,108.2,5,,101.5,90.0,10,5,7.84,4.607,1.48,-1.28,-5.13,-7.962,80.7,5,195.7,-7.714,-8.196,40,-8.483,-7.96,-4.64,-5.009,-5.144,-5.135,5.148,7.598,11,-1.169,2.034,4.508,8.253,-8.118,-7.657,-2.0,1.36,104.4,113.9,107.4,105.7,96.0,105.1,85.7,103.6,102.4,95.8,0,norm,1.283,1.471,-1.751,-1.813,-4.528,-5.223,-1.683,-1.982,-1.816,-1.431,1.298,-2.048,120.7,107.3,-4.498,-8.398,1.315,-1.518,8.331,4.546,-4.898,-8.206,16,5.183,4.549,4.926,4.775,1.17,1.547,1.794,1.91,16,4.903,5.169,-10,239.814683435,norm,0,57,57,57,4289.175,4289.189,4289.20687678,4289.207,4289.209,4289.211,down,0,1.38205524482,-10,001,022,1920_1200,Intel(R) Core(TM) i5-3570 CPU @ 3.40GHz,orientation_search,LEPPC096,Intel(R) HD Graphics 2500,2019_Jan_02_1538,testMonitor,
106.8,90.3,94.3,112.7,36,40,109.6,112.5,108.8,104.0,8.401,8.14,8.381,7.551,8.116,7.959,7.801,4.449,-4.334,-8.398,1.649,-1.505,7.906,4.956,-4.918,-7.681,107.6,,-7.976,107.3,111.5,84.5,98.1,92.5,36,99.3,5,5,prime,10,0,82,norm,36,-4.538,up,norm,100.657622685,80.7,85.9,108.8,120.7,4,82.7,93.5,116.7,10,5,7.78,4.763,1.732,-1.736,-4.705,-7.71,98.2,5,182.7,-8.134,-7.67,40,-8.178,-7.736,-4.555,-4.491,-4.483,-5.065,5.179,7.623,34,-1.92,1.16,5.017,8.041,-7.659,-8.376,-1.372,1.437,112.5,104.6,95.4,107.7,96.9,91.2,116.6,98.4,92.2,103.9,1,norm,1.486,2.003,-1.489,-1.174,-4.644,-4.467,-1.695,-1.468,-1.482,-1.783,1.525,-2.027,92.0,98.0,-4.826,-7.707,1.363,-2.039,8.001,4.494,-4.724,-7.658,16,4.857,4.924,4.988,5.233,1.621,1.654,1.541,1.439,16,5.008,4.965,-10,239.814683435,norm,0,58,58,58,4291.659,4291.669,4291.68197224,4291.682,4291.684,4291.687,up,1,2.31074560278,7.68925439722,001,022,1920_1200,Intel(R) Core(TM) i5-3570 CPU @ 3.40GHz,orientation_search,LEPPC096,Intel(R) HD Graphics 2500,2019_Jan_02_1538,testMonitor,
108.3,91.5,115.1,100.2,36,40,114.2,86.4,117.8,92.8,8.439,8.411,7.607,8.302,7.745,8.362,8.017,4.524,-5.007,-7.752,1.848,-1.665,7.5,4.461,-5.18,-7.768,92.1,103.6,-8.426,100.8,96.0,98.8,105.3,100.5,36,109.5,0,5,prime,10,0,86,norm,36,-5.263,up,norm,100.657622685,100.1,88.2,102.7,80.7,5,105.3,103.8,100.5,10,5,7.771,4.359,1.193,-1.852,-4.622,-8.135,88.2,5,186.7,-7.646,-8.144,40,-7.813,-7.582,-4.859,-4.423,-5.281,-4.887,4.739,8.433,5,-1.422,1.865,5.042,8.208,-7.792,-8.5,-2.062,1.186,115.7,120.7,97.3,104.9,96.8,106.9,117.7,99.8,,87.5,2,norm,1.439,1.958,-1.26,-1.687,-4.627,-4.576,-1.59,-1.939,-2.03,-1.145,1.534,-2.017,80.8,106.0,-4.963,-7.814,1.153,-1.957,8.082,5.118,-5.274,-8.002,16,5.231,5.293,5.042,5.012,1.966,1.206,1.551,1.877,16,4.638,5.033,-10,239.814683435,norm,0,59,59,59,4294.038,4294.047,4294.05395018,4294.054,4294.056,4294.058,up,1,1.58194748392,8.41805251608,001,022,1920_1200,Intel(R) Core(TM) i5-3570 CPU @ 3.40GHz,orientation_search,LEPPC096,Intel(R) HD Graphics 2500,2019_Jan_02_1538,testMonitor,
98.4,120.7,95.1,103.8,36,40,112.5,101.7,111.2,83.6,8.358,7.757,7.876,8.08,7.694,8.038,7.899,5.038,-5.238,-7.981,1.199,-1.416,8.405,5.21,-5.295,-8.367,119.8,105.5,-7.631,87.6,107.5,106.9,,91.7,36,86.3,5,5,prime,10,0,72,norm,36,-4.613,down,norm,100.657622685,99.9,97.4,103.3,80.7,2,85.7,118.5,116.8,10,5,8.21,5.037,1.366,-1.813,-4.983,-8.241,82.8,5,172.7,-8.306,-8.215,40,-8.438,-8.324,-5.257,-4.536,-5.228,-5.158,4.389,7.541,32,-1.143,1.641,5.108,8.022,-8.061,-8.343,-1.262,1.256,96.0,97.8,90.6,93.0,94.4,93.3,108.4,102.1,97.5,110.9,3,norm,2.062,1.107,-1.898,-1.374,-5.063,-5.061,-1.992,-1.812,-1.202,-1.447,2.03,-1.965,89.5,110.3,-5.146,-7.989,1.254,-1.149,7.908,5.024,-4.427,-7.646,16,4.838,4.34,4.444,5.054,1.333,1.627,1.582,2.017,16,4.703,4.89,-10,239.814683435,norm,0,60,60,60,4295.66,4295.67,4295.67644111,4295.677,4295.678,4295.681,down,1,1.09510427451,8.90489572549,001,022,1920_1200,Intel(R) Core(TM) i5-3570 CPU @ 3.40GHz,orientation_search,LEPPC096,Intel(R) HD Graphics 2500,2019_Jan_02_1538,testMonitor,
93.6,108.0,80.7,116.4,36,40,96.8,110.3,98.6,108.7,7.752,7.867,7.655,8.192,7.908,7.729,7.814,5.16,-4.347,-7.632,1.868,-1.502,7.659,4.486,-4.826,-7.535,96.8,117.4,-8.166,107.4,104.0,81.0,97.6,102.1,36,104.5,1,5,prime,10,0,108,norm,36,-4.436,up,norm,100.657622685,109.8,94.1,113.2,112.8,4,104.6,91.1,95.5,10,5,7.83,5.25,1.253,-1.576,-4.624,-8.078,,5,208.7,-7.737,-7.539,40,-8.004,-8.416,-4.446,-5.016,-5.046,-5.097,4.675,7.833,10,-1.42,1.169,5.051,8.284,-7.737,-7.977,-1.411,1.287,95.3,120.5,91.8,102.7,94.1,83.4,100.3,99.2,112.3,102.9,4,norm,1.558,1.838,-1.443,-1.592,-5.104,-4.986,-1.98,-1.208,-1.572,-1.163,1.143,-1.93,120.7,101.9,-4.787,-7.847,1.327,-1.391,7.649,4.725,-4.841,-7.687,16,4.545,4.93,4.726,4.966,1.307,1.157,1.674,1.246,16,4.309,4.312,-10,239.814683435,norm,0,61,61,61,4296.809,4296.819,4296.82971363,4296.83,4296.832,4296.834,up,1,1.77042551971,8.22957448029,001,022,1920_1200,Intel(R) Core(TM) i5-3570 CPU @ 3.40GHz,orientation_search,LEPPC096,Intel(R) HD Graphics 2500,2019_Jan_02_1538,testMonitor,
247.5,248.3,238.6,240.8,36,30,237.8,240.3,240.7,233.4,8.246,8.033,8.094,8.171,8.043,8.062,7.563,5.051,-4.897,-8.063,1.948,-1.568,7.767,4.423,-4.851,-7.92,234.2,242.5,-7.64,233.9,235.1,238.8,230.2,240.6,36,236.1,1,5,probe,5,0,98,norm,36,-4.525,up,norm,238.292895206,236.1,241.2,236.6,239.4,4,242.6,228.3,235.0,10,5,8.197,4.307,1.255,-1.949,-4.969,-8.317,,1,140.3,-7.992,-7.767,40,-7.894,-7.64,-4.829,-4.941,-4.398,-4.561,4.416,7.561,10,-1.196,1.831,4.549,8.122,-7.725,-8.343,-1.556,1.786,234.2,235.0,248.0,230.6,241.8,242.7,238.5,240.3,239.9,242.1,0,norm,1.489,1.57,-1.253,-1.345,-4.705,-4.592,-1.235,-2.007,-1.702,-1.813,1.455,-1.337,235.7,232.2,-4.785,-8.155,1.595,-1.796,8.384,4.958,-4.494,-8.48,17,5.128,5.297,4.459,4.62,1.693,1.84,1.588,1.553,17,5.216,5.084,40,100.657622685,norm,0,62,62,62,4298.624,4298.634,4298.64026484,4298.64,4298.642,4298.645,up,1,1.60279242595,8.39720757405,001,022,1920_1200,Intel(R) Core(TM) i5-3570 CPU @ 3.40GHz,orientation_search,LEPPC096,Intel(R) HD Graphics 2500,2019_Jan_02_1538,testMonitor,
223.3,223.6,224.9,226.7,36,40,242.0,218.3,220.5,215.0,7.899,8.245,7.928,7.579,8.486,8.196,7.773,4.864,-4.942,-8.171,2.044,-1.799,8.267,5.15,-4.384,-8.02,236.1,218.3,-7.974,215.8,229.0,210.8,234.8,227.7,36,231.3,2,5,prime,10,0,61,norm,36,-4.616,up,norm,226.247173911,228.2,228.0,,239.8,3,221.0,220.4,216.4,10,6,8.093,5.019,1.585,-1.345,-4.801,-7.566,246.2,6,287.2,-7.989,-8.347,40,-8.401,-7.932,-4.988,-4.461,-4.705,-4.931,4.358,7.502,15,-1.515,1.384,4.951,8.34,-7.948,-7.946,-1.196,1.369,214.9,241.4,206.2,222.6,217.0,226.9,228.2,213.8,237.5,221.2,0,norm,1.666,1.53,-1.4,-1.647,-5.293,-5.29,-1.197,-1.515,-1.755,-2.048,1.239,-1.719,237.9,241.2,-5.016,-8.261,1.93,-1.198,7.569,5.198,-4.626,-8.003,18,4.876,5.148,4.483,4.761,1.414,1.495,1.359,2.084,18,4.327,4.543,30,100.657622685,norm,0,63,63,63,4300.264,4330.69,4330.69750882,4330.698,4330.699,4330.702,up,1,1.6388455397,8.3611544603,001,022,1920_1200,Intel(R) Core(TM) i5-3570 CPU @ 3.40GHz,orientation_search,LEPPC096,Intel(R) HD Graphics 2500,2019_Jan_02_1538,testMonitor,
214.7,217.6,235.5,208.5,36,40,237.7,246.2,239.7,222.4,7.503,8.046,7.584,7.902,7.642,7.513,7.66,4.877,-4.487,-8.492,1.179,-1.336,7.773,5.205,-4.579,-7.965,206.2,218.3,-8.263,,217.1,226.8,231.9,231.4,36,230.1,5,5,prime,10,0,113,norm,36,-4.962,down,norm,226.247173911,219.0,238.8,236.4,211.3,1,227.8,233.2,220.5,10,6,7.805,4.944,1.461,-2.097,-4.379,-8.149,236.6,6,339.2,-7.65,-8.201,40,-7.648,-8.059,-5.015,-5.279,-5.216,-4.614,4.708,8.053,31,-2.09,1.795,4.768,8.109,-8.453,-7.66,-1.804,1.825,228.3,218.9,240.4,226.2,223.6,230.7,237.6,228.7,224.8,219.7,1,norm,1.894,1.507,-1.128,-1.413,-5.214,-5.159,-1.467,-1.307,-1.946,-1.384,1.907,-2.082,239.2,226.1,-4.855,-7.983,1.528,-1.691,7.734,5.1,-4.323,-7.532,18,4.82,4.581,5.19,4.49,1.398,1.478,2.096,1.643,18,4.333,5.09,30,100.657622685,norm,0,64,64,64,4332.382,4332.393,4332.39771197,4332.398,4332.4,4332.403,down,1,0.790367624642,9.20963237536,001,022,1920_1200,Intel(R) Core(TM) i5-3570 CPU @ 3.40GHz,orientation_search,LEPPC096,Intel(R) HD Graphics 2500,2019_Jan_02_1538,testMonitor,
246.2,223.5,221.3,206.2,36,40,239.6,229.6,206.9,235.3,7.644,7.983,7.834,7.531,7.837,8.312,7.534,4.922,-4.439,-8.477,2.088,-1.975,7.672,5.171,-5.17,-8.375,235.0,225.7,-8.172,212.1,225.1,236.0,234.2,236.0,36,232.5,0,5,prime,10,0,63,norm,36,-4.981,down,norm,226.247173911,213.7,219.4,234.9,219.6,1,222.2,219.1,223.9,10,6,8.386,4.442,1.348,-1.995,-4.707,-7.529,242.3,6,289.2,-7.869,-8.23,40,-7.601,-8.073,-5.239,-4.317,-4.816,-4.785,5.063,8.204,1,-1.195,1.154,4.871,8.021,-8.393,-7.527,-1.912,2.078,221.2,231.6,225.8,219.9,,231.1,224.0,230.8,229.7,244.8,2,norm,1.238,1.946,-1.275,-1.394,-4.657,-5.189,-1.514,-1.39,-1.869,-1.71,2.061,-1.269,219.4,214.0,-4.652,-8.163,1.607,-1.904,7.714,5.223,-5.111,-8.243,18,4.715,4.914,5.024,5.234,1.85,1.963,1.869,1.649,18,5.157,4.359,30,100.657622685,norm,0,65,65,65,4333.226,4333.237,4333.25472563,4333.255,4333.257,4333.26,down,1,0.687653076317,9.31234692368,001,022,1920_1200,Intel(R) Core(TM) i5-3570 CPU @ 3.40GHz,orientation_search,LEPPC096,Intel(R) HD Graphics 2500,2019_Jan_02_1538,testMonitor,
216.9,227.1,215.6,215.1,36,40,246.2,239.7,224.1,240.8,7.978,7.583,8.253,8.171,8.448,8.358,7.975,4.363,-4.87,-7.616,1.633,-1.176,7.786,4.464,-5.105,-7.994,227.6,227.6,-7.667,237.0,215.8,221.2,232.5,232.5,36,233.0,0,5,prime,10,0,105,norm,36,-5.146,up,norm,226.247173911,238.5,239.3,235.4,233.5,3,240.1,236.9,206.2,10,6,7.614,5.132,1.417,-1.266,-4.314,-7.532,228.1,6,331.2,-7.789,-7.918,40,-8.008,-7.943,-4.543,-4.551,-4.487,-4.822,4.924,8.204,3,-1.793,1.863,4.747,7.942,-7.561,-7.524,-1.24,1.192,229.2,230.2,,220.2,229.7,230.2,220.8,227.4,226.3,228.8,3,norm,1.202,1.357,-2.052,-2.006,-4.911,-4.757,-2.001,-1.767,-1.305,-1.618,1.762,-1.864,238.0,233.7,-4.521,-8.153,1.884,-1.267,7.67,4.977,-5.004,-7.54,18,5.19,5.106,4.565,5.3,1.98,1.436,1.147,1.464,18,4.83,4.84,30,100.657622685,norm,0,66,66,66,4333.98,4333.989,4334.00349664,4334.004,4334.005,4334.008,up,1,0.600465756484,9.39953424352,001,022,1920_1200,Intel(R) Core(TM) i5-3570 CPU @ 3.40GHz,orientation_search,LEPPC096,Intel(R) HD Graphics 2500,2019_Jan_02_1538,testMonitor,
218.7,227.0,228.7,211.4,36,40,,232.8,230.5,235.5,8.044,8.055,8.071,7.522,8.232,7.967,7.516,4.711,-5.229,-8.323,1.725,-1.321,7.847,4.596,-4.729,-8.417,229.8,218.6,-7.792,228.8,218.2,214.0,236.0,235.8,36,224.7,4,5,prime,10,0,60,norm,36,-4.617,down,norm,226.247173911,241.2,206.2,213.2,220.9,0,241.3,220.9,221.2,10,6,8.181,5.161,1.459,-1.669,-4.335,-7.654,233.3,6,286.2,-7.533,-7.611,40,-7.675,-8.082,-4.743,-4.448,-4.595,-4.996,4.805,8.116,24,-1.665,1.63,4.576,8.498,-8.045,-7.765,-2.086,1.4,226.0,246.2,242.4,210.4,222.1,223.8,228.3,233.7,226.1,220.9,4,norm,1.354,1.31,-2.066,-1.583,-5.018,-4.935,-1.613,-1.579,-1.108,-1.81,1.153,-1.115,222.0,223.6,-5.204,-7.554,2.026,-1.244,7.555,4.703,-4.95,-7.816,18,4.4,4.803,5.206,5.006,1.104,1.674,1.989,1.864,18,5.218,4.602,30,100.657622685,norm,0,67,67,67,4334.628,4334.637,4334.64399874,4334.644,4334.646,4334.649,down,1,0.567540425429,9.43245957457,001,022,1920_1200,Intel(R) Core(TM) i5-3570 CPU @ 3.40GHz,orientation_search,LEPPC096,Intel(R) HD Graphics 2500,2019_Jan_02_1538,testMonitor,
219.2,222.5,223.9,246.2,36,40,242.5,223.0,235.3,213.3,7.951,7.792,7.709,7.924,8.232,7.577,7.819,4.68,-4.604,-7.524,2.074,-1.382,8.147,5.296,-4.713,-8.382,218.2,231.0,-8.066,225.5,237.3,228.1,216.8,232.3,36,,4,5,prime,10,0,79,norm,36,-4.716,up,norm,226.247173911,210.8,226.2,220.8,229.2,3,234.3,216.4,227.3,10,6,7.66,4.576,1.614,-1.429,-4.769,-7.902,225.1,6,305.2,-7.512,-8.363,40,-8.309,-7.817,-5.241,-4.598,-4.551,-4.842,5.229,7.765,27,-1.825,1.863,4.667,7.684,-8.471,-7.617,-1.83,1.305,218.1,233.1,221.1,219.0,214.9,228.5,217.1,229.0,211.2,241.8,5,norm,1.481,1.159,-1.433,-1.588,-4.8,-4.455,-1.478,-1.396,-1.658,-1.342,1.304,-1.627,229.2,229.7,-5.016,-8.11,1.699,-1.367,7.841,5.211,-4.778,-7.767,18,4.815,4.828,4.303,4.493,1.499,1.698,1.691,1.533,18,4.757,4.352,30,100.657622685,norm,0,68,68,68,4335.249,4335.259,4335.2669488,4335.267,4335.269,4335.272,up,1,0.639724530547,9.36027546945,001,022,1920_1200,Intel(R) Core(TM) i5-3570 CPU @ 3.40GHz,orientation_search,LEPPC096,Intel(R) HD Graphics 2500,2019_Jan_02_1538,testMonitor,
343.5,346.8,344.4,345.0,36,80,335.6,330.6,343.8,338.0,7.717,7.525,7.598,7.52,8.327,7.77,8.34,5.142,-4.763,-7.996,2.023,-1.866,8.466,4.936,-5.03,-8.294,339.9,337.3,-8.398,340.7,343.2,346.3,339.2,344.4,36,343.1,2,5,probe,5,0,75,norm,36,-4.917,up,norm,340.63875247,342.9,,345.9,349.0,4,340.9,342.1,342.8,10,6,8.231,4.759,1.287,-1.461,-4.625,-8.126,337.0,1,265.6,-7.565,-7.591,40,-8.273,-8.385,-4.978,-5.17,-5.206,-4.594,4.376,8.278,16,-1.39,1.702,5.197,7.55,-8.325,-7.867,-1.935,1.732,333.5,339.1,336.7,338.9,346.3,345.5,338.3,350.6,338.8,344.7,0,norm,1.353,1.326,-1.613,-1.548,-4.651,-4.661,-1.278,-1.337,-1.544,-1.733,1.48,-1.545,337.3,341.2,-4.758,-8.168,1.714,-1.696,8.451,4.412,-4.48,-7.626,19,4.368,5.038,4.914,4.52,1.722,1.31,1.542,1.802,19,5.292,4.747,40,226.247173911,norm,0,69,69,69,4335.944,4335.953,4335.96904334,4335.969,4335.971,4335.974,up,1,1.5989881946,8.4010118054,001,022,1920_1200,Intel(R) Core(TM) i5-3570 CPU @ 3.40GHz,orientation_search,LEPPC096,Intel(R) HD Graphics 2500,2019_Jan_02_1538,testMonitor,
207.4,185.5,209.4,189.3,36,-80,193.8,215.5,215.5,207.0,8.059,7.649,8.052,7.873,8.328,8.057,7.881,4.517,-5.27,-8.381,1.808,-1.812,8.184,4.857,-4.318,-7.904,220.0,197.4,-8.225,193.8,202.3,205.7,201.8,216.6,36,199.2,1,5,prime,10,0,79,norm,36,-4.547,down,norm,205.516387782,193.2,207.5,189.8,209.6,1,207.4,201.8,202.5,10,5,8.148,5.173,1.301,-1.158,-5.244,-8.272,208.5,5,284.5,-8.342,-8.066,-80,-7.924,-8.173,-4.498,-4.954,-4.906,-4.768,4.604,8.096,7,-1.117,1.526,5.107,7.63,-8.282,-8.343,-1.455,1.888,206.6,196.5,187.9,198.3,203.9,204.4,,210.0,211.9,212.1,0,norm,1.873,1.391,-1.556,-1.339,-5.189,-4.497,-2.057,-1.92,-1.235,-1.89,1.298,-1.571,225.5,197.2,-4.899,-8.309,1.948,-2.049,8.339,4.372,-5.002,-8.436,20,4.597,4.962,4.9,4.964,1.67,1.437,1.269,1.663,20,4.75,4.882,80,226.247173911,norm,0,70,70,70,4337.592,4337.601,4337.60787138,4337.608,4337.61,4337.612,down,1,0.823967895099,9.1760321049,001,022,1920_1200,Intel(R) Core(TM) i5-3570 CPU @ 3.40GHz,orientation_search,LEPPC096,Intel(R) HD Graphics 2500,2019_Jan_02_1538,testMonitor,
207.9,216.1,205.8,199.0,36,-80,215.1,206.8,196.2,198.0,8.255,7.767,8.301,7.549,8.37,8.276,8.419,5.172,-4.518,-8.081,1.534,-1.377,7.598,4.464,-4.374,-7.793,,211.1,-7.525,201.7,216.1,220.7,221.7,201.5,36,209.4,5,5,prime,10,0,89,norm,36,-5.03,up,norm,205.516387782,214.8,196.9,200.5,221.1,5,211.0,204.6,207.5,10,5,8.403,4.3,1.926,-1.45,-4.348,-7.819,195.4,5,294.5,-8.195,-7.686,-80,-7.759,-8.089,-5.266,-5.282,-4.752,-4.458,4.401,8.026,35,-1.578,1.415,4.768,7.926,-8.461,-7.923,-1.106,1.344,210.5,185.5,206.9,203.7,189.6,203.6,202.0,207.3,208.0,201.1,1,norm,1.281,1.674,-1.209,-1.141,-4.774,-4.484,-1.374,-1.144,-1.162,-1.41,1.328,-1.458,225.5,211.2,-4.821,-8.47,1.721,-1.826,8.383,4.751,-4.53,-8.391,20,4.661,4.889,4.615,4.832,1.283,1.309,1.85,1.367,20,4.331,4.403,80,226.247173911,norm,0,71,71,71,4338.469,4338.481,4338.50143591,4338.502,4338.504,4338.508,up,1,0.731644878037,9.26835512196,001,022,1920_1200,Intel(R) Core(TM) i5-3570 CPU @ 3.40GHz,orientation_search,LEPPC096,Intel(R) HD Graphics 2500,2019_Jan_02_1538,testMonitor,
216.9,197.3,217.0,199.1,36,-80,210.9,188.7,212.8,203.7,8.305,8.474,8.472,7.966,8.062,7.896,8.383,4.473,-4.581,-8.123,1.156,-1.219,7.869,4.543,-4.353,-7.825,206.7,206.0,-7.894,202.3,185.5,204.9,197.2,208.1,36,208.3,3,5,prime,10,0,94,norm,36,-4.601,down,norm,205.516387782,202.0,225.5,211.8,197.1,1,190.3,208.3,195.9,10,5,7.543,5.28,1.239,-1.45,-5.254,-7.637,203.0,5,299.5,-8.094,-8.381,-80,-8.489,-8.227,-5.275,-5.163,-5.112,-4.379,4.575,8.103,19,-1.623,2.04,4.36,7.771,-8.158,-7.658,-1.997,1.578,200.9,214.6,208.5,212.3,212.9,205.8,204.9,203.5,202.0,209.1,2,norm,1.575,1.884,-2.041,-1.855,-5.28,-4.777,-1.868,-1.416,-2.05,-1.514,1.596,-1.636,,194.0,-4.598,-7.649,1.328,-1.278,8.231,4.718,-4.402,-8.356,20,4.506,4.566,4.326,5.047,1.221,1.533,1.305,1.587,20,4.38,4.345,80,226.247173911,norm,0,72,72,72,4339.277,4339.286,4339.2929717,4339.293,4339.295,4339.298,down,1,0.808670979115,9.19132902088,001,022,1920_1200,Intel(R) Core(TM) i5-3570 CPU @ 3.40GHz,orientation_search,LEPPC096,Intel(R) HD Graphics 2500,2019_Jan_02_1538,testMonitor,
196.1,197.9,205.1,211.0,36,-80,187.5,198.4,216.7,219.8,8.129,8.036,7.968,7.642,7.632,7.906,8.09,5.076,-4.62,-8.418,1.492,-2.046,7.641,4.71,-4.897,-7.65,195.1,209.3,-7.833,215.5,206.9,,203.6,186.2,36,216.8,5,5,prime,10,0,72,norm,36,-5.233,up,norm,205.516387782,205.3,210.1,225.5,211.5,3,202.7,220.7,208.7,10,5,7.551,5.277,1.226,-1.87,-4.583,-8.259,212.5,5,277.5,-7.882,-7.969,-80,-8.052,-8.371,-4.343,-4.895,-4.397,-4.519,4.33,8.353,33,-1.754,1.279,4.396,7.986,-7.864,-8.393,-1.863,1.292,201.9,211.8,200.0,192.4,204.0,212.0,185.5,214.0,204.9,197.4,3,norm,1.486,2.018,-1.592,-1.702,-4.428,-5.245,-1.418,-1.403,-1.347,-1.211,2.059,-1.359,218.4,193.7,-4.691,-8.451,1.359,-1.892,7.643,5.091,-4.935,-7.801,20,4.598,4.659,5.137,4.461,1.573,1.316,1.317,1.464,20,5.071,5.104,80,226.247173911,norm,0,73,73,73,4340.139,4340.148,4340.16524937,4340.165,4340.167,4340.17,up,1,2.36226346181,7.63773653819,001,022,1920_1200,Intel(R) Core(TM) i5-3570 CPU @ 3.40GHz,orientation_search,LEPPC096,Intel(R) HD Graphics 2500,2019_Jan_02_1538,testMonitor,
199.9,190.9,204.9,214.7,36,-80,219.8,225.5,208.9,191.7,8.221,7.538,8.091,7.726,7.917,7.816,7.803,4.546,-5.11,-7.892,1.529,-1.739,7.525,4.964,-4.343,-8.311,185.5,200.1,-7.888,217.0,,208.5,216.1,207.1,36,197.4,5,5,prime,10,0,111,norm,36,-4.6,down,norm,205.516387782,212.6,224.9,194.8,204.7,0,206.8,221.0,199.0,10,5,8.344,4.617,1.386,-1.487,-4.425,-7.875,191.9,5,316.5,-8.099,-7.751,-80,-7.934,-8.369,-4.666,-4.838,-5.219,-4.641,5.041,7.719,30,-1.273,1.632,5.106,8.272,-7.825,-7.938,-1.478,1.567,212.8,200.0,203.4,204.7,203.6,198.3,208.0,193.4,202.9,205.9,4,norm,1.127,1.246,-2.086,-1.694,-4.905,-4.739,-1.826,-1.193,-1.752,-1.739,1.447,-1.365,220.5,211.8,-5.126,-8.478,1.952,-1.342,8.414,4.611,-5.222,-8.288,20,4.575,4.675,5.26,4.81,1.861,2.059,2.041,1.644,20,4.999,4.736,80,226.247173911,norm,0,74,74,74,4342.553,4342.562,4342.5690207,4342.569,4342.571,4342.574,down,1,0.961883732934,9.03811626707,001,022,1920_1200,Intel(R) Core(TM) i5-3570 CPU @ 3.40GHz,orientation_search,LEPPC096,Intel(R) HD Graphics 2500,2019_Jan_02_1538,testMonitor,
234.2,239.6,242.5,236.3,36,60,230.1,,248.1,240.6,7.864,7.725,7.533,8.248,7.964,8.003,8.138,4.435,-4.745,-8.421,2.039,-1.609,8.034,4.366,-4.382,-7.535,235.8,238.5,-7.881,248.7,237.9,240.1,243.3,240.9,36,235.0,4,5,probe,5,0,106,norm,36,-4.404,down,norm,240.076321768,232.8,235.3,232.8,244.5,1,234.2,250.1,244.4,10,5,7.589,4.503,1.651,-1.741,-4.315,-7.658,237.8,2,134.1,-7.526,-7.86,-80,-8.301,-7.869,-4.386,-4.692,-4.305,-4.436,5.181,8.161,25,-1.602,1.513,4.583,7.682,-8.166,-8.03,-2.037,1.968,243.8,244.3,237.8,243.1,246.8,241.8,243.7,238.6,244.6,244.5,0,norm,1.261,1.115,-1.179,-1.863,-5.128,-4.414,-1.503,-1.484,-1.459,-1.518,1.249,-1.207,235.3,241.8,-4.613,-8.442,1.334,-1.9,8.021,4.445,-4.511,-7.821,21,4.334,4.694,4.59,5.007,1.49,1.98,1.493,2.081,21,4.474,4.652,-80,205.516387782,norm,0,75,75,75,4343.569,4343.581,4343.60143591,4343.602,4343.604,4343.607,down,1,0.839081587375,9.16091841262,001,022,1920_1200,Intel(R) Core(TM) i5-3570 CPU @ 3.40GHz,orientation_search,LEPPC096,Intel(R) HD Graphics 2500,2019_Jan_02_1538,testMonitor,
247.1,257.3,251.1,258.1,36,60,245.6,246.0,248.9,247.7,8.005,8.088,7.625,7.649,7.836,7.941,7.683,4.824,-5.006,-7.988,1.692,-2.081,7.734,4.972,-4.551,-7.965,238.1,254.9,-8.004,246.3,246.9,240.8,247.0,245.6,36,242.5,0,5,probe,5,0,114,norm,36,-4.605,down,norm,248.076321768,248.9,246.8,252.5,247.0,0,239.9,251.3,241.8,10,5,7.82,4.615,1.757,-1.479,-4.926,-8.299,246.4,2,134.1,-7.717,-7.583,-80,-7.517,-7.624,-5.285,-4.751,-4.995,-5.192,5.037,8.032,0,-1.896,2.066,4.642,8.278,-8.497,-7.591,-1.322,1.471,250.2,250.2,253.5,254.7,254.0,,254.8,246.9,242.0,252.5,1,norm,1.749,2.01,-2.023,-1.521,-4.378,-4.517,-1.992,-1.715,-1.285,-1.242,1.417,-1.512,246.2,249.4,-4.907,-7.906,1.426,-1.52,7.65,5.036,-4.831,-8.417,21,4.403,4.501,5.131,4.445,2.028,1.152,1.877,1.95,21,4.906,4.764,-80,205.516387782,norm,0,76,76,76,4344.479,4344.489,4344.50202452,4344.502,4344.504,4344.507,down,1,1.21569566149,8.78430433851,001,022,1920_1200,Intel(R) Core(TM) i5-3570 CPU @ 3.40GHz,orientation_search,LEPPC096,Intel(R) HD Graphics 2500,2019_Jan_02_1538,testMonitor,
336.0,319.9,328.2,335.4,36,0,337.4,341.0,347.9,316.1,7.956,8.493,7.779,8.452,7.707,7.536,7.723,4.749,-4.469,-8.492,1.977,-1.952,8.261,5.278,-4.946,-8.435,324.8,324.4,-7.593,340.0,321.1,328.7,339.2,316.7,36,307.9,0,5,prime,10,0,105,norm,36,-4.373,down,norm,327.853713435,330.8,316.7,323.1,330.2,0,322.0,336.5,322.9,10,6,8.455,5.149,1.199,-1.391,-5.097,-8.131,332.0,6,432.9,-7.651,-7.822,0,-7.906,-7.989,-4.316,-4.662,-4.642,-4.717,5.108,8.263,0,-1.858,1.89,4.46,7.844,-7.955,-7.773,-1.739,1.887,337.7,325.5,314.9,330.6,312.2,,327.4,342.2,317.8,324.1,0,norm,2.028,1.89,-1.108,-1.405,-5.277,-5.173,-1.384,-1.424,-2.066,-1.775,1.449,-1.758,336.3,324.0,-5.203,-7.708,1.275,-1.757,8.015,4.527,-5.281,-7.67,22,4.313,4.6,5.293,4.491,1.17,1.277,1.473,1.411,22,5.124,4.35,60,205.516387782,norm,0,77,77,77,4345.755,4345.769,4345.78750758,4345.788,4345.789,4345.792,down,1,1.72122316165,8.27877683835,001,022,1920_1200,Intel(R) Core(TM) i5-3570 CPU @ 3.40GHz,orientation_search,LEPPC096,Intel(R) HD Graphics 2500,2019_Jan_02_1538,testMonitor,
316.6,322.6,,339.9,36,0,336.1,326.0,338.6,330.2,8.411,8.2,7.783,7.83,7.538,7.823,8.457,5.033,-5.269,-7.885,1.705,-1.715,7.945,5.172,-4.775,-7.856,319.0,338.5,-7.558,325.1,347.9,324.3,317.8,321.9,36,338.9,3,5,prime,10,0,74,norm,36,-5.276,down,norm,327.853713435,338.4,317.9,317.9,314.9,2,338.0,307.9,341.0,10,6,7.839,4.81,1.641,-1.527,-4.78,-8.424,312.2,6,401.9,-8.25,-7.652,0,-8.442,-8.199,-4.849,-4.819,-5.163,-5.053,4.426,7.63,20,-1.367,2.085,4.431,7.87,-8.022,-8.098,-1.163,1.649,333.7,339.5,327.8,319.2,324.7,323.7,314.2,338.5,329.3,341.3,1,norm,1.417,1.129,-1.49,-1.678,-4.928,-4.754,-1.453,-1.384,-1.687,-1.382,1.44,-1.133,328.8,332.6,-4.806,-7.515,1.268,-1.544,7.885,4.6,-4.958,-7.856,22,4.95,4.507,4.883,4.393,1.199,1.853,1.913,1.574,22,5.124,4.943,60,205.516387782,norm,0,78,78,78,4347.53,4347.539,4347.54587686,4347.546,4347.548,4347.551,up,0,1.09534424626,-10,001,022,1920_1200,Intel(R) Core(TM) i5-3570 CPU @ 3.40GHz,orientation_search,LEPPC096,Intel(R) HD Graphics 2500,2019_Jan_02_1538,testMonitor,
322.2,320.4,341.7,322.4,36,0,347.9,318.8,313.0,313.7,7.964,8.226,7.56,8.137,8.417,8.223,8.337,4.466,-4.772,-7.718,1.145,-1.337,8.465,5.197,-4.677,-7.52,316.3,316.1,-7.57,324.0,340.5,325.5,337.4,329.3,36,324.1,2,5,prime,10,0,106,norm,36,-4.568,up,norm,327.853713435,336.5,,334.3,318.5,4,343.7,337.0,335.6,10,6,7.831,4.985,1.384,-1.115,-4.717,-8.43,337.9,6,433.9,-8.239,-8.483,0,-8.371,-7.719,-5.122,-4.515,-4.99,-4.486,4.608,7.882,16,-1.986,1.544,4.413,8.018,-7.985,-7.75,-1.143,2.023,320.2,339.8,337.7,331.1,323.2,333.0,310.9,325.5,332.2,347.5,2,norm,1.328,1.277,-1.911,-1.125,-5.17,-4.303,-1.184,-1.196,-2.013,-1.921,1.181,-1.337,309.1,329.2,-4.735,-8.467,1.951,-1.214,8.323,4.421,-4.755,-7.726,22,5.178,4.825,4.958,4.301,1.497,1.413,2.084,2.071,22,4.399,4.569,60,205.516387782,norm,0,79,79,79,4349.717,4349.726,4349.7434533,4349.744,4349.745,4349.748,up,1,3.36071647414,6.63928352586,001,022,1920_1200,Intel(R) Core(TM) i5-3570 CPU @ 3.40GHz,orientation_search,LEPPC096,Intel(R) HD Graphics 2500,2019_Jan_02_1538,testMonitor,
309.2,323.3,328.0,347.8,36,0,347.9,343.6,322.8,341.5,8.148,7.51,8.064,7.648,8.463,7.744,8.168,4.576,-4.36,-8.219,1.971,-1.613,7.744,4.38,-4.994,-7.623,321.5,333.8,-7.984,318.6,311.1,342.9,332.7,333.9,36,324.8,2,5,prime,10,0,101,norm,36,-5.149,down,norm,327.853713435,317.6,328.6,328.4,322.8,0,330.7,325.7,,10,6,8.494,4.583,1.144,-1.816,-4.644,-8.326,325.5,6,428.9,-8.3,-8.167,0,-7.571,-8.363,-4.634,-5.007,-4.779,-4.429,5.005,8.288,12,-1.47,1.975,4.643,8.026,-8.328,-7.83,-1.653,1.641,337.3,322.2,318.4,337.8,309.9,331.8,335.0,318.7,347.8,307.9,3,norm,1.962,1.851,-1.926,-1.97,-4.379,-4.46,-2.073,-1.49,-1.85,-1.986,1.205,-1.871,330.0,341.4,-4.442,-8.278,2.075,-1.303,7.564,5.098,-4.493,-7.749,22,4.388,4.845,4.429,5.025,1.794,1.768,1.41,1.183,22,4.824,4.992,60,205.516387782,norm,0,80,80,80,4353.142,4353.151,4353.15968203,4353.16,4353.162,4353.164,down,1,1.18141049054,8.81858950946,001,022,1920_1200,Intel(R) Core(TM) i5-3570 CPU @ 3.40GHz,orientation_search,LEPPC096,Intel(R) HD Graphics 2500,2019_Jan_02_1538,testMonitor,
321.5,317.8,321.3,313.8,36,0,332.5,337.6,342.4,312.2,7.76,8.246,7.915,7.936,8.175,8.205,7.723,5.113,-4.809,-8.295,1.237,-2.019,8.5,5.066,-4.789,-8.421,338.3,307.9,-8.128,319.3,312.4,318.9,,320.3,36,328.6,5,5,prime,10,0,63,norm,36,-4.419,down,norm,327.853713435,331.2,335.7,314.2,347.9,2,325.1,338.7,315.9,10,6,8.054,4.547,1.557,-1.753,-4.78,-7.523,338.7,6,390.9,-7.623,-8.435,0,-8.447,-8.108,-4.626,-5.043,-4.881,-4.514,4.587,8.118,32,-1.784,1.383,4.552,8.113,-7.815,-8.48,-2.083,1.865,344.0,325.0,321.7,334.6,332.7,332.7,326.1,330.6,319.5,314.1,4,norm,1.764,2.002,-1.308,-1.338,-4.726,-4.678,-1.25,-1.907,-1.58,-1.643,1.764,-1.941,331.6,320.7,-4.577,-7.803,1.721,-1.349,8.041,4.504,-4.516,-8.322,22,5.084,4.908,4.93,4.554,1.153,1.745,1.403,1.335,22,4.751,4.338,60,205.516387782,norm,0,81,81,81,4354.363,4354.373,4354.39210176,4354.392,4354.394,4354.397,down,1,2.14254502866,7.85745497134,001,022,1920_1200,Intel(R) Core(TM) i5-3570 CPU @ 3.40GHz,orientation_search,LEPPC096,Intel(R) HD Graphics 2500,2019_Jan_02_1538,testMonitor,
330.9,332.3,330.1,322.0,36,0,327.8,334.8,310.9,333.3,7.827,7.575,8.374,7.745,8.428,7.583,8.119,4.612,-4.776,-8.352,1.928,-1.704,7.874,4.321,-4.638,-8.246,307.9,330.1,-7.817,344.1,317.2,333.3,323.0,326.8,36,335.3,0,5,prime,10,0,116,norm,36,-5.092,up,norm,327.853713435,315.2,320.4,318.3,327.2,4,322.6,322.7,329.4,10,6,7.549,4.566,1.76,-1.793,-5.232,-7.868,335.3,6,443.9,-8.14,-8.409,0,-7.628,-7.694,-4.841,-4.489,-4.384,-5.078,4.613,7.914,4,-1.261,1.831,4.879,8.231,-8.32,-8.244,-1.351,1.284,327.8,331.3,334.2,316.6,340.4,331.5,347.9,333.7,330.8,,5,norm,1.645,1.817,-1.296,-1.184,-5.109,-4.749,-1.264,-2.058,-2.024,-1.174,1.689,-1.429,324.4,330.9,-5.266,-7.641,1.789,-1.601,8.318,4.355,-4.414,-7.875,22,4.487,4.889,5.16,5.218,1.204,1.755,1.293,1.543,22,4.353,5.156,60,205.516387782,norm,0,82,82,82,4356.577,4356.589,4356.60931,4356.609,4356.611,4356.614,up,1,2.19428505021,7.80571494979,001,022,1920_1200,Intel(R) Core(TM) i5-3570 CPU @ 3.40GHz,orientation_search,LEPPC096,Intel(R) HD Graphics 2500,2019_Jan_02_1538,testMonitor,
457.5,441.3,452.1,450.9,36,20,452.2,439.6,455.1,447.2,7.831,8.497,7.716,7.529,8.452,7.675,7.711,4.371,-5.061,-7.529,1.988,-1.291,8.006,4.411,-4.615,-8.023,456.4,459.6,-8.139,448.0,444.2,450.5,450.6,448.4,36,446.6,2,5,probe,5,0,119,norm,36,-4.693,up,norm,449.569452228,,451.7,443.4,453.1,5,457.3,446.1,453.7,10,6,7.951,4.609,1.893,-1.368,-4.463,-7.948,448.2,1,330.6,-7.98,-7.848,0,-7.899,-7.675,-5.042,-4.644,-4.489,-4.42,4.506,8.105,17,-2.075,1.425,5.085,8.279,-7.597,-8.036,-2.079,1.998,442.2,439.6,447.6,454.9,442.6,448.8,458.2,451.1,451.8,451.3,0,norm,2.099,1.825,-1.366,-1.994,-5.202,-5.263,-1.842,-1.458,-1.283,-1.527,1.205,-1.26,446.2,445.5,-5.037,-7.787,1.73,-1.186,7.59,4.918,-4.465,-8.373,23,4.577,4.923,5.039,4.468,1.119,1.155,1.242,1.462,23,4.904,4.672,0,327.853713435,norm,0,83,83,83,4358.825,4358.834,4358.85344065,4358.854,4358.855,4358.858,up,1,1.70260980594,8.29739019406,001,022,1920_1200,Intel(R) Core(TM) i5-3570 CPU @ 3.40GHz,orientation_search,LEPPC096,Intel(R) HD Graphics 2500,2019_Jan_02_1538,testMonitor,
169.3,,151.7,171.3,36,-30,158.8,143.4,141.3,155.9,8.111,8.382,7.5,8.42,7.939,8.496,7.584,5.195,-4.301,-7.544,1.614,-1.809,8.172,4.614,-5.23,-8.486,159.0,148.4,-7.667,165.9,155.4,160.0,143.6,148.9,36,142.4,3,5,prime,10,0,116,norm,36,-5.19,up,norm,153.147967913,160.4,152.8,163.2,160.3,5,153.4,156.8,148.6,10,5,7.913,5.22,1.287,-1.452,-4.872,-7.557,152.8,5,269.1,-7.583,-8.231,-30,-8.472,-7.534,-5.213,-4.97,-4.902,-4.329,4.653,7.769,23,-1.371,1.687,4.885,7.639,-7.535,-7.744,-1.289,2.072,166.0,147.6,151.2,163.5,139.5,155.1,150.1,149.9,149.1,142.1,0,norm,1.243,1.835,-1.81,-1.329,-4.471,-5.18,-1.826,-1.83,-1.464,-1.812,1.756,-1.139,173.1,133.1,-4.937,-7.75,1.24,-1.329,8.0,5.207,-4.968,-7.696,24,4.889,4.606,4.985,4.362,1.581,1.924,1.755,1.627,24,5.116,4.547,20,327.853713435,norm,0,84,84,84,4360.601,4360.611,4360.61816752,4360.618,4360.62,4360.623,up,1,5.74208198884,4.25791801116,001,022,1920_1200,Intel(R) Core(TM) i5-3570 CPU @ 3.40GHz,orientation_search,LEPPC096,Intel(R) HD Graphics 2500,2019_Jan_02_1538,testMonitor,
158.4,155.1,146.7,149.5,36,-30,142.3,154.8,173.1,148.1,8.208,8.213,7.869,7.876,7.972,8.474,7.982,4.413,-4.433,-8.206,1.84,-1.872,7.598,4.541,-4.724,-7.674,165.4,163.0,-8.177,134.8,154.8,154.7,159.8,145.3,36,161.6,0,5,prime,10,0,106,norm,36,-5.008,down,norm,153.147967913,145.9,149.0,160.9,159.8,0,148.5,149.5,157.8,10,5,8.165,4.444,1.352,-1.901,-5.266,-7.933,156.6,5,259.1,-7.787,-8.379,-30,-8.352,-7.516,-4.515,-5.135,-5.183,-5.021,4.566,7.842,0,-1.645,1.778,4.356,7.957,-8.323,-7.98,-1.558,1.532,164.2,133.1,168.4,139.8,168.8,,139.2,147.4,138.1,153.0,1,norm,1.304,1.167,-1.213,-1.858,-5.213,-4.666,-2.004,-1.576,-1.244,-1.166,1.68,-1.39,144.0,146.8,-5.037,-7.968,2.083,-1.315,8.003,4.856,-4.642,-7.536,24,5.132,4.466,4.873,4.993,1.822,1.364,1.456,1.369,24,4.666,4.954,20,327.853713435,norm,0,85,85,85,4366.405,4366.423,4366.43702507,4366.437,4366.439,4366.442,down,1,0.978795553126,9.02120444687,001,022,1920_1200,Intel(R) Core(TM) i5-3570 CPU @ 3.40GHz,orientation_search,LEPPC096,Intel(R) HD Graphics 2500,2019_Jan_02_1538,testMonitor,
154.2,151.8,170.0,143.9,36,-30,154.0,159.3,167.3,152.5,8.426,7.909,8.17,8.401,7.954,7.769,8.481,4.597,-5.152,-7.999,1.992,-1.747,8.4,4.945,-5.043,-7.809,143.6,169.6,-7.565,163.0,150.6,134.1,160.2,155.6,36,165.2,0,5,prime,10,0,73,norm,36,-4.882,down,norm,153.147967913,151.1,160.4,133.1,153.7,2,152.3,170.4,167.2,10,5,7.846,4.633,1.531,-1.796,-5.299,-7.996,173.1,5,226.1,-8.414,-8.093,-30,-8.208,-7.786,-5.101,-4.561,-5.02,-4.984,5.245,8.143,2,-1.424,1.908,4.326,8.081,-8.365,-8.297,-1.324,1.153,155.5,149.4,169.0,,159.9,142.0,163.3,153.8,154.6,144.0,2,norm,1.351,1.405,-1.979,-1.107,-4.358,-5.054,-1.438,-1.576,-2.01,-1.934,1.58,-1.175,141.7,155.3,-4.981,-8.075,1.246,-1.949,7.906,4.613,-5.069,-8.412,24,5.188,5.168,4.977,4.895,1.221,1.441,2.06,1.226,24,5.096,5.193,20,327.853713435,norm,0,86,86,86,4367.454,4367.467,4367.48648763,4367.487,4367.488,4367.491,down,1,1.33415477121,8.66584522879,001,022,1920_1200,Intel(R) Core(TM) i5-3570 CPU @ 3.40GHz,orientation_search,LEPPC096,Intel(R) HD Graphics 2500,2019_Jan_02_1538,testMonitor,
154.6,147.9,141.0,163.7,36,-30,153.9,133.1,156.5,142.9,7.803,8.475,7.882,7.842,7.552,7.615,7.661,4.763,-4.912,-8.094,2.068,-1.588,8.085,4.369,-5.236,-7.964,136.7,160.3,-7.709,155.5,142.9,138.9,160.5,150.1,36,153.7,2,5,prime,10,0,66,norm,36,-5.223,up,norm,153.147967913,153.0,,142.8,142.5,4,155.3,153.1,145.5,10,5,7.653,4.629,1.908,-1.226,-4.404,-8.364,147.7,5,219.1,-7.645,-7.579,-30,-8.114,-8.126,-4.842,-4.392,-4.503,-5.126,4.481,7.908,16,-1.746,1.891,4.414,8.108,-7.881,-7.875,-1.399,1.539,146.0,168.2,140.5,157.2,162.8,163.3,143.8,148.2,173.1,152.2,3,norm,1.363,1.219,-2.098,-1.399,-4.961,-4.793,-1.739,-1.953,-2.03,-1.416,2.019,-1.17,143.4,152.1,-4.824,-7.769,1.294,-1.901,7.917,4.306,-4.391,-8.156,24,4.832,4.6,5.016,4.614,1.649,1.927,1.715,1.907,24,4.984,4.825,20,327.853713435,norm,0,87,87,87,4368.858,4368.871,4368.89042799,4368.891,4368.892,4368.895,up,1,0.842387764158,9.15761223584,001,022,1920_1200,Intel(R) Core(TM) i5-3570 CPU @ 3.40GHz,orientation_search,LEPPC096,Intel(R) HD Graphics 2500,2019_Jan_02_1538,testMonitor,
172.0,147.1,165.6,140.0,36,-30,133.1,146.1,160.7,142.5,8.16,7.608,8.136,8.044,7.752,8.109,7.57,4.568,-4.644,-8.26,1.126,-1.802,8.151,4.869,-4.653,-7.908,145.7,153.5,-8.054,157.0,135.9,,148.0,163.4,36,136.5,5,5,prime,10,0,82,norm,36,-5.19,up,norm,153.147967913,168.0,159.2,161.5,168.7,3,151.7,157.1,144.7,10,5,7.96,4.607,1.217,-1.554,-4.627,-8.167,166.3,5,235.1,-7.655,-8.397,-30,-7.955,-8.157,-4.439,-4.7,-4.603,-4.995,4.54,7.745,33,-1.409,1.531,4.623,8.203,-8.294,-7.797,-1.429,1.368,158.5,144.4,159.1,168.0,158.3,143.9,161.9,135.8,142.6,149.7,4,norm,1.411,1.576,-1.938,-1.642,-5.218,-4.34,-1.597,-1.612,-1.412,-1.192,1.861,-2.021,173.1,148.1,-4.905,-7.933,1.328,-1.729,7.961,4.644,-4.656,-7.893,24,5.285,4.862,4.391,4.415,2.042,1.238,1.57,1.836,24,4.734,4.759,20,327.853713435,norm,0,88,88,88,4369.753,4369.764,4369.76947046,4369.77,4369.771,4369.774,up,1,1.03029711219,8.96970288781,001,022,1920_1200,Intel(R) Core(TM) i5-3570 CPU @ 3.40GHz,orientation_search,LEPPC096,Intel(R) HD Graphics 2500,2019_Jan_02_1538,testMonitor,
235.8,217.1,219.4,230.3,36,60,228.7,221.9,222.8,222.2,8.342,8.306,8.175,7.749,8.06,8.195,8.065,4.323,-5.224,-8.137,1.772,-2.039,8.424,4.616,-4.927,-7.715,229.1,226.4,-7.669,225.5,223.7,220.8,221.0,219.7,36,222.8,1,5,probe,5,0,100,norm,36,-4.935,down,norm,227.052260156,222.0,228.2,232.6,226.2,0,228.1,219.3,221.9,10,5,7.798,4.623,1.765,-1.236,-4.937,-8.432,229.5,2,127.1,-7.889,-8.481,-30,-7.623,-8.054,-4.88,-4.842,-4.958,-4.77,4.386,7.579,6,-1.304,1.771,4.799,8.47,-7.582,-7.822,-1.786,1.988,237.1,229.5,232.8,232.8,227.2,226.5,232.3,,225.3,234.6,0,norm,1.225,1.454,-1.868,-1.343,-4.78,-4.872,-1.744,-1.851,-1.193,-1.695,1.398,-1.162,220.9,218.8,-5.105,-7.959,1.439,-1.477,7.822,4.333,-4.389,-7.771,25,4.315,4.506,4.735,4.503,2.066,1.346,1.194,1.529,25,4.372,4.568,-30,153.147967913,norm,0,89,89,89,4370.821,4370.831,4370.84959899,4370.85,4370.852,4370.854,down,1,0.72272547534,9.27727452466,001,022,1920_1200,Intel(R) Core(TM) i5-3570 CPU @ 3.40GHz,orientation_search,LEPPC096,Intel(R) HD Graphics 2500,2019_Jan_02_1538,testMonitor,
209.6,201.4,195.1,204.6,36,60,212.7,202.7,201.6,196.1,8.065,7.503,8.061,7.821,7.818,7.847,7.625,5.074,-5.183,-8.482,1.749,-2.035,7.759,4.971,-4.731,-7.589,208.7,203.6,-8.453,206.3,,203.4,201.9,199.6,36,208.2,5,5,probe,5,0,78,norm,36,-4.751,down,norm,205.052260156,201.7,201.4,200.5,199.9,0,205.3,200.6,205.4,10,5,8.053,5.24,1.401,-1.621,-4.404,-7.595,201.3,2,127.1,-8.409,-8.446,-30,-7.773,-7.808,-5.068,-4.535,-5.178,-4.732,4.7,8.195,30,-1.256,1.213,5.09,7.849,-8.121,-8.069,-1.235,1.428,198.3,211.2,206.8,204.4,204.9,200.2,215.1,201.1,198.5,206.5,1,norm,1.812,2.047,-1.368,-1.757,-4.503,-4.965,-1.653,-1.241,-1.701,-1.351,1.794,-1.548,212.4,208.6,-4.943,-8.031,1.814,-1.311,7.98,4.793,-4.759,-7.698,25,4.381,4.661,4.954,4.611,1.154,1.763,1.404,1.947,25,4.813,4.721,-30,153.147967913,norm,0,90,90,90,4371.615,4371.625,4371.63067473,4371.631,4371.633,4371.635,down,1,0.738915267335,9.26108473267,001,022,1920_1200,Intel(R) Core(TM) i5-3570 CPU @ 3.40GHz,orientation_search,LEPPC096,Intel(R) HD Graphics 2500,2019_Jan_02_1538,testMonitor,
63.3,57.9,55.1,67.1,36,60,57.4,66.4,79.2,70.3,8.179,7.874,7.833,7.574,7.613,8.096,8.291,4.561,-4.593,-8.252,1.534,-1.905,8.15,4.72,-4.518,-8.26,71.2,53.9,-7.867,57.6,,57.2,66.1,53.2,36,75.1,5,5,prime,10,0,63,norm,36,-4.6,down,norm,68.20392436,53.8,76.5,88.2,60.7,0,80.9,85.1,69.1,10,5,8.247,4.754,1.759,-1.878,-4.534,-7.989,64.9,5,131.2,-8.485,-7.972,60,-8.14,-8.006,-4.807,-4.605,-5.207,-4.419,4.493,8.459,30,-1.168,1.285,5.163,7.762,-8.362,-8.156,-2.022,1.38,62.1,65.7,73.0,61.0,48.2,72.4,58.5,57.7,54.0,65.8,0,norm,1.955,2.043,-1.742,-1.382,-5.136,-4.539,-1.731,-1.477,-2.012,-1.987,1.549,-1.411,58.6,68.7,-4.886,-7.511,1.482,-1.938,7.714,5.261,-4.526,-8.45,26,4.504,5.192,4.481,4.329,1.898,1.548,2.052,1.276,26,4.446,4.691,60,153.147967913,norm,0,91,91,91,4372.394,4372.404,4372.41048933,4372.411,4372.412,4372.415,down,1,0.842465641781,9.15753435822,001,022,1920_1200,Intel(R) Core(TM) i5-3570 CPU @ 3.40GHz,orientation_search,LEPPC096,Intel(R) HD Graphics 2500,2019_Jan_02_1538,testMonitor,
88.2,57.8,78.3,62.6,36,60,52.2,77.8,64.9,78.0,7.504,7.907,7.575,7.587,7.981,7.669,7.67,4.831,-4.994,-8.07,1.891,-1.668,7.588,5.008,-4.633,-7.605,74.9,,-7.58,67.4,59.7,55.7,64.0,52.1,36,56.6,5,5,prime,10,0,108,norm,36,-4.389,up,norm,68.20392436,82.8,67.7,63.0,78.0,4,80.9,69.7,61.8,10,5,8.404,4.749,1.769,-1.981,-5.05,-8.205,67.4,5,176.2,-7.585,-7.603,60,-7.906,-7.679,-5.065,-5.215,-5.044,-4.802,4.821,7.779,34,-1.192,1.195,5.186,7.623,-7.998,-8.096,-1.489,1.536,60.3,68.3,78.3,78.4,48.2,68.8,56.8,82.9,71.4,82.1,1,norm,1.402,1.426,-2.078,-1.473,-4.443,-5.226,-1.883,-1.818,-1.632,-1.902,1.286,-1.538,73.5,87.4,-4.715,-7.88,1.313,-1.634,8.027,4.763,-4.891,-8.032,26,4.301,4.75,4.665,4.66,1.839,1.251,2.046,1.693,26,4.953,5.197,60,153.147967913,norm,0,92,92,92,4373.299,4373.308,4373.31728491,4373.317,4373.319,4373.322,up,1,3.51321233123,6.48678766877,001,022,1920_1200,Intel(R) Core(TM) i5-3570 CPU @ 3.40GHz,orientation_search,LEPPC096,Intel(R) HD Graphics 2500,2019_Jan_02_1538,testMonitor,
54.0,57.1,69.7,69.7,36,60,48.2,77.9,59.0,69.6,7.696,7.84,8.026,8.465,8.279,7.7,7.832,5.24,-4.317,-7.557,1.244,-1.918,8.24,4.943,-5.222,-7.67,74.1,68.9,-8.443,75.5,54.1,86.1,77.7,57.6,36,70.5,2,5,prime,10,0,103,norm,36,-4.539,down,norm,68.20392436,75.3,63.3,67.9,77.4,0,62.3,69.8,,10,5,7.522,4.598,1.644,-1.836,-4.917,-8.489,67.2,5,171.2,-8.236,-8.309,60,-7.953,-8.455,-4.327,-4.582,-4.678,-4.618,4.792,7.549,12,-1.576,1.334,5.228,8.047,-8.34,-8.256,-1.951,2.021,62.5,74.8,88.2,70.0,62.0,74.1,69.0,67.3,73.5,81.2,2,norm,1.329,1.556,-1.577,-1.833,-4.771,-4.787,-1.316,-1.979,-1.261,-1.394,1.702,-1.7,62.0,76.2,-4.822,-7.506,1.462,-1.315,8.458,5.243,-4.781,-8.266,26,4.843,5.131,4.548,4.906,1.181,1.107,1.636,2.063,26,4.935,4.388,60,153.147967913,norm,0,93,93,93,4376.868,4376.878,4376.88665395,4376.887,4376.889,4376.891,down,1,0.826588265834,9.17341173417,001,022,1920_1200,Intel(R) Core(TM) i5-3570 CPU @ 3.40GHz,orientation_search,LEPPC096,Intel(R) HD Graphics 2500,2019_Jan_02_1538,testMonitor,
70.2,87.0,70.5,48.2,36,60,,67.8,75.7,57.3,8.323,7.946,7.725,8.418,8.12,7.859,8.086,4.311,-4.487,-7.542,1.784,-1.781,8.438,4.309,-4.39,-8.014,64.8,56.7,-7.534,69.2,71.2,64.3,65.0,62.4,36,64.3,4,5,prime,10,0,67,norm,36,-5.253,down,norm,68.20392436,64.9,79.6,88.2,78.7,0,71.6,64.5,72.1,10,5,7.563,4.651,1.575,-2.077,-5.245,-7.503,64.1,5,135.2,-8.014,-8.073,60,-8.464,-7.573,-4.738,-4.324,-4.966,-4.583,4.804,7.934,24,-1.128,1.163,4.582,7.512,-7.585,-8.37,-1.308,1.111,61.5,74.3,84.7,63.2,77.6,78.2,68.6,87.4,76.7,76.2,3,norm,1.419,1.991,-1.389,-1.206,-4.819,-4.391,-1.869,-1.456,-1.528,-1.609,1.803,-1.656,64.2,69.6,-4.778,-8.069,1.479,-1.465,8.174,5.069,-5.033,-7.704,26,5.245,4.709,4.42,4.726,2.036,1.59,1.385,1.191,26,4.574,4.981,60,153.147967913,norm,0,94,94,94,4377.761,4377.77,4377.77685888,4377.777,4377.779,4377.781,up,0,1.466185717,-10,001,022,1920_1200,Intel(R) Core(TM) i5-3570 CPU @ 3.40GHz,orientation_search,LEPPC096,Intel(R) HD Graphics 2500,2019_Jan_02_1538,testMonitor,
72.0,60.2,70.1,59.0,36,60,55.8,63.1,54.8,52.6,7.654,8.413,7.593,7.871,8.002,7.855,8.159,4.628,-4.907,-7.568,2.064,-1.343,7.863,5.281,-5.165,-8.007,57.0,50.1,-8.452,59.6,64.9,71.1,66.4,68.0,36,71.4,0,5,prime,10,0,112,norm,36,-4.87,up,norm,68.20392436,61.5,78.2,88.2,86.9,5,59.6,60.4,77.0,10,5,8.348,5.283,1.342,-2.06,-4.779,-8.174,57.9,5,180.2,-7.66,-7.574,60,-7.99,-7.508,-4.591,-4.355,-4.344,-4.523,4.999,7.837,5,-1.99,1.395,4.584,7.863,-7.779,-7.802,-2.091,1.507,53.7,82.6,66.2,69.9,64.8,71.3,69.9,81.1,,48.2,4,norm,1.645,1.666,-1.689,-1.365,-4.649,-4.452,-1.704,-1.592,-1.348,-1.189,1.372,-1.806,69.7,60.0,-4.338,-8.234,1.151,-1.178,7.602,5.008,-4.629,-7.573,26,5.044,5.149,4.508,4.878,1.371,1.574,1.522,1.691,26,5.223,5.19,60,153.147967913,norm,0,95,95,95,4380.323,4380.333,4380.34990205,4380.35,4380.352,4380.354,up,1,2.43115286049,7.56884713951,001,022,1920_1200,Intel(R) Core(TM) i5-3570 CPU @ 3.40GHz,orientation_search,LEPPC096,Intel(R) HD Graphics 2500,2019_Jan_02_1538,testMonitor,
