d_ori_22,d_ori_23,d_ori_20,d_ori_21,set_size,ctpd,d_ori_24,d_ori_25,d_ori_28,d_ori_29,stim_pos_x_30,stim_pos_x_31,stim_pos_x_32,stim_pos_x_33,stim_pos_x_34,stim_pos_x_35,stim_pos_y_11,stim_pos_y_10,stim_pos_y_13,stim_pos_y_12,stim_pos_y_15,stim_pos_y_14,stim_pos_y_17,stim_pos_y_16,stim_pos_y_19,stim_pos_y_18,d_ori_35,d_ori_34,stim_pos_x_3,d_ori_31,d_ori_30,d_ori_33,d_ori_32,d_ori_26,test_set_size,d_ori_27,targetCol,dsd_test,seq_type,dsd,blockRepN,targetDist,dtype_test,prime_set_size,stim_pos_y_25,correctResponse,dtype,distrMean,d_ori_17,d_ori_16,stim_pos_y_3,d_ori_14,targetRow,d_ori_11,d_ori_13,d_ori_12,dsd_prime,streak_length_prime,stim_pos_y_35,stim_pos_y_34,stim_pos_y_33,stim_pos_y_32,stim_pos_y_31,stim_pos_y_30,d_ori_10,nextProbe,targetOri,stim_pos_x_1,stim_pos_x_2,ctpd_prime,stim_pos_x_4,stim_pos_x_5,stim_pos_x_6,stim_pos_x_7,stim_pos_x_8,stim_pos_x_9,stim_pos_y_28,stim_pos_y_29,targetPos,stim_pos_y_20,stim_pos_y_21,stim_pos_y_22,stim_pos_y_23,stim_pos_y_24,stim_pos_x_0,stim_pos_y_26,stim_pos_y_27,d_ori_9,d_ori_8,d_ori_3,d_ori_2,d_ori_1,d_ori_0,d_ori_7,d_ori_6,d_ori_5,d_ori_4,trialN,dtype_prime,stim_pos_x_18,stim_pos_x_19,stim_pos_x_12,stim_pos_x_13,stim_pos_x_10,stim_pos_x_11,stim_pos_x_16,stim_pos_x_17,stim_pos_x_14,stim_pos_x_15,stim_pos_y_9,stim_pos_y_8,d_ori_19,d_ori_18,stim_pos_y_1,stim_pos_y_0,d_ori_15,stim_pos_y_2,stim_pos_y_5,stim_pos_y_4,stim_pos_y_7,stim_pos_y_6,totBlockN,stim_pos_x_27,stim_pos_x_26,stim_pos_x_25,stim_pos_x_24,stim_pos_x_23,stim_pos_x_22,stim_pos_x_21,stim_pos_x_20,blockN,stim_pos_x_29,stim_pos_x_28,prevDistrCTPD,prevDistrMean,prevDistrType,trials.thisRepN,trials.thisTrialN,trials.thisN,trials.thisIndex,timeStart,timeBeforeDraw,timeDraw,timeAfterSaving,timeAfterWritingToTemp,timeAfterPreparingNext,answer,correct,rt,trialScore,session,participant,resolution,cpu_info,expName,pc_name,graphic_card,date,monitorName,
114.0,115.1,124.0,113.5,36,-80,112.4,100.3,115.1,116.8,8.466,8.303,8.178,7.904,8.488,7.81,7.535,5.291,-4.878,-7.721,1.27,-1.992,7.562,4.361,-4.693,-8.485,107.3,101.5,-8.0,115.4,135.9,122.2,95.9,126.8,36,122.5,3,5,prime,10,0,82,norm,36,-4.535,down,norm,115.91205369,104.8,123.3,2.097,121.2,0,126.3,111.0,114.4,10,6,7.719,4.601,2.036,-2.073,-4.42,-8.279,104.5,6,197.9,-7.652,-7.993,-80,-7.983,-8.015,-5.238,-5.129,-4.514,-4.496,4.925,7.856,18,-1.989,1.543,4.84,7.502,-7.599,-8.335,-1.628,1.445,115.9,114.1,124.6,113.3,100.7,112.9,110.5,102.4,115.5,127.1,0,norm,1.378,1.237,-1.81,-1.934,-4.391,-5.059,-1.909,-1.508,-1.623,-1.681,1.105,-1.366,116.5,,-4.505,-7.631,108.7,-1.375,7.956,4.389,-5.294,-7.959,0,5.264,4.621,4.926,4.493,1.564,1.646,1.718,1.669,0,4.887,4.834,,,,0,0,0,0,1768.23,1768.256,1768.27819912,1768.279,1768.279,1768.284,down,1,3.9193864287,6.0806135713,001,302,1280_800,Intel(R) Core(TM)2 Duo CPU     P8600  @ 2.40GHz,orientation_search,GRVLAPTOP1,Quadro NVS 160M/PCIe/SSE2,2018_nov_08_1318,testMonitor,
121.8,95.9,126.4,118.5,36,-80,118.7,113.0,119.2,130.3,7.636,8.31,7.999,8.337,7.706,8.482,8.326,4.815,-5.049,-8.14,1.916,-1.95,8.362,5.016,-5.266,-8.153,110.6,118.5,-7.731,,122.1,109.0,117.7,125.6,36,99.4,5,5,prime,10,0,95,norm,36,-4.471,down,norm,115.91205369,115.5,107.6,1.868,105.6,1,116.8,127.8,133.0,10,6,7.922,4.315,1.794,-1.915,-4.49,-7.696,116.5,6,210.9,-8.106,-8.323,-80,-7.522,-8.128,-4.305,-5.087,-5.036,-5.254,5.037,8.117,31,-1.924,1.174,5.227,7.595,-7.535,-7.854,-1.846,1.171,127.4,123.2,133.9,118.5,118.6,109.8,135.9,114.3,131.6,114.9,1,norm,1.987,1.816,-1.237,-1.637,-4.822,-4.72,-1.267,-1.835,-1.328,-1.649,1.293,-1.253,123.4,109.4,-4.356,-7.636,110.9,-1.483,7.593,4.527,-4.697,-8.435,0,4.79,4.857,5.236,4.668,1.276,1.906,2.038,1.771,0,5.19,4.587,,,,0,1,1,1,1772.254,1772.262,1772.26941181,1772.27,1772.272,1772.277,down,1,2.13107981928,7.86892018072,001,302,1280_800,Intel(R) Core(TM)2 Duo CPU     P8600  @ 2.40GHz,orientation_search,GRVLAPTOP1,Quadro NVS 160M/PCIe/SSE2,2018_nov_08_1318,testMonitor,
125.8,112.8,115.2,116.8,36,-80,128.2,120.2,114.7,126.0,7.931,7.533,8.187,8.331,7.815,7.903,7.908,5.164,-4.305,-7.965,1.347,-1.138,8.466,4.633,-4.779,-7.748,122.4,105.4,-7.59,118.5,120.7,122.3,101.5,121.2,36,116.5,1,5,prime,10,0,91,norm,36,-5.281,down,norm,115.91205369,96.2,114.6,1.673,115.7,2,114.9,121.9,116.4,10,6,7.797,5.075,1.708,-1.133,-4.461,-8.131,106.9,6,206.9,-7.643,-8.355,-80,-7.594,-8.17,-4.606,-4.447,-4.752,-4.619,4.734,7.957,8,-1.705,1.721,5.177,7.638,-8.098,-7.608,-1.444,1.518,124.7,,125.8,122.1,121.5,127.8,115.7,129.2,104.9,97.8,2,norm,1.959,1.368,-1.821,-1.306,-4.763,-5.004,-1.56,-1.455,-1.958,-1.362,1.626,-1.319,95.9,135.9,-4.601,-8.406,111.4,-1.692,7.837,5.014,-4.346,-7.629,0,5.274,4.819,4.909,4.418,1.258,1.935,1.164,1.685,0,5.088,4.349,,,,0,2,2,2,1774.424,1774.43,1774.44030225,1774.441,1774.444,1774.449,down,1,1.84566402857,8.15433597143,001,302,1280_800,Intel(R) Core(TM)2 Duo CPU     P8600  @ 2.40GHz,orientation_search,GRVLAPTOP1,Quadro NVS 160M/PCIe/SSE2,2018_nov_08_1318,testMonitor,
118.5,124.9,102.3,110.8,36,-80,123.4,124.2,132.4,104.3,8.114,8.231,7.911,7.829,8.099,7.736,7.84,4.659,-5.29,-7.875,1.261,-1.101,7.546,5.231,-4.943,-8.244,112.5,118.1,-8.253,132.3,135.9,114.0,111.3,121.4,36,119.8,2,5,prime,10,0,104,norm,36,-4.969,down,norm,115.91205369,123.7,110.6,1.274,109.6,0,125.2,116.5,,10,6,7.548,4.517,1.876,-1.736,-5.119,-7.524,103.5,6,219.9,-7.544,-8.384,-80,-8.387,-8.452,-4.892,-4.36,-5.287,-4.78,4.765,8.167,12,-1.476,1.97,4.479,8.124,-8.205,-7.829,-1.987,1.964,106.2,108.8,128.2,107.2,95.9,135.6,109.7,118.8,117.1,111.8,3,norm,1.988,1.888,-1.975,-1.246,-4.728,-4.965,-1.435,-1.78,-1.662,-1.268,1.616,-1.45,123.2,125.8,-4.514,-7.608,123.3,-1.434,8.055,4.311,-4.929,-8.126,0,5.295,4.437,5.197,5.077,1.133,1.406,1.432,1.176,0,5.273,4.818,,,,0,3,3,3,1776.312,1776.319,1776.32737961,1776.328,1776.331,1776.336,down,1,1.9291930131,8.0708069869,001,302,1280_800,Intel(R) Core(TM)2 Duo CPU     P8600  @ 2.40GHz,orientation_search,GRVLAPTOP1,Quadro NVS 160M/PCIe/SSE2,2018_nov_08_1318,testMonitor,
,117.3,126.0,115.5,36,-80,101.8,123.0,101.8,125.5,7.893,8.229,7.62,7.856,7.756,7.942,7.551,5.032,-4.391,-7.608,1.867,-1.816,7.899,4.673,-4.336,-8.073,119.9,124.4,-8.151,106.5,123.9,127.6,107.1,126.9,36,101.0,3,5,prime,10,0,86,norm,36,-4.408,up,norm,115.91205369,122.4,114.5,1.291,95.9,4,135.9,116.6,112.7,10,6,8.19,4.505,1.819,-1.477,-5.129,-7.558,100.8,6,201.9,-8.383,-8.071,-80,-7.982,-7.939,-4.312,-4.412,-4.436,-4.45,5.135,7.588,22,-2.062,1.782,4.605,7.7,-8.169,-7.985,-1.326,1.606,101.7,102.7,115.7,122.6,131.0,129.4,103.0,115.4,122.8,134.1,4,norm,1.739,1.302,-1.457,-1.592,-4.376,-4.618,-1.309,-1.649,-1.282,-1.605,1.834,-1.73,115.6,106.2,-4.649,-8.382,118.4,-1.885,8.489,4.782,-5.031,-8.02,0,5.014,4.319,4.747,4.977,1.77,1.51,2.046,1.959,0,5.098,5.075,,,,0,4,4,4,1778.282,1778.289,1778.2978418,1778.298,1778.302,1778.307,up,1,1.31134526046,8.68865473954,001,302,1280_800,Intel(R) Core(TM)2 Duo CPU     P8600  @ 2.40GHz,orientation_search,GRVLAPTOP1,Quadro NVS 160M/PCIe/SSE2,2018_nov_08_1318,testMonitor,
104.3,114.5,101.4,106.6,36,-80,114.9,113.2,107.7,105.2,7.868,8.464,7.621,7.584,7.9,8.237,7.855,5.17,-4.818,-7.583,1.67,-1.947,8.102,4.611,-4.987,-7.758,110.2,112.5,-7.817,106.5,108.3,121.8,105.7,131.4,36,127.6,1,5,prime,10,0,69,norm,36,-5.264,up,norm,115.91205369,130.9,116.8,2.043,135.4,5,,119.4,135.9,10,6,7.55,4.573,1.998,-1.6,-4.675,-8.165,121.1,6,184.9,-8.332,-7.811,-80,-8.397,-8.283,-4.368,-4.634,-4.523,-5.253,4.769,8.174,11,-1.237,1.797,4.342,7.742,-8.282,-8.1,-1.445,1.166,114.0,106.0,120.2,114.0,103.4,108.7,100.8,119.7,95.9,118.9,5,norm,2.003,1.333,-1.94,-1.737,-4.88,-4.74,-1.467,-1.479,-1.518,-1.946,2.09,-1.424,112.7,127.5,-4.904,-7.909,117.9,-1.687,8.489,4.809,-5.263,-7.533,0,4.587,4.836,4.586,4.585,1.385,1.852,1.422,1.864,0,4.703,4.942,,,,0,5,5,5,1779.635,1779.641,1779.65055333,1779.651,1779.655,1779.66,up,1,1.71155886923,8.28844113077,001,302,1280_800,Intel(R) Core(TM)2 Duo CPU     P8600  @ 2.40GHz,orientation_search,GRVLAPTOP1,Quadro NVS 160M/PCIe/SSE2,2018_nov_08_1318,testMonitor,
129.7,130.1,125.7,130.0,36,10,134.1,127.0,127.9,135.0,8.068,7.909,8.445,8.371,7.83,8.291,8.101,4.681,-5.051,-8.02,1.6,-1.973,7.534,4.686,-4.961,-7.75,128.6,133.3,-8.283,126.1,128.3,126.7,129.5,120.9,36,122.5,1,5,probe,5,0,95,norm,36,-4.432,down,norm,130.916688844,133.1,132.0,1.148,134.0,0,132.1,126.4,140.9,10,6,8.088,4.454,1.523,-1.201,-5.02,-8.269,129.6,1,35.9,-8.385,-7.938,-80,-8.068,-8.355,-4.529,-4.941,-4.95,-4.695,4.768,8.33,6,-1.235,1.541,4.359,7.663,-8.455,-7.877,-1.596,1.206,129.5,123.9,126.0,137.7,131.8,133.5,125.7,,133.6,124.1,0,norm,1.194,1.457,-2.057,-1.693,-4.493,-4.752,-1.914,-2.08,-1.568,-1.768,1.373,-1.819,124.6,136.0,-4.966,-7.555,135.4,-1.56,7.866,4.925,-5.077,-8.132,1,4.931,4.798,4.412,4.325,1.671,1.934,1.896,1.434,1,5.169,4.332,-80,115.91205369,norm,0,6,6,6,1781.388,1781.395,1781.40396994,1781.404,1781.408,1781.413,down,1,1.3277483095,8.6722516905,001,302,1280_800,Intel(R) Core(TM)2 Duo CPU     P8600  @ 2.40GHz,orientation_search,GRVLAPTOP1,Quadro NVS 160M/PCIe/SSE2,2018_nov_08_1318,testMonitor,
38.6,42.6,12.4,32.9,36,-40,27.9,11.0,16.2,42.0,8.126,7.947,8.479,8.355,7.91,7.916,7.94,4.929,-4.567,-7.564,1.191,-1.71,8.445,4.406,-4.621,-7.817,17.8,26.7,-7.817,35.5,17.3,42.0,41.2,,36,13.2,4,5,prime,10,0,112,norm,36,-4.988,down,norm,30.9778520267,34.4,11.1,1.378,20.8,2,36.4,18.1,27.2,10,5,8.323,4.555,1.645,-1.891,-4.591,-7.973,32.1,5,143.0,-8.241,-8.425,-40,-8.057,-7.623,-4.765,-4.503,-4.431,-4.849,5.146,8.091,26,-1.794,2.0,4.684,7.698,-8.096,-7.916,-1.28,1.698,35.7,47.8,40.2,30.5,30.5,46.1,20.5,20.5,51.0,28.1,0,norm,1.898,1.622,-2.026,-1.424,-4.964,-4.926,-1.792,-1.228,-1.828,-1.951,1.232,-1.203,17.6,11.4,-4.842,-7.663,45.5,-1.171,8.391,5.133,-5.237,-7.552,2,5.254,4.381,4.351,4.625,1.826,1.645,1.568,1.684,2,4.731,4.936,10,115.91205369,norm,0,7,7,7,1782.757,1782.763,1782.77335143,1782.774,1782.777,1782.782,up,0,1.76221545742,-10,001,302,1280_800,Intel(R) Core(TM)2 Duo CPU     P8600  @ 2.40GHz,orientation_search,GRVLAPTOP1,Quadro NVS 160M/PCIe/SSE2,2018_nov_08_1318,testMonitor,
23.6,26.5,42.4,18.6,36,-40,23.1,38.7,11.0,,7.846,8.289,8.11,8.43,7.545,7.907,8.29,4.307,-5.129,-7.508,1.346,-1.946,7.756,5.092,-4.855,-8.102,23.7,36.2,-7.517,21.5,34.8,41.3,21.2,37.8,36,23.7,4,5,prime,10,0,105,norm,36,-4.595,up,norm,30.9778520267,31.7,26.0,1.808,38.5,5,19.2,23.7,37.6,10,5,7.932,4.314,1.342,-1.124,-5.221,-8.229,28.4,5,136.0,-8.044,-7.676,-40,-7.825,-8.264,-4.452,-4.774,-4.844,-4.877,5.126,7.852,29,-1.652,1.628,4.449,8.478,-7.785,-8.177,-1.768,1.606,17.4,32.3,25.2,45.4,48.7,37.8,36.9,36.4,30.2,29.3,1,norm,1.282,1.742,-1.654,-1.11,-4.827,-4.767,-1.995,-1.645,-1.505,-1.587,1.335,-1.774,51.0,23.3,-5.092,-8.392,34.0,-1.897,7.526,5.231,-4.754,-8.121,2,4.57,4.372,5.282,4.354,1.753,1.688,1.858,1.972,2,4.853,4.332,10,115.91205369,norm,0,8,8,8,1785.597,1785.602,1785.61221882,1785.613,1785.616,1785.621,up,1,1.34457481204,8.65542518796,001,302,1280_800,Intel(R) Core(TM)2 Duo CPU     P8600  @ 2.40GHz,orientation_search,GRVLAPTOP1,Quadro NVS 160M/PCIe/SSE2,2018_nov_08_1318,testMonitor,
38.4,44.9,18.1,25.6,36,-40,37.1,31.0,13.4,36.8,7.94,8.065,7.829,7.667,7.94,8.209,8.168,4.426,-4.367,-8.478,1.239,-1.859,8.244,4.572,-4.882,-8.445,19.2,30.0,-7.949,17.2,51.0,15.2,26.7,32.0,36,25.3,1,5,prime,10,0,81,norm,36,-4.815,down,norm,30.9778520267,44.4,23.8,1.208,19.8,0,46.7,27.2,40.2,10,5,7.526,4.599,1.122,-1.822,-5.048,-8.406,29.6,5,112.0,-7.59,-7.775,-40,-8.031,-8.332,-4.911,-5.215,-4.962,-4.841,4.679,8.354,6,-2.094,1.115,5.287,7.554,-7.834,-7.821,-1.66,1.163,20.7,46.9,11.0,33.7,41.7,15.1,27.6,,22.8,24.8,2,norm,2.091,1.935,-1.543,-1.447,-4.458,-4.904,-1.103,-1.541,-1.759,-1.102,1.857,-1.355,37.9,33.5,-5.273,-7.928,24.1,-1.246,8.456,4.329,-4.796,-7.579,2,4.649,4.973,4.33,5.233,1.958,2.01,1.56,1.231,2,4.51,4.619,10,115.91205369,norm,0,9,9,9,1786.982,1786.989,1786.99820225,1786.998,1787.002,1787.007,down,1,1.57831473203,8.42168526797,001,302,1280_800,Intel(R) Core(TM)2 Duo CPU     P8600  @ 2.40GHz,orientation_search,GRVLAPTOP1,Quadro NVS 160M/PCIe/SSE2,2018_nov_08_1318,testMonitor,
27.1,31.2,37.9,,36,-40,37.1,35.4,27.8,30.8,7.834,8.017,7.73,8.016,7.855,7.54,7.515,4.662,-4.387,-8.264,1.921,-1.633,8.018,4.692,-4.519,-8.036,39.2,41.8,-8.085,25.0,31.7,22.0,26.7,32.9,36,21.3,3,5,prime,10,0,79,norm,36,-4.747,up,norm,30.9778520267,37.0,15.2,1.237,34.0,3,28.1,41.7,28.4,10,5,7.943,4.817,1.803,-1.81,-4.642,-7.605,45.9,5,110.0,-8.459,-8.398,-40,-7.848,-7.895,-4.698,-4.32,-4.837,-4.58,5.271,8.383,21,-1.173,1.523,5.191,8.49,-7.634,-8.318,-1.136,1.957,11.0,38.6,51.0,50.1,34.3,33.1,35.4,45.0,35.1,33.4,3,norm,1.154,1.142,-1.745,-1.641,-4.767,-4.472,-1.297,-1.784,-1.25,-1.463,2.042,-1.631,29.5,44.1,-4.508,-8.041,26.4,-1.892,7.604,5.025,-4.767,-7.832,2,4.426,4.363,4.704,4.803,1.951,1.904,1.841,1.438,2,4.93,4.507,10,115.91205369,norm,0,10,10,10,1788.602,1788.608,1788.61815358,1788.618,1788.622,1788.627,up,1,1.6453042214,8.3546957786,001,302,1280_800,Intel(R) Core(TM)2 Duo CPU     P8600  @ 2.40GHz,orientation_search,GRVLAPTOP1,Quadro NVS 160M/PCIe/SSE2,2018_nov_08_1318,testMonitor,
39.2,51.0,11.0,26.7,36,-40,41.7,15.4,46.2,19.5,8.296,7.714,8.408,8.325,8.118,8.464,8.035,4.526,-4.311,-8.48,1.671,-1.988,8.077,4.645,-4.913,-7.964,46.5,45.6,-7.694,26.2,31.2,33.1,34.5,21.1,36,38.3,3,5,prime,10,0,104,norm,36,-5.237,down,norm,30.9778520267,18.6,30.7,1.556,29.9,1,30.4,29.5,37.6,10,5,8.062,4.736,1.406,-1.287,-5.167,-7.767,37.7,5,135.0,-7.816,-8.312,-40,-8.313,-8.265,-4.671,-4.345,-4.532,-4.439,4.594,8.331,19,-1.178,1.424,4.841,8.114,-8.26,-7.745,-1.542,2.081,29.8,27.1,41.3,31.1,15.1,22.3,31.6,33.0,34.0,29.9,4,norm,1.905,1.476,-1.827,-1.843,-4.533,-4.7,-1.589,-1.352,-1.258,-1.349,1.296,-1.951,,26.1,-5.25,-7.841,17.4,-1.455,8.301,4.605,-4.767,-7.727,2,4.709,4.762,4.447,4.755,1.226,1.434,1.665,1.575,2,4.973,5.058,10,115.91205369,norm,0,11,11,11,1790.289,1790.295,1790.304792,1790.305,1790.309,1790.314,down,1,1.62841056512,8.37158943488,001,302,1280_800,Intel(R) Core(TM)2 Duo CPU     P8600  @ 2.40GHz,orientation_search,GRVLAPTOP1,Quadro NVS 160M/PCIe/SSE2,2018_nov_08_1318,testMonitor,
64.2,58.6,68.2,69.5,36,60,70.4,68.8,75.3,72.3,8.11,8.078,7.634,8.063,7.749,8.286,8.217,5.117,-4.378,-8.03,1.937,-1.972,7.541,4.773,-5.087,-8.35,65.0,71.8,-7.519,77.8,71.8,68.5,69.6,65.2,36,71.3,2,5,probe,5,0,76,norm,36,-4.623,up,norm,68.6074612625,65.0,,1.859,60.3,4,73.0,66.9,74.9,10,5,8.006,4.76,1.695,-1.355,-5.033,-7.685,66.4,2,-7.4,-7.802,-8.136,-40,-7.697,-7.551,-4.558,-4.983,-5.123,-4.563,4.884,8.198,16,-2.047,1.365,4.451,8.021,-8.077,-8.356,-1.361,1.128,73.3,75.9,72.6,78.6,60.9,68.9,70.3,63.8,66.2,63.9,0,norm,1.813,1.619,-1.919,-1.34,-4.666,-4.48,-1.78,-1.755,-1.443,-1.434,1.773,-1.7,61.7,67.3,-5.242,-7.734,74.0,-1.395,7.786,4.847,-4.725,-7.753,3,4.942,4.64,4.841,4.49,1.813,1.158,1.181,1.219,3,4.86,5.001,-40,30.9778520267,norm,0,12,12,12,1791.959,1791.965,1791.97916309,1791.98,1791.983,1791.988,up,1,1.42356771128,8.57643228872,001,302,1280_800,Intel(R) Core(TM)2 Duo CPU     P8600  @ 2.40GHz,orientation_search,GRVLAPTOP1,Quadro NVS 160M/PCIe/SSE2,2018_nov_08_1318,testMonitor,
75.0,73.9,76.7,74.5,36,60,76.8,68.3,74.4,71.9,7.812,7.859,8.253,8.262,8.234,8.189,8.233,4.566,-4.586,-7.574,1.594,-1.329,8.289,5.194,-4.561,-8.168,64.6,76.1,-8.361,,74.1,79.8,68.6,81.3,36,74.0,5,5,probe,5,0,82,norm,36,-4.597,down,norm,74.6074612625,71.8,75.4,1.828,72.3,1,69.8,69.5,66.4,10,5,7.954,4.355,1.656,-1.632,-5.276,-7.634,84.6,2,-7.4,-8.084,-7.784,-40,-7.949,-7.695,-5.218,-4.788,-4.528,-4.587,5.067,7.831,31,-1.863,1.313,4.994,8.327,-7.613,-8.4,-1.975,1.253,75.9,73.7,77.3,73.3,74.1,69.1,72.2,77.9,78.4,76.1,1,norm,2.088,1.642,-1.675,-1.46,-4.665,-4.962,-1.767,-2.051,-1.767,-1.81,1.59,-2.037,84.3,75.0,-4.675,-7.672,69.8,-1.274,7.885,4.87,-4.668,-8.225,3,4.742,4.495,4.988,4.317,1.836,1.27,1.502,2.019,3,4.832,4.631,-40,30.9778520267,norm,0,13,13,13,1793.429,1793.435,1793.44416552,1793.444,1793.448,1793.453,down,1,1.49501372802,8.50498627198,001,302,1280_800,Intel(R) Core(TM)2 Duo CPU     P8600  @ 2.40GHz,orientation_search,GRVLAPTOP1,Quadro NVS 160M/PCIe/SSE2,2018_nov_08_1318,testMonitor,
111.7,92.2,114.2,102.4,36,0,116.8,108.8,105.4,113.0,8.025,7.939,8.475,8.379,7.567,7.523,8.13,4.435,-5.189,-7.662,1.598,-1.502,7.866,4.561,-4.515,-7.891,99.7,94.0,-8.005,,118.0,97.8,94.9,118.1,36,113.1,5,5,prime,10,0,111,norm,36,-5.264,down,norm,108.382604391,123.3,96.5,1.419,110.2,1,106.3,111.5,98.3,10,5,8.096,4.433,1.78,-1.323,-4.316,-7.596,95.8,5,219.4,-7.606,-8.192,0,-8.468,-7.527,-4.654,-4.675,-4.726,-5.284,4.773,8.391,31,-2.099,1.853,4.601,7.75,-8.315,-8.432,-1.879,2.035,100.6,117.9,107.2,117.5,119.8,124.1,95.8,128.4,107.5,111.0,0,norm,1.974,1.571,-1.211,-1.571,-4.329,-4.539,-1.141,-2.016,-1.699,-1.776,1.532,-1.103,121.2,119.7,-5.099,-8.024,112.0,-1.9,8.488,4.405,-5.045,-7.683,4,4.313,4.973,4.608,5.152,1.932,1.113,1.617,1.444,4,4.37,4.738,60,30.9778520267,norm,0,14,14,14,1794.965,1794.971,1794.98059428,1794.981,1794.985,1794.989,up,0,1.96267235948,-10,001,302,1280_800,Intel(R) Core(TM)2 Duo CPU     P8600  @ 2.40GHz,orientation_search,GRVLAPTOP1,Quadro NVS 160M/PCIe/SSE2,2018_nov_08_1318,testMonitor,
,126.6,128.0,101.0,36,0,114.1,100.0,107.9,114.7,7.816,7.509,7.965,8.241,8.068,8.47,8.359,4.39,-4.776,-8.185,2.044,-1.168,7.618,5.123,-5.141,-7.539,127.6,123.4,-7.982,119.5,91.4,110.4,102.6,124.7,36,97.9,3,5,prime,10,0,92,norm,36,-4.391,up,norm,108.382604391,108.8,117.5,1.245,124.4,4,107.4,119.9,102.9,10,5,7.711,4.603,1.944,-1.813,-4.851,-7.635,115.4,5,200.4,-7.659,-7.871,0,-7.901,-8.32,-4.693,-4.647,-4.552,-4.605,4.882,8.27,22,-1.474,1.555,4.928,8.414,-8.498,-7.76,-2.066,1.431,128.4,109.6,112.2,111.9,121.0,93.2,88.4,110.9,117.7,104.6,1,norm,1.609,1.367,-1.235,-1.302,-4.752,-4.844,-1.687,-1.19,-1.466,-1.489,1.541,-1.903,96.3,105.6,-4.759,-7.856,114.0,-2.03,7.524,5.061,-5.001,-7.738,4,4.326,5.121,5.103,5.296,1.407,2.0,2.059,1.179,4,5.079,5.266,60,30.9778520267,norm,0,15,15,15,1798.004,1798.011,1798.01994252,1798.02,1798.024,1798.029,down,0,0.275256756115,-10,001,302,1280_800,Intel(R) Core(TM)2 Duo CPU     P8600  @ 2.40GHz,orientation_search,GRVLAPTOP1,Quadro NVS 160M/PCIe/SSE2,2018_nov_08_1318,testMonitor,
108.0,113.3,98.3,102.9,36,0,114.9,97.4,103.1,95.7,7.566,7.647,8.474,7.756,8.334,7.635,8.164,5.131,-4.912,-8.297,1.857,-1.47,8.401,4.975,-4.953,-8.334,111.3,108.7,-8.167,128.4,91.6,,110.2,109.2,36,90.3,5,5,prime,10,0,86,norm,36,-5.16,up,norm,108.382604391,108.0,103.4,1.201,89.6,3,117.6,126.4,99.6,10,5,8.451,4.958,1.15,-1.982,-4.782,-7.944,94.2,5,194.4,-7.59,-8.052,0,-8.347,-7.513,-4.761,-5.111,-4.967,-5.28,4.75,7.646,33,-1.759,1.632,4.978,7.812,-7.575,-7.621,-1.838,1.296,101.3,105.9,88.4,107.1,100.2,109.0,119.8,113.4,124.8,102.1,2,norm,1.714,1.571,-1.563,-2.04,-4.505,-4.315,-1.309,-1.973,-1.883,-1.643,1.785,-1.232,106.8,96.7,-4.779,-8.331,101.7,-2.007,7.98,5.132,-5.027,-8.425,4,4.311,5.03,4.392,4.319,1.799,1.651,2.005,2.086,4,4.818,4.93,60,30.9778520267,norm,0,16,16,16,1799.357,1799.363,1799.37259118,1799.373,1799.377,1799.381,down,0,2.59703180478,-10,001,302,1280_800,Intel(R) Core(TM)2 Duo CPU     P8600  @ 2.40GHz,orientation_search,GRVLAPTOP1,Quadro NVS 160M/PCIe/SSE2,2018_nov_08_1318,testMonitor,
119.7,96.0,88.4,103.8,36,0,105.5,109.8,95.4,96.5,7.611,7.844,7.91,7.857,8.049,8.239,8.054,4.564,-5.163,-7.813,1.876,-1.661,8.336,5.113,-5.159,-7.634,106.5,108.8,-8.095,109.3,104.9,117.7,112.2,115.3,36,104.4,2,5,prime,10,0,104,norm,36,-4.596,down,norm,108.382604391,97.9,114.4,1.468,111.2,0,118.6,100.7,,10,5,8.035,4.951,2.007,-1.292,-5.289,-8.281,90.4,5,212.4,-8.236,-7.519,0,-7.839,-7.986,-5.005,-5.077,-4.731,-4.402,4.302,7.981,12,-1.122,1.531,4.935,8.206,-7.619,-7.863,-2.036,1.453,105.5,105.6,109.1,101.9,126.1,106.3,98.9,113.2,103.7,107.1,3,norm,1.553,1.719,-1.899,-1.383,-4.94,-4.889,-1.559,-1.928,-2.028,-1.306,1.339,-1.463,128.4,100.5,-4.576,-7.909,122.2,-1.776,8.469,4.859,-4.386,-7.801,4,4.522,4.597,5.063,5.252,1.454,1.349,1.556,2.009,4,4.6,5.209,60,30.9778520267,norm,0,17,17,17,1803.031,1803.037,1803.04643531,1803.047,1803.051,1803.055,down,1,2.48006710241,7.51993289759,001,302,1280_800,Intel(R) Core(TM)2 Duo CPU     P8600  @ 2.40GHz,orientation_search,GRVLAPTOP1,Quadro NVS 160M/PCIe/SSE2,2018_nov_08_1318,testMonitor,
98.8,98.2,98.7,101.0,36,0,110.4,109.4,111.8,,7.95,8.373,8.329,7.957,8.018,8.155,8.13,5.035,-4.921,-8.496,2.092,-1.599,8.379,4.449,-4.633,-8.321,125.7,117.7,-8.397,102.0,112.8,104.5,94.2,115.8,36,113.0,4,5,prime,10,0,119,norm,36,-4.337,up,norm,108.382604391,112.0,96.7,1.226,96.9,5,111.9,98.6,89.4,10,5,7.594,4.916,1.506,-1.791,-4.371,-7.607,111.6,5,227.4,-8.23,-7.506,0,-8.481,-7.521,-4.673,-5.08,-5.267,-4.454,4.662,7.704,29,-1.176,1.837,4.411,7.782,-8.294,-8.113,-1.741,1.124,115.1,88.4,94.8,108.3,118.7,91.8,128.4,124.7,100.3,96.8,4,norm,1.149,2.046,-1.916,-1.847,-4.822,-5.017,-1.351,-1.166,-1.503,-2.034,1.462,-1.163,105.0,92.0,-4.908,-7.905,123.0,-1.725,7.903,4.467,-4.742,-8.051,4,5.157,5.299,4.9,4.888,1.127,1.153,1.614,1.816,4,5.155,4.427,60,30.9778520267,norm,0,18,18,18,1805.552,1805.559,1805.56801968,1805.568,1805.572,1805.577,up,1,2.04546308063,7.95453691937,001,302,1280_800,Intel(R) Core(TM)2 Duo CPU     P8600  @ 2.40GHz,orientation_search,GRVLAPTOP1,Quadro NVS 160M/PCIe/SSE2,2018_nov_08_1318,testMonitor,
224.8,224.1,229.8,219.8,36,40,223.8,227.9,226.7,222.9,8.151,7.863,8.477,8.202,8.142,7.937,8.425,4.521,-5.154,-7.806,1.39,-2.054,8.378,4.735,-4.713,-7.739,214.1,214.2,-7.559,222.5,225.5,217.9,223.0,223.7,36,216.8,3,5,probe,5,0,113,norm,36,-5.039,down,norm,219.838106468,224.6,218.1,1.582,222.7,0,214.7,212.5,216.6,10,5,7.866,4.946,1.315,-1.253,-5.092,-8.387,213.3,1,106.8,-7.938,-8.043,0,-7.935,-7.611,-4.328,-5.249,-4.945,-4.471,4.643,7.866,18,-1.426,1.527,4.712,8.005,-7.783,-8.337,-1.524,1.82,224.9,211.6,217.6,220.9,219.4,229.7,225.3,223.3,209.8,219.3,0,norm,1.286,1.953,-1.479,-1.66,-5.024,-5.225,-1.94,-1.463,-1.779,-1.577,1.251,-1.649,222.7,,-5.223,-8.477,216.9,-1.922,7.72,5.183,-4.66,-7.997,5,4.872,4.567,5.26,4.98,1.493,1.657,1.287,1.485,5,4.976,4.699,0,108.382604391,norm,0,19,19,19,1807.64,1807.646,1807.65536744,1807.656,1807.659,1807.665,down,1,1.59468955084,8.40531044916,001,302,1280_800,Intel(R) Core(TM)2 Duo CPU     P8600  @ 2.40GHz,orientation_search,GRVLAPTOP1,Quadro NVS 160M/PCIe/SSE2,2018_nov_08_1318,testMonitor,
-0.9,1.3,9.2,7.7,36,20,-1.1,7.0,12.6,17.9,8.449,8.039,7.913,8.498,7.592,8.193,8.369,4.537,-5.228,-8.165,1.685,-1.626,7.623,5.208,-5.05,-7.797,26.1,1.7,-8.326,26.7,9.1,8.6,9.2,29.2,36,-1.4,0,5,prime,10,0,110,norm,36,-4.313,down,norm,9.18882580247,0.2,18.7,1.165,4.2,2,22.7,20.1,5.4,10,5,8.078,4.63,2.1,-1.933,-5.118,-7.754,10.9,5,119.2,-8.166,-8.053,20,-7.793,-7.765,-4.534,-4.79,-4.427,-4.623,4.3,8.078,2,-1.493,2.093,4.425,7.869,-8.248,-8.078,-1.605,1.435,2.1,26.4,10.8,,19.3,10.8,4.5,0.7,13.3,0.9,0,norm,1.742,2.079,-1.439,-1.535,-4.498,-4.459,-1.465,-1.547,-1.717,-1.678,1.637,-1.889,-10.8,-9.2,-5.242,-7.696,6.0,-2.087,7.953,4.907,-4.869,-7.622,6,5.199,4.658,4.416,4.855,1.606,1.563,1.513,1.795,6,4.906,4.806,40,108.382604391,norm,0,20,20,20,1809.276,1809.282,1809.29194254,1809.292,1809.296,1809.301,up,0,1.74494710895,-10,001,302,1280_800,Intel(R) Core(TM)2 Duo CPU     P8600  @ 2.40GHz,orientation_search,GRVLAPTOP1,Quadro NVS 160M/PCIe/SSE2,2018_nov_08_1318,testMonitor,
0.1,3.0,,6.4,36,20,20.7,22.4,14.6,5.7,7.977,7.85,7.745,8.066,7.923,7.896,7.711,5.291,-4.777,-8.359,1.806,-1.407,8.198,5.296,-4.377,-7.656,17.7,-0.3,-8.478,29.2,15.1,0.7,0.8,19.1,36,3.0,3,5,prime,10,0,72,norm,36,-4.88,down,norm,9.18882580247,11.3,-10.8,1.546,9.6,2,15.2,5.9,1.0,10,5,7.62,4.431,1.908,-1.191,-4.642,-8.101,6.6,5,81.2,-8.148,-8.391,20,-8.237,-7.771,-4.769,-5.274,-4.529,-4.848,5.173,8.189,20,-1.515,1.794,4.364,8.214,-8.405,-7.781,-1.955,1.776,8.3,7.4,7.2,19.2,8.4,4.7,29.0,-0.9,13.0,13.0,1,norm,1.225,1.989,-1.909,-1.562,-5.249,-4.94,-1.497,-1.941,-1.506,-1.546,1.575,-1.903,23.2,-10.6,-5.131,-7.879,27.4,-1.247,7.632,4.897,-4.471,-8.412,6,5.145,4.484,4.951,4.639,1.631,1.562,2.098,1.132,6,4.944,4.453,40,108.382604391,norm,0,21,21,21,1812.099,1812.105,1812.11417846,1812.114,1812.118,1812.124,down,1,3.04764108594,6.95235891406,001,302,1280_800,Intel(R) Core(TM)2 Duo CPU     P8600  @ 2.40GHz,orientation_search,GRVLAPTOP1,Quadro NVS 160M/PCIe/SSE2,2018_nov_08_1318,testMonitor,
20.6,12.7,7.2,7.1,36,20,22.0,-6.0,,11.0,7.854,8.418,8.248,8.323,8.221,7.525,7.697,4.789,-4.855,-7.796,1.882,-1.195,8.403,4.456,-4.97,-7.523,7.3,20.9,-8.27,12.0,23.2,23.6,6.7,-8.0,36,6.3,4,5,prime,10,0,66,norm,36,-5.296,up,norm,9.18882580247,14.9,17.7,1.624,6.8,4,19.3,3.4,-10.8,10,5,8.049,4.58,1.257,-1.93,-5.254,-8.4,10.6,5,75.2,-7.869,-7.61,20,-7.686,-8.371,-5.123,-4.692,-5.278,-4.306,4.918,8.404,28,-1.443,1.433,4.925,8.339,-7.765,-8.096,-2.076,1.225,3.4,15.6,2.9,19.1,12.8,-8.0,16.1,29.2,22.2,2.2,2,norm,2.029,1.676,-1.579,-2.027,-4.807,-4.495,-1.106,-1.594,-1.884,-1.389,1.905,-1.15,0.5,16.8,-4.352,-7.562,7.9,-1.146,7.853,4.682,-4.78,-8.358,6,4.468,4.448,4.801,4.361,1.735,1.407,1.753,1.557,6,5.272,4.343,40,108.382604391,norm,0,22,22,22,1815.188,1815.194,1815.20363066,1815.204,1815.208,1815.213,up,1,1.67796959604,8.32203040396,001,302,1280_800,Intel(R) Core(TM)2 Duo CPU     P8600  @ 2.40GHz,orientation_search,GRVLAPTOP1,Quadro NVS 160M/PCIe/SSE2,2018_nov_08_1318,testMonitor,
21.4,9.0,20.9,,36,20,10.5,-10.3,6.0,14.9,8.013,8.311,8.045,8.375,8.089,8.283,7.773,5.258,-4.529,-8.358,1.246,-1.638,8.405,4.461,-5.208,-8.382,15.9,21.7,-8.061,15.0,13.6,-10.8,11.0,6.6,36,15.9,3,5,prime,10,0,95,norm,36,-4.664,up,norm,9.18882580247,5.8,16.2,1.786,7.8,3,3.0,6.2,14.8,10,5,8.282,5.115,1.501,-1.99,-4.851,-8.132,11.0,5,104.2,-7.512,-7.827,20,-8.329,-7.726,-5.243,-4.423,-5.02,-4.461,4.794,7.764,21,-1.446,1.907,5.01,7.538,-8.142,-8.132,-1.603,1.6,29.2,7.8,3.9,-2.4,22.0,7.0,-5.8,5.2,4.0,18.8,3,norm,2.026,1.719,-1.868,-1.985,-4.743,-5.062,-1.367,-1.437,-1.82,-1.381,1.125,-1.78,17.7,3.2,-4.986,-8.147,8.6,-1.826,7.626,4.848,-5.237,-8.456,6,4.8,5.186,4.449,4.539,1.994,1.598,1.838,1.733,6,5.014,4.462,40,108.382604391,norm,0,23,23,23,1816.908,1816.914,1816.92362267,1816.924,1816.928,1816.932,up,1,3.51554780127,6.48445219873,001,302,1280_800,Intel(R) Core(TM)2 Duo CPU     P8600  @ 2.40GHz,orientation_search,GRVLAPTOP1,Quadro NVS 160M/PCIe/SSE2,2018_nov_08_1318,testMonitor,
0.7,16.5,5.4,20.0,36,20,6.8,-0.3,1.0,3.4,7.911,8.176,7.546,7.916,7.87,7.864,8.171,4.604,-4.39,-7.881,1.273,-1.858,8.231,4.914,-4.97,-8.209,11.4,21.1,-7.78,10.2,17.6,11.3,2.6,29.2,36,,4,5,prime,10,0,68,norm,36,-4.311,up,norm,9.18882580247,11.5,1.6,2.089,10.2,3,17.5,10.1,13.6,10,5,8.336,4.596,1.587,-1.268,-4.304,-8.164,25.0,5,77.2,-8.054,-7.584,20,-8.45,-8.206,-4.769,-4.534,-4.815,-5.183,4.898,7.839,27,-1.269,1.705,4.609,7.813,-7.565,-8.459,-1.345,2.078,15.9,6.0,13.4,-2.3,11.8,13.0,-10.8,8.6,9.6,0.6,4,norm,1.306,1.544,-1.293,-1.319,-4.458,-4.609,-1.714,-1.402,-1.882,-1.455,1.579,-1.287,13.7,3.3,-4.479,-8.396,4.9,-1.961,7.587,5.02,-5.091,-8.269,6,5.069,4.833,4.447,5.147,1.196,1.49,1.461,1.872,6,4.492,4.662,40,108.382604391,norm,0,24,24,24,1820.465,1820.472,1820.49961055,1820.5,1820.504,1820.509,up,1,1.74280374983,8.25719625017,001,302,1280_800,Intel(R) Core(TM)2 Duo CPU     P8600  @ 2.40GHz,orientation_search,GRVLAPTOP1,Quadro NVS 160M/PCIe/SSE2,2018_nov_08_1318,testMonitor,
142.9,150.4,137.2,135.7,36,-20,130.4,135.2,135.7,138.5,7.853,8.135,8.467,7.735,7.841,7.609,8.219,4.866,-4.499,-8.073,1.331,-1.233,7.965,4.61,-4.44,-8.006,141.0,139.8,-7.972,139.1,,143.8,138.4,135.0,36,133.5,5,5,probe,5,0,108,norm,36,-5.132,down,norm,140.388369529,133.2,133.5,1.748,139.2,0,137.6,138.4,134.3,10,5,7.609,5.177,1.529,-1.265,-5.037,-8.171,139.8,2,32.4,-8.401,-8.474,20,-8.477,-7.559,-5.244,-4.973,-4.657,-5.046,4.502,8.076,30,-1.426,1.277,5.159,8.162,-8.474,-7.936,-1.724,1.956,147.6,135.3,142.6,130.9,140.9,143.6,135.2,138.8,137.9,133.2,0,norm,1.426,1.751,-1.898,-1.343,-5.218,-4.599,-1.867,-1.129,-1.106,-1.593,1.407,-1.366,140.5,143.1,-4.458,-7.765,138.3,-1.654,8.137,4.435,-4.658,-8.272,7,4.656,4.683,4.374,4.47,1.853,1.337,1.491,1.854,7,5.182,5.172,20,9.18882580247,norm,0,25,25,25,1822.268,1822.274,1822.28418435,1822.284,1822.288,1822.293,down,1,1.81211795618,8.18788204382,001,302,1280_800,Intel(R) Core(TM)2 Duo CPU     P8600  @ 2.40GHz,orientation_search,GRVLAPTOP1,Quadro NVS 160M/PCIe/SSE2,2018_nov_08_1318,testMonitor,
146.8,137.4,142.9,138.7,36,-20,144.2,147.1,136.7,137.0,7.968,7.836,8.062,8.086,7.916,7.996,7.909,4.601,-4.568,-8.419,1.426,-1.271,8.234,4.885,-4.526,-8.376,145.6,139.8,-8.443,150.1,145.7,140.8,136.2,,36,142.7,4,5,probe,5,0,110,norm,36,-4.446,down,norm,142.388369529,147.5,151.6,1.586,146.8,2,152.4,134.2,140.5,10,5,8.284,5.215,1.512,-1.501,-4.653,-7.594,146.8,2,32.4,-8.188,-8.093,20,-8.278,-8.135,-4.72,-4.377,-4.41,-4.437,4.773,7.915,26,-1.623,1.395,4.666,7.847,-8.338,-7.575,-1.531,1.76,136.1,141.9,136.5,150.9,138.5,140.8,139.1,144.1,149.1,144.5,1,norm,1.176,1.445,-1.18,-2.06,-5.05,-4.753,-1.312,-1.49,-1.542,-1.807,1.159,-1.473,132.4,136.4,-4.606,-7.977,142.1,-1.254,7.986,5.07,-5.261,-8.363,7,4.785,4.927,4.935,4.695,1.793,1.32,1.144,1.853,7,5.182,5.162,20,9.18882580247,norm,0,26,26,26,1824.122,1824.128,1824.13769168,1824.138,1824.142,1824.147,down,1,1.79514688062,8.20485311938,001,302,1280_800,Intel(R) Core(TM)2 Duo CPU     P8600  @ 2.40GHz,orientation_search,GRVLAPTOP1,Quadro NVS 160M/PCIe/SSE2,2018_nov_08_1318,testMonitor,
270.0,276.7,271.7,276.6,36,20,273.9,287.0,281.4,279.8,8.084,8.047,8.19,8.031,7.666,8.225,8.376,4.742,-5.136,-7.606,1.437,-1.736,8.103,4.35,-5.14,-7.512,269.5,294.9,-7.686,264.7,279.7,269.8,274.4,271.9,36,268.3,0,5,prime,10,0,99,norm,36,-5.296,up,norm,278.81724731,284.6,262.3,1.934,282.4,4,286.4,280.5,264.8,10,6,8.038,4.708,1.952,-1.951,-4.887,-8.415,277.4,6,377.8,-8.356,-8.035,20,-7.781,-7.602,-5.161,-4.564,-4.555,-5.169,5.18,8.112,4,-2.044,2.045,4.483,7.939,-8.059,-8.453,-1.726,1.571,280.8,283.7,298.8,270.9,265.4,290.8,285.5,296.2,258.8,,0,norm,1.83,1.571,-1.285,-1.96,-5.143,-4.712,-1.225,-1.782,-1.37,-1.326,1.572,-1.718,291.1,279.6,-4.961,-7.61,276.5,-2.071,8.35,4.687,-4.556,-8.152,8,4.851,5.088,5.086,4.35,1.25,1.2,1.423,1.488,8,4.932,4.328,-20,9.18882580247,norm,0,27,27,27,1825.959,1825.965,1825.97467278,1825.975,1825.979,1825.984,up,1,2.81367104677,7.18632895323,001,302,1280_800,Intel(R) Core(TM)2 Duo CPU     P8600  @ 2.40GHz,orientation_search,GRVLAPTOP1,Quadro NVS 160M/PCIe/SSE2,2018_nov_08_1318,testMonitor,
279.7,283.9,295.9,270.7,36,20,284.1,285.6,296.8,272.7,8.457,7.867,7.754,7.793,7.542,8.255,7.745,4.977,-5.034,-8.259,2.015,-1.81,7.562,5.041,-5.045,-8.236,298.8,294.9,-7.949,271.6,281.2,280.6,274.5,289.1,36,281.2,2,5,prime,10,0,114,norm,36,-5.261,up,norm,278.81724731,,269.6,1.357,258.8,5,284.4,275.0,262.7,10,6,7.615,4.561,1.346,-1.88,-4.501,-8.259,281.0,6,392.8,-7.533,-8.453,20,-7.715,-8.376,-5.252,-5.008,-4.37,-4.308,5.284,7.839,17,-1.973,1.966,4.436,8.396,-8.185,-8.051,-1.941,1.368,273.6,260.4,272.7,278.1,280.4,272.2,287.8,284.6,266.4,268.5,1,norm,1.989,1.453,-1.109,-1.619,-4.555,-5.02,-1.402,-1.752,-1.201,-1.704,1.929,-1.617,275.7,282.0,-4.455,-8.428,281.4,-1.377,7.83,4.423,-4.955,-7.687,8,4.339,4.853,4.511,4.999,1.152,2.012,1.653,1.512,8,4.574,4.511,-20,9.18882580247,norm,0,28,28,28,1828.815,1828.82,1828.83033972,1828.831,1828.834,1828.839,up,1,2.14619753721,7.85380246279,001,302,1280_800,Intel(R) Core(TM)2 Duo CPU     P8600  @ 2.40GHz,orientation_search,GRVLAPTOP1,Quadro NVS 160M/PCIe/SSE2,2018_nov_08_1318,testMonitor,
294.1,279.3,278.9,281.4,36,20,282.7,288.4,279.6,289.8,8.127,8.311,7.77,7.536,7.518,7.824,7.903,4.634,-4.969,-7.817,1.298,-1.156,8.124,4.801,-5.172,-8.42,287.1,280.5,-7.867,284.5,290.4,298.8,287.0,274.9,36,265.5,0,5,prime,10,0,108,norm,36,-4.484,down,norm,278.81724731,276.7,271.3,2.082,279.7,0,288.7,272.8,288.0,10,6,7.658,4.757,1.892,-1.402,-4.347,-8.348,278.6,6,386.8,-7.614,-8.463,20,-8.349,-7.966,-4.34,-4.992,-5.059,-5.026,5.138,7.583,0,-2.056,1.307,5.089,7.958,-7.65,-7.702,-1.237,1.233,294.2,273.4,279.4,282.4,262.1,,276.3,273.4,276.1,276.3,2,norm,1.821,1.219,-1.883,-1.973,-4.836,-4.459,-1.511,-1.766,-1.493,-1.101,1.644,-1.499,287.0,269.3,-4.832,-7.949,268.9,-1.138,8.496,4.977,-5.27,-8.294,8,4.367,4.318,5.264,5.229,1.762,1.59,1.175,1.695,8,4.314,4.772,-20,9.18882580247,norm,0,29,29,29,1831.002,1831.008,1831.01798651,1831.018,1831.022,1831.027,down,1,2.1629260894,7.8370739106,001,302,1280_800,Intel(R) Core(TM)2 Duo CPU     P8600  @ 2.40GHz,orientation_search,GRVLAPTOP1,Quadro NVS 160M/PCIe/SSE2,2018_nov_08_1318,testMonitor,
259.8,289.6,283.0,271.7,36,20,258.8,283.5,267.1,288.6,7.527,8.424,7.854,8.385,7.562,7.979,7.811,4.678,-4.39,-8.116,1.696,-1.232,8.104,4.749,-4.585,-8.272,276.1,279.1,-8.294,292.9,276.7,282.9,276.8,271.3,36,267.6,2,5,prime,10,0,81,norm,36,-4.368,down,norm,278.81724731,298.8,286.6,1.143,293.1,1,284.9,,291.1,10,6,7.836,4.845,2.069,-1.779,-5.192,-8.028,271.2,6,359.8,-8.36,-8.156,20,-8.091,-8.013,-5.199,-5.235,-4.306,-5.242,5.009,8.311,13,-1.385,1.934,4.487,8.295,-8.253,-8.263,-1.988,1.834,286.9,279.9,273.1,273.2,293.1,287.8,292.8,282.1,266.7,265.7,3,norm,1.11,1.861,-1.333,-1.198,-4.91,-5.271,-1.622,-1.866,-1.938,-1.373,1.544,-1.471,271.0,274.5,-5.259,-7.716,282.4,-1.702,7.97,4.864,-4.955,-8.413,8,5.049,5.145,5.148,4.472,1.733,1.988,1.724,1.166,8,4.958,5.235,-20,9.18882580247,norm,0,30,30,30,1833.206,1833.212,1833.22233362,1833.223,1833.226,1833.231,up,0,1.81224541997,-10,001,302,1280_800,Intel(R) Core(TM)2 Duo CPU     P8600  @ 2.40GHz,orientation_search,GRVLAPTOP1,Quadro NVS 160M/PCIe/SSE2,2018_nov_08_1318,testMonitor,
277.5,282.1,258.8,292.3,36,20,277.6,283.3,283.3,272.5,7.669,7.75,7.992,8.254,8.463,7.924,8.163,5.065,-4.746,-8.015,1.278,-1.194,7.657,5.133,-4.863,-8.053,269.2,292.2,-8.269,282.3,287.4,276.2,284.5,282.4,36,273.5,0,5,prime,10,0,63,norm,36,-4.362,down,norm,278.81724731,262.3,287.7,1.814,276.3,2,282.5,279.4,278.3,10,6,7.558,5.113,1.585,-1.458,-4.403,-7.607,284.3,6,341.8,-8.259,-8.336,20,-7.996,-7.668,-4.971,-4.503,-5.255,-4.479,5.212,7.988,2,-1.959,1.372,4.547,8.317,-8.408,-7.664,-1.302,1.248,273.4,297.4,298.8,,275.8,269.0,289.9,267.8,266.0,268.3,4,norm,1.922,1.242,-1.582,-2.004,-5.124,-4.539,-1.491,-1.258,-1.367,-1.678,1.384,-1.838,275.8,276.5,-4.694,-7.541,272.6,-1.867,8.257,4.752,-5.224,-7.571,8,4.82,4.868,5.109,4.911,1.926,1.178,1.48,1.162,8,4.84,4.96,-20,9.18882580247,norm,0,31,31,31,1836.096,1836.102,1836.11123012,1836.112,1836.115,1836.12,down,1,2.59709125936,7.40290874064,001,302,1280_800,Intel(R) Core(TM)2 Duo CPU     P8600  @ 2.40GHz,orientation_search,GRVLAPTOP1,Quadro NVS 160M/PCIe/SSE2,2018_nov_08_1318,testMonitor,
285.4,276.7,274.4,281.3,36,20,262.4,272.3,276.8,272.7,8.418,8.068,8.054,8.018,8.137,8.387,8.367,4.35,-4.812,-7.509,1.404,-1.182,8.481,4.494,-5.01,-7.944,271.2,,-8.304,261.4,293.1,280.8,278.0,288.4,36,277.0,5,5,prime,10,0,84,norm,36,-5.179,up,norm,278.81724731,280.1,288.9,1.209,281.4,4,259.3,279.1,275.8,10,6,8.428,4.309,1.96,-1.542,-4.69,-8.49,296.4,6,362.8,-8.107,-7.984,20,-8.485,-7.922,-4.876,-4.69,-4.465,-4.58,4.43,7.711,34,-1.868,1.748,4.887,8.372,-8.201,-7.816,-2.031,1.576,289.9,286.1,285.3,258.8,274.6,266.6,282.5,298.8,272.3,276.7,5,norm,1.959,1.782,-1.511,-1.956,-4.614,-4.97,-1.507,-1.734,-2.023,-1.28,1.306,-1.93,273.4,272.4,-4.445,-8.059,272.8,-2.042,7.747,4.317,-5.247,-7.858,8,4.402,4.737,5.253,4.898,1.911,1.873,1.798,1.485,8,4.32,5.032,-20,9.18882580247,norm,0,32,32,32,1838.734,1838.74,1838.7497933,1838.75,1838.754,1838.759,down,0,2.76406795958,-10,001,302,1280_800,Intel(R) Core(TM)2 Duo CPU     P8600  @ 2.40GHz,orientation_search,GRVLAPTOP1,Quadro NVS 160M/PCIe/SSE2,2018_nov_08_1318,testMonitor,
416.5,413.6,417.5,404.9,36,40,407.1,409.9,422.3,409.8,8.239,8.225,8.134,8.168,8.366,8.252,7.884,5.209,-4.652,-7.731,1.946,-1.816,8.12,4.532,-4.565,-7.868,416.3,412.3,-7.542,413.7,411.2,410.7,416.9,418.7,36,421.1,2,5,probe,5,0,111,norm,36,-5.123,up,norm,414.423903624,,411.6,1.968,414.5,5,413.2,412.6,406.4,10,6,8.3,4.82,1.178,-1.343,-4.572,-8.31,416.5,1,303.4,-7.729,-8.133,20,-8.023,-7.661,-4.53,-5.227,-5.091,-4.855,4.852,8.349,17,-1.264,1.482,4.618,8.197,-7.634,-7.748,-1.309,1.22,416.2,424.4,404.4,417.8,417.3,415.2,409.5,414.0,420.2,406.9,0,norm,1.648,1.163,-1.219,-1.125,-4.625,-4.875,-2.039,-1.116,-1.166,-1.185,1.577,-1.243,413.6,418.0,-5.019,-7.745,418.8,-1.775,8.473,4.315,-4.304,-8.335,9,4.633,4.36,4.579,5.219,1.845,1.293,1.483,1.977,9,4.536,4.686,20,278.81724731,norm,0,33,33,33,1842.575,1842.581,1842.59064365,1842.591,1842.595,1842.6,up,1,2.06209068834,7.93790931166,001,302,1280_800,Intel(R) Core(TM)2 Duo CPU     P8600  @ 2.40GHz,orientation_search,GRVLAPTOP1,Quadro NVS 160M/PCIe/SSE2,2018_nov_08_1318,testMonitor,
283.6,256.0,258.5,270.4,36,-60,276.2,263.3,280.8,258.0,8.007,8.323,7.624,8.478,7.658,8.179,8.29,5.043,-4.38,-7.966,1.406,-1.801,7.942,5.049,-4.542,-8.248,272.2,250.2,-8.377,251.2,258.7,,269.6,243.6,36,255.8,5,5,prime,10,0,92,norm,36,-4.37,up,norm,263.61335809,262.4,268.2,1.888,259.6,3,271.5,265.4,266.3,10,6,8.175,4.902,1.325,-1.196,-5.117,-8.258,272.1,6,355.6,-7.92,-7.605,-60,-7.702,-7.807,-5.222,-4.682,-4.824,-4.538,5.083,8.295,33,-1.126,1.775,5.165,7.792,-8.071,-8.124,-2.004,1.271,266.4,274.0,259.4,270.7,250.9,269.6,253.4,253.4,254.9,266.0,0,norm,1.334,1.371,-1.967,-1.87,-5.236,-4.302,-1.818,-1.914,-1.355,-1.881,1.536,-1.68,271.8,265.5,-4.83,-8.23,274.1,-1.988,8.301,4.924,-4.913,-7.704,10,4.942,4.745,4.716,4.485,1.363,1.557,2.08,1.19,10,4.811,4.718,40,278.81724731,norm,0,34,34,34,1844.679,1844.685,1844.69477856,1844.695,1844.699,1844.704,down,0,3.99936695839,-10,001,302,1280_800,Intel(R) Core(TM)2 Duo CPU     P8600  @ 2.40GHz,orientation_search,GRVLAPTOP1,Quadro NVS 160M/PCIe/SSE2,2018_nov_08_1318,testMonitor,
282.1,266.7,283.4,254.8,36,-60,267.4,267.9,261.4,,7.851,8.097,7.533,8.21,7.728,8.02,8.236,4.359,-4.471,-8.012,1.639,-1.847,7.918,4.623,-5.205,-8.308,252.5,259.5,-7.695,265.3,271.7,260.3,263.6,243.6,36,259.7,4,5,prime,10,0,113,norm,36,-5.128,up,norm,263.61335809,264.2,256.7,1.368,258.1,5,276.3,269.6,258.5,10,6,8.176,4.839,1.39,-2.039,-4.863,-7.911,253.2,6,376.6,-8.107,-8.422,-60,-8.418,-8.125,-4.593,-4.303,-4.383,-4.618,4.884,7.533,29,-1.228,1.278,4.655,7.563,-7.583,-7.824,-1.499,1.393,274.9,262.9,276.7,254.7,264.3,264.8,283.6,252.4,274.9,265.8,1,norm,1.16,1.505,-1.781,-1.692,-4.955,-5.287,-2.054,-1.79,-1.299,-1.319,1.962,-1.442,282.6,263.6,-4.873,-8.255,265.4,-1.98,7.713,4.628,-4.773,-7.54,10,4.331,4.31,4.497,4.673,1.887,1.174,1.896,1.361,10,5.104,4.919,40,278.81724731,norm,0,35,35,35,1849.756,1849.762,1849.77139884,1849.772,1849.775,1849.78,up,1,1.36136025243,8.63863974757,001,302,1280_800,Intel(R) Core(TM)2 Duo CPU     P8600  @ 2.40GHz,orientation_search,GRVLAPTOP1,Quadro NVS 160M/PCIe/SSE2,2018_nov_08_1318,testMonitor,
256.5,254.2,277.2,255.7,36,-60,265.3,279.6,274.6,253.9,8.288,8.425,8.226,8.452,8.463,7.925,7.6,5.068,-4.653,-7.778,1.864,-1.462,8.422,4.431,-5.012,-8.073,243.6,264.7,-7.688,267.8,255.4,260.6,262.7,266.1,36,283.6,0,5,prime,10,0,74,norm,36,-5.068,up,norm,263.61335809,275.3,270.7,1.574,282.3,3,244.6,258.9,266.0,10,6,8.299,4.788,1.158,-1.555,-4.375,-7.933,256.0,6,337.6,-8.272,-7.757,-60,-7.997,-7.825,-5.046,-4.695,-4.613,-4.334,4.762,8.147,3,-1.991,1.953,4.715,7.818,-8.37,-7.789,-1.503,1.505,252.7,272.3,,269.9,262.3,256.4,268.0,272.5,259.0,253.0,2,norm,1.834,1.709,-1.5,-2.1,-4.344,-5.028,-2.006,-1.964,-1.462,-2.066,1.366,-1.271,271.6,273.1,-4.978,-8.11,264.2,-1.309,8.068,5.084,-4.899,-7.651,10,4.726,4.588,4.649,4.657,1.468,1.18,1.847,1.164,10,4.781,4.595,40,278.81724731,norm,0,36,36,36,1851.158,1851.165,1851.17413221,1851.174,1851.178,1851.183,up,1,3.9664175705,6.0335824295,001,302,1280_800,Intel(R) Core(TM)2 Duo CPU     P8600  @ 2.40GHz,orientation_search,GRVLAPTOP1,Quadro NVS 160M/PCIe/SSE2,2018_nov_08_1318,testMonitor,
255.8,253.6,270.5,264.7,36,-60,,268.1,266.3,271.8,7.803,8.25,7.583,7.902,7.601,8.341,7.998,4.922,-4.405,-7.516,1.647,-1.528,8.495,4.442,-4.554,-8.143,256.6,254.8,-8.056,264.4,260.8,275.1,266.3,247.6,36,278.2,4,5,prime,10,0,75,norm,36,-4.367,down,norm,263.61335809,255.6,279.2,1.414,269.9,0,283.6,258.6,268.7,10,6,8.224,5.229,2.018,-1.804,-5.087,-7.554,272.9,6,338.6,-8.376,-7.729,-60,-8.248,-7.594,-4.333,-5.063,-5.125,-5.141,4.883,7.767,24,-1.769,1.143,5.242,7.756,-8.378,-8.462,-2.014,1.857,268.7,271.7,255.1,268.1,257.3,264.9,243.6,268.5,257.3,268.9,3,norm,1.22,2.096,-1.826,-1.337,-4.838,-4.551,-1.554,-1.319,-1.627,-2.081,1.896,-1.673,259.9,255.5,-4.671,-7.624,276.5,-1.517,8.307,4.501,-4.959,-8.338,10,4.787,4.909,5.043,5.134,1.129,1.519,1.758,1.729,10,4.744,4.384,40,278.81724731,norm,0,37,37,37,1855.166,1855.172,1855.18189082,1855.182,1855.186,1855.191,down,1,1.74576835211,8.25423164789,001,302,1280_800,Intel(R) Core(TM)2 Duo CPU     P8600  @ 2.40GHz,orientation_search,GRVLAPTOP1,Quadro NVS 160M/PCIe/SSE2,2018_nov_08_1318,testMonitor,
270.9,275.4,270.8,268.4,36,-60,251.9,283.6,274.3,258.2,7.682,7.739,8.453,8.145,7.857,7.939,8.47,4.852,-4.545,-8.057,1.814,-1.978,8.213,4.44,-4.676,-7.502,279.9,264.9,-7.604,263.8,,269.5,263.6,267.9,36,268.1,5,5,prime,10,0,116,norm,36,-4.646,down,norm,263.61335809,257.7,259.4,1.63,265.8,0,277.7,283.4,268.5,10,6,8.251,4.546,1.941,-1.593,-4.752,-7.646,265.5,6,379.6,-8.1,-8.238,-60,-7.713,-7.503,-4.698,-4.593,-4.973,-4.706,5.067,8.339,30,-1.597,2.041,4.672,8.435,-8.217,-8.435,-1.237,2.081,267.7,270.9,275.0,265.6,273.5,260.8,243.6,279.2,264.3,266.3,4,norm,1.968,1.315,-1.866,-1.328,-4.881,-5.128,-2.08,-1.75,-1.433,-1.804,1.185,-1.179,267.4,262.4,-5.026,-7.533,251.9,-2.07,8.346,4.406,-5.294,-7.934,10,5.061,5.216,4.996,4.831,2.066,1.492,1.876,1.458,10,4.312,4.724,40,278.81724731,norm,0,38,38,38,1856.953,1856.959,1856.96890525,1856.969,1856.973,1856.978,down,1,2.39671177658,7.60328822342,001,302,1280_800,Intel(R) Core(TM)2 Duo CPU     P8600  @ 2.40GHz,orientation_search,GRVLAPTOP1,Quadro NVS 160M/PCIe/SSE2,2018_nov_08_1318,testMonitor,
265.3,270.4,261.6,277.0,36,-60,282.8,268.1,259.6,246.2,8.098,7.876,8.496,7.699,7.995,8.104,7.625,4.743,-4.885,-8.485,2.1,-1.34,7.703,4.795,-4.569,-7.615,251.8,272.7,-8.193,269.1,270.2,256.3,278.7,270.8,36,270.7,1,5,prime,10,0,118,norm,36,-4.444,down,norm,263.61335809,243.6,249.5,1.322,275.6,2,254.2,269.3,283.6,10,6,7.618,4.947,1.183,-1.253,-4.912,-7.754,252.9,6,381.6,-7.751,-8.277,-60,-7.66,-8.132,-5.033,-4.704,-5.15,-4.736,5.017,8.462,8,-1.316,1.287,4.428,8.139,-8.207,-8.283,-2.058,1.712,269.8,,258.5,257.9,261.9,254.1,255.6,254.5,264.7,270.1,5,norm,1.238,1.612,-1.696,-1.261,-4.578,-4.603,-1.641,-1.71,-2.097,-1.168,1.429,-1.147,257.4,273.8,-4.588,-8.485,281.4,-1.706,7.639,5.281,-5.165,-7.749,10,4.523,4.915,5.172,5.229,1.27,1.117,1.679,1.218,10,5.006,4.743,40,278.81724731,norm,0,39,39,39,1859.391,1859.398,1859.40690375,1859.407,1859.411,1859.416,up,0,4.09948890445,-10,001,302,1280_800,Intel(R) Core(TM)2 Duo CPU     P8600  @ 2.40GHz,orientation_search,GRVLAPTOP1,Quadro NVS 160M/PCIe/SSE2,2018_nov_08_1318,testMonitor,
265.6,280.7,276.4,276.0,36,30,267.9,268.8,278.1,281.9,8.401,7.685,7.643,8.312,8.339,7.633,7.84,4.396,-4.648,-7.97,1.535,-1.999,7.89,4.715,-4.833,-7.677,284.8,281.3,-8.041,268.3,277.5,277.1,,276.7,36,278.2,5,5,probe,5,0,70,norm,36,-4.724,down,norm,275.571019828,279.3,281.2,1.37,282.4,2,281.9,274.5,267.1,10,6,7.553,4.694,1.664,-1.92,-4.75,-8.091,282.7,1,205.6,-8.125,-8.304,-60,-7.8,-7.536,-5.083,-5.081,-5.051,-4.988,5.256,8.286,32,-1.644,1.695,5.061,7.85,-8.431,-8.436,-2.017,1.581,277.4,278.2,283.2,281.7,276.3,272.0,278.1,275.3,285.6,276.5,0,norm,1.801,1.885,-1.173,-1.345,-4.651,-4.836,-2.055,-1.665,-1.743,-1.245,1.898,-1.691,271.9,280.1,-4.432,-8.003,266.3,-1.273,7.672,4.804,-5.187,-8.087,11,5.194,4.916,4.712,5.02,1.361,1.915,1.625,1.42,11,4.373,5.17,-60,263.61335809,norm,0,40,40,40,1864.568,1864.575,1864.58387994,1864.584,1864.588,1864.593,down,1,1.41143683763,8.58856316237,001,302,1280_800,Intel(R) Core(TM)2 Duo CPU     P8600  @ 2.40GHz,orientation_search,GRVLAPTOP1,Quadro NVS 160M/PCIe/SSE2,2018_nov_08_1318,testMonitor,
107.1,94.2,95.8,82.8,36,-80,96.8,98.7,91.2,100.0,8.358,7.523,8.304,8.291,7.51,8.158,8.192,5.188,-4.615,-7.981,1.308,-1.849,8.171,4.82,-4.497,-8.485,92.9,97.6,-7.552,95.4,99.0,107.3,75.6,96.8,36,101.3,2,5,prime,10,0,70,norm,36,-5.232,down,norm,95.6113141908,95.2,83.7,1.768,,2,83.6,102.1,100.1,10,5,8.132,4.56,1.41,-1.215,-4.701,-8.368,115.6,5,165.6,-8.267,-8.415,-80,-8.255,-8.151,-5.262,-4.408,-5.028,-4.5,4.492,8.382,14,-1.853,1.944,5.073,8.263,-8.061,-7.716,-1.619,1.673,92.3,89.9,92.2,87.7,84.3,107.5,107.5,93.0,99.3,81.5,0,norm,1.509,1.315,-1.602,-1.297,-4.622,-5.244,-1.83,-1.952,-1.795,-1.799,1.676,-1.477,89.3,84.4,-4.559,-8.376,90.5,-1.171,8.372,5.077,-4.694,-8.102,12,4.787,5.176,4.355,4.376,1.75,1.884,1.937,1.957,12,4.363,5.006,30,263.61335809,norm,0,41,41,41,1866.021,1866.027,1866.03665183,1866.037,1866.041,1866.046,down,1,1.72822796684,8.27177203316,001,302,1280_800,Intel(R) Core(TM)2 Duo CPU     P8600  @ 2.40GHz,orientation_search,GRVLAPTOP1,Quadro NVS 160M/PCIe/SSE2,2018_nov_08_1318,testMonitor,
103.8,84.3,89.2,86.3,36,-80,94.8,115.5,86.2,76.0,8.078,8.393,7.823,8.29,7.547,8.298,7.852,4.611,-4.922,-7.944,1.891,-1.828,8.296,4.374,-5.012,-8.186,99.3,93.3,-7.928,93.4,104.9,,91.5,110.7,36,92.8,5,5,prime,10,0,102,norm,36,-4.621,up,norm,95.6113141908,115.6,88.5,1.208,88.6,3,90.8,92.6,102.0,10,5,7.973,5.222,1.403,-1.757,-4.356,-7.537,90.8,5,197.6,-7.655,-7.857,-80,-7.982,-8.096,-4.325,-4.393,-4.583,-4.648,5.285,7.969,33,-1.301,1.284,4.894,8.415,-7.976,-7.901,-1.947,1.641,83.6,97.2,89.3,94.9,85.0,97.1,93.2,93.7,90.7,103.8,1,norm,1.931,1.674,-1.413,-2.009,-5.297,-5.194,-1.722,-1.115,-1.377,-1.488,1.778,-2.008,75.6,93.6,-4.661,-7.651,88.8,-1.436,8.499,5.297,-4.921,-8.361,12,4.569,4.439,4.596,4.528,1.736,1.984,2.023,1.946,12,4.597,4.449,30,263.61335809,norm,0,42,42,42,1867.791,1867.797,1867.80682137,1867.807,1867.811,1867.816,up,1,2.61381339559,7.38618660441,001,302,1280_800,Intel(R) Core(TM)2 Duo CPU     P8600  @ 2.40GHz,orientation_search,GRVLAPTOP1,Quadro NVS 160M/PCIe/SSE2,2018_nov_08_1318,testMonitor,
88.0,100.3,114.0,96.2,36,-80,93.7,78.5,91.3,104.3,7.726,7.708,7.527,7.917,8.17,8.492,8.267,5.083,-4.704,-8.193,1.712,-1.238,8.342,4.698,-4.55,-7.603,88.6,95.2,-7.773,,101.4,109.9,109.5,100.5,36,81.0,5,5,prime,10,0,110,norm,36,-5.058,down,norm,95.6113141908,102.7,90.3,1.636,95.8,1,96.9,89.2,83.0,10,5,8.281,4.659,1.647,-1.976,-4.87,-8.148,104.7,5,205.6,-7.562,-7.566,-80,-7.602,-7.828,-4.961,-4.75,-4.663,-4.853,4.953,7.565,31,-1.399,1.105,5.06,8.098,-7.802,-8.15,-2.093,1.6,100.9,85.8,75.6,105.7,93.4,115.6,110.9,100.5,87.1,99.5,2,norm,1.618,1.795,-2.015,-1.374,-5.002,-4.583,-1.698,-1.668,-1.933,-1.926,1.194,-1.301,84.3,105.3,-4.858,-8.404,88.0,-2.019,7.811,4.885,-4.736,-7.656,12,4.585,5.028,4.936,4.995,1.589,1.225,1.816,1.647,12,5.088,4.673,30,263.61335809,norm,0,43,43,43,1870.446,1870.453,1870.46201173,1870.462,1870.466,1870.472,down,1,2.162405541,7.837594459,001,302,1280_800,Intel(R) Core(TM)2 Duo CPU     P8600  @ 2.40GHz,orientation_search,GRVLAPTOP1,Quadro NVS 160M/PCIe/SSE2,2018_nov_08_1318,testMonitor,
100.2,101.7,97.3,97.6,36,-80,82.7,91.0,107.4,103.1,8.312,7.803,7.845,7.586,8.344,8.411,7.529,4.305,-4.513,-8.5,1.605,-1.307,7.819,4.321,-4.452,-8.454,93.4,104.6,-7.949,,110.0,97.8,103.4,87.1,36,104.5,5,5,prime,10,0,106,norm,36,-5.248,down,norm,95.6113141908,94.2,92.8,1.631,110.1,1,100.7,75.6,103.4,10,5,7.693,4.678,2.011,-1.377,-4.364,-8.226,94.6,5,201.6,-8.279,-7.689,-80,-7.885,-8.347,-4.677,-5.268,-5.009,-4.65,5.033,7.513,31,-1.881,1.729,4.918,7.514,-7.783,-8.219,-1.101,2.071,85.8,115.6,84.1,88.3,89.9,86.0,85.4,90.6,113.0,96.5,3,norm,1.742,1.823,-1.53,-2.081,-4.304,-4.686,-1.678,-1.635,-2.053,-1.307,1.144,-1.719,89.8,86.5,-4.691,-7.856,97.9,-1.679,8.39,4.469,-4.767,-7.843,12,4.307,4.803,4.596,5.083,2.012,1.73,1.535,1.451,12,4.776,5.227,30,263.61335809,norm,0,44,44,44,1872.65,1872.656,1872.66638451,1872.667,1872.671,1872.676,down,1,2.14525011346,7.85474988654,001,302,1280_800,Intel(R) Core(TM)2 Duo CPU     P8600  @ 2.40GHz,orientation_search,GRVLAPTOP1,Quadro NVS 160M/PCIe/SSE2,2018_nov_08_1318,testMonitor,
88.4,111.6,90.7,100.3,36,-80,98.0,99.4,103.0,86.3,8.132,7.626,7.973,8.163,7.922,8.256,7.661,5.142,-5.298,-8.197,1.528,-1.341,7.776,4.726,-4.5,-8.319,111.6,97.9,-8.487,110.2,86.6,87.4,78.4,104.6,36,100.0,2,5,prime,10,0,107,norm,36,-4.85,down,norm,95.6113141908,80.8,79.0,1.261,93.6,0,103.8,75.6,,10,5,7.861,4.777,1.768,-1.82,-5.195,-7.83,84.8,5,202.6,-8.289,-7.699,-80,-8.041,-8.018,-4.439,-4.786,-4.483,-4.842,4.799,7.867,12,-1.542,1.199,4.943,7.8,-8.255,-8.102,-1.313,1.544,109.2,107.7,114.5,102.0,109.8,100.5,106.6,93.6,112.0,85.6,4,norm,1.122,1.671,-1.938,-1.625,-4.79,-4.327,-1.322,-1.419,-1.499,-1.329,2.078,-1.804,115.6,87.6,-4.435,-8.468,99.4,-1.27,7.523,5.06,-4.707,-7.55,12,5.073,5.037,5.265,4.45,1.408,1.28,1.996,2.09,12,5.101,5.17,30,263.61335809,norm,0,45,45,45,1874.838,1874.844,1874.85399836,1874.854,1874.858,1874.863,down,1,2.14599308188,7.85400691812,001,302,1280_800,Intel(R) Core(TM)2 Duo CPU     P8600  @ 2.40GHz,orientation_search,GRVLAPTOP1,Quadro NVS 160M/PCIe/SSE2,2018_nov_08_1318,testMonitor,
114.0,122.3,114.2,125.6,36,-30,118.7,126.0,121.6,126.5,7.742,7.678,7.629,8.364,8.223,7.827,7.542,5.25,-5.159,-7.733,1.934,-1.6,8.468,5.023,-5.091,-8.204,121.2,111.4,-7.669,128.0,114.0,109.9,112.2,127.1,36,127.7,2,5,probe,5,0,103,norm,36,-5.089,up,norm,119.928092205,123.4,,2.0,129.1,4,122.7,118.5,128.3,10,5,8.238,5.083,1.679,-1.338,-4.809,-7.832,112.6,2,16.9,-7.694,-8.216,-80,-7.791,-8.141,-4.839,-4.523,-4.558,-4.775,4.903,7.928,16,-1.431,1.411,5.239,8.351,-8.116,-7.737,-2.091,1.813,129.9,117.2,122.8,117.6,119.4,120.2,114.1,117.5,122.5,126.5,0,norm,1.147,1.332,-1.894,-1.649,-4.462,-4.66,-1.376,-1.746,-1.366,-1.923,1.245,-1.289,118.4,114.9,-4.773,-8.137,115.0,-1.809,8.417,4.464,-5.163,-7.623,13,5.217,4.677,5.064,4.586,1.863,1.994,1.135,1.765,13,4.929,4.499,-80,95.6113141908,norm,0,46,46,46,1877.026,1877.032,1877.04164516,1877.042,1877.046,1877.051,up,1,1.67822794545,8.32177205455,001,302,1280_800,Intel(R) Core(TM)2 Duo CPU     P8600  @ 2.40GHz,orientation_search,GRVLAPTOP1,Quadro NVS 160M/PCIe/SSE2,2018_nov_08_1318,testMonitor,
111.3,119.1,100.9,112.2,36,-30,110.7,106.1,119.5,110.7,7.532,8.375,8.369,7.555,7.919,7.741,7.833,4.696,-5.025,-8.129,1.324,-2.039,8.444,4.471,-5.234,-8.184,111.8,112.9,-7.913,117.7,105.7,111.1,114.8,120.9,36,112.8,2,5,probe,5,0,94,norm,36,-4.426,down,norm,110.928092205,107.4,115.7,1.679,,2,108.3,111.9,107.4,10,5,8.403,4.46,1.879,-1.183,-4.755,-7.736,106.5,2,16.9,-8.078,-7.744,-80,-8.392,-8.064,-4.379,-4.696,-5.101,-5.097,4.356,8.027,14,-2.085,1.864,4.593,8.197,-8.352,-8.032,-1.999,1.317,109.4,113.6,111.1,110.7,111.9,105.2,101.6,110.6,109.4,109.6,1,norm,1.545,1.184,-1.663,-1.22,-5.097,-4.944,-1.505,-1.416,-1.865,-1.51,1.763,-1.245,107.1,107.3,-5.276,-8.277,106.2,-1.42,7.589,5.058,-4.488,-8.119,13,5.042,4.461,4.507,5.223,1.324,1.408,2.068,1.547,13,4.768,4.383,-80,95.6113141908,norm,0,47,47,47,1878.746,1878.752,1878.76162006,1878.762,1878.766,1878.77,down,1,1.14438780813,8.85561219187,001,302,1280_800,Intel(R) Core(TM)2 Duo CPU     P8600  @ 2.40GHz,orientation_search,GRVLAPTOP1,Quadro NVS 160M/PCIe/SSE2,2018_nov_08_1318,testMonitor,
49.7,63.0,54.7,77.2,36,-20,62.5,64.3,89.7,65.8,8.493,8.321,7.847,8.229,8.426,8.238,7.701,4.885,-4.391,-7.858,1.248,-1.941,8.381,5.072,-5.12,-7.561,61.2,71.5,-7.596,77.2,62.7,78.7,65.7,83.1,36,74.8,2,5,prime,10,0,118,norm,36,-5.181,up,norm,69.6711022414,60.7,,1.407,66.7,4,65.4,52.0,80.7,10,6,8.12,5.182,1.579,-1.214,-4.812,-8.425,60.4,6,187.7,-7.663,-7.704,-20,-7.895,-7.935,-5.124,-4.659,-5.187,-5.176,5.252,7.714,16,-1.469,1.22,4.518,8.384,-8.477,-7.675,-1.905,2.064,80.0,89.1,80.2,67.7,81.6,75.3,78.3,76.4,83.2,69.5,0,norm,1.955,1.935,-1.876,-1.696,-4.452,-4.328,-1.825,-1.694,-1.351,-1.819,1.409,-1.107,63.1,69.5,-5.058,-7.873,61.7,-1.337,8.472,4.366,-4.87,-7.814,14,4.885,4.492,5.245,4.985,1.884,1.839,2.008,2.068,14,4.876,4.679,-30,95.6113141908,norm,0,48,48,48,1879.931,1879.938,1879.94725352,1879.948,1879.951,1879.957,up,1,1.62792081334,8.37207918666,001,302,1280_800,Intel(R) Core(TM)2 Duo CPU     P8600  @ 2.40GHz,orientation_search,GRVLAPTOP1,Quadro NVS 160M/PCIe/SSE2,2018_nov_08_1318,testMonitor,
61.9,70.1,63.5,89.7,36,-20,52.7,60.5,79.8,55.9,8.493,8.375,7.885,7.685,7.513,7.991,7.888,4.691,-4.409,-7.874,1.28,-1.798,8.132,4.524,-4.335,-7.578,63.7,76.0,-8.277,81.2,72.3,63.4,71.0,49.7,36,65.0,2,5,prime,10,0,91,norm,36,-5.299,up,norm,69.6711022414,,67.5,1.515,60.0,5,71.4,77.2,77.8,10,6,8.465,5.298,1.564,-1.326,-5.009,-7.628,72.1,6,160.7,-8.155,-8.302,-20,-8.213,-8.25,-4.444,-5.29,-5.218,-4.836,4.918,7.763,17,-1.525,1.472,4.934,8.15,-7.847,-8.42,-1.655,1.868,71.5,59.0,60.3,55.0,60.6,54.4,75.3,61.4,65.2,54.5,1,norm,1.484,2.052,-1.196,-1.954,-4.89,-5.219,-1.503,-1.745,-1.536,-1.648,1.29,-1.512,66.1,58.5,-4.316,-8.179,70.5,-1.155,7.87,4.894,-4.426,-7.529,14,5.293,4.495,4.315,4.781,2.045,1.98,1.891,1.273,14,5.247,4.79,-30,95.6113141908,norm,0,49,49,49,1881.601,1881.608,1881.61722583,1881.618,1881.622,1881.627,down,0,1.04303827464,-10,001,302,1280_800,Intel(R) Core(TM)2 Duo CPU     P8600  @ 2.40GHz,orientation_search,GRVLAPTOP1,Quadro NVS 160M/PCIe/SSE2,2018_nov_08_1318,testMonitor,
61.8,71.3,63.0,58.8,36,-20,86.3,49.7,73.6,61.7,7.928,7.671,8.236,7.641,8.413,8.002,7.672,4.443,-5.238,-8.097,1.231,-1.637,8.425,4.812,-4.892,-8.242,62.4,68.4,-7.899,89.7,59.8,70.8,50.6,75.9,36,72.0,1,5,prime,10,0,117,norm,36,-4.648,up,norm,69.6711022414,78.2,63.7,1.392,77.5,5,,63.8,74.1,10,6,8.332,4.631,1.318,-1.282,-4.431,-7.837,67.6,6,186.7,-7.857,-7.935,-20,-7.576,-7.518,-5.228,-4.456,-5.251,-4.32,5.255,8.003,11,-1.28,1.597,4.436,7.598,-7.743,-7.653,-1.599,1.878,62.0,67.3,64.4,63.2,73.9,75.2,68.1,56.2,71.7,79.7,2,norm,1.479,1.271,-1.642,-1.752,-4.77,-4.894,-1.984,-1.66,-1.753,-1.903,1.881,-1.668,80.9,61.1,-5.283,-7.601,57.5,-1.628,8.153,5.171,-5.145,-8.261,14,5.11,4.881,4.856,4.935,1.509,1.174,1.485,1.866,14,4.322,4.906,-30,95.6113141908,norm,0,50,50,50,1883.722,1883.729,1883.73791564,1883.738,1883.742,1883.747,down,0,2.2293608119,-10,001,302,1280_800,Intel(R) Core(TM)2 Duo CPU     P8600  @ 2.40GHz,orientation_search,GRVLAPTOP1,Quadro NVS 160M/PCIe/SSE2,2018_nov_08_1318,testMonitor,
84.6,61.4,72.3,67.1,36,-20,84.3,89.7,63.2,60.8,8.398,8.013,8.148,7.832,7.55,8.266,8.163,4.474,-4.55,-8.242,1.171,-1.587,7.949,5.207,-4.844,-8.477,59.3,88.3,-7.738,67.6,86.9,62.0,77.1,69.1,36,87.4,1,5,prime,10,0,80,norm,36,-4.388,up,norm,69.6711022414,80.7,77.3,1.918,51.3,3,72.7,67.6,78.8,10,6,8.315,4.472,2.003,-2.091,-4.467,-8.344,73.8,6,149.7,-7.508,-7.561,-20,-8.116,-7.696,-4.588,-4.651,-4.737,-4.438,5.264,8.014,9,-1.113,1.973,4.703,7.678,-8.189,-8.275,-1.59,1.444,,57.7,71.3,61.1,77.6,56.0,63.6,71.3,54.3,49.7,3,norm,1.627,1.492,-1.954,-1.586,-4.808,-4.355,-1.438,-1.117,-1.945,-1.581,1.641,-1.844,70.5,63.7,-5.231,-7.869,62.1,-1.215,7.589,4.657,-5.001,-7.969,14,4.68,4.602,4.715,4.856,1.998,1.305,1.421,1.842,14,4.735,4.355,-30,95.6113141908,norm,0,51,51,51,1887.029,1887.035,1887.04456485,1887.045,1887.048,1887.053,up,1,1.87904157501,8.12095842499,001,302,1280_800,Intel(R) Core(TM)2 Duo CPU     P8600  @ 2.40GHz,orientation_search,GRVLAPTOP1,Quadro NVS 160M/PCIe/SSE2,2018_nov_08_1318,testMonitor,
68.2,84.2,66.8,66.5,36,-20,86.9,70.7,67.1,,8.064,8.388,7.916,8.17,8.303,8.016,8.212,5.205,-4.721,-8.461,1.275,-1.53,7.51,4.988,-5.161,-7.562,56.1,69.6,-8.253,67.7,85.2,81.5,84.6,68.4,36,71.6,4,5,prime,10,0,112,norm,36,-4.326,up,norm,69.6711022414,64.6,70.9,1.837,89.7,5,87.9,61.6,72.7,10,6,8.292,4.466,1.763,-1.641,-4.604,-7.56,79.8,6,181.7,-7.645,-7.589,-20,-7.685,-7.934,-4.798,-4.441,-4.361,-4.939,5.172,7.935,29,-1.338,1.626,4.864,8.397,-8.139,-7.831,-1.906,1.629,64.7,74.4,70.9,69.1,73.7,65.3,49.7,79.7,65.9,82.5,4,norm,1.236,1.211,-1.787,-1.773,-4.55,-4.905,-1.11,-1.538,-1.194,-1.78,1.167,-1.277,61.5,86.1,-4.607,-7.918,55.8,-1.684,8.146,4.905,-4.842,-7.793,14,5.167,4.34,5.036,4.683,2.062,1.169,1.11,1.718,14,4.568,5.236,-30,95.6113141908,norm,0,52,52,52,1888.968,1888.975,1888.98167345,1888.982,1888.986,1888.991,up,1,2.61329883542,7.38670116458,001,302,1280_800,Intel(R) Core(TM)2 Duo CPU     P8600  @ 2.40GHz,orientation_search,GRVLAPTOP1,Quadro NVS 160M/PCIe/SSE2,2018_nov_08_1318,testMonitor,
66.0,89.7,67.5,68.5,36,-20,58.0,54.9,71.9,50.0,7.574,7.843,7.749,7.59,7.654,7.62,7.762,4.786,-4.746,-7.928,1.251,-1.297,7.575,4.604,-5.093,-8.043,53.3,76.0,-8.484,,61.4,67.9,49.7,79.2,36,71.6,5,5,prime,10,0,71,norm,36,-4.326,down,norm,69.6711022414,50.3,50.7,1.902,50.1,1,76.9,77.5,61.1,10,6,8.101,4.496,1.296,-1.523,-4.629,-7.521,75.1,6,140.7,-8.366,-8.434,-20,-8.02,-7.749,-5.165,-4.711,-4.609,-4.633,4.815,8.103,31,-2.092,1.163,4.726,8.193,-8.095,-8.211,-1.584,1.438,66.9,84.6,60.4,75.4,69.7,50.8,79.7,81.8,66.6,68.7,5,norm,1.807,1.286,-1.627,-1.54,-4.83,-4.542,-1.395,-1.315,-1.824,-1.287,1.307,-1.681,65.9,67.8,-5.24,-8.312,72.9,-1.647,8.37,4.462,-4.38,-8.188,14,4.864,4.875,4.457,4.365,1.144,1.148,1.755,1.255,14,5.27,4.827,-30,95.6113141908,norm,0,53,53,53,1891.621,1891.627,1891.63685996,1891.637,1891.641,1891.646,down,1,2.86391530245,7.13608469755,001,302,1280_800,Intel(R) Core(TM)2 Duo CPU     P8600  @ 2.40GHz,orientation_search,GRVLAPTOP1,Quadro NVS 160M/PCIe/SSE2,2018_nov_08_1318,testMonitor,
164.6,153.5,157.6,156.5,36,80,159.7,155.7,153.0,165.4,8.254,7.645,7.887,7.707,8.212,8.37,8.007,4.973,-4.612,-7.863,1.762,-1.909,8.014,4.575,-4.971,-7.666,163.2,157.3,-8.282,161.1,162.0,157.4,163.4,149.8,36,149.1,1,5,probe,5,0,113,norm,36,-4.83,up,norm,159.136082327,161.1,160.9,1.641,157.2,3,167.0,162.1,160.3,10,6,7.53,4.39,1.919,-1.835,-4.544,-8.23,165.5,2,46.1,-7.549,-8.255,-20,-8.356,-8.327,-4.83,-4.725,-4.306,-4.851,5.083,8.329,9,-1.448,1.23,5.085,8.107,-7.878,-7.721,-1.729,1.218,,159.9,169.1,166.1,157.4,160.6,156.5,158.1,164.7,156.3,0,norm,1.119,1.45,-1.772,-1.846,-4.484,-5.175,-2.0,-1.954,-1.617,-1.594,1.796,-1.811,159.7,159.2,-4.598,-8.359,155.4,-2.089,7.92,4.899,-4.319,-7.781,15,4.929,4.686,4.812,5.193,1.979,1.823,1.89,1.424,15,5.079,5.003,-20,69.6711022414,norm,0,54,54,54,1894.527,1894.533,1894.54259065,1894.543,1894.547,1894.552,up,1,1.69520757563,8.30479242437,001,302,1280_800,Intel(R) Core(TM)2 Duo CPU     P8600  @ 2.40GHz,orientation_search,GRVLAPTOP1,Quadro NVS 160M/PCIe/SSE2,2018_nov_08_1318,testMonitor,
136.6,133.1,136.7,135.0,36,80,142.9,137.1,129.8,125.6,8.0,7.601,7.516,8.226,7.824,7.801,7.624,4.742,-5.027,-8.179,1.821,-1.25,8.416,4.599,-5.061,-7.73,144.0,137.0,-8.465,137.3,132.6,141.4,136.1,144.0,36,125.1,1,5,probe,5,0,89,norm,36,-5.038,down,norm,135.136082327,138.0,145.1,1.647,143.2,0,133.1,136.5,139.2,10,6,7.985,5.231,1.344,-1.295,-5.263,-8.398,130.7,2,46.1,-7.578,-7.721,-20,-7.876,-7.598,-4.423,-4.587,-5.127,-5.129,4.951,7.678,6,-1.585,2.087,4.373,8.206,-8.251,-8.249,-1.538,1.476,139.7,135.7,138.9,134.8,136.7,131.3,138.2,,135.3,133.6,1,norm,1.282,1.466,-1.186,-1.921,-4.739,-5.211,-1.542,-1.221,-1.659,-1.131,1.909,-1.155,127.9,139.1,-4.714,-7.652,130.1,-1.111,7.651,5.036,-5.147,-7.62,15,5.153,4.707,5.275,5.278,1.725,1.368,1.504,1.654,15,4.38,4.528,-20,69.6711022414,norm,0,55,55,55,1896.264,1896.27,1896.27935185,1896.28,1896.283,1896.288,down,1,1.34457523978,8.65542476022,001,302,1280_800,Intel(R) Core(TM)2 Duo CPU     P8600  @ 2.40GHz,orientation_search,GRVLAPTOP1,Quadro NVS 160M/PCIe/SSE2,2018_nov_08_1318,testMonitor,
169.7,190.9,189.3,187.6,36,-10,192.7,189.4,183.8,163.2,7.949,8.211,8.441,8.257,8.391,7.534,8.364,4.58,-4.399,-8.373,1.26,-1.239,7.737,4.486,-5.068,-7.767,173.7,169.9,-8.132,179.9,190.5,183.5,184.2,164.0,36,194.3,0,5,prime,10,0,104,norm,36,-4.385,up,norm,180.666796747,164.9,192.5,1.924,197.0,5,190.8,166.7,183.8,10,5,8.201,4.911,1.428,-1.493,-5.201,-7.807,191.6,5,284.7,-8.161,-7.98,-10,-7.68,-8.162,-4.31,-4.466,-4.385,-4.61,4.445,7.668,5,-1.124,1.351,5.237,8.456,-8.444,-8.354,-1.34,1.223,169.5,200.7,184.5,174.7,160.7,181.2,186.5,187.2,,170.0,0,norm,1.42,1.651,-1.288,-1.679,-5.141,-4.806,-1.626,-1.348,-1.271,-1.34,1.809,-1.907,179.9,174.4,-5.173,-7.992,168.2,-1.578,7.932,5.223,-4.576,-7.586,16,5.195,4.743,4.723,5.013,1.254,1.154,1.404,1.532,16,4.398,4.862,80,69.6711022414,norm,0,56,56,56,1897.649,1897.655,1897.6653648,1897.666,1897.669,1897.675,up,1,2.98074869146,7.01925130854,001,302,1280_800,Intel(R) Core(TM)2 Duo CPU     P8600  @ 2.40GHz,orientation_search,GRVLAPTOP1,Quadro NVS 160M/PCIe/SSE2,2018_nov_08_1318,testMonitor,
181.7,200.7,186.1,193.7,36,-10,186.9,183.3,172.1,181.3,7.581,7.663,7.502,8.427,8.331,7.771,7.872,4.489,-4.449,-7.755,1.917,-1.793,8.092,5.298,-4.527,-8.5,169.8,181.3,-7.663,183.3,174.5,184.8,175.3,181.2,36,182.2,2,5,prime,10,0,82,norm,36,-4.4,up,norm,180.666796747,189.6,179.2,2.092,174.1,3,173.3,171.3,180.6,10,5,7.522,4.315,1.693,-1.146,-4.379,-8.16,180.1,5,262.7,-7.522,-8.001,-10,-8.091,-8.177,-4.991,-5.257,-5.257,-4.535,4.95,8.231,15,-1.432,1.852,4.816,8.134,-7.846,-7.802,-1.477,1.811,170.7,200.0,172.7,176.4,160.7,163.5,175.1,191.6,175.8,176.9,1,norm,1.456,1.123,-1.677,-1.592,-4.686,-4.464,-1.75,-1.753,-1.638,-1.909,2.056,-1.731,169.7,172.2,-4.54,-8.083,,-1.26,8.316,5.033,-4.408,-7.683,16,4.931,4.728,5.218,5.262,1.547,1.949,1.491,1.57,16,5.105,4.696,80,69.6711022414,norm,0,57,57,57,1900.672,1900.679,1900.68790236,1900.688,1900.692,1900.697,down,0,1.81178988665,-10,001,302,1280_800,Intel(R) Core(TM)2 Duo CPU     P8600  @ 2.40GHz,orientation_search,GRVLAPTOP1,Quadro NVS 160M/PCIe/SSE2,2018_nov_08_1318,testMonitor,
200.7,186.9,187.6,184.5,36,-10,178.3,165.4,187.4,180.4,7.73,8.411,7.94,7.71,7.582,7.635,8.179,4.929,-4.909,-7.937,1.445,-1.953,8.428,4.341,-4.324,-7.535,171.0,,-8.325,179.7,175.2,177.2,184.0,163.8,36,176.2,5,5,prime,10,0,97,norm,36,-4.497,up,norm,180.666796747,178.1,174.8,2.079,173.3,4,163.9,182.0,176.6,10,5,8.341,5.263,1.299,-1.278,-4.885,-8.135,182.1,5,277.7,-7.626,-8.1,-10,-8.048,-7.518,-5.042,-4.949,-5.039,-5.256,4.681,8.121,34,-1.255,1.904,5.227,7.543,-8.38,-8.138,-1.312,1.954,185.2,160.7,189.7,197.3,196.7,192.7,176.8,167.1,177.8,162.8,2,norm,2.032,1.169,-1.226,-1.155,-4.863,-5.193,-1.385,-1.571,-1.469,-1.512,1.753,-1.718,182.4,169.2,-4.367,-8.167,162.1,-1.11,7.694,4.496,-5.04,-8.085,16,4.777,4.877,5.058,4.518,1.116,1.242,1.842,1.261,16,5.049,4.702,80,69.6711022414,norm,0,58,58,58,1903.561,1903.568,1903.57691006,1903.577,1903.581,1903.586,up,1,0.977307169325,9.02269283067,001,302,1280_800,Intel(R) Core(TM)2 Duo CPU     P8600  @ 2.40GHz,orientation_search,GRVLAPTOP1,Quadro NVS 160M/PCIe/SSE2,2018_nov_08_1318,testMonitor,
183.2,177.2,193.9,177.0,36,-10,,191.7,179.7,195.1,7.937,7.516,7.923,7.835,8.263,8.442,8.303,4.44,-5.163,-7.808,1.719,-1.157,8.256,5.096,-4.864,-8.285,180.6,184.8,-7.859,183.8,177.5,194.5,173.9,199.1,36,176.3,4,5,prime,10,0,118,norm,36,-5.006,down,norm,180.666796747,168.6,174.5,1.624,197.0,0,181.1,160.7,177.0,10,5,8.179,4.579,1.465,-1.247,-4.766,-7.882,170.7,5,298.7,-8.437,-8.292,-10,-7.883,-7.668,-5.225,-4.806,-5.043,-4.456,4.937,8.122,24,-1.73,1.861,5.043,7.644,-8.246,-7.734,-1.868,1.925,186.1,181.5,164.2,200.7,178.8,184.2,184.7,167.4,182.4,182.2,3,norm,1.744,1.672,-1.351,-1.305,-4.662,-4.687,-1.433,-1.332,-1.54,-1.651,1.734,-1.731,189.7,192.6,-4.709,-7.606,166.9,-1.557,7.666,4.556,-4.576,-7.842,16,4.581,5.272,4.74,4.343,1.49,1.894,1.955,1.106,16,5.007,4.952,80,69.6711022414,norm,0,59,59,59,1904.58,1904.586,1904.59558693,1904.596,1904.6,1904.605,down,1,3.18095537099,6.81904462901,001,302,1280_800,Intel(R) Core(TM)2 Duo CPU     P8600  @ 2.40GHz,orientation_search,GRVLAPTOP1,Quadro NVS 160M/PCIe/SSE2,2018_nov_08_1318,testMonitor,
170.7,178.9,,174.1,36,-10,191.5,175.7,182.2,165.8,8.348,7.896,7.684,7.549,7.708,7.546,8.23,4.736,-4.836,-8.331,1.948,-1.464,7.802,4.532,-5.258,-7.69,173.1,166.9,-7.78,173.0,170.1,176.7,163.4,176.1,36,195.0,3,5,prime,10,0,119,norm,36,-5.292,down,norm,180.666796747,194.9,196.0,1.577,174.0,2,160.7,200.7,184.3,10,5,8.36,4.971,1.852,-1.793,-5.221,-8.252,177.2,5,299.7,-7.69,-8.363,-10,-8.216,-8.149,-5.203,-4.906,-5.228,-4.409,5.058,8.35,20,-1.771,1.224,5.185,8.297,-8.117,-7.561,-2.032,2.072,166.2,176.7,178.4,177.0,179.6,188.3,189.8,169.1,189.8,176.7,4,norm,1.309,1.293,-1.325,-1.281,-4.96,-5.055,-1.247,-1.47,-1.524,-1.811,1.626,-1.109,170.0,189.0,-4.851,-7.992,182.7,-1.463,8.188,4.824,-4.497,-8.416,16,5.054,4.984,5.231,5.03,1.972,1.267,1.571,1.783,16,5.22,5.067,80,69.6711022414,norm,0,60,60,60,1907.803,1907.809,1907.81859295,1907.819,1907.823,1907.828,down,1,2.1125761842,7.8874238158,001,302,1280_800,Intel(R) Core(TM)2 Duo CPU     P8600  @ 2.40GHz,orientation_search,GRVLAPTOP1,Quadro NVS 160M/PCIe/SSE2,2018_nov_08_1318,testMonitor,
281.1,282.3,274.5,283.3,36,10,273.4,273.9,272.8,276.2,8.3,7.588,8.342,8.34,7.977,7.782,7.768,5.297,-4.587,-8.449,1.259,-1.947,8.499,4.76,-4.948,-7.691,267.5,280.9,-7.858,276.0,286.9,274.4,274.4,273.6,36,280.6,0,5,probe,5,0,102,norm,36,-4.987,up,norm,276.891452804,270.1,277.6,1.512,274.9,4,281.8,276.6,279.3,10,5,8.231,4.844,1.263,-1.299,-4.589,-8.108,275.9,2,174.9,-7.584,-8.093,-10,-7.685,-7.914,-4.964,-4.971,-4.37,-4.96,4.772,8.287,4,-1.927,1.535,4.412,8.052,-7.781,-7.918,-1.444,1.865,274.0,270.6,284.0,278.5,269.3,271.6,282.0,279.0,270.3,,0,norm,1.532,1.852,-1.383,-1.775,-4.446,-4.83,-1.714,-1.957,-1.216,-1.422,1.643,-1.817,280.5,275.8,-5.002,-8.102,266.9,-1.609,7.755,4.393,-5.112,-8.174,17,4.554,5.244,4.714,4.979,1.32,1.889,1.971,1.781,17,5.095,4.444,-10,180.666796747,norm,0,61,61,61,1909.957,1909.963,1909.97271377,1909.973,1909.977,1909.982,up,1,1.4283719838,8.5716280162,001,302,1280_800,Intel(R) Core(TM)2 Duo CPU     P8600  @ 2.40GHz,orientation_search,GRVLAPTOP1,Quadro NVS 160M/PCIe/SSE2,2018_nov_08_1318,testMonitor,
289.8,283.2,285.3,280.7,36,10,286.2,287.1,296.9,286.7,8.378,8.294,8.093,8.107,8.369,7.612,8.449,5.274,-4.691,-7.61,1.489,-1.219,7.823,4.85,-4.517,-7.881,287.9,290.7,-8.35,293.3,292.5,287.1,,282.2,36,283.0,5,5,probe,5,0,112,norm,36,-4.836,down,norm,286.891452804,289.5,283.3,1.583,289.0,2,282.2,295.0,286.3,10,5,8.463,4.927,1.684,-2.091,-4.811,-8.043,292.2,2,174.9,-8.441,-8.454,-10,-7.982,-8.456,-5.165,-5.066,-5.178,-4.58,4.732,8.305,32,-1.295,2.037,4.629,7.809,-7.729,-8.437,-1.811,1.775,287.6,296.6,280.5,276.9,281.0,277.1,287.7,281.6,288.3,282.4,1,norm,1.483,1.799,-2.088,-1.438,-5.261,-4.723,-1.676,-1.392,-1.631,-1.797,1.804,-1.34,282.3,286.3,-4.348,-7.993,288.3,-2.026,8.11,4.702,-5.134,-8.116,17,4.638,5.073,4.552,4.722,1.779,1.927,1.787,1.961,17,5.094,4.816,-10,180.666796747,norm,0,62,62,62,1911.427,1911.433,1911.44231515,1911.443,1911.446,1911.451,down,1,1.27776625281,8.72223374719,001,302,1280_800,Intel(R) Core(TM)2 Duo CPU     P8600  @ 2.40GHz,orientation_search,GRVLAPTOP1,Quadro NVS 160M/PCIe/SSE2,2018_nov_08_1318,testMonitor,
303.6,295.1,301.9,321.5,36,0,304.1,304.9,313.0,322.9,7.671,7.778,8.017,8.471,8.28,7.549,8.343,5.268,-4.303,-8.218,1.899,-1.542,8.139,4.832,-4.605,-7.654,309.1,298.9,-8.332,319.1,293.1,313.1,300.4,308.4,36,302.0,1,5,prime,10,0,73,norm,36,-4.735,up,norm,311.927393099,306.7,300.1,1.821,313.2,4,306.3,319.5,291.9,10,6,8.202,4.629,1.207,-1.914,-5.128,-7.574,,6,384.9,-8.336,-7.911,0,-8.009,-7.818,-4.567,-4.568,-5.184,-4.45,5.276,8.072,10,-1.683,1.46,4.982,8.361,-8.267,-7.861,-1.235,1.247,326.6,303.4,312.2,315.0,331.9,308.4,308.1,311.2,325.9,298.8,0,norm,1.316,1.41,-1.823,-2.04,-4.806,-5.092,-1.362,-1.504,-1.47,-1.357,1.463,-1.578,320.0,331.3,-5.235,-7.562,311.4,-1.101,7.838,4.795,-4.919,-8.231,18,5.212,4.593,4.745,4.521,1.38,1.754,1.156,1.702,18,4.59,4.477,10,180.666796747,norm,0,63,63,63,1912.746,1927.096,1927.10644509,1927.107,1927.11,1927.115,up,1,1.26119382237,8.73880617763,001,302,1280_800,Intel(R) Core(TM)2 Duo CPU     P8600  @ 2.40GHz,orientation_search,GRVLAPTOP1,Quadro NVS 160M/PCIe/SSE2,2018_nov_08_1318,testMonitor,
309.7,311.9,309.2,318.0,36,0,301.4,308.4,317.4,320.6,8.464,7.907,7.922,7.971,8.31,8.455,7.865,5.172,-4.798,-8.239,1.855,-1.133,7.586,4.441,-5.154,-7.677,318.4,316.2,-8.179,323.1,291.9,329.3,,312.9,36,300.5,5,5,prime,10,0,81,norm,36,-4.924,down,norm,311.927393099,331.9,306.1,1.457,301.1,2,301.0,308.4,315.3,10,6,8.363,4.772,1.673,-1.516,-4.946,-7.526,321.2,6,392.9,-7.973,-7.587,0,-7.766,-8.442,-4.93,-4.851,-5.07,-4.95,4.817,8.276,32,-1.108,1.69,4.432,8.211,-8.449,-8.121,-2.029,1.486,302.3,298.9,327.6,323.9,319.8,306.1,301.0,317.6,308.1,317.1,1,norm,1.121,1.451,-1.553,-1.612,-4.329,-4.741,-1.79,-1.291,-1.438,-1.758,1.465,-1.379,321.6,314.7,-4.941,-8.242,313.7,-1.891,7.801,4.519,-4.934,-8.065,18,5.133,4.649,4.715,5.023,1.583,2.039,1.17,1.114,18,4.403,5.193,10,180.666796747,norm,0,64,64,64,1928.393,1928.399,1928.40898081,1928.409,1928.413,1928.418,down,1,1.74541889603,8.25458110397,001,302,1280_800,Intel(R) Core(TM)2 Duo CPU     P8600  @ 2.40GHz,orientation_search,GRVLAPTOP1,Quadro NVS 160M/PCIe/SSE2,2018_nov_08_1318,testMonitor,
331.5,299.6,291.9,315.1,36,0,310.7,305.8,302.6,302.7,8.453,8.378,8.002,8.121,7.713,8.134,7.564,4.936,-4.5,-7.881,1.807,-1.113,7.773,5.23,-4.596,-7.949,319.4,315.5,-7.523,314.3,305.9,308.2,302.0,307.1,36,319.0,2,5,prime,10,0,110,norm,36,-5.03,up,norm,311.927393099,,309.4,1.546,302.0,5,328.6,319.3,331.9,10,6,7.99,4.501,1.846,-1.216,-4.802,-8.328,315.0,6,421.9,-7.658,-8.407,0,-7.762,-7.554,-4.751,-5.257,-4.567,-4.734,4.985,8.178,17,-1.518,1.757,4.94,8.208,-8.346,-7.554,-1.665,1.324,307.8,318.1,314.4,316.2,318.1,315.2,296.4,322.2,316.9,308.5,2,norm,1.158,1.509,-2.037,-1.831,-4.447,-4.603,-2.086,-1.829,-1.534,-1.477,1.319,-1.745,306.6,304.2,-4.312,-7.581,323.3,-1.932,8.208,4.42,-4.434,-8.45,18,4.712,4.918,4.52,4.673,1.296,1.6,1.286,1.316,18,4.781,5.07,10,180.666796747,norm,0,65,65,65,1930.18,1930.189,1930.19577667,1930.196,1930.2,1930.205,up,1,1.1773200868,8.8226799132,001,302,1280_800,Intel(R) Core(TM)2 Duo CPU     P8600  @ 2.40GHz,orientation_search,GRVLAPTOP1,Quadro NVS 160M/PCIe/SSE2,2018_nov_08_1318,testMonitor,
294.3,311.4,304.6,326.7,36,0,305.9,310.1,313.0,311.8,7.815,8.15,8.029,7.937,8.377,7.546,8.01,4.947,-5.042,-8.382,1.423,-1.602,8.422,5.254,-4.747,-7.871,331.9,300.3,-8.28,,317.6,328.8,301.5,316.5,36,292.2,5,5,prime,10,0,80,norm,36,-4.912,down,norm,311.927393099,305.4,296.8,1.782,303.5,1,321.1,319.9,309.4,10,6,8.45,4.784,1.332,-1.161,-4.872,-7.814,304.7,6,391.9,-8.199,-7.984,0,-7.856,-8.378,-4.543,-5.271,-4.856,-4.518,4.575,8.395,31,-1.719,1.814,4.746,7.805,-8.247,-7.532,-1.707,1.894,311.9,321.7,309.6,307.8,328.5,319.9,304.8,298.9,313.6,320.1,3,norm,1.891,2.068,-1.275,-1.191,-4.405,-5.286,-1.103,-1.875,-1.426,-1.655,1.799,-1.206,305.4,301.6,-5.076,-8.36,301.3,-1.825,8.021,4.846,-4.883,-7.643,18,4.84,5.209,4.49,4.49,1.499,1.156,2.076,1.718,18,4.618,4.562,10,180.666796747,norm,0,66,66,66,1931.399,1931.406,1931.41478511,1931.415,1931.419,1931.425,down,1,1.86146098304,8.13853901696,001,302,1280_800,Intel(R) Core(TM)2 Duo CPU     P8600  @ 2.40GHz,orientation_search,GRVLAPTOP1,Quadro NVS 160M/PCIe/SSE2,2018_nov_08_1318,testMonitor,
298.6,291.9,312.8,306.0,36,0,313.9,306.4,309.5,314.5,8.457,8.117,8.005,7.944,8.101,8.104,7.717,5.154,-4.881,-7.927,1.688,-1.655,8.016,4.795,-4.593,-8.27,308.7,304.9,-8.05,322.1,,309.6,315.9,323.2,36,313.6,5,5,prime,10,0,85,norm,36,-4.803,down,norm,311.927393099,310.8,313.4,1.447,331.9,0,328.7,310.2,296.9,10,6,8.091,5.11,1.614,-1.705,-5.131,-7.628,319.0,6,396.9,-7.807,-7.622,0,-8.298,-7.648,-4.325,-4.493,-5.267,-4.452,4.632,8.281,30,-1.4,1.887,5.009,8.4,-8.354,-8.388,-1.554,1.736,314.3,303.1,305.4,322.7,311.4,322.3,301.8,312.2,325.8,309.7,4,norm,1.305,1.34,-1.472,-1.908,-4.921,-4.613,-1.417,-1.233,-1.289,-1.46,1.779,-1.509,302.3,313.3,-4.542,-8.228,299.6,-1.763,8.235,4.416,-5.024,-8.37,18,4.47,5.221,4.565,5.006,1.852,1.148,1.946,1.71,18,4.653,5.12,10,180.666796747,norm,0,67,67,67,1933.303,1933.309,1933.31856536,1933.319,1933.323,1933.327,down,1,1.21107061451,8.78892938549,001,302,1280_800,Intel(R) Core(TM)2 Duo CPU     P8600  @ 2.40GHz,orientation_search,GRVLAPTOP1,Quadro NVS 160M/PCIe/SSE2,2018_nov_08_1318,testMonitor,
331.1,314.4,313.1,322.8,36,0,300.0,291.9,306.8,319.3,8.179,8.373,8.137,8.255,8.426,8.011,8.493,4.77,-4.472,-7.947,1.597,-2.075,8.1,4.814,-5.291,-8.45,312.6,298.0,-8.487,319.4,313.9,325.7,309.4,308.9,36,302.1,0,5,prime,10,0,65,norm,36,-4.694,down,norm,311.927393099,314.2,312.0,1.203,299.4,2,322.2,322.6,330.5,10,6,8.495,4.762,1.319,-2.031,-5.269,-8.402,306.0,6,376.9,-7.735,-7.986,0,-8.486,-7.834,-4.77,-4.404,-4.469,-4.605,5.251,8.012,2,-1.962,1.8,4.344,8.105,-7.741,-7.571,-2.038,2.053,309.8,297.2,319.0,,297.0,314.5,305.3,305.2,316.8,317.0,5,norm,1.339,1.275,-1.366,-1.644,-5.17,-4.712,-1.842,-1.212,-1.77,-1.88,1.49,-1.71,308.3,331.9,-4.514,-8.269,309.8,-1.897,8.345,5.031,-4.502,-7.982,18,5.135,5.015,4.584,4.583,1.438,1.455,1.444,1.646,18,4.838,4.965,10,180.666796747,norm,0,68,68,68,1934.555,1934.561,1934.57103005,1934.571,1934.575,1934.58,down,1,1.34477199595,8.65522800405,001,302,1280_800,Intel(R) Core(TM)2 Duo CPU     P8600  @ 2.40GHz,orientation_search,GRVLAPTOP1,Quadro NVS 160M/PCIe/SSE2,2018_nov_08_1318,testMonitor,
410.2,412.7,411.1,422.5,36,60,410.0,415.2,418.6,423.0,8.11,8.269,8.446,8.047,7.687,8.239,8.034,4.565,-4.422,-8.167,1.79,-1.741,7.979,4.603,-4.733,-7.795,415.5,417.9,-7.582,413.0,408.0,416.7,411.4,418.7,36,421.9,0,5,probe,5,0,98,norm,36,-4.733,up,norm,413.017818978,411.5,413.1,1.787,415.6,5,415.6,418.5,410.1,10,6,7.538,4.948,2.088,-1.699,-4.466,-7.515,409.1,2,315.0,-7.878,-8.47,0,-7.585,-7.83,-4.583,-5.241,-4.523,-4.721,4.924,8.431,5,-1.62,1.324,4.638,8.033,-7.839,-7.922,-1.624,1.905,422.5,409.5,408.5,412.0,408.5,403.0,409.6,406.3,,412.8,0,norm,1.138,1.953,-1.743,-1.822,-4.615,-4.623,-1.762,-1.453,-1.209,-1.472,1.956,-1.745,418.9,413.1,-4.793,-7.636,411.4,-1.994,7.693,4.657,-4.928,-8.055,19,5.135,4.737,4.903,4.597,1.623,1.419,1.293,1.337,19,4.438,5.071,0,311.927393099,norm,0,69,69,69,1935.941,1935.947,1935.95714479,1935.957,1935.961,1935.966,up,1,1.14430611155,8.85569388845,001,302,1280_800,Intel(R) Core(TM)2 Duo CPU     P8600  @ 2.40GHz,orientation_search,GRVLAPTOP1,Quadro NVS 160M/PCIe/SSE2,2018_nov_08_1318,testMonitor,
433.1,431.0,421.9,427.5,36,60,423.7,427.3,424.5,428.1,7.849,8.089,8.403,7.719,7.984,7.543,7.769,4.829,-4.599,-8.301,1.59,-1.615,7.675,4.895,-4.678,-7.791,418.0,429.8,-7.976,426.6,424.9,430.4,425.5,424.7,36,426.1,2,5,probe,5,0,113,norm,36,-4.974,up,norm,428.017818978,427.1,428.1,2.025,434.3,3,420.5,423.4,422.4,10,6,8.399,4.79,1.753,-1.286,-5.216,-8.212,421.8,2,315.0,-7.679,-7.926,0,-8.308,-8.399,-5.214,-4.798,-4.903,-4.373,5.235,7.927,15,-1.559,1.101,4.815,7.638,-8.215,-8.052,-1.883,2.1,438.0,426.0,437.7,421.5,430.4,437.5,428.4,429.6,433.3,430.9,1,norm,1.808,2.025,-1.623,-1.186,-4.303,-4.608,-1.38,-2.09,-1.626,-1.84,1.463,-1.636,421.3,429.6,-5.001,-7.644,,-1.914,8.134,5.241,-4.874,-8.401,19,4.543,4.484,4.936,4.839,1.447,1.101,1.307,1.126,19,4.959,5.251,0,311.927393099,norm,0,70,70,70,1937.127,1937.133,1937.14266619,1937.143,1937.147,1937.152,up,1,1.59546331588,8.40453668412,001,302,1280_800,Intel(R) Core(TM)2 Duo CPU     P8600  @ 2.40GHz,orientation_search,GRVLAPTOP1,Quadro NVS 160M/PCIe/SSE2,2018_nov_08_1318,testMonitor,
315.0,297.4,314.2,332.7,36,80,315.7,326.7,301.2,311.3,8.096,8.464,8.203,7.897,8.305,7.806,8.04,4.574,-4.962,-7.904,1.407,-1.585,8.167,4.356,-4.667,-7.705,320.4,315.7,-7.839,324.9,318.0,315.0,309.6,309.7,36,293.4,0,5,prime,10,0,75,norm,36,-5.107,up,norm,312.713220783,328.6,302.4,2.097,292.7,5,321.9,305.2,321.7,10,6,8.115,4.493,1.482,-1.654,-5.159,-8.431,322.5,6,387.7,-8.305,-7.7,80,-7.78,-8.023,-4.48,-4.777,-4.971,-4.315,4.936,7.532,5,-1.941,1.374,5.294,8.101,-8.316,-8.41,-1.303,1.835,314.8,314.4,322.7,332.2,321.8,317.7,300.7,309.1,,315.1,0,norm,2.099,1.706,-2.062,-1.513,-4.459,-4.411,-1.218,-2.069,-1.529,-1.63,1.592,-1.176,302.1,322.4,-5.065,-7.806,305.3,-1.665,7.524,4.979,-4.404,-8.48,20,4.899,4.826,4.472,4.86,1.667,1.299,1.936,1.275,20,5.151,4.435,60,311.927393099,norm,0,71,71,71,1938.764,1938.769,1938.77936019,1938.78,1938.783,1938.788,up,1,1.49481526092,8.50518473908,001,302,1280_800,Intel(R) Core(TM)2 Duo CPU     P8600  @ 2.40GHz,orientation_search,GRVLAPTOP1,Quadro NVS 160M/PCIe/SSE2,2018_nov_08_1318,testMonitor,
332.2,327.5,317.2,311.2,36,80,300.4,322.4,306.6,317.0,8.314,8.426,8.273,7.515,7.725,8.201,8.414,5.287,-4.908,-8.068,1.157,-1.139,7.982,5.25,-5.068,-7.794,300.1,299.4,-8.483,313.6,321.4,298.2,313.0,304.0,36,,4,5,prime,10,0,77,norm,36,-4.691,up,norm,312.713220783,316.8,304.2,1.265,316.6,3,317.9,311.8,306.1,10,6,7.911,5.185,1.701,-1.958,-4.788,-8.021,318.3,6,389.7,-7.868,-8.47,80,-7.952,-8.418,-5.053,-4.969,-5.227,-5.212,4.374,7.844,27,-1.886,1.231,4.865,7.643,-8.48,-7.77,-1.731,1.365,309.3,292.7,322.0,323.3,317.3,332.7,313.8,325.6,319.9,294.7,1,norm,1.705,1.936,-1.174,-1.437,-4.634,-4.708,-1.474,-1.567,-1.761,-1.192,1.138,-1.407,301.8,318.6,-4.834,-8.272,323.7,-1.991,7.532,4.887,-4.783,-8.281,20,4.302,4.375,5.092,4.888,1.729,1.69,1.781,1.632,20,4.452,4.516,60,311.927393099,norm,0,72,72,72,1940.3,1940.306,1940.31568587,1940.316,1940.32,1940.325,up,1,1.5614634211,8.4385365789,001,302,1280_800,Intel(R) Core(TM)2 Duo CPU     P8600  @ 2.40GHz,orientation_search,GRVLAPTOP1,Quadro NVS 160M/PCIe/SSE2,2018_nov_08_1318,testMonitor,
304.1,310.0,314.6,332.7,36,80,317.7,313.7,305.1,310.8,7.694,7.957,8.337,8.067,7.95,8.336,7.676,4.433,-4.456,-7.765,2.1,-1.85,8.068,4.787,-4.738,-7.515,307.7,313.2,-7.614,300.7,303.3,298.4,310.7,310.4,36,319.0,1,5,prime,10,0,102,norm,36,-4.535,up,norm,312.713220783,306.5,292.7,1.95,317.6,5,,299.9,311.2,10,6,8.025,4.857,1.521,-1.527,-4.936,-8.407,317.2,6,414.7,-8.482,-7.571,80,-7.708,-8.153,-5.234,-4.903,-4.359,-4.697,5.139,7.775,11,-1.244,1.72,4.716,7.979,-7.973,-7.76,-1.71,1.512,320.3,302.3,307.0,308.0,314.1,320.5,321.9,320.7,309.9,309.8,2,norm,1.855,1.721,-1.868,-1.295,-4.942,-4.961,-1.862,-1.457,-1.583,-2.099,1.848,-1.933,317.4,308.4,-5.094,-8.343,312.2,-1.247,8.056,5.297,-5.053,-8.323,20,5.098,4.795,4.37,4.761,1.348,2.036,1.13,1.832,20,4.931,4.516,60,311.927393099,norm,0,73,73,73,1941.903,1941.909,1941.91884792,1941.919,1941.923,1941.928,up,1,1.41144111494,8.58855888506,001,302,1280_800,Intel(R) Core(TM)2 Duo CPU     P8600  @ 2.40GHz,orientation_search,GRVLAPTOP1,Quadro NVS 160M/PCIe/SSE2,2018_nov_08_1318,testMonitor,
311.3,321.7,318.3,313.0,36,80,298.9,332.7,311.3,310.3,7.518,8.295,7.603,7.603,7.848,8.076,8.108,4.39,-4.413,-8.079,1.974,-1.629,7.97,4.485,-4.705,-7.74,302.7,305.4,-7.626,295.7,294.1,,307.9,320.3,36,327.0,5,5,prime,10,0,103,norm,36,-4.735,up,norm,312.713220783,324.8,300.2,1.142,321.3,3,313.3,304.4,328.5,10,6,7.786,5.126,1.11,-1.294,-4.693,-7.997,300.4,6,415.7,-8.099,-8.195,80,-7.913,-7.936,-5.018,-4.598,-5.124,-4.365,4.365,7.782,33,-1.65,1.523,5.156,8.214,-7.882,-7.66,-1.111,1.954,298.5,292.7,296.2,300.9,299.2,317.2,304.4,310.3,319.4,306.3,3,norm,1.503,1.955,-1.118,-1.308,-4.995,-5.189,-2.021,-2.034,-1.821,-1.286,1.537,-1.823,332.6,308.9,-4.88,-8.411,299.9,-1.204,8.233,4.567,-4.791,-7.925,20,4.488,4.665,4.658,5.251,1.337,1.817,1.545,1.965,20,4.902,4.817,60,311.927393099,norm,0,74,74,74,1943.356,1943.362,1943.3716121,1943.372,1943.376,1943.38,up,1,2.37997552524,7.62002447476,001,302,1280_800,Intel(R) Core(TM)2 Duo CPU     P8600  @ 2.40GHz,orientation_search,GRVLAPTOP1,Quadro NVS 160M/PCIe/SSE2,2018_nov_08_1318,testMonitor,
310.2,320.4,315.1,316.9,36,80,,315.4,294.7,292.7,7.962,8.146,7.87,8.018,8.063,8.468,7.671,4.751,-4.306,-8.301,1.361,-1.832,7.627,4.766,-4.346,-8.085,332.1,300.1,-7.99,330.4,302.2,322.3,300.5,308.2,36,299.9,4,5,prime,10,0,85,norm,36,-4.598,down,norm,312.713220783,313.4,305.6,1.668,309.3,0,322.8,331.1,318.7,10,6,7.582,5.232,1.747,-1.816,-4.715,-8.148,311.5,6,397.7,-8.367,-8.332,80,-7.925,-7.772,-4.478,-4.979,-4.426,-4.322,5.164,7.759,24,-1.792,1.999,4.811,7.69,-8.458,-7.85,-1.915,1.68,312.3,309.5,316.9,312.9,312.0,307.4,320.7,316.8,318.7,315.2,4,norm,1.27,1.845,-1.987,-1.812,-4.661,-5.069,-1.445,-1.642,-2.078,-1.272,1.206,-1.535,309.9,332.7,-5.045,-7.522,310.5,-1.412,8.275,4.425,-4.694,-7.867,20,4.38,5.013,4.621,4.567,1.452,1.609,1.984,1.823,20,4.743,4.633,60,311.927393099,norm,0,75,75,75,1945.777,1945.783,1945.79303475,1945.793,1945.797,1945.802,down,1,0.960680417071,9.03931958293,001,302,1280_800,Intel(R) Core(TM)2 Duo CPU     P8600  @ 2.40GHz,orientation_search,GRVLAPTOP1,Quadro NVS 160M/PCIe/SSE2,2018_nov_08_1318,testMonitor,
,297.4,305.1,321.0,36,80,304.8,318.9,325.9,317.2,7.815,7.708,7.551,7.841,7.739,8.364,8.325,4.724,-5.076,-8.301,1.602,-1.122,8.497,5.237,-4.366,-7.639,319.4,315.6,-7.655,307.6,320.9,319.1,312.9,320.1,36,317.5,3,5,prime,10,0,95,norm,36,-5.06,up,norm,312.713220783,324.4,292.7,1.431,302.3,4,297.2,328.4,313.5,10,6,8.197,4.501,1.131,-1.166,-4.383,-7.928,327.0,6,407.7,-8.263,-8.265,80,-8.284,-7.647,-4.557,-4.588,-4.567,-4.496,4.357,7.904,22,-1.767,1.287,4.358,8.494,-8.439,-7.851,-1.263,1.218,306.3,304.5,332.7,305.5,302.0,303.6,298.3,300.3,323.2,306.2,5,norm,1.734,2.083,-2.073,-1.12,-5.197,-4.788,-1.945,-1.241,-1.454,-1.445,1.757,-1.705,324.9,309.8,-4.462,-7.627,328.2,-1.444,7.961,4.692,-4.647,-7.763,20,5.04,4.901,5.042,4.893,1.576,1.315,1.69,1.745,20,4.315,4.516,60,311.927393099,norm,0,76,76,76,1946.779,1946.785,1946.79505278,1946.795,1946.799,1946.804,up,1,1.71197718997,8.28802281003,001,302,1280_800,Intel(R) Core(TM)2 Duo CPU     P8600  @ 2.40GHz,orientation_search,GRVLAPTOP1,Quadro NVS 160M/PCIe/SSE2,2018_nov_08_1318,testMonitor,
509.0,496.4,510.4,509.6,36,-40,504.2,511.9,506.0,503.7,8.172,7.59,7.758,8.304,8.114,8.045,8.204,5.264,-4.534,-8.205,1.966,-1.137,7.816,5.012,-4.483,-7.592,501.4,513.2,-7.65,499.9,511.4,508.3,504.7,505.3,36,511.0,0,5,probe,5,0,106,norm,36,-5.037,down,norm,506.437538956,503.0,504.2,1.261,499.6,1,509.8,516.4,508.3,10,6,8.401,4.907,1.114,-1.716,-4.984,-7.801,510.4,2,400.4,-8.345,-7.51,80,-7.969,-8.438,-4.969,-5.254,-4.429,-4.383,4.585,7.977,1,-1.135,1.492,5.24,7.526,-8.467,-8.465,-1.782,2.082,503.4,512.1,515.0,513.3,,499.8,514.3,508.6,508.0,510.4,0,norm,1.502,1.481,-1.857,-1.187,-5.261,-5.127,-2.079,-1.658,-1.514,-2.008,1.463,-1.607,507.3,502.7,-4.711,-8.046,503.7,-1.633,7.885,4.735,-4.329,-8.395,21,5.168,4.863,5.289,4.477,1.574,1.654,1.799,1.72,21,4.956,5.238,80,312.713220783,norm,0,77,77,77,1948.533,1948.539,1948.54848821,1948.549,1948.553,1948.558,down,1,0.943319678739,9.05668032126,001,302,1280_800,Intel(R) Core(TM)2 Duo CPU     P8600  @ 2.40GHz,orientation_search,GRVLAPTOP1,Quadro NVS 160M/PCIe/SSE2,2018_nov_08_1318,testMonitor,
521.3,526.1,514.2,509.7,36,-40,513.0,508.2,514.0,510.8,8.161,7.77,8.413,7.786,7.998,7.585,7.849,4.712,-5.23,-7.929,1.826,-1.753,8.121,5.108,-4.461,-8.216,512.6,522.9,-8.196,526.4,518.5,520.6,523.2,515.2,36,515.1,1,5,probe,5,0,116,norm,36,-4.437,up,norm,516.437538956,517.2,519.8,1.46,515.2,3,521.4,513.5,523.8,10,6,7.7,4.54,1.892,-1.458,-4.731,-8.07,517.7,2,400.4,-8.357,-8.28,80,-8.218,-7.868,-4.467,-4.827,-5.045,-5.151,4.463,8.354,9,-1.572,1.247,4.687,8.357,-8.322,-7.73,-1.203,1.15,,515.8,506.4,524.9,511.4,516.6,520.0,516.6,516.2,517.1,1,norm,1.878,1.729,-1.661,-1.826,-4.707,-4.618,-1.38,-1.856,-2.067,-1.966,1.995,-1.116,508.5,513.5,-4.689,-7.67,520.2,-2.097,7.906,4.556,-4.667,-8.263,21,4.686,4.337,4.993,4.615,1.748,1.734,2.034,1.117,21,5.064,5.11,80,312.713220783,norm,0,78,78,78,1949.518,1949.524,1949.53370797,1949.534,1949.538,1949.543,up,1,1.27761611929,8.72238388071,001,302,1280_800,Intel(R) Core(TM)2 Duo CPU     P8600  @ 2.40GHz,orientation_search,GRVLAPTOP1,Quadro NVS 160M/PCIe/SSE2,2018_nov_08_1318,testMonitor,
14.9,23.9,12.7,-5.9,36,-10,5.6,18.2,1.8,12.7,7.625,8.298,7.793,8.141,7.646,8.42,7.806,4.325,-4.759,-7.684,2.024,-1.657,8.429,4.316,-4.859,-7.931,20.3,9.4,-7.575,23.7,7.8,2.0,17.8,-7.5,36,2.2,2,5,prime,10,0,87,norm,36,-5.146,down,norm,12.4604042745,27.1,3.7,1.684,6.5,0,17.6,21.8,,10,6,8.114,4.396,1.255,-1.627,-4.957,-8.094,16.3,6,99.5,-7.511,-7.618,-10,-8.088,-7.522,-5.106,-4.828,-5.16,-4.425,4.626,7.914,12,-1.299,1.569,5.231,7.921,-8.125,-7.948,-1.563,1.987,13.9,16.1,13.7,27.1,15.8,27.5,4.8,18.8,30.8,11.9,0,norm,1.452,1.647,-1.533,-1.892,-4.529,-5.076,-1.911,-1.266,-1.239,-1.143,1.78,-1.858,24.5,15.5,-4.439,-8.008,17.8,-1.798,8.326,4.665,-5.254,-7.895,22,4.489,5.135,4.698,4.792,1.163,1.267,1.673,1.161,22,4.911,4.42,-40,312.713220783,norm,0,79,79,79,1950.837,1950.844,1950.85304923,1950.853,1950.857,1950.863,down,1,2.22893350882,7.77106649118,001,302,1280_800,Intel(R) Core(TM)2 Duo CPU     P8600  @ 2.40GHz,orientation_search,GRVLAPTOP1,Quadro NVS 160M/PCIe/SSE2,2018_nov_08_1318,testMonitor,
22.5,5.7,4.5,21.0,36,-10,7.5,11.0,21.4,19.0,7.62,8.284,7.807,8.077,7.986,7.842,8.119,5.284,-4.511,-7.606,1.55,-1.888,7.637,4.597,-4.362,-8.284,10.2,,-7.737,-7.5,24.7,-2.2,3.1,22.3,36,-3.9,5,5,prime,10,0,71,norm,36,-4.981,up,norm,12.4604042745,3.5,2.8,2.071,24.1,4,16.4,4.5,32.5,10,6,8.306,4.39,1.963,-1.255,-4.953,-7.651,28.0,6,83.5,-8.007,-8.126,-10,-8.045,-8.312,-4.327,-5.244,-4.954,-5.292,4.803,7.949,34,-1.605,2.017,4.552,8.179,-8.32,-8.322,-1.422,1.529,12.7,23.1,8.1,28.1,5.5,6.9,9.2,18.5,12.4,11.2,1,norm,1.417,1.449,-1.63,-1.268,-5.269,-4.615,-1.304,-1.732,-2.013,-1.811,1.393,-1.458,15.2,4.0,-4.625,-7.627,19.8,-1.623,7.805,5.209,-5.001,-7.787,22,5.042,4.891,4.454,5.275,1.199,1.551,1.6,1.812,22,4.535,4.822,-40,312.713220783,norm,0,80,80,80,1953.108,1953.114,1953.12412834,1953.124,1953.128,1953.133,up,1,1.57838145804,8.42161854196,001,302,1280_800,Intel(R) Core(TM)2 Duo CPU     P8600  @ 2.40GHz,orientation_search,GRVLAPTOP1,Quadro NVS 160M/PCIe/SSE2,2018_nov_08_1318,testMonitor,
5.4,31.8,19.9,3.4,36,-10,9.2,9.1,9.1,19.2,8.372,8.16,7.806,7.872,7.505,7.767,8.137,5.097,-4.999,-8.313,1.446,-1.778,8.1,5.087,-4.646,-7.939,3.4,11.9,-8.469,32.2,11.6,23.7,-2.6,20.7,36,19.5,0,5,prime,10,0,101,norm,36,-5.022,down,norm,12.4604042745,-7.5,3.7,1.646,24.8,2,21.2,16.3,5.0,10,6,8.337,4.935,1.605,-1.252,-4.88,-8.159,10.2,6,113.5,-8.229,-8.259,-10,-7.975,-8.231,-5.103,-4.505,-4.381,-4.716,4.778,8.202,2,-1.419,1.991,4.459,7.909,-7.67,-7.941,-1.884,1.647,17.8,4.0,22.4,,32.5,19.2,11.8,5.7,24.4,7.5,2,norm,1.502,1.769,-1.13,-1.879,-4.722,-4.589,-1.848,-1.97,-1.119,-1.12,1.139,-1.133,-2.8,16.3,-5.063,-7.529,-1.0,-1.755,8.07,4.803,-4.844,-7.831,22,4.903,4.672,5.206,4.806,1.804,1.217,1.418,2.063,22,5.139,5.068,-40,312.713220783,norm,0,81,81,81,1954.728,1954.734,1954.74398087,1954.744,1954.748,1954.753,down,1,3.63228495085,6.36771504915,001,302,1280_800,Intel(R) Core(TM)2 Duo CPU     P8600  @ 2.40GHz,orientation_search,GRVLAPTOP1,Quadro NVS 160M/PCIe/SSE2,2018_nov_08_1318,testMonitor,
21.9,9.1,6.1,20.6,36,-10,32.5,20.5,18.1,16.2,8.247,8.328,8.269,7.741,7.826,8.202,7.996,4.319,-4.732,-7.711,1.55,-1.224,8.44,4.649,-4.468,-8.166,18.7,17.5,-8.121,14.6,6.8,14.4,10.6,12.3,36,5.9,1,5,prime,10,0,69,norm,36,-5.235,up,norm,12.4604042745,9.2,1.2,1.951,-7.0,4,9.3,9.4,19.3,10,6,8.071,5.231,1.765,-2.071,-4.49,-8.221,,6,81.5,-7.698,-8.114,-10,-7.577,-8.302,-4.422,-5.104,-4.645,-5.081,4.361,7.717,10,-1.38,1.558,5.015,7.61,-8.471,-7.931,-1.501,1.974,3.0,5.3,-0.5,20.2,16.1,19.2,24.1,8.1,22.2,-0.3,3,norm,1.895,1.724,-1.724,-1.458,-4.729,-4.875,-2.004,-1.627,-2.092,-1.389,1.721,-1.31,-7.5,17.7,-4.67,-7.685,5.0,-1.107,7.677,4.916,-4.457,-8.028,22,5.21,4.319,4.522,5.175,1.514,1.704,1.906,1.438,22,4.521,5.23,-40,312.713220783,norm,0,82,82,82,1958.402,1958.408,1958.41791824,1958.418,1958.422,1958.427,up,1,2.44623402265,7.55376597735,001,302,1280_800,Intel(R) Core(TM)2 Duo CPU     P8600  @ 2.40GHz,orientation_search,GRVLAPTOP1,Quadro NVS 160M/PCIe/SSE2,2018_nov_08_1318,testMonitor,
24.3,5.6,8.1,24.9,36,-10,30.6,6.4,2.1,-3.4,7.657,7.864,8.484,7.608,8.394,8.361,7.659,4.606,-4.896,-8.165,1.952,-1.712,8.082,4.339,-4.353,-7.595,15.5,27.7,-8.46,,17.7,9.0,25.0,32.5,36,19.9,5,5,prime,10,0,117,norm,36,-4.758,down,norm,12.4604042745,-5.9,-7.5,1.364,23.0,1,5.4,11.8,14.8,10,6,8.016,4.925,1.235,-1.295,-4.91,-7.623,15.8,6,129.5,-7.559,-7.646,-10,-7.735,-7.898,-4.975,-5.021,-4.814,-5.005,4.714,8.151,31,-1.453,1.798,4.471,8.209,-8.451,-7.601,-1.197,1.894,13.4,-5.0,4.3,15.6,17.1,21.9,3.9,18.2,8.2,19.4,4,norm,1.802,1.353,-1.856,-1.561,-4.839,-5.086,-1.108,-1.305,-1.45,-1.269,1.982,-1.842,-3.4,-6.0,-4.734,-7.842,12.9,-1.653,8.019,4.362,-5.104,-7.991,22,4.361,5.038,5.14,4.669,1.201,1.389,1.678,1.855,22,4.914,5.019,-40,312.713220783,norm,0,83,83,83,1960.89,1960.897,1960.90617297,1960.907,1960.91,1960.916,down,1,1.36058306554,8.63941693446,001,302,1280_800,Intel(R) Core(TM)2 Duo CPU     P8600  @ 2.40GHz,orientation_search,GRVLAPTOP1,Quadro NVS 160M/PCIe/SSE2,2018_nov_08_1318,testMonitor,
26.5,0.7,-5.1,20.3,36,-10,14.2,9.7,5.9,9.7,7.978,8.397,8.249,7.51,7.858,8.161,7.592,4.772,-5.128,-7.78,1.773,-1.728,7.68,4.743,-4.621,-7.854,14.6,,-8.363,32.5,32.0,-3.1,1.7,1.5,36,1.9,5,5,prime,10,0,114,norm,36,-4.892,up,norm,12.4604042745,-5.0,-2.1,2.088,8.9,4,15.3,25.3,5.6,10,6,7.893,4.443,1.199,-1.221,-4.669,-7.581,15.3,6,126.5,-8.428,-8.474,-10,-8.204,-8.177,-4.595,-5.267,-4.941,-4.939,4.756,7.578,34,-1.834,2.086,4.721,8.239,-7.599,-8.494,-2.057,1.703,-1.1,-2.2,14.4,10.9,9.7,-7.5,16.7,-5.6,-2.6,1.5,5,norm,1.77,1.562,-1.455,-1.716,-5.086,-4.796,-1.308,-1.572,-1.855,-1.668,1.994,-1.611,1.2,-0.8,-5.174,-7.748,12.6,-1.11,7.926,4.5,-4.613,-8.083,22,4.503,4.508,4.485,4.483,1.27,1.158,1.141,1.544,22,4.863,4.999,-40,312.713220783,norm,0,84,84,84,1962.293,1962.299,1962.3087438,1962.309,1962.313,1962.318,up,1,1.17752197574,8.82247802426,001,302,1280_800,Intel(R) Core(TM)2 Duo CPU     P8600  @ 2.40GHz,orientation_search,GRVLAPTOP1,Quadro NVS 160M/PCIe/SSE2,2018_nov_08_1318,testMonitor,
114.3,104.8,120.7,112.3,36,-30,105.5,105.4,118.4,114.9,7.747,8.201,8.449,7.501,7.772,8.056,7.627,4.742,-4.317,-7.679,1.497,-2.092,7.965,5.161,-4.885,-8.011,104.7,107.6,-8.233,110.8,104.0,107.7,118.5,108.6,36,116.4,2,5,probe,5,0,106,norm,36,-4.361,down,norm,112.923927298,119.5,119.2,1.248,,2,102.9,104.5,117.0,10,6,8.052,5.205,1.894,-1.468,-5.204,-8.02,122.9,2,6.9,-7.663,-8.141,-10,-8.486,-7.985,-4.796,-4.762,-4.924,-5.055,5.139,7.785,14,-1.4,1.577,4.53,8.011,-8.39,-8.212,-1.244,1.464,109.1,116.6,113.4,117.1,111.5,115.5,114.6,119.8,117.7,112.4,0,norm,1.543,1.85,-1.49,-1.744,-4.966,-4.774,-1.275,-1.538,-1.267,-2.012,1.104,-1.606,110.3,119.5,-5.099,-8.192,106.2,-1.232,7.687,5.015,-4.663,-8.392,23,5.033,4.971,5.262,4.768,2.065,1.985,2.011,1.28,23,4.95,4.672,-10,12.4604042745,norm,0,85,85,85,1963.512,1963.518,1963.52801658,1963.528,1963.532,1963.537,down,1,1.1772910011,8.8227089989,001,302,1280_800,Intel(R) Core(TM)2 Duo CPU     P8600  @ 2.40GHz,orientation_search,GRVLAPTOP1,Quadro NVS 160M/PCIe/SSE2,2018_nov_08_1318,testMonitor,
87.3,81.9,90.7,83.1,36,-30,93.9,77.9,82.8,83.0,8.071,7.881,8.001,7.596,8.389,7.508,7.842,4.611,-4.916,-8.331,1.548,-1.728,7.612,4.963,-4.389,-7.825,84.0,87.5,-8.013,90.6,91.2,92.3,83.8,81.2,36,84.2,1,5,probe,5,0,77,norm,36,-4.395,up,norm,83.9239272975,86.3,78.0,1.865,86.2,5,,93.9,82.2,10,6,7.724,4.473,1.42,-1.775,-4.827,-7.792,73.9,2,6.9,-8.09,-7.659,-10,-7.635,-7.849,-4.889,-4.821,-4.628,-4.428,4.679,8.48,11,-2.005,2.068,5.117,8.077,-8.178,-8.48,-1.114,1.693,81.2,81.4,82.2,86.5,79.6,89.7,90.3,89.3,80.1,85.9,1,norm,1.322,1.325,-2.071,-1.264,-4.356,-5.121,-1.851,-1.288,-2.078,-1.297,2.064,-1.385,86.0,82.2,-4.348,-8.226,76.2,-1.855,8.46,4.473,-5.135,-7.91,23,4.373,5.238,5.026,4.455,1.679,1.276,1.658,1.75,23,4.487,5.171,-10,12.4604042745,norm,0,86,86,86,1964.731,1964.738,1964.74695573,1964.747,1964.751,1964.756,up,1,1.87884481883,8.12115518117,001,302,1280_800,Intel(R) Core(TM)2 Duo CPU     P8600  @ 2.40GHz,orientation_search,GRVLAPTOP1,Quadro NVS 160M/PCIe/SSE2,2018_nov_08_1318,testMonitor,
165.6,163.6,182.7,153.9,36,-60,162.6,180.9,193.2,183.0,8.037,8.079,8.239,8.341,8.292,8.17,7.644,4.49,-4.632,-8.472,2.004,-1.41,7.824,4.99,-5.121,-7.667,165.0,166.4,-7.53,157.8,171.3,177.1,176.5,193.9,36,,4,5,prime,10,0,111,norm,36,-4.968,up,norm,173.892572566,175.0,173.0,1.629,181.0,3,161.3,184.1,189.6,10,5,7.887,5.166,1.82,-1.862,-4.763,-8.46,177.8,5,284.9,-7.535,-7.658,-60,-8.008,-7.941,-4.849,-4.692,-4.85,-4.984,4.301,7.86,27,-1.474,1.352,4.848,7.933,-8.226,-7.589,-1.921,1.942,181.3,190.6,187.1,171.0,163.8,161.5,177.3,186.8,184.8,184.7,0,norm,1.198,1.272,-2.002,-1.131,-4.355,-5.16,-1.654,-2.007,-1.7,-1.955,1.174,-1.287,183.0,182.2,-4.591,-7.669,181.9,-1.626,8.018,4.721,-4.488,-7.849,24,5.014,4.488,4.808,5.065,2.066,1.312,1.185,1.85,24,4.342,4.848,-30,12.4604042745,norm,0,87,87,87,1966.652,1966.657,1966.66737727,1966.668,1966.671,1966.676,up,1,1.99590020014,8.00409979986,001,302,1280_800,Intel(R) Core(TM)2 Duo CPU     P8600  @ 2.40GHz,orientation_search,GRVLAPTOP1,Quadro NVS 160M/PCIe/SSE2,2018_nov_08_1318,testMonitor,
185.2,156.7,163.4,185.2,36,-60,175.3,173.7,156.0,164.9,8.453,7.871,7.574,7.767,8.3,7.657,7.509,5.127,-4.948,-7.862,1.563,-1.966,8.329,4.403,-4.958,-8.146,186.0,168.1,-8.125,176.0,186.7,174.9,177.2,,36,172.8,4,5,prime,10,0,113,norm,36,-5.197,down,norm,173.892572566,162.6,153.9,2.082,185.7,2,177.2,185.4,171.7,10,5,7.607,5.025,1.396,-1.751,-4.929,-8.273,190.6,5,286.9,-7.888,-7.537,-60,-7.594,-8.028,-4.523,-4.949,-4.549,-5.226,4.875,8.473,26,-2.091,1.113,4.736,7.558,-7.679,-7.549,-1.177,1.871,165.4,185.6,165.7,173.6,162.2,174.3,180.2,178.4,154.7,178.2,1,norm,1.865,1.573,-1.588,-1.582,-4.364,-4.691,-1.96,-1.952,-1.344,-1.79,1.241,-2.099,164.3,193.9,-4.755,-8.157,178.4,-1.222,7.972,4.547,-4.556,-7.515,24,4.794,5.197,5.281,5.195,1.166,1.65,1.382,1.666,24,4.756,4.439,-30,12.4604042745,norm,0,88,88,88,1968.689,1968.695,1968.70472031,1968.705,1968.709,1968.714,up,0,1.52824969556,-10,001,302,1280_800,Intel(R) Core(TM)2 Duo CPU     P8600  @ 2.40GHz,orientation_search,GRVLAPTOP1,Quadro NVS 160M/PCIe/SSE2,2018_nov_08_1318,testMonitor,
193.9,181.3,190.0,,36,-60,184.1,183.2,171.3,173.6,7.702,8.238,7.768,8.401,7.779,7.869,8.054,4.783,-4.552,-8.388,1.53,-1.956,8.054,4.724,-4.889,-8.292,187.9,165.0,-7.654,177.5,169.2,169.7,182.4,172.9,36,177.2,3,5,prime,10,0,96,norm,36,-4.555,up,norm,173.892572566,184.6,169.4,1.123,170.6,3,174.4,178.4,163.7,10,5,8.091,5.179,1.455,-1.704,-5.275,-8.436,168.7,5,269.9,-7.597,-8.163,-60,-7.528,-7.884,-5.237,-5.103,-4.683,-4.615,5.234,8.435,21,-1.245,1.976,4.883,8.191,-7.521,-7.854,-2.004,1.126,171.2,153.9,176.7,157.6,183.1,185.5,179.5,175.2,163.8,170.6,2,norm,1.811,1.918,-1.672,-1.592,-4.821,-4.993,-1.995,-1.146,-1.582,-1.579,1.425,-1.254,156.1,159.2,-5.056,-7.952,176.0,-1.324,8.36,4.897,-5.05,-7.645,24,4.668,4.898,4.961,5.293,1.269,1.956,1.108,1.346,24,4.562,4.7,-30,12.4604042745,norm,0,89,89,89,1971.294,1971.3,1971.30980971,1971.31,1971.314,1971.319,down,0,0.626614523429,-10,001,302,1280_800,Intel(R) Core(TM)2 Duo CPU     P8600  @ 2.40GHz,orientation_search,GRVLAPTOP1,Quadro NVS 160M/PCIe/SSE2,2018_nov_08_1318,testMonitor,
,159.0,175.7,183.7,36,-60,162.3,174.8,157.2,156.4,8.085,7.745,7.966,8.435,7.841,7.573,8.377,4.734,-4.547,-7.807,1.728,-2.021,8.348,4.602,-4.312,-8.441,186.0,159.4,-8.453,166.7,177.2,192.6,169.8,178.2,36,176.0,3,5,prime,10,0,83,norm,36,-5.12,up,norm,173.892572566,169.3,172.6,1.285,172.4,4,180.0,185.0,175.4,10,5,8.424,4.633,1.267,-1.176,-5.157,-7.609,176.6,5,256.9,-7.673,-8.067,-60,-8.113,-8.15,-4.743,-5.123,-4.611,-5.282,5.107,8.168,22,-1.703,1.726,4.915,8.392,-8.038,-7.627,-1.828,1.541,172.6,175.5,172.1,179.9,183.8,193.9,174.8,170.4,180.8,156.5,3,norm,1.373,1.527,-1.766,-1.752,-4.587,-4.419,-1.916,-1.696,-1.65,-1.907,1.54,-1.268,166.5,153.9,-4.915,-7.761,169.6,-1.405,7.646,5.117,-4.91,-8.358,24,4.832,5.124,4.613,4.927,1.724,1.431,1.529,1.185,24,4.432,5.296,-30,12.4604042745,norm,0,90,90,90,1972.997,1973.004,1973.01308215,1973.013,1973.017,1973.023,up,1,1.06015392321,8.93984607679,001,302,1280_800,Intel(R) Core(TM)2 Duo CPU     P8600  @ 2.40GHz,orientation_search,GRVLAPTOP1,Quadro NVS 160M/PCIe/SSE2,2018_nov_08_1318,testMonitor,
174.5,155.5,170.8,164.0,36,-60,193.2,173.9,176.1,185.0,8.333,7.514,8.173,7.895,7.873,8.082,8.049,4.552,-4.821,-7.865,1.87,-1.812,7.821,4.438,-4.467,-8.253,153.9,182.2,-7.603,175.6,171.6,155.8,178.1,179.9,36,158.3,3,5,prime,10,0,75,norm,36,-5.212,down,norm,173.892572566,162.8,179.1,1.841,160.2,0,178.1,184.8,172.2,10,5,8.456,4.583,2.017,-1.992,-5.074,-7.69,173.8,5,248.9,-8.053,-7.961,-60,-7.737,-8.29,-4.463,-4.395,-4.477,-5.021,5.228,8.031,18,-1.423,1.11,4.523,8.12,-7.894,-8.427,-1.553,1.786,159.6,176.8,175.0,171.1,161.7,193.9,178.0,165.6,164.1,176.7,4,norm,1.773,1.851,-1.933,-1.978,-4.568,-4.431,-1.981,-1.948,-1.13,-1.202,2.072,-1.632,184.7,,-4.803,-7.979,174.3,-2.017,8.302,4.79,-4.425,-7.924,24,4.456,4.744,5.29,4.68,1.434,1.444,1.581,1.695,24,5.208,5.108,-30,12.4604042745,norm,0,91,91,91,1974.099,1974.105,1974.11537269,1974.116,1974.12,1974.125,up,0,1.44434815749,-10,001,302,1280_800,Intel(R) Core(TM)2 Duo CPU     P8600  @ 2.40GHz,orientation_search,GRVLAPTOP1,Quadro NVS 160M/PCIe/SSE2,2018_nov_08_1318,testMonitor,
205.4,192.3,203.6,200.8,36,30,205.1,205.5,194.3,200.4,8.428,7.55,8.405,7.648,8.106,7.836,7.621,5.131,-4.342,-7.927,1.202,-1.71,8.152,5.004,-4.405,-8.119,193.8,191.5,-8.14,200.3,197.9,205.0,196.9,190.4,36,195.8,2,5,probe,5,0,90,norm,36,-4.877,down,norm,197.760911685,194.8,187.8,1.659,,2,204.5,195.6,198.6,10,5,7.868,4.63,1.409,-1.299,-5.249,-8.36,195.2,2,107.8,-8.017,-7.55,-60,-8.254,-7.521,-4.49,-4.689,-4.638,-5.238,4.89,7.747,14,-2.002,1.533,5.091,7.515,-8.444,-7.605,-1.477,1.947,202.1,202.5,202.8,207.8,203.3,198.1,195.6,204.1,202.9,202.2,0,norm,1.268,1.893,-1.88,-1.796,-5.045,-4.336,-1.364,-1.532,-1.259,-1.735,1.919,-2.066,199.9,202.9,-4.768,-7.603,199.5,-2.085,7.85,5.278,-4.453,-8.394,25,4.429,4.865,5.169,4.377,1.951,1.935,1.633,2.085,25,5.005,4.504,-60,173.892572566,norm,0,92,92,92,1976.621,1976.628,1976.63691899,1976.637,1976.641,1976.646,down,1,1.66127055728,8.33872944272,001,302,1280_800,Intel(R) Core(TM)2 Duo CPU     P8600  @ 2.40GHz,orientation_search,GRVLAPTOP1,Quadro NVS 160M/PCIe/SSE2,2018_nov_08_1318,testMonitor,
187.1,192.4,198.3,196.2,36,30,194.9,191.4,190.0,184.9,8.246,8.451,8.274,8.097,8.419,8.312,7.603,4.567,-4.443,-8.449,1.227,-1.407,7.8,5.217,-4.689,-8.42,,192.7,-7.726,190.7,196.5,189.2,188.9,184.6,36,188.3,5,5,probe,5,0,84,norm,36,-4.337,up,norm,191.760911685,192.9,198.3,1.659,192.9,5,181.8,190.4,189.1,10,5,7.625,4.869,1.673,-1.217,-4.722,-8.197,188.7,2,107.8,-8.096,-8.406,-60,-7.705,-7.842,-5.228,-4.727,-4.898,-4.611,4.838,8.324,35,-1.812,1.194,4.737,7.652,-8.325,-8.076,-1.941,2.018,182.7,191.4,195.1,193.2,191.2,201.8,201.1,193.6,189.7,189.3,1,norm,1.664,1.42,-1.497,-1.203,-4.859,-4.919,-1.62,-1.655,-1.56,-1.186,1.221,-1.311,197.7,193.9,-5.186,-7.972,187.0,-1.592,8.462,5.051,-5.038,-8.02,25,4.789,4.604,4.655,5.236,1.18,1.9,1.417,1.484,25,4.678,4.765,-60,173.892572566,norm,0,93,93,93,1978.324,1978.33,1978.34025986,1978.341,1978.344,1978.349,up,1,2.31329229114,7.68670770886,001,302,1280_800,Intel(R) Core(TM)2 Duo CPU     P8600  @ 2.40GHz,orientation_search,GRVLAPTOP1,Quadro NVS 160M/PCIe/SSE2,2018_nov_08_1318,testMonitor,
204.1,196.5,204.1,208.9,36,30,206.0,196.2,196.4,220.7,8.015,8.188,7.736,7.693,7.925,7.785,8.229,5.171,-4.929,-8.426,1.948,-1.506,8.083,4.813,-4.649,-8.164,205.9,203.4,-7.764,195.7,219.2,199.7,207.9,209.8,36,202.1,2,5,prime,10,0,81,norm,36,-4.943,up,norm,202.024757869,,198.9,1.301,215.4,5,198.0,207.5,193.9,10,6,7.879,4.384,1.591,-1.286,-4.844,-8.345,191.2,6,283.0,-8.263,-7.896,30,-8.278,-7.623,-4.371,-4.811,-4.511,-4.554,5.046,8.009,17,-1.183,1.742,5.208,8.09,-8.266,-7.658,-2.019,1.851,206.2,197.1,222.0,193.8,195.1,185.9,218.0,216.8,211.9,182.0,0,norm,2.084,1.252,-1.325,-1.943,-4.714,-4.333,-1.897,-1.144,-1.591,-1.835,1.685,-1.646,209.8,199.7,-4.706,-8.169,212.2,-1.496,7.858,5.001,-5.002,-7.818,26,4.847,5.234,5.109,4.827,1.642,1.313,1.533,1.105,26,4.927,4.734,30,173.892572566,norm,0,94,94,94,1980.679,1980.686,1980.69475504,1980.695,1980.699,1980.704,up,1,1.81181897234,8.18818102766,001,302,1280_800,Intel(R) Core(TM)2 Duo CPU     P8600  @ 2.40GHz,orientation_search,GRVLAPTOP1,Quadro NVS 160M/PCIe/SSE2,2018_nov_08_1318,testMonitor,
