d_ori_22,d_ori_23,d_ori_20,d_ori_21,set_size,ctpd,d_ori_24,d_ori_25,d_ori_28,d_ori_29,stim_pos_x_30,stim_pos_x_31,stim_pos_x_32,stim_pos_x_33,stim_pos_x_34,stim_pos_x_35,stim_pos_y_11,stim_pos_y_10,stim_pos_y_13,stim_pos_y_12,stim_pos_y_15,stim_pos_y_14,stim_pos_y_17,stim_pos_y_16,stim_pos_y_19,stim_pos_y_18,d_ori_35,d_ori_34,stim_pos_x_3,d_ori_31,d_ori_30,d_ori_33,d_ori_32,d_ori_26,test_set_size,d_ori_27,targetCol,dsd_test,seq_type,dsd,blockRepN,targetDist,dtype_test,prime_set_size,stim_pos_y_25,correctResponse,dtype,distrMean,d_ori_17,d_ori_16,d_ori_15,d_ori_14,targetRow,d_ori_11,d_ori_13,d_ori_12,dsd_prime,streak_length_prime,stim_pos_y_35,stim_pos_y_34,stim_pos_y_33,stim_pos_y_32,stim_pos_y_31,stim_pos_y_30,d_ori_10,nextProbe,targetOri,stim_pos_x_1,stim_pos_x_2,ctpd_prime,stim_pos_x_4,stim_pos_x_5,stim_pos_x_6,stim_pos_x_7,stim_pos_x_8,stim_pos_x_9,stim_pos_y_28,stim_pos_y_29,targetPos,stim_pos_y_20,stim_pos_y_21,stim_pos_y_22,stim_pos_y_23,stim_pos_y_24,stim_pos_x_0,stim_pos_y_26,stim_pos_y_27,d_ori_9,d_ori_8,d_ori_3,d_ori_2,d_ori_1,d_ori_0,d_ori_7,d_ori_6,d_ori_5,d_ori_4,trialN,dtype_prime,stim_pos_x_18,stim_pos_x_19,stim_pos_x_12,stim_pos_x_13,stim_pos_x_10,stim_pos_x_11,stim_pos_x_16,stim_pos_x_17,stim_pos_x_14,stim_pos_x_15,stim_pos_y_9,stim_pos_y_8,d_ori_19,d_ori_18,stim_pos_y_1,stim_pos_y_0,stim_pos_y_3,stim_pos_y_2,stim_pos_y_5,stim_pos_y_4,stim_pos_y_7,stim_pos_y_6,totBlockN,stim_pos_x_27,stim_pos_x_26,stim_pos_x_25,stim_pos_x_24,stim_pos_x_23,stim_pos_x_22,stim_pos_x_21,stim_pos_x_20,blockN,stim_pos_x_29,stim_pos_x_28,prevDistrCTPD,prevDistrMean,prevDistrType,trials.thisRepN,trials.thisTrialN,trials.thisN,trials.thisIndex,timeStart,timeBeforeDraw,timeDraw,timeAfterSaving,timeAfterWritingToTemp,timeAfterPreparingNext,answer,correct,rt,trialScore,session,participant,resolution,cpu_info,expName,pc_name,graphic_card,date,monitorName
271.1,288.8,271.3,257.6,36,-60,280.4,284.6,273.3,282.6,8.45,7.778,8.497,8.489,7.681,7.829,7.622,4.986,-4.884,-7.959,1.214,-1.319,8.301,5.265,-4.591,-8.37,284.6,274.1,-8.487,275.4,,258.6,252,263.8,36,263.7,5,5,prime,10,0,71,norm,36,-5.265,down,norm,272.0433015,266,292,276.5,270.2,0,258.1,279.3,254.9,10,5,8.036,4.337,1.211,-1.469,-4.31,-8.34,261.8,5,343,-7.725,-8.427,-60,-7.794,-8.007,-4.506,-5.022,-4.861,-4.34,4.679,8.171,30,-1.256,1.991,4.565,7.714,-7.524,-8.433,-1.487,1.625,269.7,264.1,257.9,264.5,264.9,265.9,278.4,277.6,257.3,281.9,0,norm,1.7,1.328,-1.135,-1.87,-5.131,-4.776,-1.593,-1.922,-1.453,-1.903,1.707,-1.168,278.1,264.7,-5.266,-8.437,1.105,-1.858,8.371,4.39,-5.298,-7.988,0,5.105,4.936,4.858,4.75,1.974,1.621,1.528,1.735,0,4.667,4.916,,,,0,0,0,0,195.358,195.389,195.4104102,195.411,195.411,195.413,down,1,2.334925187,7.665074813,1,026,1920_1200,Intel(R) Core(TM) i5-3570 CPU @ 3.40GHz,orientation_search,LEPPC096,Intel(R) HD Graphics 2500,2019_Jan_16_1448,testMonitor
276.3,277.1,292,272.2,36,-60,283.5,285.3,252,287.7,7.503,8.124,7.594,8.473,7.99,8.386,7.739,5.295,-5.136,-8.312,2.004,-1.913,8.367,4.54,-4.944,-7.852,268.9,278.4,-7.881,260.6,257.8,262.7,261.7,259.1,36,274.2,1,5,prime,10,0,61,norm,36,-4.829,up,norm,272.0433015,274.9,278.7,253.8,260.7,4,270.2,284.5,276.1,10,5,8.062,4.423,1.14,-1.291,-4.504,-8.045,,5,333,-7.503,-8.063,-60,-8.08,-8.313,-4.505,-4.495,-5.02,-5.277,4.584,7.767,10,-1.598,1.116,4.746,7.895,-8.189,-8.356,-2.079,1.634,255.6,278.1,276.2,254.2,281.7,270.4,259.4,256,273.3,280.6,1,norm,1.58,1.186,-1.223,-1.576,-5.086,-4.46,-1.529,-1.146,-1.38,-1.459,1.202,-1.334,283,269.2,-4.956,-8.26,2.003,-1.616,7.638,4.319,-5.204,-7.597,0,4.787,5.047,4.398,4.968,1.491,2.028,1.809,1.541,0,4.767,4.871,,,,0,1,1,1,197.782,197.794,197.7984183,197.799,197.8,197.803,up,1,3.056436486,6.943563514,1,026,1920_1200,Intel(R) Core(TM) i5-3570 CPU @ 3.40GHz,orientation_search,LEPPC096,Intel(R) HD Graphics 2500,2019_Jan_16_1448,testMonitor
262,281.5,268.9,261.1,36,-60,283.2,278.4,254.6,276.6,8.395,7.596,7.562,8.13,7.904,7.568,7.502,4.417,-4.666,-7.893,1.215,-2.003,7.513,5.013,-4.824,-7.963,263,280,-8.308,277.9,292,280,263.8,261.6,36,274.4,2,5,prime,10,0,92,norm,36,-4.476,up,norm,272.0433015,269,273.7,,259.3,3,281.6,271.9,269.7,10,5,8.082,4.947,1.327,-1.855,-4.842,-8.042,258.4,5,364,-7.857,-8.066,-60,-8.454,-7.708,-4.489,-4.615,-4.885,-4.354,4.388,8.45,15,-1.587,2.043,5.017,8.233,-7.827,-7.743,-1.963,1.187,274.9,282.3,272.9,274.2,252,267,292,278.5,275.4,268.8,2,norm,1.543,1.711,-1.13,-1.59,-4.495,-4.733,-1.805,-1.172,-1.859,-1.861,1.234,-1.319,271.5,275.9,-5.101,-7.851,1.722,-1.539,8.359,4.528,-4.782,-8.426,0,4.309,4.892,4.528,4.791,1.146,1.444,1.222,1.356,0,5.144,4.456,,,,0,2,2,2,200.899,200.908,200.9156672,200.916,200.918,200.92,up,1,3.232406253,6.767593747,1,026,1920_1200,Intel(R) Core(TM) i5-3570 CPU @ 3.40GHz,orientation_search,LEPPC096,Intel(R) HD Graphics 2500,2019_Jan_16_1448,testMonitor
257.2,,289.5,272.3,36,-60,272.3,272.1,257.7,267.4,7.945,8.164,8.199,8.387,8.185,7.732,8.169,5.01,-4.903,-8.443,1.267,-2.005,7.677,4.834,-4.523,-8.315,276.3,287.2,-7.537,290.4,262.4,270.9,261.4,272.1,36,281.3,3,5,prime,10,0,63,norm,36,-5.108,up,norm,272.0433015,270.1,254.7,267.8,275.4,5,283.7,275.3,269.9,10,5,7.935,4.88,1.228,-1.757,-4.929,-8.355,260.3,5,335,-7.66,-8.323,-60,-7.639,-8.402,-5.095,-4.345,-4.937,-5.048,4.648,7.91,23,-1.694,1.995,5.289,8.442,-7.648,-7.658,-1.556,1.733,282.9,252,264.8,280.6,283.9,264.6,269.9,282.9,257.2,275.9,3,norm,1.472,2.061,-1.387,-1.511,-5.039,-5.28,-1.112,-2.028,-1.927,-1.217,1.355,-1.442,260.8,283.8,-4.846,-7.647,1.475,-1.867,8.224,4.811,-4.825,-8.22,0,5.055,5.001,4.579,4.662,1.917,1.809,1.197,1.965,0,4.851,5.077,,,,0,3,3,3,204.186,204.195,204.2057288,204.206,204.208,204.21,up,1,2.501754349,7.498245651,1,026,1920_1200,Intel(R) Core(TM) i5-3570 CPU @ 3.40GHz,orientation_search,LEPPC096,Intel(R) HD Graphics 2500,2019_Jan_16_1448,testMonitor
270.6,265.6,268.3,272.6,36,-60,267.9,286.5,284.5,258.6,8.247,8.09,7.549,8.143,7.665,8.255,8.304,5.017,-5.115,-8.42,1.563,-1.4,7.933,4.697,-4.804,-7.895,265.5,265,-8.22,255.7,252.2,252,267,280.6,36,255.3,2,5,prime,10,0,71,norm,36,-4.677,up,norm,272.0433015,,281.6,269.5,281.1,5,277.2,270.2,292,10,5,8.208,4.423,1.452,-1.298,-5.137,-7.993,271.3,5,343,-8.064,-8.214,-60,-8.37,-7.956,-4.759,-4.87,-4.41,-4.852,5.038,7.9,17,-1.378,1.364,5.294,8.259,-7.503,-7.622,-1.73,1.576,278.8,269.1,287.5,253.7,271.9,282.9,271,274.3,272.6,257.5,4,norm,1.351,1.517,-1.256,-1.537,-4.576,-4.79,-2.021,-1.249,-1.112,-2.053,1.872,-1.653,280.9,258,-5.091,-7.66,1.882,-1.971,8.356,5.247,-4.332,-7.583,0,5.016,4.335,5.15,4.642,1.293,1.682,1.961,1.339,0,4.789,4.611,,,,0,4,4,4,206.746,206.759,206.7795192,206.78,206.781,206.784,up,1,4.406220513,5.593779487,1,026,1920_1200,Intel(R) Core(TM) i5-3570 CPU @ 3.40GHz,orientation_search,LEPPC096,Intel(R) HD Graphics 2500,2019_Jan_16_1448,testMonitor
261.1,271.7,261,264.3,36,-30,261,258.8,268.5,271.5,8.161,8.087,7.994,8.007,7.794,8.169,8.221,4.654,-4.973,-7.702,2.024,-1.251,8.156,4.668,-4.96,-7.951,269.5,267.5,-8.361,266.2,277.1,267.3,266.6,276.2,36,270.7,1,5,probe,5,0,65,norm,36,-4.398,down,norm,267.0988482,267.5,262.1,267.3,268.4,1,270,271.4,270.3,10,5,7.72,4.987,1.303,-1.542,-5.122,-8.041,273.8,1,202.1,-8.171,-8.084,-60,-7.73,-7.558,-4.755,-5.185,-4.463,-4.586,4.684,7.775,7,-1.776,1.35,4.809,7.532,-8.228,-7.537,-1.559,2.056,270.1,269.8,264.8,270.1,269.1,270.6,,260.7,260.8,257.1,0,norm,1.771,1.775,-1.524,-1.688,-4.441,-4.835,-1.236,-2.091,-1.548,-1.704,2.086,-1.975,258.8,263.5,-4.677,-8.134,1.114,-1.58,7.529,4.859,-4.317,-7.717,1,4.818,5.158,4.733,4.687,1.797,1.518,1.764,1.684,1,4.786,4.502,-60,272.0433015,norm,0,5,5,5,211.207,211.217,211.2254375,211.226,211.227,211.23,down,1,1.715572412,8.284427588,1,026,1920_1200,Intel(R) Core(TM) i5-3570 CPU @ 3.40GHz,orientation_search,LEPPC096,Intel(R) HD Graphics 2500,2019_Jan_16_1448,testMonitor
306.9,318,304.4,291.1,36,-10,306.7,294.2,287.9,305.9,7.974,7.861,7.881,7.735,7.932,7.617,7.993,5.288,-4.419,-8.129,1.214,-1.884,7.528,4.481,-4.411,-8.443,298,303.5,-7.741,293.1,296.8,291.9,288,291.3,36,294.5,3,5,prime,10,0,92,norm,36,-4.632,down,norm,297.982256,298.7,278,306.6,300.2,0,294.4,304.1,299.3,10,5,7.679,4.383,1.627,-1.908,-4.828,-7.606,305.6,5,390,-8.435,-7.985,-10,-7.846,-8.426,-4.742,-4.506,-4.554,-5.139,4.621,8.432,18,-1.196,2.087,5.199,8.485,-7.621,-7.539,-1.869,1.317,309.1,306.2,291.9,307.4,283.5,284.6,306.2,293.9,306.1,302.2,0,norm,1.243,1.547,-1.993,-1.742,-5.103,-4.981,-1.888,-1.593,-1.25,-1.812,1.612,-1.969,303.5,,-4.704,-8.066,1.358,-1.723,7.539,4.855,-5.162,-8.36,2,4.749,5.056,5.233,4.742,2.003,1.235,1.302,1.302,2,4.46,4.904,-30,272.0433015,norm,0,6,6,6,212.978,212.987,213.003739,213.004,213.006,213.008,down,1,2.798550217,7.201449783,1,026,1920_1200,Intel(R) Core(TM) i5-3570 CPU @ 3.40GHz,orientation_search,LEPPC096,Intel(R) HD Graphics 2500,2019_Jan_16_1448,testMonitor
296.8,307.2,291.7,301.1,36,-10,302.1,298.5,284.3,308.6,7.812,8.292,7.972,7.85,8.249,8.173,7.86,4.829,-4.479,-8.31,1.351,-1.436,7.942,5.03,-4.629,-8.355,296.7,294.4,-8.275,309.6,310.5,300.2,295.7,294.1,36,287.2,1,5,prime,10,0,96,norm,36,-4.461,up,norm,297.982256,306.8,288.9,296.1,305.3,3,300.4,314.8,297.8,10,5,7.845,4.429,2.04,-1.262,-4.972,-7.762,297.4,5,394,-8.155,-7.586,-10,-7.63,-7.878,-4.341,-4.824,-4.522,-4.822,4.977,8.172,9,-1.646,1.36,4.905,8.065,-8.119,-8.006,-1.313,1.316,,298.2,293.1,290.8,302.2,278,292.6,300.8,302,311.5,1,norm,2.086,2.076,-2.077,-1.637,-5.018,-4.484,-1.912,-1.462,-1.656,-1.885,1.702,-1.24,297.5,302.4,-4.431,-7.934,1.166,-1.408,8.246,4.826,-4.448,-8.238,2,5.243,5.142,5.292,5.267,1.893,1.668,1.838,2.036,2,4.533,4.301,-30,272.0433015,norm,0,7,7,7,215.844,215.861,215.8768325,215.877,215.881,215.886,up,1,1.67964086,8.32035914,1,026,1920_1200,Intel(R) Core(TM) i5-3570 CPU @ 3.40GHz,orientation_search,LEPPC096,Intel(R) HD Graphics 2500,2019_Jan_16_1448,testMonitor
304.5,285.3,278.8,291,36,-10,300.7,285.3,292.2,304.4,8.209,8.342,8.136,7.656,8.121,7.862,7.869,4.705,-5.295,-8.115,2.026,-1.154,7.528,5.132,-4.658,-8.461,297.1,301.2,-8.382,290.7,295.4,302,289.5,287.4,36,290.2,1,5,prime,10,0,72,norm,36,-4.907,up,norm,297.982256,298.7,292.3,288.9,305,3,318,298.2,303.3,10,5,8.415,4.482,1.33,-1.889,-4.763,-7.815,288.4,5,370,-7.657,-8.263,-10,-8.04,-8.086,-5.263,-5.253,-5.031,-4.996,4.989,7.772,9,-2.047,2.079,4.955,7.707,-8.465,-7.717,-1.104,1.923,,299.4,294.3,284.2,299.3,305.2,298.6,312.3,294.1,289.1,2,norm,1.78,1.559,-1.388,-2.015,-4.884,-5.056,-1.171,-1.631,-1.413,-1.213,2.01,-2.063,314.8,292.2,-5.09,-8.453,1.424,-1.944,8.192,4.943,-4.967,-8.5,2,4.615,4.409,4.915,4.378,1.454,1.937,1.709,1.137,2,4.918,5.007,-30,272.0433015,norm,0,8,8,8,217.599,217.61,217.6149563,217.615,217.617,217.619,up,1,2.195107926,7.804892074,1,026,1920_1200,Intel(R) Core(TM) i5-3570 CPU @ 3.40GHz,orientation_search,LEPPC096,Intel(R) HD Graphics 2500,2019_Jan_16_1448,testMonitor
290.7,310.1,298.1,278,36,-10,299.7,,292,315.2,8.04,7.741,7.685,8.317,8.19,7.802,8.459,4.982,-5.113,-7.999,1.145,-1.526,8.098,4.66,-4.873,-8.428,290.5,287.4,-7.746,299.9,297.5,307.4,296.1,287.5,36,286.3,4,5,prime,10,0,97,norm,36,-5.007,down,norm,297.982256,301.7,284.4,307.8,315.5,1,294,290.6,289.2,10,5,8.223,4.534,1.398,-1.198,-4.355,-8,301.4,5,395,-8.152,-8.054,-10,-7.699,-8.39,-5.21,-4.689,-4.98,-4.537,4.53,7.798,25,-1.404,1.223,4.396,7.688,-8.124,-8.355,-1.331,1.567,300.8,307.6,298,289.6,313.1,318,279.5,290.2,302.4,296.6,3,norm,2.095,1.448,-1.823,-1.231,-4.52,-4.476,-1.933,-1.498,-1.23,-1.898,1.441,-1.345,310.4,311.2,-4.634,-8.202,1.837,-1.525,7.551,4.743,-5.039,-8.429,2,5.268,5.202,4.45,5.174,1.661,1.928,1.811,1.556,2,4.35,4.917,-30,272.0433015,norm,0,9,9,9,219.848,219.857,219.8674655,219.868,219.869,219.872,down,1,1.223847011,8.776152989,1,026,1920_1200,Intel(R) Core(TM) i5-3570 CPU @ 3.40GHz,orientation_search,LEPPC096,Intel(R) HD Graphics 2500,2019_Jan_16_1448,testMonitor
291.7,296.2,294.4,293.2,36,-10,287.9,309,291.2,318,7.792,7.92,7.906,7.733,7.555,7.516,7.603,4.487,-4.834,-8.358,1.159,-1.444,7.937,4.523,-4.871,-7.936,303.3,293.8,-8.047,278,300.3,279.7,300.6,282.9,36,304.6,1,5,prime,10,0,63,norm,36,-4.787,down,norm,297.982256,307.8,309.4,307.8,305.8,2,285.6,300.4,290,10,5,8.275,4.974,1.735,-2.092,-5.213,-7.505,292.4,5,361,-7.505,-7.575,-10,-8.019,-7.764,-4.736,-4.35,-4.678,-4.79,4.682,7.563,8,-1.973,1.985,5.181,7.699,-8.187,-7.9,-1.646,2.048,306.4,,300.9,300.5,302.6,301.4,289.6,300.5,290.5,313.3,4,norm,2.017,1.44,-1.433,-1.21,-4.342,-4.668,-1.307,-1.841,-1.903,-1.816,1.425,-1.779,307.4,297.6,-4.416,-7.629,1.422,-1.923,7.82,5.055,-4.75,-8.048,2,4.882,4.943,4.954,4.501,1.628,1.726,1.47,1.574,2,5.01,4.975,-30,272.0433015,norm,0,10,10,10,221.113,221.122,221.1311678,221.131,221.133,221.136,down,1,3.008852338,6.991147662,1,026,1920_1200,Intel(R) Core(TM) i5-3570 CPU @ 3.40GHz,orientation_search,LEPPC096,Intel(R) HD Graphics 2500,2019_Jan_16_1448,testMonitor
346,349.6,350.7,350.9,36,-20,346.2,354.7,351.6,360.3,7.625,7.982,7.529,7.666,8.365,8.215,8.254,5.154,-4.566,-7.517,1.904,-1.641,7.988,4.941,-4.683,-8.147,350.5,348.8,-7.662,355.6,358.6,343.4,349.7,350.1,36,352.6,0,5,probe,5,0,61,norm,36,-4.855,down,norm,350.2802747,343.9,350.8,347.6,351.7,2,353.2,349.9,352.3,10,5,8.319,5.09,1.52,-1.24,-4.91,-7.94,358,1,289.3,-8.328,-8.38,-10,-8.165,-7.935,-5.003,-5.257,-5.011,-5.177,4.806,8.208,2,-1.386,2.015,4.854,8.434,-7.895,-8.105,-1.697,1.474,340.3,352.9,352.8,,346.5,349.3,354.4,354.7,351.9,356,0,norm,1.175,1.373,-1.363,-1.448,-4.786,-4.762,-1.727,-1.708,-1.7,-1.775,1.889,-1.426,355,355.4,-5.203,-8.335,1.984,-1.446,7.858,5.098,-4.371,-8.46,3,5.046,5.17,5.052,4.961,1.815,1.996,1.898,1.538,3,4.436,4.459,-10,297.982256,norm,0,11,11,11,224.178,224.189,224.1959522,224.196,224.198,224.201,down,1,1.853328041,8.146671959,1,026,1920_1200,Intel(R) Core(TM) i5-3570 CPU @ 3.40GHz,orientation_search,LEPPC096,Intel(R) HD Graphics 2500,2019_Jan_16_1448,testMonitor
175.6,190.5,166,156.3,36,10,157,167.6,177.1,160.9,7.696,8.27,8.4,8.144,8.092,7.564,7.737,4.988,-4.642,-8.195,1.469,-1.246,8.174,4.81,-5.291,-7.542,162.8,186.7,-8.37,179.8,170.2,162.2,179.7,179.7,36,184.2,2,5,prime,10,0,63,norm,36,-4.867,down,norm,176.2776945,157.7,175.3,175.6,173.4,0,180,183.6,,10,5,8.089,4.765,2.083,-1.579,-5.004,-8.117,181,5,239.3,-8.277,-8.304,10,-8.311,-8.186,-5.186,-4.775,-5.284,-5.202,4.666,8.416,12,-1.815,1.272,4.368,7.58,-8.29,-8.043,-1.784,1.713,179.4,174,193.2,187.9,170.8,192.3,168.7,164.1,176.3,178.7,0,norm,1.738,1.439,-1.965,-1.715,-4.585,-4.699,-1.362,-1.94,-1.414,-1.607,1.937,-1.493,196.3,167.3,-4.955,-8.447,1.704,-1.158,7.59,4.928,-4.427,-8.15,4,4.89,4.662,4.546,4.951,1.913,1.712,1.161,1.326,4,4.872,5.013,-20,297.982256,norm,0,12,12,12,226.093,226.113,226.1255715,226.126,226.128,226.131,down,1,2.170080081,7.829919919,1,026,1920_1200,Intel(R) Core(TM) i5-3570 CPU @ 3.40GHz,orientation_search,LEPPC096,Intel(R) HD Graphics 2500,2019_Jan_16_1448,testMonitor
167.2,165,159.4,156.3,36,10,170,178.1,172.9,196.3,8.397,7.702,7.768,7.95,7.525,7.794,7.871,4.798,-5.111,-7.655,1.434,-1.921,8.146,5.285,-4.529,-8.042,193,170.6,-7.918,,190.8,168.4,173.6,167.5,36,177.7,5,5,prime,10,0,88,norm,36,-5.299,down,norm,176.2776945,185.5,175,161,165.9,1,185.9,181.5,180,10,5,7.758,5.246,1.72,-1.724,-4.858,-8.092,171.7,5,264.3,-7.944,-8.467,10,-7.971,-7.579,-4.302,-4.754,-4.732,-4.466,4.924,7.543,31,-1.617,1.531,4.555,8.149,-7.994,-8.172,-1.441,1.934,182.8,181,177.3,180.4,159.7,192.9,156.3,178.4,188.4,170.1,1,norm,1.965,1.834,-1.828,-1.764,-5.027,-4.988,-1.615,-1.221,-1.148,-1.272,1.233,-1.968,189.6,175.8,-4.47,-8.263,2.011,-1.76,7.509,5.182,-5.02,-7.943,4,4.751,5.155,4.332,5.062,1.454,1.759,1.683,1.256,4,4.897,4.701,-20,297.982256,norm,0,13,13,13,228.334,228.344,228.3535517,228.354,228.355,228.358,up,0,3.295292356,-10,1,026,1920_1200,Intel(R) Core(TM) i5-3570 CPU @ 3.40GHz,orientation_search,LEPPC096,Intel(R) HD Graphics 2500,2019_Jan_16_1448,testMonitor
162.6,191.1,193.8,190,36,10,173.2,181.6,,182.5,8.231,8.308,8.055,7.524,8,7.946,7.922,5.111,-4.484,-7.894,1.259,-1.458,8.411,5.255,-4.852,-8.255,168.3,185.1,-7.919,189.1,164.2,183.1,178.7,196.3,36,156.3,4,5,prime,10,0,82,norm,36,-4.974,up,norm,176.2776945,172.4,175,168.9,162.4,4,194.5,170.9,170.7,10,5,8.345,5.295,1.269,-1.877,-5.067,-7.585,175.2,5,258.3,-8.189,-8.443,10,-8.055,-7.952,-4.504,-4.843,-4.838,-4.651,4.92,7.803,28,-1.756,1.812,4.823,7.78,-8.494,-8.052,-1.307,1.221,192.3,178.9,174.1,173,173,177.8,178.7,177.9,164.4,179.1,2,norm,1.477,1.994,-1.603,-1.5,-4.623,-4.456,-1.703,-1.934,-1.196,-1.753,1.465,-2.049,187.9,162.9,-4.908,-8.336,2.088,-1.538,8.15,4.583,-4.859,-8.447,4,4.706,5.031,4.309,4.991,1.666,1.981,1.777,1.135,4,4.961,4.801,-20,297.982256,norm,0,14,14,14,232.726,232.736,232.7527485,232.753,232.755,232.757,up,1,1.724137993,8.275862007,1,026,1920_1200,Intel(R) Core(TM) i5-3570 CPU @ 3.40GHz,orientation_search,LEPPC096,Intel(R) HD Graphics 2500,2019_Jan_16_1448,testMonitor
179.5,181.9,179.5,182.7,36,10,184.8,173.5,163.5,172.9,7.829,7.835,8.284,7.696,7.514,7.992,7.649,4.968,-4.632,-7.513,1.509,-1.101,8.406,4.718,-4.968,-7.872,169.8,165.7,-8.281,169.3,171.2,179.1,170.6,156.3,36,164.9,0,5,prime,10,0,113,norm,36,-4.798,up,norm,176.2776945,182.2,179.3,172,180.2,3,180.5,171.6,162.9,10,5,7.52,4.422,1.461,-1.123,-4.89,-7.789,170.1,5,289.3,-7.848,-8.392,10,-8.305,-8.49,-4.629,-4.874,-5.039,-4.831,4.898,8.04,3,-1.104,1.469,4.901,7.888,-7.625,-7.619,-1.416,1.951,169.3,179,,178.2,180.3,183.1,170.4,161.5,174.5,182.1,3,norm,1.715,1.921,-1.646,-2.077,-5.023,-4.463,-1.25,-1.299,-1.486,-1.905,1.395,-2.036,188,196.3,-4.389,-8.064,1.417,-1.967,8.356,5.078,-4.35,-7.76,4,4.392,4.304,4.912,5.196,1.489,1.496,1.957,1.36,4,4.464,4.445,-20,297.982256,norm,0,15,15,15,234.5,234.51,234.5167267,234.517,234.519,234.521,down,0,5.725985614,-10,1,026,1920_1200,Intel(R) Core(TM) i5-3570 CPU @ 3.40GHz,orientation_search,LEPPC096,Intel(R) HD Graphics 2500,2019_Jan_16_1448,testMonitor
187.5,177.3,180.6,182,36,10,156.3,162.8,174.5,165.4,7.872,7.849,8.329,8.028,8.173,8.116,7.898,4.766,-4.335,-8.161,1.605,-2.072,8.307,4.499,-4.933,-8.004,,158.6,-7.85,171.3,190.1,174.1,166.4,185.6,36,163.6,5,5,prime,10,0,75,norm,36,-4.443,up,norm,176.2776945,172.4,181.7,169.2,196.3,5,176,164.6,187.2,10,5,7.872,4.715,2.058,-1.165,-5.084,-7.722,176.6,5,251.3,-7.743,-7.671,10,-7.895,-7.766,-4.77,-5.069,-4.997,-5.295,4.483,7.977,35,-1.686,1.686,4.724,8.274,-8.102,-8.252,-1.686,2.067,166,170.9,186.3,177,166.7,182.2,178.8,175.8,177.2,178.3,4,norm,1.779,1.138,-1.131,-1.445,-4.994,-4.384,-1.656,-1.498,-2.016,-1.434,1.485,-2.053,180.1,185.5,-4.534,-7.783,1.804,-1.726,7.562,4.721,-4.745,-7.916,4,4.943,4.944,5.259,4.452,1.274,1.662,1.335,1.894,4,4.339,4.935,-20,297.982256,norm,0,16,16,16,241.322,241.331,241.348068,241.348,241.35,241.353,up,1,6.614994371,3.385005629,1,026,1920_1200,Intel(R) Core(TM) i5-3570 CPU @ 3.40GHz,orientation_search,LEPPC096,Intel(R) HD Graphics 2500,2019_Jan_16_1448,testMonitor
303.5,302.7,302.8,312.1,36,20,303,312.2,305.8,297.9,8.295,8.464,8.416,7.771,8.36,8.11,7.812,4.549,-4.99,-8.185,1.941,-1.292,7.584,4.853,-4.564,-8.333,305.7,304.2,-7.978,314.4,304.3,306.1,308,315,36,304.3,0,5,probe,5,0,116,norm,36,-5.27,up,norm,305.0094271,304.1,305.5,295,297.9,3,306.5,306.6,310.8,10,5,8.235,5.291,1.205,-1.555,-5.174,-8.06,301.5,2,189,-8.486,-7.884,10,-8.169,-8.156,-4.465,-5.076,-4.612,-5.145,4.988,8.244,3,-1.442,1.6,4.446,8.042,-8.003,-7.957,-1.764,1.592,309.2,297.1,,302,312.7,305.5,308.5,297.5,300.6,303.9,0,norm,1.821,1.23,-1.639,-2.049,-4.659,-4.614,-1.214,-2.069,-1.571,-1.919,1.131,-1.6,301.6,313.8,-4.917,-8.055,1.55,-1.701,8.233,4.55,-4.346,-8.195,5,4.486,4.507,5.196,4.854,1.908,1.928,1.115,2.025,5,5.173,4.528,10,176.2776945,norm,0,17,17,17,248.001,248.01,248.02449,248.025,248.026,248.029,up,1,2.144988545,7.855011455,1,026,1920_1200,Intel(R) Core(TM) i5-3570 CPU @ 3.40GHz,orientation_search,LEPPC096,Intel(R) HD Graphics 2500,2019_Jan_16_1448,testMonitor
258.8,253.3,250.7,247.9,36,20,250.4,254.1,242,255.2,7.513,8.299,8.3,8.111,7.662,7.551,8.489,5.009,-4.705,-7.713,1.765,-1.749,7.988,4.927,-5.132,-8.019,247.6,245.5,-7.741,255.4,253.5,257.7,250.3,246.9,36,246.5,3,5,probe,5,0,63,norm,36,-4.726,down,norm,252.0094271,253.3,249.1,262,249.3,0,248.5,250,259.9,10,5,7.56,4.555,1.948,-1.333,-5.208,-7.514,251.2,2,189,-7.862,-7.529,10,-8.415,-8.168,-4.798,-4.617,-4.612,-4.499,5.178,7.941,18,-1.968,1.811,5.208,7.947,-8.13,-7.95,-1.753,2.091,261.7,256.9,250.7,250.1,246.2,252.2,253.5,253.2,244.8,250.7,1,norm,2.091,1.891,-1.395,-1.391,-5.097,-4.354,-1.769,-1.645,-1.502,-1.485,1.934,-1.523,250.5,,-4.348,-7.773,1.393,-1.915,7.54,4.934,-4.885,-8.338,5,5.245,4.677,4.667,4.833,1.72,1.188,1.511,1.117,5,5.106,4.837,10,176.2776945,norm,0,18,18,18,250.19,250.201,250.206206,250.206,250.208,250.211,down,1,2.126163403,7.873836597,1,026,1920_1200,Intel(R) Core(TM) i5-3570 CPU @ 3.40GHz,orientation_search,LEPPC096,Intel(R) HD Graphics 2500,2019_Jan_16_1448,testMonitor
27.8,25.1,15.7,20.9,36,-60,-2.2,20.6,16.4,21.2,8.414,8.275,8.113,7.727,7.886,8.344,8.315,5.037,-4.798,-7.632,1.407,-1.137,7.58,4.768,-4.923,-8.359,15.5,22.1,-8.062,14.8,20.8,29,10.2,,36,8.9,4,5,prime,10,0,117,norm,36,-4.567,down,norm,17.7599189,25.3,16.1,22.6,26,2,18,20.5,6.4,10,6,8.232,5.124,1.505,-1.14,-5.275,-8.062,16.6,6,134.8,-8.172,-8.344,-60,-7.839,-8.129,-4.754,-4.981,-5.068,-5.273,4.751,8.051,26,-1.247,1.353,5.172,8.048,-7.522,-7.871,-1.262,1.336,10.6,13.7,23.3,14.9,8.4,7.9,3.4,2.9,23.9,12.5,0,norm,1.652,1.27,-1.932,-1.976,-5.174,-4.303,-1.36,-2.051,-2.067,-1.745,1.63,-1.995,31.7,37.8,-5.053,-7.704,1.797,-1.6,8.35,4.45,-4.982,-8.02,6,4.672,4.814,4.416,4.675,1.561,1.951,1.375,1.925,6,4.47,4.761,20,176.2776945,norm,0,19,19,19,252.377,252.387,252.3948812,252.395,252.397,252.399,down,1,1.996691127,8.003308873,1,026,1920_1200,Intel(R) Core(TM) i5-3570 CPU @ 3.40GHz,orientation_search,LEPPC096,Intel(R) HD Graphics 2500,2019_Jan_16_1448,testMonitor
37.8,32.5,26.4,17,36,-60,16.8,28.6,8.9,5,8.37,7.597,7.617,7.961,7.975,7.811,7.516,4.396,-4.364,-7.677,1.438,-1.933,8.257,4.436,-5.047,-8.289,,32.6,-7.796,22.4,34,15.7,25.4,14.7,36,13.6,5,5,prime,10,0,100,norm,36,-4.962,up,norm,17.7599189,14.6,2.6,25.1,16.1,5,23,22.3,5.9,10,6,8.34,4.528,1.43,-1.214,-5.168,-7.506,23.4,6,117.8,-7.554,-7.848,-60,-8.16,-8.48,-5.07,-5.193,-5.231,-4.689,4.325,7.815,35,-1.88,2.088,4.859,7.685,-8.284,-7.859,-1.617,1.561,7.8,21.5,19.3,19.5,27.7,4.3,30.5,18.8,28.5,-2.2,1,norm,1.274,1.996,-1.191,-1.784,-4.861,-5.157,-1.971,-1.675,-1.982,-1.63,1.726,-2.017,25.7,17.8,-4.942,-7.874,1.968,-1.546,7.764,4.648,-4.471,-8.252,6,5.116,4.837,5.178,5.099,1.982,1.673,1.314,2.066,6,4.393,4.6,20,176.2776945,norm,0,20,20,20,254.437,254.459,254.4698009,254.47,254.472,254.475,up,1,3.584181581,6.415818419,1,026,1920_1200,Intel(R) Core(TM) i5-3570 CPU @ 3.40GHz,orientation_search,LEPPC096,Intel(R) HD Graphics 2500,2019_Jan_16_1448,testMonitor
17.1,3.7,12.7,2.5,36,-60,21.7,23.5,37.8,-2.2,7.694,8.17,7.546,8.118,7.735,7.732,8.427,4.679,-4.931,-8.39,1.145,-1.436,7.681,4.659,-4.413,-7.978,8.7,32.8,-7.751,14.3,19.6,6,33.6,18,36,,4,5,prime,10,0,77,norm,36,-4.753,up,norm,17.7599189,22.8,22,4,9.9,3,17.3,27.9,13.5,10,6,8.16,5.281,2.073,-1.33,-5.196,-7.664,28.7,6,94.8,-7.942,-8.078,-60,-7.843,-7.573,-4.502,-4.92,-4.639,-5.127,4.415,8.381,27,-1.514,2.059,4.467,7.914,-8.107,-7.865,-1.969,1.971,31.5,14.7,-2.2,17.1,22.3,18.1,5.6,21.2,18.9,16.4,2,norm,1.257,1.752,-1.337,-2.095,-4.641,-5.006,-1.121,-1.968,-2.068,-1.243,1.566,-1.312,28.3,13.3,-4.416,-8.093,1.834,-1.942,7.647,4.778,-5.225,-7.902,6,4.695,4.51,4.443,4.562,1.306,1.325,1.856,1.121,6,5.219,4.606,20,176.2776945,norm,0,21,21,21,258.093,258.105,258.1254477,258.126,258.127,258.13,up,1,4.473308964,5.526691036,1,026,1920_1200,Intel(R) Core(TM) i5-3570 CPU @ 3.40GHz,orientation_search,LEPPC096,Intel(R) HD Graphics 2500,2019_Jan_16_1448,testMonitor
25.4,24.1,-2.2,20.4,36,-60,13.4,36.1,21.2,8.4,8.418,8.31,7.599,8.224,7.922,8.157,7.89,5.256,-4.875,-7.797,1.519,-1.22,7.826,4.611,-4.939,-7.806,18.7,23.1,-7.819,27.6,9.6,11.8,5.1,,36,20,4,5,prime,10,0,87,norm,36,-5.196,down,norm,17.7599189,20.5,11.9,26.5,37.8,2,2.3,16,32.9,10,6,7.954,4.849,1.981,-1.897,-4.555,-7.978,10.6,6,104.8,-7.614,-8.433,-60,-7.518,-7.613,-5.209,-5.248,-4.594,-5.009,4.838,7.672,26,-1.979,1.945,4.782,8.232,-7.593,-8.324,-1.22,1.585,19.4,26.7,20.5,20.4,30.5,24.1,22.7,9.2,32.3,17.2,3,norm,1.949,1.27,-1.895,-1.299,-5.202,-4.743,-2.015,-1.69,-1.659,-1.908,1.919,-1.305,7.3,23.9,-4.951,-7.573,1.268,-1.548,7.68,5.258,-4.576,-7.922,6,4.475,4.712,4.415,5.098,1.721,1.765,2.014,1.954,6,4.716,5.216,20,176.2776945,norm,0,22,22,22,262.642,262.652,262.6581238,262.658,262.66,262.663,down,1,1.564635622,8.435364378,1,026,1920_1200,Intel(R) Core(TM) i5-3570 CPU @ 3.40GHz,orientation_search,LEPPC096,Intel(R) HD Graphics 2500,2019_Jan_16_1448,testMonitor
10,-2.2,28.3,27.4,36,-60,9.2,18.2,7.7,37.8,7.738,7.598,8.352,8.017,8.41,8.349,8.166,4.563,-4.62,-8.376,1.932,-2.028,7.672,4.387,-4.935,-7.762,21.9,,-8.28,10.9,22.1,25.3,23.8,12.2,36,12.9,5,5,prime,10,0,69,norm,36,-5.149,up,norm,17.7599189,28.3,20.1,14.6,13.2,4,31.5,28.4,23.2,10,6,7.982,4.986,1.982,-1.844,-4.559,-7.777,1.6,6,86.8,-8.216,-8.345,-60,-8.368,-7.67,-4.515,-4.572,-5.044,-4.335,4.741,7.91,34,-1.194,1.922,4.731,7.891,-8.249,-8.389,-1.374,1.462,24.1,20.9,19.8,29.5,25,28.6,33.7,11.2,10.9,16.6,4,norm,1.915,1.916,-1.545,-1.77,-4.499,-5.192,-1.469,-2.061,-1.822,-1.79,1.149,-1.724,4,14.2,-4.871,-7.667,1.865,-1.633,7.964,4.972,-4.883,-8.206,6,5.058,4.605,4.912,4.667,2.028,2.033,1.29,1.55,6,5.224,4.911,20,176.2776945,norm,0,23,23,23,264.264,264.274,264.2824487,264.283,264.284,264.287,up,1,6.726519284,3.273480716,1,026,1920_1200,Intel(R) Core(TM) i5-3570 CPU @ 3.40GHz,orientation_search,LEPPC096,Intel(R) HD Graphics 2500,2019_Jan_16_1448,testMonitor
9.1,34.9,13.4,25.8,36,-60,6.9,16.7,11.6,17.3,8.398,8.207,7.854,7.705,8.286,7.731,7.848,4.447,-4.444,-7.974,1.778,-1.775,7.986,4.77,-4.776,-8.433,30.9,13.8,-8.424,32.8,24.6,15.1,17.3,-2.2,36,1.8,0,5,prime,10,0,106,norm,36,-4.37,down,norm,17.7599189,10.1,16.7,24,25.7,0,12,22.4,7.4,10,6,8.134,4.912,1.107,-1.918,-5.282,-7.526,9,6,123.8,-7.67,-7.936,-60,-8.049,-7.653,-5.251,-4.893,-5.06,-4.436,4.667,7.815,0,-1.189,1.496,5.128,8.055,-8.251,-8.026,-1.927,1.215,27.8,9.6,23,18.7,37.8,,21.4,32.7,11.2,23,5,norm,1.7,1.211,-1.87,-2.008,-4.368,-4.925,-1.474,-1.314,-1.918,-1.21,1.938,-2.001,20.4,28.6,-5.172,-8.314,1.179,-1.586,7.564,5.19,-4.691,-8.073,6,5.164,5.19,4.859,4.724,1.416,1.84,2.048,1.672,6,4.604,4.668,20,176.2776945,norm,0,24,24,24,271.05,271.072,271.0830825,271.083,271.085,271.087,down,1,2.763647669,7.236352331,1,026,1920_1200,Intel(R) Core(TM) i5-3570 CPU @ 3.40GHz,orientation_search,LEPPC096,Intel(R) HD Graphics 2500,2019_Jan_16_1448,testMonitor
17.7,26.8,11.1,15.2,36,40,22.3,15.3,10.1,25,8.396,8.044,8.121,8.437,7.903,7.85,7.937,4.525,-4.451,-7.778,1.857,-1.702,8.104,4.913,-5.1,-7.778,8.6,16.9,-8.22,15.1,17.5,21.5,16.8,26.6,36,27.9,0,5,probe,5,0,62,norm,36,-4.554,down,norm,18.60405446,20.4,16.1,22,14.2,2,16.4,16.9,21.2,10,6,7.932,5.198,1.526,-1.727,-4.609,-8.18,14.9,2,-43.4,-8.26,-8.165,-60,-8.024,-7.772,-4.483,-4.922,-4.411,-4.358,4.7,8.1,2,-1.235,1.379,5.221,8.336,-8.449,-8.16,-1.497,1.431,25.2,15.4,28.6,,16.3,19.8,15.5,19.5,21.2,24.4,0,norm,1.469,1.712,-1.725,-1.609,-5.013,-5.274,-1.804,-1.523,-1.832,-1.68,1.28,-1.31,23.5,21.2,-4.373,-8.319,1.958,-2.018,7.722,5.159,-4.41,-7.58,7,4.401,4.849,5.085,4.617,2.052,1.991,1.349,1.59,7,5.012,4.669,-60,17.7599189,norm,0,25,25,25,273.889,273.898,273.9073229,273.908,273.909,273.912,down,1,1.671040867,8.328959133,1,026,1920_1200,Intel(R) Core(TM) i5-3570 CPU @ 3.40GHz,orientation_search,LEPPC096,Intel(R) HD Graphics 2500,2019_Jan_16_1448,testMonitor
71.6,61.1,56.8,64.3,36,40,,60.3,51.6,58.7,8.049,7.648,7.989,8.485,8.037,8.453,8.372,5.004,-4.81,-8.016,1.344,-1.208,7.595,4.604,-4.937,-7.658,64.3,65,-8.297,57.4,64.5,67.5,53,67.5,36,58.9,4,5,probe,5,0,105,norm,36,-5.29,down,norm,61.60405446,55.3,54.5,60.4,70.9,0,54,65.5,59.4,10,6,8.158,5.176,1.935,-1.621,-4.903,-7.704,57.7,2,-43.4,-7.642,-8.269,-60,-8.403,-7.987,-4.605,-4.353,-4.306,-5.029,4.87,8.316,24,-1.588,1.351,5.049,8.352,-7.995,-7.797,-1.52,1.817,56.4,65.7,66.1,57,60.9,69.2,58,63.5,62.8,64.2,1,norm,1.338,1.203,-1.538,-1.289,-4.304,-5.247,-1.708,-1.777,-1.181,-1.73,1.813,-1.782,53.9,58.7,-4.732,-8.115,1.986,-1.731,8.34,4.395,-4.471,-7.862,7,4.97,5.252,4.591,5.276,1.287,2.06,1.749,1.324,7,5.181,4.463,-60,17.7599189,norm,0,26,26,26,275.616,275.626,275.6355998,275.636,275.637,275.64,down,1,1.121468739,8.878531261,1,026,1920_1200,Intel(R) Core(TM) i5-3570 CPU @ 3.40GHz,orientation_search,LEPPC096,Intel(R) HD Graphics 2500,2019_Jan_16_1448,testMonitor
169.3,169.2,162.4,172,36,60,173.8,173.3,179.1,147.6,7.697,8.297,8.445,7.58,8.042,8.109,7.631,4.989,-4.745,-8.403,1.699,-1.866,7.949,4.406,-4.759,-8.075,170.6,154.3,-7.991,171.5,,181.5,164.7,170,36,160.5,5,5,prime,10,0,106,norm,36,-5.141,down,norm,167.5674257,147.7,166.9,153.5,176,0,171.9,166.5,149.2,10,6,8.19,4.379,2.097,-1.343,-5.295,-7.665,176.8,6,273.6,-8.191,-7.68,60,-7.732,-8.414,-5.282,-4.599,-4.84,-5.134,5.071,8.482,30,-1.656,1.436,4.786,7.849,-7.556,-7.511,-2.037,2.085,187.6,184.2,175.7,177.6,151.3,164.1,176.1,167.7,175.2,168.3,0,norm,1.791,1.968,-2.003,-1.659,-4.68,-4.706,-2.039,-1.482,-1.502,-1.53,1.54,-1.348,155,184.9,-4.522,-7.753,1.776,-1.585,7.92,5.107,-5.01,-7.816,8,4.349,4.676,4.438,4.901,1.906,1.354,1.594,1.179,8,4.885,5.281,40,17.7599189,norm,0,27,27,27,276.795,276.805,276.8210558,276.821,276.823,276.826,down,1,2.52281378,7.47718622,1,026,1920_1200,Intel(R) Core(TM) i5-3570 CPU @ 3.40GHz,orientation_search,LEPPC096,Intel(R) HD Graphics 2500,2019_Jan_16_1448,testMonitor
156.2,158.9,172.2,159.1,36,60,147.6,167.3,164.7,160.8,7.588,8.012,7.738,7.745,8.334,7.933,7.532,4.528,-4.582,-7.539,1.14,-1.192,8.224,4.747,-4.561,-7.984,175.5,187.6,-8.375,163.1,154,167.2,162.1,157.9,36,159.9,1,5,prime,10,0,119,norm,36,-4.518,up,norm,167.5674257,162.5,157.5,159.4,157.8,4,177.4,186.6,168.2,10,6,7.846,4.673,1.633,-1.602,-4.853,-8.4,,6,286.6,-7.786,-7.525,60,-8.053,-7.621,-5.172,-4.692,-4.911,-5.23,4.497,8.186,10,-1.163,1.103,4.302,8.169,-7.889,-8.163,-1.345,1.959,161,166,176.2,176.2,153.6,181.7,174.1,163.6,171,149.9,1,norm,1.443,1.716,-1.919,-1.917,-4.952,-4.491,-1.326,-1.711,-1.325,-1.781,1.342,-2.016,178.3,175.1,-4.997,-7.536,1.905,-1.759,8.159,4.389,-4.945,-8.337,8,5.171,4.804,5.156,4.556,1.302,1.116,1.808,1.584,8,4.384,5.011,40,17.7599189,norm,0,28,28,28,279.366,279.375,279.3950557,279.395,279.397,279.399,up,1,1.827469506,8.172530494,1,026,1920_1200,Intel(R) Core(TM) i5-3570 CPU @ 3.40GHz,orientation_search,LEPPC096,Intel(R) HD Graphics 2500,2019_Jan_16_1448,testMonitor
152.9,164.4,173.5,172.8,36,60,170.4,159.3,160.5,160.2,8.277,8.18,7.688,7.875,8.073,7.59,7.763,4.695,-4.317,-8.174,1.892,-1.131,7.74,4.392,-4.465,-8.412,165.8,170.4,-7.802,177.5,160,175.8,150.9,171.7,36,182.1,1,5,prime,10,0,116,norm,36,-4.611,up,norm,167.5674257,149.8,165.7,172.1,166.9,5,,168.4,176,10,6,7.967,4.943,1.776,-1.432,-4.778,-8.082,168,6,283.6,-7.904,-7.673,60,-8.06,-7.9,-4.308,-5.154,-4.515,-5.249,4.521,7.623,11,-1.682,1.359,4.317,7.567,-8.374,-8.493,-1.66,1.624,187.6,161.5,180.1,171,174,175.6,164.2,169.7,181,159.5,2,norm,1.93,1.165,-1.475,-1.952,-4.822,-4.766,-1.532,-1.212,-1.657,-1.182,1.956,-2.067,166,147.6,-4.514,-8.339,1.256,-1.612,8.122,4.835,-4.765,-7.77,8,5.069,4.726,4.879,5.248,1.487,1.889,1.117,1.73,8,5.159,4.459,40,17.7599189,norm,0,29,29,29,281.268,281.277,281.2838363,281.284,281.286,281.288,up,1,2.265412583,7.734587417,1,026,1920_1200,Intel(R) Core(TM) i5-3570 CPU @ 3.40GHz,orientation_search,LEPPC096,Intel(R) HD Graphics 2500,2019_Jan_16_1448,testMonitor
172.4,154.9,164.7,150.9,36,60,163.8,182.1,187.6,172.9,7.697,8.163,8.481,7.598,7.621,8.46,8.161,4.906,-4.356,-8.067,1.266,-1.705,7.787,4.327,-5.005,-7.676,161,163.7,-7.619,184.2,156.8,181,159.6,183.6,36,186.6,2,5,prime,10,0,64,norm,36,-4.984,down,norm,167.5674257,156.2,155.6,147.6,155.8,1,167,,154.6,10,6,7.501,5.185,2.088,-1.699,-5.101,-7.883,169.6,6,231.6,-7.977,-7.634,60,-8.256,-8.456,-4.312,-5.068,-4.434,-5.09,4.698,8.497,13,-2.069,1.602,4.714,8.265,-8.328,-8.219,-2.021,1.252,172.4,179.1,166.5,149,160.7,165.4,149.9,152,175.2,186.9,3,norm,1.586,1.134,-1.237,-1.193,-5.235,-4.447,-1.95,-1.512,-1.245,-1.316,1.465,-1.247,161.6,160.8,-4.434,-7.562,1.366,-1.358,7.94,4.986,-5.101,-7.859,8,5.209,5.011,4.753,4.443,1.121,1.406,2.022,1.772,8,4.338,4.374,40,17.7599189,norm,0,30,30,30,283.587,283.597,283.6069184,283.607,283.609,283.611,down,1,1.259718797,8.740281203,1,026,1920_1200,Intel(R) Core(TM) i5-3570 CPU @ 3.40GHz,orientation_search,LEPPC096,Intel(R) HD Graphics 2500,2019_Jan_16_1448,testMonitor
172,167.9,172.7,164.5,36,60,163.2,167.1,160.5,172.6,7.887,7.568,7.738,7.6,7.558,7.519,7.93,5.169,-5.127,-8.409,1.737,-1.73,7.873,5.042,-5.172,-7.941,164.6,165.1,-7.903,175.9,178.2,158.5,187.6,160.7,36,147.6,2,5,prime,10,0,95,norm,36,-5.116,up,norm,167.5674257,176.9,155.5,,183.7,3,163.4,161.8,175.5,10,6,8.138,5,1.928,-1.943,-4.382,-8.137,183,6,262.6,-8.205,-7.889,60,-7.541,-8.159,-4.518,-4.864,-4.789,-5.184,5.105,7.761,15,-1.336,1.752,5.115,7.552,-8.303,-8.237,-2.019,1.791,160.4,166.4,161.2,172.9,153.8,172.5,169.5,184.9,183.7,155.4,4,norm,1.318,1.126,-1.79,-1.483,-5.011,-5.132,-2.002,-1.687,-1.625,-2.074,1.368,-2.021,154.7,171.7,-5,-8.091,1.674,-1.406,7.827,4.952,-4.508,-8.2,8,5.276,4.95,4.416,5.145,1.139,1.993,1.953,1.673,8,4.563,4.828,40,17.7599189,norm,0,31,31,31,284.888,284.897,284.917404,284.918,284.919,284.922,up,1,1.933863884,8.066136116,1,026,1920_1200,Intel(R) Core(TM) i5-3570 CPU @ 3.40GHz,orientation_search,LEPPC096,Intel(R) HD Graphics 2500,2019_Jan_16_1448,testMonitor
160.1,165.6,160.5,151.3,36,60,147.6,170.9,160.9,166.2,8.404,8.099,8.437,8.041,8.237,7.965,8.097,4.822,-5.238,-8.076,1.617,-1.836,7.553,5.293,-4.614,-7.995,155.8,162.8,-7.687,177.1,162.1,178.2,169.1,162.8,36,187.6,1,5,prime,10,0,117,norm,36,-4.45,up,norm,167.5674257,169.8,162.2,171.9,171.6,3,173.6,170.8,160.1,10,6,8.473,5.215,1.824,-1.943,-4.393,-7.813,161.3,6,284.6,-7.669,-8.372,60,-7.647,-8.466,-5.034,-5.062,-4.997,-4.408,4.616,8.138,9,-1.754,1.359,5.097,7.985,-7.533,-7.833,-1.293,1.712,,153.1,158.6,170.8,171.7,174.8,170.6,168.1,157.2,171.5,5,norm,1.864,1.996,-1.426,-1.951,-5.075,-4.746,-1.246,-1.195,-1.211,-1.103,1.798,-2.003,162.4,162.7,-5.055,-7.827,1.369,-1.922,7.649,4.708,-4.358,-7.981,8,4.58,5.11,4.647,5.022,1.371,1.399,1.525,1.544,8,5.171,5.292,40,17.7599189,norm,0,32,32,32,286.889,286.901,286.9295124,286.93,286.931,286.934,up,1,1.794983262,8.205016738,1,026,1920_1200,Intel(R) Core(TM) i5-3570 CPU @ 3.40GHz,orientation_search,LEPPC096,Intel(R) HD Graphics 2500,2019_Jan_16_1448,testMonitor
315.5,,314.7,323.4,36,-80,322.7,319.5,326.8,325.4,7.672,7.99,8.019,7.867,8.22,7.56,8.234,4.806,-4.787,-8.101,1.243,-1.495,7.818,4.811,-5.087,-8.095,317.1,311,-8.144,318.2,318.1,315.7,314.2,309.3,36,318.1,3,5,probe,5,0,101,norm,36,-4.986,up,norm,318.9660908,317.8,314.4,323.7,320,5,313.7,320.4,326.8,10,6,7.712,5.256,1.835,-1.298,-4.794,-8.149,314.8,2,218,-7.943,-7.617,60,-7.621,-8.446,-4.66,-4.554,-4.567,-4.421,4.646,8.257,23,-1.238,2.011,5.105,7.726,-8.205,-7.723,-1.91,1.471,321.1,309,327.5,325.4,329,318.9,323.2,312.9,322.7,317.3,0,norm,1.736,1.155,-1.747,-1.574,-4.341,-4.489,-1.577,-1.999,-1.877,-1.446,1.133,-1.653,318.8,314.4,-5.086,-8.051,1.945,-1.132,7.573,5.289,-4.746,-8.336,9,5.007,4.635,5.122,4.341,1.679,2.078,1.309,1.565,9,5.298,4.914,60,167.5674257,norm,0,33,33,33,288.771,288.78,288.7887114,288.789,288.791,288.793,up,1,1.499700565,8.500299435,1,026,1920_1200,Intel(R) Core(TM) i5-3570 CPU @ 3.40GHz,orientation_search,LEPPC096,Intel(R) HD Graphics 2500,2019_Jan_16_1448,testMonitor
305.7,312.5,311.9,313.5,36,-80,314.4,305,303.9,311.5,8.366,8.2,8.448,7.666,7.741,8.426,7.715,4.958,-5.189,-7.513,1.141,-1.513,7.811,5.275,-5.115,-8.237,310.1,307.8,-7.767,312.6,315.8,309.6,307.4,321,36,305.4,2,5,probe,5,0,95,norm,36,-4.914,down,norm,312.9660908,310.7,322.8,303,312.3,0,314.2,314.4,,10,6,8.261,4.981,1.332,-1.525,-4.907,-7.672,315.2,2,218,-8.063,-8.374,60,-7.536,-8.077,-4.756,-5.049,-4.491,-4.588,5.095,8.36,12,-1.515,1.209,4.5,7.755,-8.444,-8.351,-1.109,1.263,314.1,315.7,311.7,314.9,315.8,315,315.7,309.2,310.1,323,1,norm,1.657,1.1,-1.561,-1.885,-4.421,-4.811,-2.086,-1.566,-1.448,-2.004,1.988,-1.99,318.5,311.6,-5.059,-8.281,1.832,-2.098,8.158,4.662,-4.981,-7.516,9,4.457,4.777,4.432,5.239,1.946,1.83,1.422,1.518,9,5.09,5.29,60,167.5674257,norm,0,34,34,34,290.331,290.34,290.3471715,290.347,290.349,290.352,down,1,1.866547235,8.133452765,1,026,1920_1200,Intel(R) Core(TM) i5-3570 CPU @ 3.40GHz,orientation_search,LEPPC096,Intel(R) HD Graphics 2500,2019_Jan_16_1448,testMonitor
352.2,336.7,336.9,345.7,36,20,345.3,341.6,353.9,359.6,7.829,8.14,8.354,7.765,8.029,7.614,7.767,4.471,-4.379,-7.555,1.397,-1.266,8.242,4.378,-4.476,-8.009,363.9,363.3,-8.331,341.1,344.9,343.9,351.8,340.9,36,341.5,1,5,prime,10,0,107,norm,36,-5.028,down,norm,343.9464157,346.8,333.8,349.8,358,0,323.9,345.9,328.5,10,5,8.283,4.726,1.408,-1.955,-4.363,-8.146,360.2,5,450.9,-7.852,-8.428,20,-8.398,-8.003,-4.523,-4.362,-4.695,-5.266,4.709,7.871,6,-1.443,2.085,4.332,7.605,-8.432,-8.474,-1.52,1.235,342,347.5,353.3,355.7,350,337.4,347.6,,339.3,341.7,0,norm,1.248,1.44,-1.129,-1.126,-4.88,-5.047,-1.97,-1.685,-1.938,-1.868,1.42,-2.037,347.1,346.3,-4.592,-7.753,1.559,-1.999,7.816,5.166,-5.182,-8.432,10,5.119,4.393,4.366,5.017,1.235,1.29,1.564,1.639,10,4.9,4.594,-80,167.5674257,norm,0,35,35,35,292.235,292.245,292.2646094,292.265,292.266,292.269,down,1,1.25569454,8.74430546,1,026,1920_1200,Intel(R) Core(TM) i5-3570 CPU @ 3.40GHz,orientation_search,LEPPC096,Intel(R) HD Graphics 2500,2019_Jan_16_1448,testMonitor
347.7,323.9,363.9,,36,20,357.4,330.1,331.4,335.4,7.676,8.307,7.601,8.476,8.468,7.906,8.32,5.053,-4.718,-7.653,1.167,-1.625,7.511,4.427,-5.227,-8.209,338.5,329.5,-8.078,351.7,338.8,345.7,339.5,333.5,36,326.8,3,5,prime,10,0,104,norm,36,-4.882,up,norm,343.9464157,340.6,346.5,353,342.5,3,341.8,344.5,344.3,10,5,8.262,4.822,1.304,-1.757,-4.532,-7.89,349.6,5,447.9,-8.084,-8.356,20,-7.827,-7.991,-4.941,-4.691,-4.412,-5.193,5.011,7.552,21,-1.217,1.584,4.893,8.403,-8.311,-7.691,-2.061,2.048,344.5,345.5,326.8,354.6,351.2,343.6,340.1,342.1,330.8,341.4,1,norm,1.255,1.228,-1.118,-1.422,-5.031,-5.276,-1.389,-1.269,-2.038,-1.761,1.629,-1.656,334.7,341.5,-4.907,-8.276,1.505,-1.338,8.162,4.799,-4.899,-7.889,10,4.532,5.286,4.803,4.37,1.588,1.258,1.773,1.83,10,4.757,4.703,-80,167.5674257,norm,0,36,36,36,293.543,293.553,293.5749492,293.575,293.577,293.579,up,1,2.601398468,7.398601532,1,026,1920_1200,Intel(R) Core(TM) i5-3570 CPU @ 3.40GHz,orientation_search,LEPPC096,Intel(R) HD Graphics 2500,2019_Jan_16_1448,testMonitor
331.8,339.4,363.9,346.8,36,20,349.3,349.6,325,343.5,8.028,7.594,7.696,8.246,8.247,8.193,8.435,4.482,-5.234,-7.816,2.03,-1.918,8.103,5.239,-4.622,-7.992,353.5,349.3,-7.574,362.2,323.9,342.9,353.6,346.4,36,334.7,1,5,prime,10,0,102,norm,36,-5.221,down,norm,343.9464157,357.1,330.8,330.9,354.5,1,345.9,337.8,360.6,10,5,7.78,5.233,1.159,-1.357,-4.305,-7.542,329.2,5,445.9,-7.98,-8.437,20,-8.223,-8.379,-4.913,-5.154,-4.707,-4.301,4.884,7.536,7,-1.578,1.679,5.271,8.101,-8.04,-8.008,-2.058,1.475,351,354.4,341.4,352.3,350.7,345.4,,338.6,338.6,343.2,2,norm,1.744,1.252,-1.175,-1.971,-4.888,-4.808,-1.374,-1.894,-1.448,-1.782,1.214,-1.687,352.2,341.5,-4.969,-7.995,1.915,-1.103,8.331,4.538,-4.335,-8.013,10,4.777,4.433,4.825,5.012,1.353,1.814,1.222,1.47,10,4.746,4.347,-80,167.5674257,norm,0,37,37,37,296.198,296.209,296.2138784,296.214,296.216,296.219,up,0,2.213137091,-10,1,026,1920_1200,Intel(R) Core(TM) i5-3570 CPU @ 3.40GHz,orientation_search,LEPPC096,Intel(R) HD Graphics 2500,2019_Jan_16_1448,testMonitor
335.5,343.1,,362,36,20,337.6,348.4,347.7,342.4,7.948,8.498,7.639,7.942,8.313,7.892,8.196,4.312,-4.707,-8.182,1.507,-1.447,8.079,4.922,-4.399,-8.271,348.8,363.9,-8.493,339.4,350.7,323.9,354.7,338.8,36,333.5,3,5,prime,10,0,77,norm,36,-4.99,down,norm,343.9464157,328.6,326.9,337.9,350,2,333.7,352.6,331.2,10,5,7.501,4.473,1.998,-1.361,-5.014,-8.294,337.4,5,420.9,-8.034,-7.646,20,-7.847,-8.087,-4.512,-4.449,-4.918,-5.173,4.641,7.707,20,-1.554,1.259,4.93,8.092,-8.257,-7.66,-1.64,1.292,336.8,359.3,344,341.3,350.4,335.5,336.4,334.1,357.1,326.1,3,norm,1.167,1.925,-1.223,-1.532,-4.792,-4.824,-2.005,-1.874,-1.611,-2.086,2.012,-2.075,344.2,324.9,-4.327,-7.933,1.366,-1.827,7.964,4.654,-5.042,-7.619,10,4.434,5.054,4.927,4.381,2.065,1.327,1.189,1.431,10,4.338,4.878,-80,167.5674257,norm,0,38,38,38,299.498,299.507,299.5136581,299.514,299.516,299.518,down,1,4.157808694,5.842191306,1,026,1920_1200,Intel(R) Core(TM) i5-3570 CPU @ 3.40GHz,orientation_search,LEPPC096,Intel(R) HD Graphics 2500,2019_Jan_16_1448,testMonitor
329.3,350.1,331.4,336.5,36,20,340.3,359.6,335.8,331.8,7.685,7.917,7.748,7.654,7.694,7.973,7.978,4.403,-5.089,-8.253,1.437,-1.581,8.449,4.745,-5.057,-8.157,335.9,334.8,-8.282,342.5,328.2,346.4,341.9,,36,345.9,4,5,prime,10,0,97,norm,36,-4.489,down,norm,343.9464157,358.5,338.3,339,353.6,2,356,330.4,323.9,10,5,7.973,5.081,1.508,-1.858,-4.619,-7.987,363.9,5,440.9,-7.787,-7.528,20,-7.661,-7.566,-5.212,-4.589,-5.124,-4.8,4.572,8.203,26,-1.288,1.996,4.592,8.232,-8.258,-7.552,-1.288,1.642,348.9,344.5,345.9,349.9,356,337.6,342.2,349.9,341.7,339.2,4,norm,1.185,1.854,-1.567,-1.263,-5.183,-4.861,-1.788,-1.555,-1.19,-2.027,2.04,-1.72,342.9,333.4,-4.435,-7.961,1.413,-1.559,8.354,4.981,-4.777,-7.872,10,4.787,5.002,5.172,4.999,1.334,1.714,1.735,1.744,10,5.204,4.564,-80,167.5674257,norm,0,39,39,39,303.715,303.724,303.7313911,303.732,303.733,303.736,down,1,4.773210561,5.226789439,1,026,1920_1200,Intel(R) Core(TM) i5-3570 CPU @ 3.40GHz,orientation_search,LEPPC096,Intel(R) HD Graphics 2500,2019_Jan_16_1448,testMonitor
438,440,444,437.2,36,30,446.9,434.5,450,437.7,7.569,7.533,7.792,8.125,7.846,8.053,8.13,4.551,-4.869,-8.093,1.499,-1.363,8.316,5.274,-4.657,-8.347,448.5,440.6,-7.77,443,443.9,434.5,439.5,442.7,36,435.7,2,5,probe,5,0,80,norm,36,-4.417,down,norm,444.488823,441.8,437.8,438.9,450.6,1,450.4,,443,10,5,7.711,4.778,1.874,-1.947,-4.517,-8.189,443,2,364.5,-7.609,-7.619,20,-8.102,-8.417,-4.945,-4.678,-4.49,-4.611,4.578,7.666,13,-1.153,1.74,4.544,8.35,-8.324,-8.056,-1.381,1.225,442.2,447.9,448.7,446,435.4,445.2,443.7,454.5,453.4,445.2,0,norm,1.265,1.38,-1.811,-1.99,-4.557,-4.939,-1.855,-1.31,-1.873,-1.457,2.017,-1.606,440.4,450,-4.693,-8.101,1.537,-1.713,8.453,5.051,-5.213,-7.83,11,4.592,5.137,5.294,5.083,1.113,1.471,1.949,1.461,11,4.647,4.415,20,343.9464157,norm,0,40,40,40,308.543,308.555,308.5817164,308.582,308.584,308.586,down,1,2.245358009,7.754641991,1,026,1920_1200,Intel(R) Core(TM) i5-3570 CPU @ 3.40GHz,orientation_search,LEPPC096,Intel(R) HD Graphics 2500,2019_Jan_16_1448,testMonitor
428.3,432.2,428.7,429.8,36,30,433.8,433.3,426.5,432.9,7.919,8.387,7.689,7.83,8.475,8.083,8.084,4.323,-5.135,-7.877,1.99,-1.865,7.991,4.415,-5.251,-7.717,437,440.2,-7.977,,423.5,426.7,428.5,437.1,36,433.6,5,5,probe,5,0,69,norm,36,-4.736,down,norm,433.488823,437.9,440.1,442.1,437.9,1,433.6,433.1,433.9,10,5,8.005,5.173,1.289,-1.981,-4.471,-7.526,433.9,2,364.5,-7.901,-8.46,20,-7.696,-7.619,-4.877,-4.553,-4.467,-4.359,4.657,8.006,31,-1.309,1.916,4.995,8.296,-8.351,-8.027,-1.176,1.476,428,443.5,437.6,435.4,437.7,435.9,428.5,433.2,436.6,436.4,1,norm,1.353,1.417,-1.833,-1.463,-4.363,-5.054,-1.843,-1.247,-1.442,-1.545,1.753,-1.841,433.5,438.4,-4.997,-7.623,1.539,-1.701,7.57,5.156,-4.878,-7.681,11,4.404,5.144,5.14,4.697,2.094,1.518,1.814,1.492,11,4.502,5.281,20,343.9464157,norm,0,41,41,41,310.865,310.875,310.8902605,310.89,310.892,310.895,down,1,2.821865973,7.178134027,1,026,1920_1200,Intel(R) Core(TM) i5-3570 CPU @ 3.40GHz,orientation_search,LEPPC096,Intel(R) HD Graphics 2500,2019_Jan_16_1448,testMonitor
268.9,281.2,259.8,270.6,36,80,274.4,288,273.2,257.6,7.929,8.483,8.351,8.4,7.707,7.93,8.428,4.484,-4.981,-7.789,1.971,-1.867,8.367,5.118,-4.684,-8.116,259,260.1,-8.295,269.3,251.1,259.7,272.2,270,36,269.9,2,5,prime,10,0,102,norm,36,-4.681,down,norm,268.0026602,281,276.4,275.1,,2,273.1,274.2,277.5,10,5,8.022,5.268,1.128,-1.619,-5.01,-7.923,259.8,5,370,-7.703,-8.025,80,-8.463,-7.741,-4.485,-4.354,-5.14,-4.328,4.653,7.558,14,-1.537,1.176,4.947,8.411,-7.644,-7.855,-1.566,1.14,248,282.4,256.9,272.1,266.4,265.5,266.9,269.6,279,258.1,0,norm,1.197,1.66,-1.809,-1.971,-4.363,-4.995,-1.532,-1.663,-1.838,-1.954,1.197,-1.752,281.8,270.9,-5.039,-7.502,1.268,-2.09,8.181,5.187,-4.334,-7.985,12,4.557,4.835,4.315,4.655,1.828,1.504,1.865,1.814,12,5.119,4.495,30,343.9464157,norm,0,42,42,42,313.75,313.759,313.7761388,313.776,313.778,313.781,down,1,1.894542864,8.105457136,1,026,1920_1200,Intel(R) Core(TM) i5-3570 CPU @ 3.40GHz,orientation_search,LEPPC096,Intel(R) HD Graphics 2500,2019_Jan_16_1448,testMonitor
267.9,268.5,268.4,268.7,36,80,277.2,284.9,268.8,256.9,7.669,8.254,7.527,8.188,8.304,8.325,7.645,4.734,-4.416,-7.916,1.103,-1.152,8.125,5.024,-4.596,-8.17,,285.8,-7.838,248,274.7,252,280.2,266.1,36,275.5,5,5,prime,10,0,65,norm,36,-4.658,up,norm,268.0026602,271.6,274.7,268.2,277,5,272.8,253.3,267,10,5,8.061,4.539,1.725,-1.722,-4.539,-7.645,262.8,5,333,-7.702,-7.92,80,-7.551,-8.441,-4.755,-4.571,-4.765,-4.735,4.647,8.346,35,-1.462,1.278,4.772,7.588,-8.26,-8.358,-1.467,1.577,261.9,287.4,266.5,264.6,253.8,282.1,267,274.6,250,277.2,1,norm,1.175,1.987,-1.668,-1.605,-5.138,-4.801,-1.273,-1.733,-1.587,-1.722,1.274,-1.602,288,285,-5.046,-8.263,1.574,-1.277,7.917,4.45,-4.641,-8.309,12,4.784,4.429,4.766,4.769,1.758,1.354,1.529,1.957,12,5.121,4.612,30,343.9464157,norm,0,43,43,43,315.695,315.705,315.7117631,315.712,315.714,315.716,up,1,4.101118352,5.898881648,1,026,1920_1200,Intel(R) Core(TM) i5-3570 CPU @ 3.40GHz,orientation_search,LEPPC096,Intel(R) HD Graphics 2500,2019_Jan_16_1448,testMonitor
257.3,251.7,269.3,263.8,36,80,276.1,267.9,280.7,262.7,8.431,8.082,7.523,7.524,8.305,8.243,7.567,4.997,-5.21,-8.037,1.661,-1.436,8.367,4.735,-4.653,-8.241,261.8,248,-7.515,255.1,267.5,263.3,264.4,249.5,36,272.7,0,5,prime,10,0,90,norm,36,-5.247,up,norm,268.0026602,288,275.7,272.8,277.2,5,265.5,279.4,276.5,10,5,7.845,5.289,1.413,-1.774,-5.084,-8.387,251.4,5,358,-8.012,-7.648,80,-7.957,-7.745,-4.351,-4.52,-5.192,-4.457,5.298,7.848,5,-1.488,1.779,4.781,8.445,-7.903,-8.278,-1.966,1.784,258,267.7,263,263.5,262.4,274.1,260.9,260.6,,269.3,2,norm,1.443,1.868,-1.588,-1.606,-4.983,-4.995,-1.425,-1.205,-1.387,-1.958,1.673,-1.878,259.7,273.7,-5.164,-7.545,1.306,-1.292,8.388,4.586,-4.867,-7.713,12,5.162,4.995,5.06,4.555,1.681,1.605,1.824,1.794,12,5.218,4.726,30,343.9464157,norm,0,44,44,44,319.851,319.864,319.8836914,319.884,319.886,319.888,up,1,2.691650241,7.308349759,1,026,1920_1200,Intel(R) Core(TM) i5-3570 CPU @ 3.40GHz,orientation_search,LEPPC096,Intel(R) HD Graphics 2500,2019_Jan_16_1448,testMonitor
268.8,267.4,250.9,258.2,36,80,285.3,261.1,257.2,250.9,8.153,8.254,8.068,8.025,7.928,8.07,7.845,4.421,-4.967,-7.9,1.107,-1.457,7.687,4.751,-4.792,-7.59,274.1,256.5,-8.302,268.3,275.7,282.3,253.2,271.5,36,,4,5,prime,10,0,119,norm,36,-4.313,up,norm,268.0026602,259.7,266.5,272.5,271.9,3,271.5,256.3,252.8,10,5,7.914,5.007,1.267,-1.689,-4.318,-7.623,268.9,5,387,-7.997,-7.9,80,-7.698,-8.417,-4.306,-4.532,-4.415,-4.92,4.734,8.296,27,-1.362,1.977,5.157,8.208,-7.679,-8.031,-1.385,1.797,248,280.7,268.8,263.8,282.7,259.5,279.4,272.7,269.6,281.6,3,norm,1.27,1.31,-1.441,-2.093,-5.298,-4.385,-1.187,-1.692,-1.423,-1.591,1.964,-1.555,288,252.7,-4.723,-7.712,1.123,-1.89,7.587,4.855,-4.792,-7.88,12,4.679,4.836,4.478,4.684,1.539,1.474,1.625,1.928,12,4.854,4.673,30,343.9464157,norm,0,45,45,45,322.613,322.625,322.6523162,322.652,322.654,322.657,up,1,3.143787788,6.856212212,1,026,1920_1200,Intel(R) Core(TM) i5-3570 CPU @ 3.40GHz,orientation_search,LEPPC096,Intel(R) HD Graphics 2500,2019_Jan_16_1448,testMonitor
270.6,273,258.3,271.8,36,80,258.3,284.8,281.5,274.7,7.867,7.614,7.627,7.887,8.201,7.822,8.387,4.792,-4.488,-7.616,1.666,-1.784,7.618,5.151,-4.879,-7.968,268.4,251.1,-8.141,268.6,249.2,256.6,260.9,261.2,36,257.1,0,5,prime,10,0,103,norm,36,-4.761,up,norm,268.0026602,279.9,272.7,258.6,271.3,5,277.9,265.9,264.3,10,5,8.351,5.029,1.576,-1.565,-4.889,-8.304,288,5,371,-7.525,-7.549,80,-8.41,-7.695,-5.028,-4.433,-5.159,-4.708,5.046,8.487,5,-1.913,1.256,5.271,8.374,-8.168,-8.262,-1.538,1.287,267.5,248,287.7,276.3,267.1,260.8,273.5,281.6,,256.2,4,norm,1.104,2.019,-1.261,-1.772,-4.452,-4.349,-1.69,-1.473,-1.537,-1.404,2.005,-1.343,284.3,254.3,-5.228,-8.055,1.439,-1.361,8.261,5.121,-4.797,-8.448,12,4.95,5.002,4.877,4.962,1.385,1.25,1.332,1.542,12,4.546,4.677,30,343.9464157,norm,0,46,46,46,325.82,325.829,325.8358374,325.836,325.838,325.84,up,1,2.888265302,7.111734699,1,026,1920_1200,Intel(R) Core(TM) i5-3570 CPU @ 3.40GHz,orientation_search,LEPPC096,Intel(R) HD Graphics 2500,2019_Jan_16_1448,testMonitor
468.3,465.8,458.9,468.2,36,-30,472.8,469.3,471.1,478.9,7.968,8.105,7.729,8.368,7.67,7.726,8.013,4.604,-4.928,-7.731,1.95,-1.422,7.907,4.785,-5.03,-7.875,468.1,463.9,-8.017,461.9,473.1,471.4,472.8,474.2,36,464.8,2,5,probe,5,0,112,norm,36,-4.863,down,norm,468.9092362,463.9,460.9,472.5,469.3,1,466.5,,470.2,10,5,8.315,4.807,1.585,-1.743,-4.371,-8.144,474.9,2,356.9,-7.912,-7.565,80,-7.774,-8.146,-5.257,-5.276,-5.133,-4.571,4.451,8.207,13,-1.755,1.689,4.4,8.09,-7.734,-8.016,-1.29,1.206,467.8,469.6,466.4,470,467,474.2,464.4,459.2,471,459.9,0,norm,1.408,2.061,-1.322,-1.59,-5.249,-4.741,-1.917,-1.528,-1.289,-1.581,1.3,-2.048,468.6,464.3,-4.609,-8.463,2.094,-2.06,7.574,4.568,-4.705,-7.726,13,4.532,5.013,5.064,5.18,1.315,1.21,1.191,1.288,13,4.924,4.749,80,268.0026602,norm,0,47,47,47,328.762,328.772,328.7830213,328.783,328.785,328.788,down,1,1.067480855,8.932519145,1,026,1920_1200,Intel(R) Core(TM) i5-3570 CPU @ 3.40GHz,orientation_search,LEPPC096,Intel(R) HD Graphics 2500,2019_Jan_16_1448,testMonitor
457.4,454.9,462.5,461.9,36,-30,465.3,471.4,465.7,464.5,8.02,7.703,8.178,8.158,7.856,8.321,8.245,4.892,-4.921,-8.327,2.04,-1.517,8.253,4.855,-4.882,-7.632,458.5,458.8,-8.079,463.6,466.8,465.6,460.3,466,36,474.6,1,5,probe,5,0,108,norm,36,-4.995,up,norm,464.9092362,465.1,466.3,462.3,458.4,3,458.9,467.3,460.5,10,5,8.172,4.946,1.406,-1.701,-5.247,-7.678,474.9,2,356.9,-8.076,-7.54,80,-7.948,-7.541,-5.045,-4.846,-4.941,-5.202,4.431,7.686,9,-1.929,1.341,5.28,8.051,-8.487,-8.409,-1.786,1.933,,464.3,471.8,464.8,462.6,471.3,464.1,465.8,466.9,468.5,1,norm,1.368,1.648,-1.608,-2.045,-4.583,-5.101,-1.248,-1.869,-1.134,-1.974,1.332,-1.551,472.8,473.3,-4.928,-7.986,1.511,-1.535,8.093,4.304,-4.39,-8.303,13,4.928,4.658,4.878,4.423,1.339,1.326,1.599,2.093,13,4.456,4.747,80,268.0026602,norm,0,48,48,48,329.887,329.897,329.9060874,329.906,329.908,329.91,up,1,1.049956383,8.950043617,1,026,1920_1200,Intel(R) Core(TM) i5-3570 CPU @ 3.40GHz,orientation_search,LEPPC096,Intel(R) HD Graphics 2500,2019_Jan_16_1448,testMonitor
361.6,351.4,,331.8,36,0,347.7,352.4,338.2,341.7,8.227,8.133,8.244,7.774,7.603,7.89,8.488,5.265,-5.092,-8.045,1.557,-1.798,7.588,4.522,-4.837,-7.78,356.4,334.1,-8.227,326,343.1,348.2,335.4,350.5,36,332.4,3,5,prime,10,0,63,norm,36,-4.395,down,norm,341.5530738,341.8,330,321.6,330.4,2,343.1,351.7,355.4,10,5,8.384,4.928,1.684,-1.137,-4.571,-8.318,340.8,5,404.6,-8.252,-8.068,0,-7.998,-8.471,-4.887,-5.193,-5.232,-4.423,5.209,7.525,20,-1.677,1.9,5.012,8.185,-8.467,-8.143,-1.946,1.691,342.8,325.3,337.6,340.2,327.7,333.7,329.3,355,337.8,348.5,0,norm,1.897,1.6,-1.7,-1.166,-4.626,-4.772,-1.784,-1.755,-1.306,-1.137,1.338,-1.701,351.3,351.2,-4.476,-8.081,1.851,-1.905,7.951,4.719,-5.107,-8.497,14,5.069,4.764,4.86,4.759,1.536,1.782,1.709,1.855,14,5.299,4.805,-30,268.0026602,norm,0,49,49,49,330.994,331.004,331.0136255,331.014,331.016,331.018,down,1,1.450350598,8.549649402,1,026,1920_1200,Intel(R) Core(TM) i5-3570 CPU @ 3.40GHz,orientation_search,LEPPC096,Intel(R) HD Graphics 2500,2019_Jan_16_1448,testMonitor
346.3,338.6,349,344.4,36,0,340.6,351.9,346.8,348.6,7.868,8.128,7.846,7.52,8.039,8.242,8.261,5.211,-5.179,-7.627,1.257,-1.65,7.778,4.413,-4.69,-8.087,346.3,348.7,-8.237,327.6,345.1,344.8,341.8,321.6,36,344.3,2,5,prime,10,0,102,norm,36,-4.548,up,norm,341.5530738,,339.7,349,331.8,5,338.1,322.4,333.4,10,5,8.122,4.69,2.069,-2.074,-5.238,-7.567,343.1,5,443.6,-8.125,-7.522,0,-8.343,-7.916,-5.156,-4.889,-4.783,-4.562,4.468,8.173,17,-1.866,1.312,4.65,8.266,-7.989,-8.029,-1.136,1.186,348,342,340,361.6,351.7,347.3,336.8,344.3,336.5,349.6,1,norm,1.71,1.435,-1.965,-1.508,-4.611,-4.837,-1.484,-1.782,-2.091,-1.97,1.914,-1.837,342.7,350.2,-4.443,-8.357,1.667,-1.903,7.588,5.085,-5.059,-7.745,14,4.736,4.789,4.849,4.364,1.637,1.877,1.282,1.176,14,4.855,4.687,-30,268.0026602,norm,0,50,50,50,332.502,332.511,332.5268341,332.527,332.529,332.531,up,1,1.35329031,8.64670969,1,026,1920_1200,Intel(R) Core(TM) i5-3570 CPU @ 3.40GHz,orientation_search,LEPPC096,Intel(R) HD Graphics 2500,2019_Jan_16_1448,testMonitor
344.5,335.3,,321.6,36,0,334.8,348.6,339.6,341.8,8.128,7.67,7.659,7.618,7.769,7.792,8.092,4.923,-5.016,-8.478,1.947,-1.752,7.712,4.318,-4.871,-8.016,342.4,345.3,-7.729,359.1,353.4,344.2,343.3,343.2,36,341.9,3,5,prime,10,0,84,norm,36,-4.584,down,norm,341.5530738,333.8,330.7,339.6,329.6,2,351.7,340.3,348.4,10,5,7.848,5.187,1.983,-1.587,-5.016,-8.327,349.8,5,425.6,-8.163,-7.877,0,-7.617,-8,-4.383,-4.473,-4.419,-4.321,5.113,7.999,20,-2.016,1.193,5.168,8.012,-7.593,-8.43,-1.267,2.022,342.3,361.6,337.9,340.3,329.2,359,351.6,351.1,349.7,339.7,2,norm,1.806,2.027,-1.309,-1.838,-4.903,-4.444,-1.734,-1.469,-1.546,-2.064,1.452,-2.032,339.9,359.2,-4.512,-8.061,1.775,-1.541,7.855,4.423,-4.645,-8.032,14,5.055,4.527,4.822,4.776,1.533,1.111,2.029,1.869,14,4.551,4.701,-30,268.0026602,norm,0,51,51,51,333.901,333.913,333.9176793,333.918,333.92,333.923,down,1,1.068839479,8.931160521,1,026,1920_1200,Intel(R) Core(TM) i5-3570 CPU @ 3.40GHz,orientation_search,LEPPC096,Intel(R) HD Graphics 2500,2019_Jan_16_1448,testMonitor
336.6,332.8,332.8,345.1,36,0,345.2,342.6,350.1,334.8,7.932,7.878,7.523,7.567,8.313,7.687,8.199,5.096,-4.49,-7.512,1.973,-1.383,8.093,4.755,-5.175,-8.295,323.6,353.6,-7.634,,337.7,342.2,333.8,345.3,36,337.6,5,5,prime,10,0,89,norm,36,-4.348,down,norm,341.5530738,352.5,338.4,331.9,336.6,1,340.9,338.3,328.9,10,5,7.748,5.109,1.675,-1.228,-4.712,-8.437,341.2,5,430.6,-8.12,-7.911,0,-7.757,-7.56,-4.457,-5.197,-4.801,-5.251,4.758,7.508,31,-1.912,1.847,5.168,7.813,-7.816,-8.217,-1.208,1.471,358.9,350.9,321.6,339.6,343.9,354.6,346.8,340.9,340.3,337.1,3,norm,1.473,1.647,-1.245,-1.88,-4.926,-4.878,-1.46,-2.098,-1.31,-1.882,2.073,-1.987,346,336.1,-4.537,-7.513,1.884,-1.293,7.92,4.534,-5.123,-8.434,14,4.938,5.054,4.553,4.346,1.417,1.566,1.135,1.698,14,5.188,5.283,-30,268.0026602,norm,0,52,52,52,335.04,335.061,335.0721269,335.072,335.074,335.077,down,1,1.694131142,8.305868859,1,026,1920_1200,Intel(R) Core(TM) i5-3570 CPU @ 3.40GHz,orientation_search,LEPPC096,Intel(R) HD Graphics 2500,2019_Jan_16_1448,testMonitor
325.4,359.9,332.3,341.5,36,0,338.6,347.1,335.4,339.1,7.561,8.429,8.128,7.538,7.529,7.505,8.419,4.36,-4.721,-7.807,1.869,-1.471,7.693,4.686,-4.906,-8.351,340.1,345.7,-8.123,361.6,355.9,328,348.1,348.6,36,330.9,2,5,prime,10,0,96,norm,36,-5.156,down,norm,341.5530738,341,346.1,321.6,340.9,1,352.6,,352.7,10,5,8.171,4.766,1.529,-1.128,-4.936,-7.981,323.6,5,437.6,-8.34,-7.799,0,-8.151,-7.526,-5.294,-4.901,-4.474,-5.273,5.023,7.869,13,-1.646,1.132,4.651,8.255,-8.1,-8.23,-1.156,1.38,342.6,337.5,327.8,336.9,350.7,326.6,337.4,339,346.3,328.8,4,norm,1.813,1.784,-2.099,-1.172,-5.092,-4.517,-1.122,-1.973,-1.324,-1.822,1.413,-1.439,336.7,348.7,-4.906,-8.437,1.23,-1.371,7.733,5.114,-4.468,-7.983,14,5.286,5.198,4.766,4.858,1.901,1.657,1.551,1.756,14,4.482,4.556,-30,268.0026602,norm,0,53,53,53,336.805,336.82,336.8375576,336.838,336.84,336.843,down,1,1.226515963,8.773484037,1,026,1920_1200,Intel(R) Core(TM) i5-3570 CPU @ 3.40GHz,orientation_search,LEPPC096,Intel(R) HD Graphics 2500,2019_Jan_16_1448,testMonitor
435.3,425.3,430.5,440.1,36,-20,443.2,443.4,430.1,429.7,8.496,8.415,7.658,8.152,8.032,7.887,7.682,4.923,-4.709,-8.4,1.901,-1.181,8.48,5.031,-4.753,-7.77,434.6,438.9,-7.954,430.2,431.5,429.3,423.4,426.6,36,436.2,1,5,probe,5,0,92,norm,36,-5.262,up,norm,433.4110143,437.5,437,440.5,431.3,5,,438.2,435.5,10,5,7.962,4.453,1.179,-1.543,-4.722,-7.6,437,2,341.4,-7.889,-7.561,0,-8.386,-7.886,-4.894,-4.678,-5.106,-4.828,4.481,8.44,11,-1.105,1.342,4.634,8.13,-8.069,-7.676,-1.88,1.324,435.4,437,433.7,438.8,442.6,432.7,437.8,427.5,430.3,439.7,0,norm,1.709,1.405,-1.527,-1.966,-4.358,-4.857,-1.35,-1.108,-1.748,-1.687,1.748,-1.762,432.2,435.5,-4.943,-7.704,1.789,-1.228,7.838,4.943,-4.611,-7.84,15,4.664,5.004,4.989,4.855,1.634,2.065,1.896,1.99,15,4.785,5.183,0,341.5530738,norm,0,54,54,54,338.102,338.111,338.1268649,338.127,338.129,338.131,up,1,1.204897507,8.795102493,1,026,1920_1200,Intel(R) Core(TM) i5-3570 CPU @ 3.40GHz,orientation_search,LEPPC096,Intel(R) HD Graphics 2500,2019_Jan_16_1448,testMonitor
444.2,438.4,450.3,445.2,36,-20,450.9,453.9,456.3,445.5,7.696,7.893,8.344,7.992,7.841,8.048,8.315,5.255,-5.223,-8.377,1.858,-1.855,8.119,5.219,-5.086,-7.683,458.4,455.6,-7.526,445.5,442.7,451.3,450.5,451.5,36,444.1,2,5,probe,5,0,107,norm,36,-4.335,down,norm,448.4110143,455.3,454.7,450.9,,2,453.8,446.5,452.8,10,5,7.958,4.414,1.154,-1.367,-4.538,-8.151,442.7,2,341.4,-7.715,-7.978,0,-8.346,-8.261,-4.863,-4.562,-4.692,-5.182,4.962,8.371,14,-1.807,2.022,4.912,7.513,-7.507,-8.086,-1.886,1.329,451.4,443.8,450.2,457.5,448.5,451,446.2,451,442.8,448.8,1,norm,1.804,1.782,-1.505,-1.966,-5.069,-4.46,-1.323,-1.571,-1.239,-1.442,1.509,-1.669,449.4,441.7,-4.732,-7.642,1.372,-2.096,8.304,4.486,-4.77,-8.291,15,4.632,4.561,5.276,4.64,2.04,1.822,1.421,1.346,15,4.516,5.03,0,341.5530738,norm,0,55,55,55,339.376,339.385,339.3917375,339.392,339.394,339.396,down,1,1.169660208,8.830339792,1,026,1920_1200,Intel(R) Core(TM) i5-3570 CPU @ 3.40GHz,orientation_search,LEPPC096,Intel(R) HD Graphics 2500,2019_Jan_16_1448,testMonitor
8.3,-2.1,1.3,4.9,36,-10,14.7,4,25.1,17.9,8.313,7.536,7.668,7.756,7.523,7.805,7.555,4.564,-4.453,-7.755,1.569,-1.399,7.531,4.652,-5.035,-8.352,-4.1,-14.8,-8.432,-7.1,6.7,-6.5,25.2,-5.1,36,14.4,1,5,prime,10,0,93,norm,36,-5.284,up,norm,5.218517975,9.2,6.1,10.2,12.7,4,14.8,5.7,5.7,10,6,7.711,4.809,1.379,-1.561,-4.999,-8.134,,6,98.2,-8.366,-8.223,-10,-7.996,-7.639,-5.199,-4.902,-4.815,-5.192,5.082,7.71,10,-2.016,1.636,4.842,7.837,-7.964,-8.026,-1.33,1.532,3.4,6.1,4.5,-4.2,3.8,9,1.4,2.7,23,17,0,norm,2.029,1.706,-1.292,-1.607,-4.439,-4.851,-1.868,-1.627,-2.009,-2.056,1.983,-1.908,15,18.8,-4.786,-7.839,1.864,-1.738,7.559,4.526,-4.311,-8.065,16,5.016,4.891,4.746,4.98,2.061,1.607,1.878,1.3,16,5.201,4.887,-20,341.5530738,norm,0,56,56,56,340.608,340.617,340.6241978,340.624,340.626,340.629,up,1,1.453144818,8.546855182,1,026,1920_1200,Intel(R) Core(TM) i5-3570 CPU @ 3.40GHz,orientation_search,LEPPC096,Intel(R) HD Graphics 2500,2019_Jan_16_1448,testMonitor
25.2,10.6,7.5,4.6,36,-10,9.4,18.3,16.8,5.6,7.776,8.26,7.817,8.125,7.573,8.333,8.025,4.401,-5.008,-8.299,1.982,-1.687,8.233,4.635,-4.459,-7.768,1.5,7.9,-7.551,6.7,1.1,9,,-5.8,36,0.8,5,5,prime,10,0,101,norm,36,-5.178,down,norm,5.218517975,-0.4,9.5,-0.7,3,2,-6.1,5.6,20.5,10,6,7.592,5.164,1.831,-1.87,-4.479,-8.357,12.5,6,106.2,-8.356,-7.774,-10,-7.56,-8.344,-4.963,-5.175,-5.22,-4.642,5.073,7.989,32,-1.698,1.8,4.667,7.882,-8.246,-7.553,-1.295,1.329,-14.8,7.1,9,4.3,0.6,13.2,6,-3.4,7.9,-8.7,1,norm,1.436,1.538,-1.727,-1.278,-4.723,-4.333,-1.13,-1.965,-1.727,-1.167,1.866,-1.165,2.4,-3.7,-4.389,-8.001,1.716,-1.152,7.532,4.413,-4.944,-8.18,16,5.03,4.763,4.704,4.575,2.092,1.151,1.908,1.424,16,4.528,4.581,-20,341.5530738,norm,0,57,57,57,342.115,342.125,342.1360339,342.136,342.138,342.141,down,1,2.486547175,7.513452825,1,026,1920_1200,Intel(R) Core(TM) i5-3570 CPU @ 3.40GHz,orientation_search,LEPPC096,Intel(R) HD Graphics 2500,2019_Jan_16_1448,testMonitor
4.4,14.9,-6.7,12,36,-10,2.9,9.2,11.7,23.7,7.771,8.027,8.015,8.42,7.749,7.575,7.652,5.024,-4.41,-8.489,1.247,-1.835,7.813,5.1,-4.389,-7.675,-5.1,1.6,-8.271,10.8,11.3,4.6,14.1,-10.8,36,11,0,5,prime,10,0,74,norm,36,-4.697,up,norm,5.218517975,20.6,22.5,18.4,24.1,5,7.6,25.2,2.7,10,6,7.506,4.467,1.574,-1.335,-4.512,-7.848,-13.5,6,79.2,-7.703,-7.594,-10,-8.303,-8.126,-4.612,-4.457,-4.348,-4.949,5.169,7.745,5,-1.141,1.987,4.575,8.399,-8.072,-7.778,-1.17,1.272,6.6,-14.8,13.1,6.9,10.4,14.7,-2.1,18,,6.5,2,norm,1.102,1.707,-1.686,-1.831,-5.245,-4.99,-1.129,-1.471,-1.162,-1.858,1.297,-1.595,16.4,-1.7,-5.02,-8.097,1.235,-1.176,8.288,4.52,-4.644,-8.079,16,4.68,4.574,5.273,4.529,1.26,1.451,1.768,1.401,16,4.667,4.632,-20,341.5530738,norm,0,58,58,58,344.664,344.673,344.6799237,344.68,344.682,344.684,up,1,3.803534053,6.196465947,1,026,1920_1200,Intel(R) Core(TM) i5-3570 CPU @ 3.40GHz,orientation_search,LEPPC096,Intel(R) HD Graphics 2500,2019_Jan_16_1448,testMonitor
25.2,10.4,-10.1,12,36,-10,5.2,-8.3,-0.5,14.1,8.173,8.251,8.397,8.081,7.924,8.382,8.395,4.446,-4.516,-7.692,1.36,-2.006,8.21,4.382,-4.473,-7.984,-1.2,-4,-7.516,18,-7.9,2.1,6.7,11,36,0.6,3,5,prime,10,0,67,norm,36,-4.478,down,norm,5.218517975,-14.5,7.4,13.1,13,1,25.1,15.6,9.2,10,6,7.962,4.491,1.765,-1.751,-4.583,-7.577,3.1,6,72.2,-7.86,-7.835,-10,-7.829,-8.042,-5.199,-4.417,-4.985,-4.766,5.151,8.44,19,-1.335,1.877,5.014,7.592,-7.626,-8.237,-1.792,1.476,0.1,9.1,2.7,-9.1,0.5,18.6,-14.8,4.3,5.2,23,3,norm,1.522,1.859,-1.833,-1.244,-4.905,-5.224,-1.255,-1.364,-1.73,-1.268,1.943,-1.286,,18.3,-5.04,-7.775,1.359,-1.786,7.797,5.105,-4.308,-7.556,16,5.137,4.947,4.961,4.395,1.356,1.725,1.802,1.506,16,4.915,4.727,-20,341.5530738,norm,0,59,59,59,348.521,348.53,348.5474598,348.548,348.549,348.552,down,1,2.608633497,7.391366503,1,026,1920_1200,Intel(R) Core(TM) i5-3570 CPU @ 3.40GHz,orientation_search,LEPPC096,Intel(R) HD Graphics 2500,2019_Jan_16_1448,testMonitor
11.4,0.1,7.3,0.4,36,-10,-11,-2.6,-2,-7.8,7.63,8.054,8.255,7.758,7.98,8.477,8.352,4.841,-5.042,-8.085,1.691,-1.939,8.239,4.823,-5.196,-7.715,-14.8,2.9,-7.993,13.8,-8.9,10.3,10.5,-3.3,36,4.6,0,5,prime,10,0,106,norm,36,-4.456,down,norm,5.218517975,2,-2.2,0.7,21.5,2,8.9,11.7,7.3,10,6,7.724,4.328,1.996,-1.108,-4.907,-8.476,6.7,6,111.2,-8.391,-8.429,-10,-8.23,-7.781,-4.978,-4.619,-5.241,-4.812,4.533,7.799,2,-1.543,1.619,4.367,7.915,-7.625,-8.292,-1.517,1.881,16.4,15,3.6,,0.4,8.4,1.1,10.4,5.8,14.2,4,norm,1.254,1.55,-2.055,-1.859,-4.476,-4.765,-1.164,-1.731,-1.428,-1.919,1.717,-1.574,25.2,14,-5.094,-7.534,1.387,-2.019,8.47,4.901,-5.181,-7.557,16,5.189,4.993,4.862,4.783,1.71,1.678,1.283,1.503,16,4.498,4.567,-20,341.5530738,norm,0,60,60,60,351.2,351.209,351.2181777,351.218,351.22,351.223,down,1,1.704159183,8.295840817,1,026,1920_1200,Intel(R) Core(TM) i5-3570 CPU @ 3.40GHz,orientation_search,LEPPC096,Intel(R) HD Graphics 2500,2019_Jan_16_1448,testMonitor
0.5,0.1,-3.9,6,36,-10,-3,17,6.8,24.1,7.626,7.854,8.432,7.911,7.882,7.829,7.649,5.026,-4.449,-7.823,1.859,-2.076,7.773,4.53,-4.479,-8.14,-7.5,5.7,-7.908,15.4,3.6,6.2,,11.9,36,5.9,5,5,prime,10,0,94,norm,36,-5.118,down,norm,5.218517975,23,10.1,-3.9,7.4,2,10.3,5.5,0.9,10,6,7.841,4.551,1.255,-1.704,-5.005,-7.846,4.3,6,99.2,-7.538,-7.955,-10,-8.392,-8.388,-4.698,-4.968,-4.948,-4.523,4.767,7.934,32,-1.526,1.278,5.122,7.992,-7.874,-7.829,-1.856,1.447,-10.2,-1.7,5.2,15.4,-2,12,25.2,-1.8,1.8,8.5,5,norm,1.234,1.877,-1.26,-1.164,-5.093,-5.271,-1.939,-1.52,-1.617,-1.885,1.121,-2.021,-14.8,-3.9,-5.166,-7.61,1.397,-1.268,8.056,5.048,-4.906,-8.189,16,4.827,4.491,4.844,5.188,1.339,1.236,1.366,1.646,16,5.267,4.49,-20,341.5530738,norm,0,61,61,61,352.944,352.953,352.962063,352.962,352.964,352.966,up,0,4.200018111,-10,1,026,1920_1200,Intel(R) Core(TM) i5-3570 CPU @ 3.40GHz,orientation_search,LEPPC096,Intel(R) HD Graphics 2500,2019_Jan_16_1448,testMonitor
71.5,69.2,75.9,60.4,36,-40,72.9,75.2,75.2,74.9,7.621,8.233,8.174,8.158,7.934,7.615,8.076,4.384,-4.972,-8.176,1.788,-1.872,8.435,5.194,-4.95,-7.634,60.9,69,-8.18,72.9,74.5,80.4,77.9,68.4,36,73.4,0,5,probe,5,0,77,norm,36,-4.765,down,norm,70.43484149,73.7,61.1,69.6,71,2,72.4,70.4,66.7,10,6,7.697,4.912,1.927,-1.819,-4.699,-7.746,68.7,2,-6.6,-8.074,-7.511,-10,-7.867,-7.656,-4.417,-4.862,-5.272,-4.516,5.011,8.231,2,-1.392,1.386,4.404,7.774,-8.474,-8.112,-1.888,1.896,70.5,68.2,65.9,,66.8,71.6,66.7,77.4,74.3,70.7,0,norm,1.342,1.426,-1.966,-1.391,-5.14,-5.24,-1.413,-1.53,-1.276,-1.258,1.123,-1.559,72.2,65.6,-4.975,-7.562,1.633,-1.37,8.064,5.276,-5.021,-7.61,17,4.316,4.871,5.03,5.272,2.046,1.582,1.483,1.842,17,4.572,5.044,-10,5.218517975,norm,0,62,62,62,358.24,358.249,358.266048,358.266,358.268,358.27,down,1,1.051326175,8.948673825,1,026,1920_1200,Intel(R) Core(TM) i5-3570 CPU @ 3.40GHz,orientation_search,LEPPC096,Intel(R) HD Graphics 2500,2019_Jan_16_1448,testMonitor
104.8,107.4,100.5,99.6,36,-40,99.3,102.2,110.2,99.4,8.489,8.196,7.853,8.343,8.338,7.825,8.33,4.656,-4.555,-7.852,1.65,-1.132,7.606,4.66,-4.953,-7.87,102.2,107.1,-8.021,92.5,96.2,99.3,99.1,102.1,36,99.8,2,5,probe,5,0,107,norm,36,-4.53,down,norm,100.4348415,103.2,96.4,97.9,101.7,1,105.3,,102.2,10,6,7.918,4.992,1.383,-1.425,-5.281,-7.524,100.7,2,-6.6,-8.316,-7.502,-10,-7.777,-7.836,-5.061,-5.184,-5.226,-4.99,5.07,7.746,13,-1.751,1.799,5.189,8.494,-8.421,-7.576,-1.369,1.562,99.6,98.5,98.9,110.4,93,96,93.9,102.4,92.3,105.5,1,norm,1.969,1.658,-1.388,-1.447,-5.218,-4.876,-1.962,-2.066,-1.535,-1.717,1.479,-1.185,93,102.1,-5.188,-7.723,1.808,-2.069,7.803,5.155,-4.686,-8.172,17,5.179,4.964,5.205,4.444,1.662,1.295,1.51,2.063,17,4.56,4.689,-10,5.218517975,norm,0,63,63,63,359.359,359.368,359.3746564,359.375,359.377,359.379,down,1,1.311420775,8.688579225,1,026,1920_1200,Intel(R) Core(TM) i5-3570 CPU @ 3.40GHz,orientation_search,LEPPC096,Intel(R) HD Graphics 2500,2019_Jan_16_1448,testMonitor
59.8,71.7,67.9,80.8,36,-40,55.5,62.1,78.6,51.9,7.798,8.492,7.72,7.65,8.021,7.867,7.668,4.618,-4.903,-7.568,1.703,-1.874,8.423,4.892,-4.507,-8.199,50.2,74.6,-7.75,58.5,73.9,54.5,62.5,58.2,36,70.4,0,5,prime,10,0,110,norm,36,-4.919,up,norm,66.3936032,71,70.3,63.3,46.4,5,60.3,64.3,81.6,10,5,8.285,4.354,1.295,-1.713,-4.985,-7.785,63.5,5,176.4,-7.934,-7.986,-40,-7.887,-7.817,-5.242,-4.943,-4.768,-5.104,5.09,8.399,5,-1.775,1.187,4.408,7.957,-7.979,-7.736,-1.496,2.014,62.2,77,62.1,55.4,63.2,80.4,66.2,72.9,,86.4,0,norm,1.209,1.597,-1.557,-1.534,-4.62,-4.717,-1.734,-1.369,-1.255,-1.458,1.14,-1.98,69.9,68.9,-5.136,-8.082,1.837,-1.758,8.412,5.139,-4.444,-8.09,18,4.583,5.211,4.798,4.785,1.853,1.894,1.379,1.991,18,4.396,4.805,-40,5.218517975,norm,0,64,64,64,360.731,392.876,392.8831366,392.883,392.886,392.888,up,1,3.041389292,6.958610708,1,026,1920_1200,Intel(R) Core(TM) i5-3570 CPU @ 3.40GHz,orientation_search,LEPPC096,Intel(R) HD Graphics 2500,2019_Jan_16_1448,testMonitor
48.9,61.6,46.4,54.2,36,-40,83.2,60.7,58.6,60.2,8.161,7.623,7.909,8.409,8.043,7.753,7.647,4.435,-4.527,-7.822,1.986,-1.275,7.568,5.21,-4.553,-7.946,86.4,67.4,-8.373,74.3,55.3,81.6,85.3,63.8,36,65.2,3,5,prime,10,0,86,norm,36,-4.683,down,norm,66.3936032,58.8,86.2,47,72.1,1,62.6,68.6,63.5,10,5,7.808,4.895,1.843,-2.036,-4.339,-7.783,63.4,5,152.4,-8.445,-8.375,-40,-8.156,-7.675,-4.631,-5.121,-4.787,-4.662,4.696,7.979,19,-1.553,1.58,5.27,7.872,-8.196,-8.048,-1.686,1.434,83,62.7,66,51.1,70.8,69.3,78,67.7,63.2,70,1,norm,1.252,2.084,-1.756,-1.405,-4.769,-5.252,-1.828,-1.55,-1.278,-1.946,1.688,-1.92,,60.2,-4.757,-7.502,1.578,-1.314,7.899,4.633,-5.03,-7.54,18,4.36,4.755,4.959,4.775,1.963,1.425,1.383,1.145,18,4.787,4.754,-40,5.218517975,norm,0,65,65,65,395.971,395.991,396.0035811,396.004,396.007,396.01,down,1,1.121075429,8.878924571,1,026,1920_1200,Intel(R) Core(TM) i5-3570 CPU @ 3.40GHz,orientation_search,LEPPC096,Intel(R) HD Graphics 2500,2019_Jan_16_1448,testMonitor
67.8,62.9,78.3,49.1,36,-40,54.4,66,86.4,49.4,7.982,8.378,8.321,7.729,8.468,8.313,8.395,5.14,-4.317,-8.388,1.926,-2.078,8.367,4.83,-4.798,-7.962,58.8,74.3,-7.93,75.1,,46.8,85.7,62.2,36,61,5,5,prime,10,0,76,norm,36,-4.77,down,norm,66.3936032,54.1,80.8,65.7,55,0,62.2,66,54.8,10,5,7.539,5.117,1.706,-1.408,-4.977,-8.008,75.9,5,142.4,-7.562,-7.975,-40,-8.288,-7.934,-4.902,-4.624,-4.896,-4.49,5.043,8.155,30,-1.164,1.805,5.041,8.224,-8.406,-8.383,-1.677,1.262,63.4,70.4,68.5,46.4,63.1,68,63.4,69.2,54,79.5,2,norm,1.125,1.62,-1.152,-1.257,-4.521,-4.999,-1.286,-2.083,-1.545,-1.915,1.377,-1.818,53.9,83.8,-4.523,-8.064,1.56,-1.906,8.302,5.253,-5.298,-7.992,18,5.112,4.707,4.566,4.904,1.604,1.813,1.805,1.222,18,4.923,5.171,-40,5.218517975,norm,0,66,66,66,397.172,397.192,397.2046808,397.205,397.208,397.211,down,1,2.430365147,7.569634853,1,026,1920_1200,Intel(R) Core(TM) i5-3570 CPU @ 3.40GHz,orientation_search,LEPPC096,Intel(R) HD Graphics 2500,2019_Jan_16_1448,testMonitor
54.4,58.1,66.4,64.7,36,-40,74,68.8,81,59.1,8.292,7.903,8.162,7.664,7.953,7.792,8.027,4.973,-4.304,-8.303,1.332,-1.141,7.606,4.454,-4.394,-8.081,46.4,64.3,-8.075,74.7,71.3,66.7,54,78.1,36,75.8,2,5,prime,10,0,60,norm,36,-4.582,down,norm,66.3936032,64.8,65.2,56.9,,2,62.9,86.4,61.1,10,5,7.862,5.079,1.492,-1.677,-5.287,-7.537,56,5,126.4,-8.405,-7.956,-40,-8.199,-7.753,-4.939,-4.315,-4.374,-4.318,5.076,8.238,14,-1.766,1.133,4.724,7.923,-7.711,-8.009,-1.505,1.943,72,52.5,63.5,63.1,56.2,63.2,54.4,62.5,60.2,61.8,3,norm,1.976,2.045,-2.041,-1.824,-4.654,-5.262,-1.586,-1.617,-1.11,-1.34,2.056,-1.187,63.8,61.7,-4.423,-7.618,2.032,-1.335,7.91,4.709,-4.327,-7.602,18,4.43,4.678,4.979,5.145,1.943,1.868,1.427,2.014,18,4.878,4.398,-40,5.218517975,norm,0,67,67,67,399.683,399.692,399.6997383,399.7,399.702,399.704,down,1,1.679193217,8.320806783,1,026,1920_1200,Intel(R) Core(TM) i5-3570 CPU @ 3.40GHz,orientation_search,LEPPC096,Intel(R) HD Graphics 2500,2019_Jan_16_1448,testMonitor
76.3,52,58.6,67.9,36,-40,65.1,65.8,72.7,69,8.05,7.772,8.337,7.703,7.87,8.052,8.402,4.85,-4.39,-8.026,1.55,-1.833,8.388,4.986,-4.453,-8.397,54,65.3,-7.984,58,60.2,63.9,68.2,64.6,36,70.7,2,5,prime,10,0,90,norm,36,-5.126,down,norm,66.3936032,84.2,76.7,65.1,,2,46.4,72.1,66.6,10,5,8.461,4.735,1.194,-1.202,-5.119,-7.62,67.8,5,156.4,-8.103,-7.974,-40,-8.429,-7.824,-4.772,-4.372,-4.416,-5.122,4.927,8.46,14,-1.413,1.592,5.009,7.94,-8.346,-8.169,-1.893,1.188,59.1,54.9,73.2,86.4,51.2,72.9,64.3,68.9,83.9,68.1,4,norm,1.762,1.203,-1.867,-1.538,-4.982,-5.122,-1.443,-1.301,-1.289,-1.676,1.922,-2.018,65.3,65.5,-4.454,-7.786,1.693,-1.97,7.522,5.297,-5.053,-7.664,18,4.811,4.656,5.183,4.691,1.725,1.556,1.558,1.634,18,4.632,5.234,-40,5.218517975,norm,0,68,68,68,401.4,401.409,401.429577,401.43,401.431,401.434,up,0,2.074359702,-10,1,026,1920_1200,Intel(R) Core(TM) i5-3570 CPU @ 3.40GHz,orientation_search,LEPPC096,Intel(R) HD Graphics 2500,2019_Jan_16_1448,testMonitor
140.9,141.5,144.1,136.8,36,-80,144.9,151.2,142.2,149.8,7.61,8.327,7.861,8.377,8.205,8.229,7.548,4.42,-4.993,-7.926,1.775,-1.327,7.501,4.746,-4.517,-8.107,140.2,133.1,-8.099,138.1,140,144,139.7,147,36,148.4,0,5,probe,5,0,119,norm,36,-4.877,down,norm,143.1183818,137,153.1,146.2,148.9,2,143.9,147,139,10,5,8.282,4.4,1.333,-1.136,-4.861,-8.106,137.8,2,24.1,-7.71,-8.246,-40,-7.853,-7.812,-5.133,-4.591,-4.627,-4.777,4.639,7.957,2,-2.074,1.624,4.809,7.844,-7.909,-8.05,-1.617,1.416,142.5,144.5,144.7,,144.2,146.8,143.9,144.5,140.4,144.2,0,norm,1.701,1.757,-1.453,-2.052,-4.519,-4.877,-1.504,-1.772,-1.135,-1.452,1.762,-1.235,151.7,142.5,-5.017,-7.536,1.133,-1.115,7.556,4.963,-4.892,-8.058,19,4.358,4.451,4.443,4.38,1.307,1.163,1.264,1.549,19,5.161,5.268,-40,66.3936032,norm,0,69,69,69,404.575,404.584,404.5962254,404.596,404.598,404.601,down,1,0.969361679,9.030638321,1,026,1920_1200,Intel(R) Core(TM) i5-3570 CPU @ 3.40GHz,orientation_search,LEPPC096,Intel(R) HD Graphics 2500,2019_Jan_16_1448,testMonitor
84.9,90.3,89.5,93.3,36,-80,84,87.9,91.1,83.7,7.737,7.952,7.867,8.307,8.166,8.463,7.881,4.334,-5.197,-7.935,1.915,-1.53,8.103,4.337,-5.223,-8.21,94.4,83.6,-7.685,76.1,96.1,88.8,82.4,89.8,36,84.6,2,5,probe,5,0,62,norm,36,-4.767,up,norm,86.11838179,,85.4,80.6,85.1,5,84.9,86.7,88.5,10,5,8.416,5.14,2.024,-1.16,-5.264,-7.746,86.6,2,24.1,-8.454,-7.625,-40,-8.217,-7.735,-5.232,-5.163,-4.312,-5.042,5.111,7.52,17,-1.671,1.269,4.613,7.713,-8.015,-8.343,-2.027,1.64,92.1,94.2,86.4,91.2,88.5,83,81.2,81,90,89.2,1,norm,1.341,1.94,-1.564,-1.572,-4.482,-5.1,-1.3,-1.223,-1.352,-1.738,1.358,-1.485,93.7,90.1,-5.018,-7.506,1.71,-1.439,8.348,4.634,-5.025,-7.605,19,4.303,4.841,5.026,4.804,1.472,1.748,1.856,1.67,19,5.085,5.108,-40,66.3936032,norm,0,70,70,70,405.611,405.62,405.6270816,405.627,405.629,405.631,up,1,2.688239946,7.311760054,1,026,1920_1200,Intel(R) Core(TM) i5-3570 CPU @ 3.40GHz,orientation_search,LEPPC096,Intel(R) HD Graphics 2500,2019_Jan_16_1448,testMonitor
63.3,78.1,85.5,82.3,36,80,73.4,78,70.1,90.5,8.093,8.192,8.42,8.18,8.341,7.624,8.448,5.294,-4.501,-8.422,1.568,-1.223,8.085,5.167,-4.778,-7.821,52.4,71.2,-8.115,86.2,80.7,65.5,50.5,83.9,36,82.7,0,5,prime,10,0,103,norm,36,-4.685,down,norm,70.48414785,57.9,79.1,76.2,60.7,0,65,74.3,80,10,6,7.829,5.076,1.431,-1.173,-5.13,-8.465,64.9,6,173.5,-8.303,-8.149,80,-8.044,-8.052,-4.467,-4.973,-4.523,-5.272,5.281,8.282,0,-1.338,1.321,4.608,8.268,-7.516,-7.774,-1.544,2.032,51,80.6,59.1,74.3,76.3,,68.6,71.2,68.8,84.8,0,norm,1.219,1.535,-1.189,-1.255,-4.714,-4.434,-2.025,-1.802,-1.643,-1.293,1.761,-1.369,69.7,69.9,-4.999,-8.238,2.033,-1.662,7.853,5.003,-5.125,-7.811,20,4.708,5.162,4.655,5.17,1.543,1.171,1.871,1.304,20,4.714,4.952,-80,66.3936032,norm,0,71,71,71,408.353,408.362,408.3711894,408.371,408.373,408.376,down,1,1.864571932,8.135428068,1,026,1920_1200,Intel(R) Core(TM) i5-3570 CPU @ 3.40GHz,orientation_search,LEPPC096,Intel(R) HD Graphics 2500,2019_Jan_16_1448,testMonitor
58.8,70.1,73.5,65.1,36,80,61.9,,77.9,74.8,7.697,7.659,7.519,8.465,7.871,8.461,8.448,4.596,-5.008,-8.393,1.276,-1.269,7.571,5.293,-5.257,-7.894,68.7,80.2,-7.805,76,78,84.9,63.1,74.3,36,72.8,4,5,prime,10,0,62,norm,36,-4.574,down,norm,70.48414785,85.3,90.5,66.4,72.5,1,56.9,71,50.5,10,6,8.085,4.488,1.284,-1.174,-5.047,-8.204,83.1,6,132.5,-7.55,-7.544,80,-7.988,-7.655,-5.144,-4.609,-4.383,-4.596,4.809,7.866,25,-1.99,1.174,4.797,8.365,-8.114,-8.034,-1.167,1.389,77.9,71.8,76.3,57.1,73,83.7,70.2,80.6,70.5,78.6,1,norm,1.392,1.559,-1.258,-1.348,-4.865,-5.125,-1.858,-2.007,-1.581,-1.236,1.33,-1.777,63,66.9,-5.212,-8.275,1.921,-1.326,7.707,4.706,-4.643,-8.117,20,5.01,5.246,5.279,4.535,1.828,1.391,1.894,1.73,20,4.72,5.099,-80,66.3936032,norm,0,72,72,72,410.272,410.281,410.2901845,410.29,410.292,410.295,down,1,2.62230124,7.37769876,1,026,1920_1200,Intel(R) Core(TM) i5-3570 CPU @ 3.40GHz,orientation_search,LEPPC096,Intel(R) HD Graphics 2500,2019_Jan_16_1448,testMonitor
57.9,73.3,50.8,70.8,36,80,82.4,74.1,74.1,,8.485,8.439,8.448,7.887,8.224,7.695,7.829,4.889,-4.35,-7.574,1.66,-1.665,7.537,4.949,-4.531,-8.167,59.1,69.6,-8.352,75.2,60.6,77.7,90.5,59.3,36,50.5,4,5,prime,10,0,104,norm,36,-4.397,up,norm,70.48414785,72.6,79.5,63.6,75.2,5,66.9,80.1,77.2,10,6,8.328,5.046,1.266,-1.151,-4.876,-7.748,66.4,6,174.5,-8.453,-8.149,80,-7.801,-8.43,-4.689,-4.81,-5.142,-5.23,4.793,7.706,29,-1.777,1.462,4.541,8.46,-8.307,-8.03,-1.179,1.709,81.7,72.2,85.6,71.8,77,85.1,72,75.9,79.1,72.7,2,norm,2.061,1.403,-1.723,-1.687,-4.486,-4.784,-1.421,-1.732,-2.016,-1.641,1.948,-1.206,56.8,66.8,-5.002,-7.914,1.293,-1.949,8.465,4.335,-4.942,-8.273,20,4.382,4.397,4.673,4.836,1.45,1.827,1.38,1.939,20,4.873,4.747,-80,66.3936032,norm,0,73,73,73,412.959,412.974,412.9914166,412.992,412.993,412.996,up,1,3.150696819,6.849303181,1,026,1920_1200,Intel(R) Core(TM) i5-3570 CPU @ 3.40GHz,orientation_search,LEPPC096,Intel(R) HD Graphics 2500,2019_Jan_16_1448,testMonitor
78.8,90.5,56,56.3,36,80,76.6,61,53.8,81,8.456,7.647,8.151,8.069,8.439,7.642,7.626,5.255,-4.758,-8.225,2.043,-1.74,8.155,5.168,-4.551,-8.489,74.3,59.4,-7.87,78.6,69.4,78.4,,65.7,36,65.6,5,5,prime,10,0,104,norm,36,-5.021,down,norm,70.48414785,65.7,85.2,71.7,75.1,2,58.9,60.5,50.5,10,6,7.934,4.799,1.837,-1.788,-4.932,-8.392,74.6,6,174.5,-8.107,-8.391,80,-8.335,-8.183,-4.898,-4.336,-4.991,-5.182,4.333,7.542,32,-1.84,1.172,4.821,8.438,-8.409,-8.5,-1.875,1.57,82.8,73.8,84.7,83,80.4,68.6,57.2,71.1,63.5,73.2,3,norm,1.37,2.039,-1.146,-1.988,-4.87,-4.902,-2.079,-1.627,-1.983,-1.64,1.967,-1.478,72.6,67.5,-5.189,-7.999,2.048,-1.742,7.583,4.469,-4.792,-8.372,20,4.988,4.815,4.89,5.039,1.619,1.271,1.185,1.506,20,4.642,4.726,-80,66.3936032,norm,0,74,74,74,416.188,416.208,416.2204575,416.221,416.223,416.226,down,1,2.944220338,7.055779662,1,026,1920_1200,Intel(R) Core(TM) i5-3570 CPU @ 3.40GHz,orientation_search,LEPPC096,Intel(R) HD Graphics 2500,2019_Jan_16_1448,testMonitor
56.9,59,76.4,75.7,36,80,76.2,85,87,,8.259,7.865,7.695,7.55,7.718,8.469,7.641,4.548,-4.914,-7.859,1.267,-1.831,7.688,4.455,-4.92,-8.309,83.5,81.3,-7.781,88.3,75.2,67.6,60.6,67.9,36,60.6,4,5,prime,10,0,78,norm,36,-4.567,up,norm,70.48414785,61.2,62.4,69.1,87,5,61.1,60.3,71.7,10,6,8.155,4.738,1.474,-1.491,-4.595,-7.736,74.4,6,148.5,-7.965,-8.222,80,-8.024,-7.51,-4.839,-4.789,-5.219,-5.253,5.218,7.695,29,-1.378,1.296,5.128,7.843,-7.646,-7.667,-1.47,2.081,89.5,67,74.7,56.8,67,90.5,50.5,86.8,81.1,79.9,4,norm,1.606,1.369,-1.489,-1.782,-4.545,-4.533,-2.02,-1.677,-1.14,-1.441,1.383,-1.861,71.2,78.9,-4.594,-7.637,1.352,-2.082,7.994,4.309,-4.332,-8.475,20,4.345,4.908,5.233,4.385,1.656,1.179,1.799,2.005,20,4.744,4.642,-80,66.3936032,norm,0,75,75,75,419.202,419.212,419.2285284,419.229,419.23,419.233,up,1,1.67274028,8.32725972,1,026,1920_1200,Intel(R) Core(TM) i5-3570 CPU @ 3.40GHz,orientation_search,LEPPC096,Intel(R) HD Graphics 2500,2019_Jan_16_1448,testMonitor
86.2,63.5,64.4,75.3,36,80,66.1,72.1,76.4,70.2,7.74,7.679,8.17,8.309,7.828,8.237,7.585,4.75,-4.788,-7.797,1.446,-2.006,8.381,4.931,-4.748,-7.566,71.3,73.3,-7.652,73.3,76.1,71.5,80.6,50.5,36,74.3,2,5,prime,10,0,85,norm,36,-5.175,down,norm,70.48414785,61.8,71.1,65.4,76.6,1,80.8,,57.1,10,6,7.515,5.128,1.969,-2.072,-4.978,-8.049,57.3,6,155.5,-8.256,-7.887,80,-7.75,-8.36,-4.317,-4.514,-4.927,-4.542,4.493,8.426,13,-1.801,1.257,5.129,7.783,-7.646,-8.07,-2.097,1.21,69,75.4,80.6,54.6,57.9,85,65.1,90.5,75.4,67.7,5,norm,1.151,1.742,-1.352,-1.487,-4.326,-4.423,-1.479,-1.723,-1.521,-1.784,1.713,-1.475,59.2,86.8,-4.778,-7.652,1.261,-1.667,8.189,4.363,-4.326,-7.834,20,4.399,5.123,4.785,5.256,1.942,1.668,1.595,1.996,20,4.389,4.963,-80,66.3936032,norm,0,76,76,76,420.945,420.955,420.9633564,420.964,420.965,420.968,down,1,1.342550205,8.657449795,1,026,1920_1200,Intel(R) Core(TM) i5-3570 CPU @ 3.40GHz,orientation_search,LEPPC096,Intel(R) HD Graphics 2500,2019_Jan_16_1448,testMonitor
247.7,235.2,248.6,246.2,36,60,240.7,244.2,240.9,250.6,8.469,8.008,8.357,7.523,7.736,7.76,7.587,5.242,-4.488,-7.916,1.266,-1.744,7.717,5.228,-4.616,-8.358,245.4,249,-8.215,249.9,242.4,239,244.9,244.9,36,239.6,0,5,probe,5,0,87,norm,36,-4.674,down,norm,245.2421689,255.2,245.6,247.5,251.1,1,240.6,249.9,250.4,10,6,7.558,5.217,1.626,-1.553,-4.521,-8.229,245,1,158.2,-7.877,-8.179,80,-8.205,-7.544,-4.684,-4.963,-4.405,-4.322,4.666,8.137,1,-1.179,1.411,5.086,7.74,-8.179,-7.983,-1.81,1.891,240.3,239.9,248.3,248.5,,246.8,238.2,238.3,246.6,245.8,0,norm,1.742,1.766,-1.284,-2.004,-5.272,-4.653,-1.514,-1.634,-1.828,-1.827,2.019,-1.207,251.4,246.5,-5.209,-8.113,1.236,-1.554,7.676,4.997,-4.933,-8.006,21,5.08,4.655,5.242,4.582,1.82,1.527,1.693,1.498,21,4.314,4.467,80,70.48414785,norm,0,77,77,77,422.349,422.358,422.3655321,422.366,422.367,422.37,down,1,1.573539879,8.426460121,1,026,1920_1200,Intel(R) Core(TM) i5-3570 CPU @ 3.40GHz,orientation_search,LEPPC096,Intel(R) HD Graphics 2500,2019_Jan_16_1448,testMonitor
136.1,139.7,154.1,125,36,0,119,123.5,126.6,135.3,8.21,7.545,7.996,7.693,8.449,7.963,7.745,4.741,-4.44,-8.428,1.762,-1.891,7.988,4.655,-4.886,-8.261,119.7,135.4,-8.291,135,143.5,128.9,140.2,126.8,36,141.5,0,5,prime,10,0,70,norm,36,-4.424,down,norm,134.0641065,142.1,127.9,132.2,149,2,127.1,122.7,114.1,10,6,8.459,5.116,1.29,-1.844,-5.122,-8.49,148.7,6,204.1,-8.34,-8.143,0,-8.449,-8.176,-4.362,-4.473,-5.202,-4.984,5.178,8.297,2,-1.502,1.837,4.382,8.384,-7.576,-7.708,-1.479,1.29,119,123.9,143.1,,129.6,141.3,126.2,125.6,123.5,147.5,0,norm,1.909,2.081,-1.313,-1.71,-5.193,-5.156,-1.719,-1.701,-2.033,-1.79,1.557,-1.538,134.8,145.1,-4.72,-7.618,1.503,-1.499,8.207,4.517,-4.752,-7.548,22,4.397,4.805,4.5,4.893,1.881,1.379,2.034,1.837,22,5.054,4.34,60,70.48414785,norm,0,78,78,78,423.977,423.99,424.0099206,424.01,424.012,424.014,down,1,1.735392148,8.264607852,1,026,1920_1200,Intel(R) Core(TM) i5-3570 CPU @ 3.40GHz,orientation_search,LEPPC096,Intel(R) HD Graphics 2500,2019_Jan_16_1448,testMonitor
142.8,136.7,133.3,123.2,36,0,145.3,122.8,127.1,136.3,7.716,8.361,8.137,8.268,8.18,7.562,8.316,5.084,-4.998,-7.648,1.895,-1.777,8.474,4.717,-4.704,-8.295,133.7,,-7.652,115.5,149.6,114.7,143.8,142.8,36,127.8,5,5,prime,10,0,99,norm,36,-4.993,up,norm,134.0641065,154.1,141.7,129.8,116.2,4,135.1,129.1,131.9,10,6,7.98,4.601,1.21,-1.255,-4.818,-8.374,132.6,6,233.1,-8.307,-8.188,0,-8.39,-7.572,-4.441,-4.803,-4.835,-5.034,4.658,7.972,34,-1.339,1.682,5.043,7.992,-8.492,-7.61,-1.738,2.004,130.1,152.3,134.9,141.7,127.7,125.4,123.9,143.2,114.1,138.8,1,norm,1.223,1.582,-1.726,-1.471,-5.202,-5.061,-1.42,-1.621,-1.517,-1.628,1.726,-1.928,145.1,131.8,-4.573,-8.059,1.593,-1.4,7.861,5.274,-5.157,-7.783,22,5.271,5.143,4.521,4.952,1.616,1.304,1.269,1.853,22,5.196,4.97,60,70.48414785,norm,0,79,79,79,425.769,425.78,425.7998503,425.8,425.802,425.805,up,1,0.967335967,9.032664033,1,026,1920_1200,Intel(R) Core(TM) i5-3570 CPU @ 3.40GHz,orientation_search,LEPPC096,Intel(R) HD Graphics 2500,2019_Jan_16_1448,testMonitor
114.1,151.9,126.9,121.8,36,0,142.8,127.1,140,145.4,7.941,8.438,8.222,8.412,7.871,7.941,7.824,4.799,-5.074,-8.239,2.025,-1.754,7.552,4.573,-5.255,-8.127,148.6,131.1,-7.705,132.2,138.8,128.1,,139.9,36,132.6,5,5,prime,10,0,118,norm,36,-4.486,down,norm,134.0641065,154.1,137.8,150.2,149.7,2,121.9,143.2,131.8,10,6,7.78,5.072,1.551,-1.523,-4.597,-7.742,127.7,6,252.1,-8.113,-8.072,0,-7.542,-8.191,-4.455,-5.118,-4.31,-4.847,4.355,8.477,32,-1.779,1.988,4.899,8.219,-8.066,-8.376,-2.01,1.822,137.7,139.2,142.1,125.3,148.1,135,139.1,116,145.7,126.5,2,norm,2.004,1.85,-2.078,-1.419,-4.672,-4.451,-1.986,-1.655,-1.599,-1.658,2.061,-1.155,137.5,136,-4.414,-7.906,1.964,-1.402,7.896,5.021,-5.003,-7.93,22,5.292,4.467,4.738,4.994,1.575,1.538,1.265,1.902,22,4.743,5.232,60,70.48414785,norm,0,80,80,80,426.806,426.815,426.8254411,426.826,426.827,426.83,down,1,0.892844056,9.107155944,1,026,1920_1200,Intel(R) Core(TM) i5-3570 CPU @ 3.40GHz,orientation_search,LEPPC096,Intel(R) HD Graphics 2500,2019_Jan_16_1448,testMonitor
,154.1,117.8,146.6,36,0,144.5,114.2,114.1,126.8,8.185,7.852,7.518,8.324,7.685,7.876,7.546,4.765,-4.522,-7.6,1.352,-1.926,8.462,4.825,-4.452,-7.796,124.2,132.8,-8.08,138.9,130.1,130.1,122.4,140.1,36,137.6,3,5,prime,10,0,93,norm,36,-5.288,up,norm,134.0641065,117.8,128.1,134.8,125.9,4,119.8,140.4,140.8,10,6,7.645,5.258,1.612,-1.937,-4.706,-8.224,133.4,6,227.1,-7.513,-7.752,0,-7.962,-8.327,-4.346,-5.042,-4.841,-4.302,5.163,7.868,22,-2.08,1.294,5.26,8.113,-8.197,-8.179,-1.193,1.505,134.1,133.3,122.2,126.7,134.8,135.2,127.2,124.6,135.7,122.8,3,norm,1.89,1.915,-2.016,-1.244,-5.011,-4.394,-1.802,-1.254,-1.601,-1.191,1.273,-1.228,121.5,124.2,-5.065,-7.787,1.775,-1.888,7.931,4.401,-4.716,-7.919,22,4.304,4.536,5.167,4.879,1.267,1.915,1.844,1.598,22,4.707,5.034,60,70.48414785,norm,0,81,81,81,427.762,427.771,427.780243,427.78,427.782,427.785,up,1,0.944535167,9.055464833,1,026,1920_1200,Intel(R) Core(TM) i5-3570 CPU @ 3.40GHz,orientation_search,LEPPC096,Intel(R) HD Graphics 2500,2019_Jan_16_1448,testMonitor
133.9,137.2,130.3,141.2,36,0,128.3,152.4,131.1,146.8,7.688,7.901,7.828,7.915,8.028,7.534,7.873,4.742,-5.034,-7.993,1.201,-1.653,8.085,4.353,-4.358,-7.576,119.6,129.9,-8.419,123.7,121.3,141.1,131.5,131.9,36,139.5,3,5,prime,10,0,81,norm,36,-4.391,down,norm,134.0641065,149.8,125.2,135.1,127.4,0,122.8,126.1,117.8,10,6,7.863,4.518,1.297,-1.188,-4.66,-8.438,134.7,6,215.1,-7.747,-8.201,0,-8.396,-8.147,-4.697,-4.75,-5.124,-4.926,4.769,7.64,18,-1.681,1.15,4.406,7.541,-8.018,-7.682,-1.545,1.299,145.8,134.9,129.2,114.1,125.9,154.1,145.4,139.7,121.7,131.1,4,norm,1.194,2.008,-1.673,-1.367,-4.754,-4.457,-1.83,-1.836,-1.608,-1.989,1.711,-1.249,124.3,,-4.557,-8.196,1.542,-1.823,7.777,4.649,-4.655,-7.867,22,5.206,5.25,5.016,4.7,1.189,1.516,1.894,1.76,22,5.056,5.22,60,70.48414785,norm,0,82,82,82,428.776,428.788,428.8222071,428.823,428.827,428.833,down,1,0.803054113,9.196945887,1,026,1920_1200,Intel(R) Core(TM) i5-3570 CPU @ 3.40GHz,orientation_search,LEPPC096,Intel(R) HD Graphics 2500,2019_Jan_16_1448,testMonitor
150.4,122,114.1,131.5,36,0,153,119.5,136.7,130.4,7.54,8.499,7.893,8.11,8.19,7.557,7.684,4.873,-5.118,-7.688,1.478,-1.877,7.807,4.964,-4.761,-7.722,125.6,129.6,-8.191,131.8,144,131.7,126.5,142.8,36,136.3,0,5,prime,10,0,109,norm,36,-4.926,up,norm,134.0641065,125.1,145.9,130.8,134.3,5,132.3,146.4,154.1,10,6,8.365,4.302,1.583,-1.548,-5.247,-7.785,123.8,6,243.1,-7.874,-7.666,0,-7.541,-7.806,-4.825,-5.046,-4.714,-4.7,4.622,8.204,5,-1.452,2.025,4.462,8.386,-8.366,-8.381,-1.941,1.326,131.3,137.4,131.2,141.3,133.6,146,132.4,141.7,,124.2,5,norm,1.322,1.424,-1.973,-1.629,-5.067,-4.474,-1.497,-1.428,-1.793,-1.752,1.699,-1.232,126.3,129.1,-4.344,-7.953,1.37,-1.915,7.728,4.701,-4.838,-8.389,22,4.86,4.704,4.903,5.045,1.911,1.924,1.467,1.757,22,5.039,5.19,60,70.48414785,norm,0,83,83,83,429.669,429.679,429.6956564,429.696,429.698,429.7,up,1,1.328348793,8.671651207,1,026,1920_1200,Intel(R) Core(TM) i5-3570 CPU @ 3.40GHz,orientation_search,LEPPC096,Intel(R) HD Graphics 2500,2019_Jan_16_1448,testMonitor
208.9,215.9,214.9,223.6,36,30,223.5,,222.2,211.3,7.731,7.57,8.382,7.545,8.011,7.971,8.047,5.038,-4.303,-7.746,1.956,-1.814,7.694,4.49,-5.074,-7.739,221.4,211.5,-7.939,211,209.7,214.3,212.8,222,36,214.8,4,5,probe,5,0,82,norm,36,-4.374,down,norm,216.3621571,224.2,213.4,214,213.8,1,206.4,226.4,211.4,10,6,7.814,4.669,1.226,-1.156,-5.046,-7.892,218.6,2,134.4,-8.434,-8.212,0,-7.683,-8.16,-4.432,-5.299,-4.502,-5.068,4.998,7.648,25,-2.007,1.619,5.03,7.549,-8.11,-8.069,-1.498,1.359,209.2,209.5,221.2,214.5,215.7,220.5,219.8,220.8,213.9,216.1,0,norm,1.946,1.479,-1.39,-1.444,-4.745,-5.215,-1.604,-1.78,-1.477,-1.978,1.114,-1.167,216.8,222.4,-4.985,-7.57,1.192,-1.467,8.008,5.114,-4.531,-8.33,23,4.457,5.086,5.291,4.745,1.807,1.677,1.783,1.325,23,4.869,4.921,0,134.0641065,norm,0,84,84,84,431.07,431.09,431.102384,431.103,431.105,431.107,down,1,1.170216818,8.829783182,1,026,1920_1200,Intel(R) Core(TM) i5-3570 CPU @ 3.40GHz,orientation_search,LEPPC096,Intel(R) HD Graphics 2500,2019_Jan_16_1448,testMonitor
222.2,227,227,217.7,36,30,231.3,215.4,223.9,227.7,7.835,7.714,7.803,7.561,7.806,8.341,8.021,4.407,-5.267,-7.9,1.166,-1.312,8.1,5.179,-5.271,-7.803,220.4,223.8,-8.014,231.2,215.8,225.1,221.6,218.1,36,234.2,2,5,probe,5,0,91,norm,36,-5.042,down,norm,225.3621571,228,231.8,227.9,231.4,1,221.8,,230.5,10,6,7.564,4.572,1.513,-1.56,-4.759,-8.292,228.2,2,134.4,-8.428,-7.878,0,-7.857,-7.976,-5.113,-5.184,-5.181,-4.817,5.297,7.953,13,-1.302,1.651,5.212,8.328,-7.615,-8.029,-2.019,1.526,232.8,221.9,226.2,220.7,226.3,221.7,226.2,235.4,229.1,222.2,1,norm,1.906,1.655,-2.072,-1.881,-4.452,-4.61,-1.12,-1.82,-1.77,-1.422,1.973,-2.056,217.4,224.3,-4.472,-8.119,2.06,-1.413,8.31,4.928,-4.826,-7.997,23,5.034,4.567,4.594,4.79,1.312,1.385,2.093,1.316,23,4.782,5.175,0,134.0641065,norm,0,85,85,85,432.317,432.326,432.3352977,432.335,432.337,432.34,down,1,1.053740367,8.946259633,1,026,1920_1200,Intel(R) Core(TM) i5-3570 CPU @ 3.40GHz,orientation_search,LEPPC096,Intel(R) HD Graphics 2500,2019_Jan_16_1448,testMonitor
,200.6,212.4,206.1,36,40,224.1,203.7,207.5,202.8,8.468,7.687,8.179,8.499,7.809,7.788,7.559,4.482,-5.278,-8.265,1.423,-1.459,8.039,5.081,-4.313,-8.464,211.7,189.6,-8.288,198.2,210.3,190.1,196.8,200.2,36,202.5,3,5,prime,10,0,98,norm,36,-5.119,up,norm,206.3976378,209.7,209.9,200.9,210.4,4,192.3,199.7,193.4,10,6,7.828,4.82,1.273,-1.132,-4.428,-8.43,221,6,304.4,-8.059,-8.297,40,-8.499,-7.551,-4.89,-4.679,-4.9,-4.627,4.604,8.424,22,-1.213,1.47,4.37,8.021,-7.557,-7.59,-1.78,2.044,203.1,200.4,223,186.4,214,226.4,209,192,220.2,210.2,0,norm,1.254,1.202,-1.862,-1.913,-4.591,-5.07,-1.931,-1.724,-1.245,-1.695,1.374,-1.832,214.9,204.5,-4.939,-8.27,1.675,-1.69,8.039,5.061,-4.555,-7.828,24,4.37,4.584,4.362,5.206,1.452,1.364,1.506,1.411,24,5.08,4.659,30,134.0641065,norm,0,86,86,86,433.41,433.421,433.4265655,433.427,433.429,433.432,up,1,0.843817369,9.156182631,1,026,1920_1200,Intel(R) Core(TM) i5-3570 CPU @ 3.40GHz,orientation_search,LEPPC096,Intel(R) HD Graphics 2500,2019_Jan_16_1448,testMonitor
203.4,215.1,219.6,206,36,40,206.1,210.6,190.7,202.2,8.435,7.93,7.928,8.371,8.383,7.729,7.75,4.989,-4.75,-7.571,1.313,-1.423,7.806,4.379,-4.32,-8.036,198.5,202.9,-8.141,,197.4,201.6,208.6,218.3,36,206.4,5,5,prime,10,0,73,norm,36,-5.174,down,norm,206.3976378,206.8,209.9,197.7,203.3,1,207.1,203,196.9,10,6,7.649,4.903,1.97,-1.226,-4.522,-7.629,198.4,6,279.4,-7.993,-8.397,40,-7.798,-8.452,-4.573,-4.871,-5.184,-4.356,4.381,8.368,31,-1.157,2.054,4.885,7.9,-7.752,-8.338,-1.832,1.939,186.4,212.8,211.5,219.3,226.4,218.8,206,206.9,217.2,200.8,1,norm,1.244,1.682,-1.508,-1.619,-5.134,-4.948,-1.875,-1.529,-1.493,-1.93,1.456,-1.539,221.3,207.2,-4.612,-7.508,1.906,-1.835,8.25,4.518,-5.224,-7.672,24,5.086,4.772,4.846,4.723,1.791,1.74,1.745,1.568,24,4.458,5.048,30,134.0641065,norm,0,87,87,87,434.309,434.319,434.3286881,434.329,434.331,434.333,down,1,1.744145178,8.255854823,1,026,1920_1200,Intel(R) Core(TM) i5-3570 CPU @ 3.40GHz,orientation_search,LEPPC096,Intel(R) HD Graphics 2500,2019_Jan_16_1448,testMonitor
198.8,208.5,208.8,189.9,36,40,214.1,217.1,206.9,,8.344,7.659,8.084,8.483,8.275,8.384,7.514,4.311,-4.545,-7.558,1.609,-1.85,8.485,4.664,-5.201,-7.963,186.4,202.3,-8.455,205.6,212.5,220.7,218.8,222.8,36,214.2,4,5,prime,10,0,76,norm,36,-4.835,up,norm,206.3976378,193.2,225.3,209.9,212.1,5,205.9,215.3,203.1,10,6,8.006,4.92,1.835,-1.948,-4.494,-7.884,193.1,6,282.4,-8.117,-7.772,40,-7.971,-8.274,-4.838,-4.528,-4.387,-4.949,4.582,8.419,29,-1.632,1.802,5.084,7.762,-8.351,-7.788,-1.866,1.336,208.4,192.9,209.3,210.4,198.8,205.6,206.2,190.6,219.9,197.9,2,norm,1.637,1.858,-1.388,-1.954,-4.432,-4.79,-1.77,-1.325,-2.074,-1.866,2.026,-1.763,226.4,189.4,-4.734,-8.094,1.391,-1.161,8.105,4.404,-4.627,-8.317,24,4.584,4.659,4.757,5.184,1.29,1.859,1.463,1.733,24,4.62,4.346,30,134.0641065,norm,0,88,88,88,436.11,436.121,436.1539239,436.154,436.156,436.159,up,1,1.396703804,8.603296196,1,026,1920_1200,Intel(R) Core(TM) i5-3570 CPU @ 3.40GHz,orientation_search,LEPPC096,Intel(R) HD Graphics 2500,2019_Jan_16_1448,testMonitor
186.4,215.6,204.7,217.9,36,40,223.6,193.8,202.3,196.6,7.98,7.577,7.543,7.832,7.689,7.786,8.169,5.298,-4.874,-8.474,1.118,-1.423,7.933,4.436,-4.864,-8.24,197.6,199.2,-7.801,207,200.9,197.4,206.9,203.3,36,217.9,0,5,prime,10,0,91,norm,36,-4.333,up,norm,206.3976378,211.9,226.4,198.8,203.8,4,208.3,201.6,212.9,10,6,8.223,4.783,1.84,-1.67,-4.952,-7.646,205.7,6,297.4,-8.34,-7.597,40,-8.312,-8.074,-4.486,-5.105,-4.485,-4.6,4.475,8.063,4,-1.864,1.707,4.538,7.585,-7.785,-8.321,-1.591,1.498,197.4,200.5,195.4,202.6,213.6,202.9,206.2,204,203.6,,3,norm,1.624,1.66,-1.142,-1.685,-4.495,-4.588,-1.903,-1.724,-1.364,-1.967,1.501,-1.622,204.2,204.1,-4.44,-7.755,1.949,-1.838,7.689,4.433,-4.34,-7.731,24,4.437,4.347,4.468,5.117,1.103,1.238,1.644,1.264,24,4.385,4.538,30,134.0641065,norm,0,89,89,89,437.59,437.599,437.6064904,437.607,437.608,437.611,up,1,1.184833273,8.815166727,1,026,1920_1200,Intel(R) Core(TM) i5-3570 CPU @ 3.40GHz,orientation_search,LEPPC096,Intel(R) HD Graphics 2500,2019_Jan_16_1448,testMonitor
204.4,202.8,188.3,221.4,36,40,,198.2,201.8,226.4,7.744,8.247,7.55,7.764,8.098,7.633,7.539,5.146,-5.206,-7.697,1.553,-1.715,7.926,4.662,-4.802,-7.949,221.8,221,-7.7,198.3,200.6,208.8,208.1,213.6,36,206.1,4,5,prime,10,0,78,norm,36,-4.57,down,norm,206.3976378,225.2,200.8,201.7,196.6,0,213.3,205.5,200.5,10,6,7.879,4.877,1.979,-1.77,-5.064,-7.879,193.8,6,284.4,-8.111,-8.312,40,-8.287,-7.809,-4.651,-4.467,-4.982,-4.647,4.672,8.121,24,-1.352,1.318,5.225,8.035,-7.734,-8.474,-1.494,1.863,193.4,212.7,212.2,214.1,206.9,198.6,196.8,216,193.6,213.4,4,norm,1.744,1.333,-1.58,-1.664,-4.697,-4.399,-1.632,-1.532,-1.428,-1.947,1.742,-1.871,196.3,211.9,-5.03,-7.736,1.92,-2.064,7.94,5.062,-4.516,-8.387,24,4.659,5.284,4.752,4.486,1.584,1.472,1.362,1.884,24,5.056,4.882,30,134.0641065,norm,0,90,90,90,438.829,438.841,438.845023,438.845,438.847,438.849,down,1,1.213865755,8.786134245,1,026,1920_1200,Intel(R) Core(TM) i5-3570 CPU @ 3.40GHz,orientation_search,LEPPC096,Intel(R) HD Graphics 2500,2019_Jan_16_1448,testMonitor
226.4,218.1,187,197.2,36,40,202.9,200.1,221.9,211.7,7.997,8.068,7.774,7.815,7.982,7.606,7.542,5.145,-4.538,-8.103,1.15,-1.573,7.569,5.102,-4.783,-7.564,209.7,186.4,-8.04,209.8,211.8,,209.4,207.3,36,212.9,5,5,prime,10,0,91,norm,36,-4.4,up,norm,206.3976378,197.1,189.8,199.4,219.4,3,217.9,209.9,205.5,10,6,7.932,4.598,1.997,-1.951,-5.003,-7.871,193,6,297.4,-8.181,-8.022,40,-7.961,-8.163,-5.143,-4.857,-5.155,-4.774,4.505,8.12,33,-1.611,1.471,4.938,7.915,-7.998,-8.083,-1.195,1.214,199.2,194,202.1,204.6,210.8,214.7,209.1,201.3,195.8,194.6,5,norm,1.575,1.512,-1.162,-1.433,-5.241,-4.344,-1.473,-2.051,-1.856,-1.495,1.607,-1.75,194.2,202.2,-5.212,-7.57,1.923,-2.088,8.452,4.612,-4.901,-8.102,24,5.085,4.377,4.444,4.37,1.717,1.581,2.081,1.237,24,4.841,5.105,30,134.0641065,norm,0,91,91,91,440.096,440.106,440.1161613,440.116,440.118,440.121,up,1,1.482793979,8.517206021,1,026,1920_1200,Intel(R) Core(TM) i5-3570 CPU @ 3.40GHz,orientation_search,LEPPC096,Intel(R) HD Graphics 2500,2019_Jan_16_1448,testMonitor
322.2,316.3,330.8,320.1,36,10,319.4,324.5,320.3,328.5,7.703,8.443,7.678,8.265,7.923,7.98,7.989,4.656,-4.975,-7.722,1.873,-1.324,8.464,5.014,-5.193,-8.145,316.1,320,-7.698,325.2,326.7,318.3,327.6,321.2,36,324.2,3,5,probe,5,0,81,norm,36,-4.572,down,norm,324.1084792,326.7,327,318.6,321.1,1,333.3,319.1,321.7,10,6,7.657,4.335,1.117,-1.529,-5.14,-7.704,325.5,2,243.1,-7.53,-7.959,40,-8.062,-8.174,-4.744,-4.626,-4.385,-4.812,4.831,7.655,19,-1.968,1.511,4.652,7.892,-8.049,-7.829,-2.062,1.539,319.6,327.1,326.5,328.3,323.4,327.4,325,319.8,329,314.1,0,norm,1.5,1.116,-1.576,-1.868,-5.252,-5.128,-1.81,-1.924,-1.212,-2.088,1.841,-1.947,,334.1,-4.921,-8.224,1.877,-1.741,7.833,4.478,-4.824,-7.889,25,5.001,4.967,4.527,5.011,1.957,1.785,1.581,1.675,25,5.205,4.857,40,206.3976378,norm,0,92,92,92,441.637,441.646,441.660458,441.661,441.662,441.665,down,1,0.979080325,9.020919675,1,026,1920_1200,Intel(R) Core(TM) i5-3570 CPU @ 3.40GHz,orientation_search,LEPPC096,Intel(R) HD Graphics 2500,2019_Jan_16_1448,testMonitor
310,,303.9,313.7,36,10,305.1,308.2,302.5,299.7,7.6,8.099,7.933,8.076,8.107,8.462,8.327,4.952,-4.335,-7.942,1.233,-1.804,8.438,4.438,-4.881,-7.729,308.3,308.8,-7.641,304,309.1,310.8,306.4,309.9,36,304.1,3,5,probe,5,0,65,norm,36,-4.625,up,norm,308.1084792,305.2,312.1,314,302,5,301.9,311.7,301.3,10,6,7.599,5.027,1.513,-1.272,-4.519,-7.996,304.8,2,243.1,-8.019,-7.971,40,-7.958,-8.031,-5.288,-5.083,-4.813,-4.382,4.443,8.499,23,-1.585,1.688,4.978,7.748,-8.499,-7.72,-2.067,1.393,302.9,308.4,308,300.4,310.6,318.1,302,298.1,302,308.1,1,norm,1.847,1.975,-1.758,-1.291,-4.557,-4.311,-1.23,-1.104,-1.241,-1.163,1.107,-1.143,305.2,309.8,-4.84,-7.843,1.192,-1.339,7.675,4.616,-4.414,-8.39,25,4.931,5.286,4.33,5.039,1.531,1.809,1.746,1.828,25,5.262,4.998,40,206.3976378,norm,0,93,93,93,442.691,442.703,442.7369261,442.737,442.741,442.747,up,1,0.868359539,9.131640461,1,026,1920_1200,Intel(R) Core(TM) i5-3570 CPU @ 3.40GHz,orientation_search,LEPPC096,Intel(R) HD Graphics 2500,2019_Jan_16_1448,testMonitor
116.5,125.3,120,132.3,36,10,128.2,,112.3,117.1,8.018,8.154,8.165,7.936,8.473,7.513,7.873,5.187,-4.511,-7.926,1.94,-1.731,8.239,4.879,-5.037,-7.803,116.9,127.6,-8.399,113.2,114.1,114.9,128.7,131.4,36,117.9,4,5,prime,10,0,108,norm,36,-4.54,down,norm,122.66774,113.7,139.5,130.2,128.2,1,135.4,122,121.5,10,6,7.817,4.426,1.896,-1.238,-5.116,-8.164,130.5,6,230.7,-8.229,-7.657,10,-8.223,-8.008,-5.134,-4.36,-4.379,-4.429,4.93,8.422,25,-1.111,1.342,4.445,8.158,-7.782,-8.249,-1.249,1.786,133.4,127.8,124.1,109.5,116,142.7,128.6,136,102.7,114.2,0,norm,1.519,1.683,-1.773,-1.712,-4.935,-4.486,-1.63,-1.63,-1.833,-2.083,1.595,-1.392,127.2,133.2,-4.965,-7.803,1.675,-1.98,8.398,4.996,-4.447,-7.82,26,4.309,4.829,4.532,5.201,1.798,1.819,1.971,1.329,26,5.145,5.093,10,206.3976378,norm,0,94,94,94,443.658,443.667,443.675226,443.675,443.677,443.68,down,1,0.893772243,9.106227757,1,026,1920_1200,Intel(R) Core(TM) i5-3570 CPU @ 3.40GHz,orientation_search,LEPPC096,Intel(R) HD Graphics 2500,2019_Jan_16_1448,testMonitor
137.3,142.7,105.5,125.7,36,10,123.4,137.1,110.3,136.9,7.937,7.821,7.851,8.482,8.46,7.555,7.774,4.657,-4.456,-7.74,1.825,-1.792,8.071,4.76,-4.75,-8.366,,130.3,-7.6,102.7,134.3,118.4,119.3,111.7,36,111.1,5,5,prime,10,0,108,norm,36,-4.417,up,norm,122.66774,135.7,125.1,112.3,103.9,5,137.7,119.1,114.9,10,6,7.84,4.867,1.303,-1.204,-5.253,-8.194,113.7,6,230.7,-7.945,-7.957,10,-8.418,-8.415,-5.176,-4.388,-4.302,-4.646,4.502,7.921,35,-1.572,1.741,4.792,8.124,-7.507,-8.313,-1.748,1.856,119.6,119.7,119.7,116.4,123.4,114.2,123.9,126.1,112.4,116.3,1,norm,1.485,1.495,-1.496,-1.79,-5.29,-5.254,-1.65,-1.17,-2.061,-1.38,1.998,-1.727,125,107.2,-4.497,-7.831,1.41,-1.403,8.214,5.047,-5.295,-8.294,26,4.542,4.441,4.469,4.414,1.624,1.285,1.659,1.386,26,5.131,5.288,10,206.3976378,norm,0,95,95,95,444.59,444.6,444.6086993,444.609,444.611,444.613,up,1,0.810888916,9.189111084,1,026,1920_1200,Intel(R) Core(TM) i5-3570 CPU @ 3.40GHz,orientation_search,LEPPC096,Intel(R) HD Graphics 2500,2019_Jan_16_1448,testMonitor
115.9,121.1,119.9,104,36,10,105.7,142,133.9,121.4,8.225,7.978,7.513,7.895,8.364,7.543,7.838,4.748,-4.725,-8.332,1.544,-1.786,7.608,4.825,-5.058,-8.19,142.4,137.3,-7.582,108.1,121.1,129.3,134.6,110.3,36,127.1,3,5,prime,10,0,82,norm,36,-5.281,down,norm,122.66774,109.5,142.7,140.5,138.7,0,119.5,135,122.4,10,6,8.352,4.542,1.183,-1.892,-4.445,-7.961,116.8,6,204.7,-7.571,-7.912,10,-7.763,-8.215,-4.346,-5.283,-4.344,-4.609,5.281,7.694,18,-2.015,1.545,4.759,8.392,-8.341,-8.152,-1.597,1.52,111.7,113,136.5,102.7,129.2,130.4,121.7,131.1,124.8,119,2,norm,1.786,1.655,-1.967,-1.647,-5.17,-4.343,-1.847,-2.001,-2.086,-1.405,1.846,-1.667,131.6,,-4.342,-7.671,1.715,-1.891,8.354,4.414,-4.654,-7.738,26,4.774,5.247,5.049,4.945,1.153,1.628,1.15,1.64,26,4.413,4.308,10,206.3976378,norm,0,96,96,96,445.458,445.47,445.4903366,445.491,445.492,445.495,down,1,0.940516042,9.059483958,1,026,1920_1200,Intel(R) Core(TM) i5-3570 CPU @ 3.40GHz,orientation_search,LEPPC096,Intel(R) HD Graphics 2500,2019_Jan_16_1448,testMonitor
122.9,133.5,120.4,123.3,36,10,132.6,,129.5,130.9,8.456,7.856,8.071,7.891,8.115,8.241,8.007,5.292,-5.009,-8.263,1.927,-1.402,7.6,4.965,-4.479,-8.128,134.8,110.2,-8.308,119.6,127.6,141.4,128.6,128.1,36,118,4,5,prime,10,0,97,norm,36,-4.495,down,norm,122.66774,135.7,115.3,142.7,120.8,1,111.3,115.3,130.4,10,6,7.823,4.948,1.901,-1.504,-4.774,-7.743,102.7,6,219.7,-8.16,-8.249,10,-8.419,-8.186,-4.386,-4.656,-4.935,-4.793,5.207,8.277,25,-1.857,1.602,5.055,7.559,-7.983,-7.514,-1.54,2.06,125.4,116.9,133.8,120.5,120.8,117.9,111.8,123.7,115.1,127.6,3,norm,1.339,1.745,-1.492,-1.382,-4.916,-4.903,-1.891,-1.102,-1.488,-1.961,1.62,-1.872,120.1,134.9,-4.82,-8.038,1.673,-1.163,7.851,5.081,-4.47,-8.134,26,4.942,5.18,5.183,4.306,1.794,1.21,1.166,1.901,26,4.803,4.663,10,206.3976378,norm,0,97,97,97,446.468,446.479,446.4848961,446.485,446.487,446.49,down,1,1.085471987,8.914528013,1,026,1920_1200,Intel(R) Core(TM) i5-3570 CPU @ 3.40GHz,orientation_search,LEPPC096,Intel(R) HD Graphics 2500,2019_Jan_16_1448,testMonitor
