d_ori_22,d_ori_23,d_ori_20,d_ori_21,set_size,ctpd,d_ori_24,d_ori_25,d_ori_28,d_ori_29,stim_pos_x_30,stim_pos_x_31,stim_pos_x_32,stim_pos_x_33,stim_pos_x_34,stim_pos_x_35,stim_pos_y_11,stim_pos_y_10,stim_pos_y_13,stim_pos_y_12,stim_pos_y_15,stim_pos_y_14,stim_pos_y_17,stim_pos_y_16,stim_pos_y_19,stim_pos_y_18,d_ori_35,d_ori_34,stim_pos_x_3,d_ori_31,d_ori_30,d_ori_33,d_ori_32,d_ori_26,test_set_size,d_ori_27,targetCol,dsd_test,seq_type,dsd,blockRepN,targetDist,dtype_test,prime_set_size,stim_pos_y_25,correctResponse,dtype,distrMean,d_ori_17,d_ori_16,d_ori_15,d_ori_14,targetRow,d_ori_11,d_ori_13,d_ori_12,dsd_prime,streak_length_prime,stim_pos_y_35,stim_pos_y_34,stim_pos_y_33,stim_pos_y_32,stim_pos_y_31,stim_pos_y_30,d_ori_10,nextProbe,targetOri,stim_pos_x_1,stim_pos_x_2,ctpd_prime,stim_pos_x_4,stim_pos_x_5,stim_pos_x_6,stim_pos_x_7,stim_pos_x_8,stim_pos_x_9,stim_pos_y_28,stim_pos_y_29,targetPos,stim_pos_y_20,stim_pos_y_21,stim_pos_y_22,stim_pos_y_23,stim_pos_y_24,stim_pos_x_0,stim_pos_y_26,stim_pos_y_27,d_ori_9,d_ori_8,d_ori_3,d_ori_2,d_ori_1,d_ori_0,d_ori_7,d_ori_6,d_ori_5,d_ori_4,trialN,dtype_prime,stim_pos_x_18,stim_pos_x_19,stim_pos_x_12,stim_pos_x_13,stim_pos_x_10,stim_pos_x_11,stim_pos_x_16,stim_pos_x_17,stim_pos_x_14,stim_pos_x_15,stim_pos_y_9,stim_pos_y_8,d_ori_19,d_ori_18,stim_pos_y_1,stim_pos_y_0,stim_pos_y_3,stim_pos_y_2,stim_pos_y_5,stim_pos_y_4,stim_pos_y_7,stim_pos_y_6,totBlockN,stim_pos_x_27,stim_pos_x_26,stim_pos_x_25,stim_pos_x_24,stim_pos_x_23,stim_pos_x_22,stim_pos_x_21,stim_pos_x_20,blockN,stim_pos_x_29,stim_pos_x_28,prevDistrCTPD,prevDistrMean,prevDistrType,trials.thisRepN,trials.thisTrialN,trials.thisN,trials.thisIndex,timeStart,timeBeforeDraw,timeDraw,timeAfterSaving,timeAfterWritingToTemp,timeAfterPreparingNext,answer,correct,rt,trialScore,session,participant,resolution,cpu_info,expName,pc_name,graphic_card,date,monitorName,
112.2,104.9,130.3,115.4,36,10,113.4,108.3,114.6,121.8,8.43,7.668,8.276,7.584,7.692,8.29,8.169,4.899,-4.854,-7.641,1.976,-2.068,7.877,5.024,-4.74,-8.147,136.9,,-8.15,100.7,122.1,118.8,101.6,120.8,36,102.4,5,5,prime,10,0,96,norm,36,-5.084,up,norm,118.281333541,114.1,118.5,110.2,115.1,4,125.7,117.0,136.8,10,5,7.64,4.542,1.463,-2.008,-5.098,-7.807,106.5,5,214.3,-7.56,-7.79,10,-8.218,-8.261,-4.629,-4.606,-4.323,-4.475,4.738,8.407,34,-1.671,1.527,4.511,7.912,-8.254,-8.121,-1.498,1.563,122.8,98.3,106.8,113.1,128.3,130.5,126.9,134.9,138.3,137.4,0,norm,1.127,1.309,-1.891,-1.709,-4.462,-4.881,-1.577,-1.654,-1.754,-1.853,2.07,-1.123,127.0,132.5,-4.47,-7.973,1.951,-1.148,8.038,4.341,-4.333,-7.698,0,5.123,4.808,4.837,4.541,2.089,1.922,1.741,1.987,0,4.623,5.091,,,,0,0,0,0,360.409,360.42,360.4299662,360.43,360.43,360.432,down,0,1.51738560002,-10,001,329,1366_768,Intel(R) Core(TM) i7-8750H CPU @ 2.20GHz,orientation_search,GHUM-L-P55205,Intel(R) UHD Graphics 630,2019_Jan_26_1136,testMonitor,
105.8,111.8,134.0,110.2,36,10,115.0,138.3,118.4,132.9,8.184,8.0,8.265,7.624,8.404,7.627,7.756,4.878,-5.165,-7.636,1.182,-1.243,7.868,4.928,-5.244,-8.226,104.6,120.2,-8.179,121.9,111.3,118.9,103.8,98.3,36,124.5,1,5,prime,10,0,115,norm,36,-4.629,down,norm,118.281333541,112.0,123.4,116.4,110.0,1,119.4,124.9,119.7,10,5,8.356,4.624,1.507,-1.492,-4.908,-7.702,118.7,5,233.3,-8.08,-8.05,10,-8.189,-8.334,-4.317,-5.167,-4.809,-5.108,4.921,7.798,7,-2.05,1.452,4.625,7.701,-8.239,-7.819,-1.653,1.544,113.7,113.3,120.1,114.5,114.9,136.8,,127.8,106.9,132.0,1,norm,1.554,1.402,-2.041,-1.145,-4.376,-4.804,-1.295,-1.892,-1.393,-2.077,1.848,-1.773,106.7,110.4,-4.935,-7.835,1.73,-1.927,7.856,4.935,-4.8,-7.944,0,4.343,4.377,4.803,4.415,1.465,1.943,1.765,1.523,0,4.417,4.541,,,,0,1,1,1,362.982,362.989,362.9967633,362.997,362.999,363.0,down,1,2.56617080001,7.43382919999,001,329,1366_768,Intel(R) Core(TM) i7-8750H CPU @ 2.20GHz,orientation_search,GHUM-L-P55205,Intel(R) UHD Graphics 630,2019_Jan_26_1136,testMonitor,
115.6,138.3,119.2,111.4,36,10,110.6,102.1,120.3,125.9,8.267,7.652,8.377,7.852,8.411,8.267,7.939,4.684,-4.738,-7.623,1.316,-1.581,7.864,4.628,-5.178,-8.245,103.7,126.4,-8.211,106.5,118.6,127.6,131.5,128.3,36,118.9,1,5,prime,10,0,74,norm,36,-4.986,down,norm,118.281333541,99.3,126.5,125.8,111.1,0,127.5,114.3,128.1,10,5,7.504,5.077,1.481,-1.572,-5.262,-7.627,119.0,5,192.3,-7.749,-8.109,10,-8.352,-7.861,-4.674,-4.614,-4.579,-4.909,5.151,8.233,6,-1.646,1.176,4.395,8.289,-7.931,-7.971,-1.103,1.992,107.2,98.3,104.0,130.3,117.8,112.0,121.4,,104.2,120.6,2,norm,1.164,1.16,-1.959,-1.523,-5.025,-4.859,-1.977,-1.849,-1.421,-1.218,2.04,-2.092,114.3,123.4,-4.923,-7.521,1.884,-1.387,7.854,4.522,-4.73,-7.521,0,4.507,4.667,5.125,4.613,1.553,1.895,1.237,1.301,0,4.38,5.144,,,,0,2,2,2,365.581,365.588,365.5966151,365.597,365.598,365.6,down,1,2.31650630001,7.68349369999,001,329,1366_768,Intel(R) Core(TM) i7-8750H CPU @ 2.20GHz,orientation_search,GHUM-L-P55205,Intel(R) UHD Graphics 630,2019_Jan_26_1136,testMonitor,
111.9,116.5,120.3,123.4,36,10,117.9,98.3,102.3,107.7,7.721,7.583,7.867,8.233,8.45,8.378,7.914,4.369,-4.587,-7.926,1.774,-1.978,7.716,5.102,-4.385,-8.142,114.3,122.5,-8.297,125.6,103.4,103.4,120.6,115.1,36,121.7,0,5,prime,10,0,117,norm,36,-4.566,up,norm,118.281333541,113.7,109.2,131.3,119.7,4,120.8,116.8,115.1,10,5,7.524,4.451,1.141,-1.579,-4.788,-8.372,119.5,5,235.3,-7.797,-8.404,10,-7.783,-8.169,-4.719,-5.276,-4.344,-4.465,4.636,7.63,4,-1.346,1.432,5.05,7.82,-7.719,-7.59,-1.907,1.769,105.2,133.0,128.9,122.1,137.9,120.5,122.2,121.5,113.7,,3,norm,1.63,1.297,-1.135,-1.918,-5.015,-5.193,-2.067,-1.671,-1.751,-1.989,2.022,-1.65,131.3,138.3,-4.425,-8.167,2.086,-1.968,8.413,4.346,-5.194,-8.03,0,4.64,4.667,5.153,4.859,1.568,1.495,1.408,1.628,0,4.73,4.354,,,,0,3,3,3,367.934,367.943,367.9596335,367.96,367.961,367.963,up,1,1.60314209992,8.39685790008,001,329,1366_768,Intel(R) Core(TM) i7-8750H CPU @ 2.20GHz,orientation_search,GHUM-L-P55205,Intel(R) UHD Graphics 630,2019_Jan_26_1136,testMonitor,
129.5,101.4,128.7,115.9,36,10,109.1,113.8,123.7,128.9,8.057,7.625,7.7,7.915,7.716,8.091,7.575,4.727,-4.911,-8.37,1.994,-1.708,8.266,4.895,-5.164,-7.831,,125.4,-7.874,124.2,126.9,103.9,129.1,109.1,36,129.1,5,5,prime,10,0,110,norm,36,-5.082,up,norm,118.281333541,114.2,121.3,120.7,131.6,5,122.7,111.3,119.8,10,5,7.94,4.701,1.625,-1.572,-5.206,-7.94,131.9,5,228.3,-7.989,-8.243,10,-7.826,-8.068,-5.04,-4.959,-4.602,-4.35,4.488,7.666,35,-1.83,1.803,4.697,8.164,-7.505,-8.308,-1.432,1.8,138.3,98.3,102.3,112.0,120.4,121.7,126.5,124.8,132.5,134.1,4,norm,1.985,2.057,-1.196,-1.663,-4.788,-4.518,-2.037,-1.802,-2.034,-1.712,1.235,-1.528,105.8,123.5,-4.937,-7.638,1.427,-1.161,7.983,5.234,-4.526,-8.225,0,5.274,4.459,5.284,4.746,1.55,1.452,1.322,1.87,0,4.869,5.194,,,,0,4,4,4,369.585,369.594,369.6102206,369.61,369.612,369.613,up,1,2.1865678,7.8134322,001,329,1366_768,Intel(R) Core(TM) i7-8750H CPU @ 2.20GHz,orientation_search,GHUM-L-P55205,Intel(R) UHD Graphics 630,2019_Jan_26_1136,testMonitor,
222.7,218.5,214.1,209.5,36,-20,223.8,224.2,209.5,223.8,8.042,8.22,8.006,7.861,8.207,7.912,7.883,5.256,-4.39,-8.164,1.234,-1.85,7.947,4.465,-4.957,-7.806,220.1,,-8.178,213.7,214.6,217.2,221.2,214.1,36,211.5,5,5,probe,5,0,89,norm,36,-4.623,up,norm,219.471447684,216.6,222.0,220.1,215.2,4,229.5,215.5,225.6,10,5,8.124,4.728,1.633,-1.821,-5.093,-8.404,225.8,2,130.5,-8.164,-7.883,10,-7.647,-7.558,-5.254,-4.325,-4.611,-4.939,4.615,7.621,34,-1.801,1.217,5.04,7.997,-8.411,-8.229,-1.863,1.907,211.2,222.4,218.3,218.6,216.8,223.4,214.6,214.4,210.3,215.6,0,norm,1.634,1.338,-2.085,-1.67,-4.359,-4.499,-1.381,-1.328,-1.635,-1.192,1.996,-1.257,216.2,215.1,-4.964,-8.234,1.713,-1.849,7.952,4.902,-5.254,-7.59,1,4.653,4.635,5.025,4.73,1.849,1.703,1.303,1.161,1,4.919,4.888,10,118.281333541,norm,0,5,5,5,371.827,371.834,371.8469506,371.847,371.848,371.85,up,1,2.16500149993,7.83499850007,001,329,1366_768,Intel(R) Core(TM) i7-8750H CPU @ 2.20GHz,orientation_search,GHUM-L-P55205,Intel(R) UHD Graphics 630,2019_Jan_26_1136,testMonitor,
215.0,207.0,209.3,214.8,36,-20,215.2,208.3,206.8,226.5,8.072,8.466,8.211,7.845,8.03,7.661,8.249,4.529,-4.524,-7.954,1.781,-1.584,7.599,5.258,-5.135,-7.582,215.9,220.6,-7.796,220.6,221.1,209.1,217.7,207.8,36,,4,5,probe,5,0,86,norm,36,-4.366,up,norm,216.471447684,216.5,214.3,206.5,216.4,3,214.8,214.9,213.6,10,5,7.693,5.128,1.305,-2.088,-4.88,-7.982,219.2,2,130.5,-7.973,-7.703,10,-8.069,-8.406,-4.35,-5.202,-4.379,-4.667,5.235,7.991,27,-1.288,2.045,4.868,8.354,-7.873,-7.586,-1.535,1.829,219.9,216.6,214.7,215.0,211.2,208.3,215.9,218.9,223.0,215.9,1,norm,1.362,1.992,-1.157,-1.509,-4.859,-5.296,-1.647,-1.218,-1.932,-1.762,1.807,-1.24,209.2,215.2,-5.166,-8.483,1.426,-1.44,7.609,4.758,-5.249,-8.308,1,4.458,4.426,4.655,5.134,1.85,2.089,1.293,2.08,1,4.999,5.102,10,118.281333541,norm,0,6,6,6,374.031,374.038,374.0468904,374.047,374.048,374.05,up,1,1.23290399997,8.76709600003,001,329,1366_768,Intel(R) Core(TM) i7-8750H CPU @ 2.20GHz,orientation_search,GHUM-L-P55205,Intel(R) UHD Graphics 630,2019_Jan_26_1136,testMonitor,
45.9,60.1,36.0,48.7,36,20,49.9,61.6,34.7,29.1,7.732,7.874,7.757,8.468,7.58,8.243,7.99,5.281,-5.115,-8.333,1.609,-1.967,8.041,4.768,-4.585,-8.184,40.7,49.0,-8.089,44.5,50.2,52.6,62.1,48.3,36,36.1,1,5,prime,10,0,96,norm,36,-4.536,up,norm,49.1247018319,58.6,69.1,54.8,48.9,4,43.9,42.8,44.6,10,6,8.222,4.745,1.109,-2.019,-4.475,-8.224,,6,145.1,-7.871,-7.857,20,-8.067,-8.353,-4.458,-4.404,-4.595,-5.152,4.461,7.897,10,-1.505,1.394,4.478,8.048,-8.258,-7.745,-1.625,1.511,34.0,50.0,46.9,68.4,50.8,52.9,50.9,47.8,59.9,56.2,0,norm,2.094,1.898,-1.94,-1.826,-4.776,-4.738,-1.603,-1.269,-1.692,-1.222,1.154,-1.81,41.5,53.6,-5.3,-7.709,1.157,-2.072,8.136,4.964,-4.891,-8.486,2,4.711,4.892,4.46,4.818,1.731,1.352,1.334,1.672,2,4.558,4.587,-20,118.281333541,norm,0,7,7,7,375.299,375.305,375.3133163,375.314,375.315,375.316,up,1,1.18311310001,8.81688689999,001,329,1366_768,Intel(R) Core(TM) i7-8750H CPU @ 2.20GHz,orientation_search,GHUM-L-P55205,Intel(R) UHD Graphics 630,2019_Jan_26_1136,testMonitor,
39.5,47.1,39.3,67.5,36,20,,57.0,40.6,29.1,7.766,7.808,7.802,8.295,7.837,7.961,8.332,4.615,-4.793,-8.317,1.498,-1.891,8.214,4.826,-4.413,-8.243,47.9,54.7,-7.988,58.8,51.9,66.1,56.2,33.7,36,55.7,4,5,prime,10,0,62,norm,36,-4.868,down,norm,49.1247018319,36.7,56.3,36.9,69.1,0,52.7,32.7,48.5,10,6,7.877,4.497,1.864,-1.353,-4.496,-8.355,60.3,6,111.1,-8.464,-7.712,20,-8.021,-7.773,-4.765,-5.262,-4.39,-5.271,4.319,7.956,24,-1.725,1.506,4.601,7.587,-8.363,-8.314,-2.0,1.455,55.4,50.6,30.6,45.4,51.6,46.9,48.4,54.5,42.1,46.8,1,norm,1.502,1.765,-1.932,-1.738,-4.559,-4.4,-1.391,-1.982,-1.196,-1.909,1.79,-1.8,44.9,52.7,-4.388,-7.549,1.493,-2.03,8.228,4.477,-4.877,-8.069,2,4.491,4.655,4.9,4.94,1.46,1.528,1.562,1.523,2,4.565,4.946,-20,118.281333541,norm,0,8,8,8,376.516,376.522,376.5296006,376.53,376.531,376.533,down,1,1.20083539991,8.79916460009,001,329,1366_768,Intel(R) Core(TM) i7-8750H CPU @ 2.20GHz,orientation_search,GHUM-L-P55205,Intel(R) UHD Graphics 630,2019_Jan_26_1136,testMonitor,
41.9,47.5,37.8,50.4,36,20,45.7,45.3,47.0,42.3,7.814,8.182,7.687,7.951,8.448,8.387,8.33,4.97,-4.876,-8.172,1.258,-1.876,8.13,4.387,-4.673,-8.269,51.9,36.0,-7.919,45.9,47.3,44.7,29.1,62.8,36,,4,5,prime,10,0,113,norm,36,-5.129,up,norm,49.1247018319,69.1,47.2,53.9,65.6,3,41.9,60.3,45.5,10,6,8.212,4.666,1.903,-1.626,-4.455,-8.376,51.4,6,162.1,-8.333,-8.146,20,-7.621,-8.435,-4.448,-4.514,-5.265,-4.734,4.512,7.619,27,-1.686,1.676,5.218,8.27,-7.926,-8.463,-1.334,1.89,55.7,53.7,47.6,34.5,50.6,50.6,51.7,37.8,52.6,53.5,2,norm,1.306,1.576,-1.428,-1.381,-4.42,-4.359,-1.684,-1.71,-1.775,-1.223,1.336,-1.397,34.9,47.0,-4.524,-7.758,1.829,-1.587,7.59,4.432,-4.919,-8.078,2,4.337,5.004,4.396,4.779,1.709,1.782,2.094,1.136,2,5.186,4.886,-20,118.281333541,norm,0,9,9,9,377.752,377.761,377.7770745,377.777,377.779,377.78,up,1,1.05284480006,8.94715519994,001,329,1366_768,Intel(R) Core(TM) i7-8750H CPU @ 2.20GHz,orientation_search,GHUM-L-P55205,Intel(R) UHD Graphics 630,2019_Jan_26_1136,testMonitor,
37.3,29.1,31.4,47.7,36,20,55.3,47.6,44.8,48.3,7.906,7.629,8.428,8.218,8.253,7.863,7.782,5.037,-4.463,-8.065,1.5,-1.317,8.059,4.723,-4.831,-8.253,50.6,36.7,-8.054,59.7,46.6,45.5,43.0,45.0,36,43.5,1,5,prime,10,0,64,norm,36,-4.804,down,norm,49.1247018319,52.4,36.5,56.0,69.1,0,56.5,36.5,37.8,10,6,8.127,4.841,1.341,-1.358,-4.73,-8.069,49.4,6,113.1,-7.992,-8.309,20,-8.493,-8.117,-4.903,-5.06,-4.552,-5.106,4.391,7.7,6,-1.724,1.977,5.14,8.323,-7.843,-8.044,-1.568,1.548,40.5,44.4,62.5,68.3,59.0,40.9,53.1,,58.9,50.4,3,norm,1.519,1.371,-1.749,-1.357,-4.357,-5.055,-1.889,-1.353,-1.419,-1.192,1.664,-1.446,58.0,32.8,-4.433,-8.051,1.898,-1.423,8.097,5.287,-5.122,-7.88,2,5.213,4.67,5.196,5.074,1.722,1.911,1.751,1.482,2,4.479,4.698,-20,118.281333541,norm,0,10,10,10,378.851,378.86,378.8766435,378.877,378.878,378.88,down,1,0.953411300085,9.04658869992,001,329,1366_768,Intel(R) Core(TM) i7-8750H CPU @ 2.20GHz,orientation_search,GHUM-L-P55205,Intel(R) UHD Graphics 630,2019_Jan_26_1136,testMonitor,
33.1,53.9,36.3,48.4,36,20,50.0,40.6,60.0,69.1,8.458,7.759,8.202,8.094,8.104,8.098,8.132,5.02,-4.445,-7.651,1.687,-1.935,7.797,4.43,-4.557,-7.552,58.7,33.8,-7.628,46.0,65.4,41.6,37.2,29.9,36,59.2,1,5,prime,10,0,71,norm,36,-4.539,up,norm,49.1247018319,39.4,49.3,59.3,37.8,3,60.2,52.6,43.2,10,6,8.167,4.704,1.829,-1.109,-5.014,-8.366,39.3,6,120.1,-8.461,-8.385,20,-7.51,-8.499,-5.266,-5.026,-5.197,-4.98,4.354,7.584,9,-1.479,1.285,4.876,8.065,-7.94,-8.493,-1.792,1.895,,29.9,53.8,68.5,51.7,29.1,52.9,61.6,55.6,46.0,4,norm,1.92,1.483,-2.055,-2.06,-4.603,-4.361,-1.121,-1.421,-1.361,-1.143,1.293,-1.401,50.5,53.4,-4.711,-8.489,1.879,-1.5,7.776,5.122,-5.108,-7.819,2,4.395,5.279,4.856,4.636,1.405,1.77,1.789,1.325,2,5.033,4.328,-20,118.281333541,norm,0,11,11,11,379.848,379.854,379.8632721,379.863,379.865,379.866,up,1,0.936211700086,9.06378829991,001,329,1366_768,Intel(R) Core(TM) i7-8750H CPU @ 2.20GHz,orientation_search,GHUM-L-P55205,Intel(R) UHD Graphics 630,2019_Jan_26_1136,testMonitor,
47.0,39.0,49.4,52.3,36,20,42.2,35.9,39.3,60.5,7.67,7.715,7.714,7.864,7.668,7.723,7.728,4.931,-5.086,-8.298,1.123,-1.981,8.364,4.831,-5.011,-7.955,64.5,30.1,-8.417,40.5,56.0,61.2,48.8,45.3,36,47.5,2,5,prime,10,0,80,norm,36,-5.049,down,norm,49.1247018319,42.4,69.1,56.8,50.7,0,37.9,59.7,,10,6,8.268,4.689,1.132,-1.507,-4.624,-7.912,58.2,6,129.1,-7.882,-8.097,20,-7.588,-7.528,-5.128,-4.535,-4.582,-4.515,4.504,8.139,12,-1.195,1.119,4.641,7.603,-7.961,-8.458,-1.298,2.076,53.8,60.1,39.2,40.9,29.1,48.8,42.0,54.8,45.3,41.7,5,norm,1.426,1.492,-1.136,-1.407,-4.39,-4.303,-1.207,-1.833,-1.712,-1.463,1.745,-1.143,56.5,55.1,-4.721,-8.083,1.394,-1.109,8.206,4.457,-4.72,-7.83,2,5.13,4.608,4.67,4.853,1.478,1.886,1.616,1.899,2,4.513,4.732,-20,118.281333541,norm,0,12,12,12,380.814,380.821,380.8296648,380.83,380.831,380.833,down,1,0.816326599917,9.18367340008,001,329,1366_768,Intel(R) Core(TM) i7-8750H CPU @ 2.20GHz,orientation_search,GHUM-L-P55205,Intel(R) UHD Graphics 630,2019_Jan_26_1136,testMonitor,
180.3,185.4,185.4,191.5,36,40,178.6,181.6,184.5,180.2,8.198,7.997,7.725,8.495,8.217,8.412,7.652,4.889,-4.661,-7.839,2.065,-1.151,7.951,5.281,-5.103,-7.527,196.4,185.5,-8.217,182.9,183.2,191.8,184.0,184.0,36,188.5,0,5,probe,5,0,117,norm,36,-4.819,up,norm,186.364761915,186.3,185.8,186.0,190.3,3,178.4,188.8,188.8,10,6,7.97,4.861,1.375,-1.421,-4.408,-7.899,192.9,1,69.4,-7.921,-7.819,20,-8.18,-8.447,-5.034,-4.434,-5.134,-4.62,4.74,8.457,3,-1.172,1.178,4.916,8.038,-8.249,-8.463,-1.204,2.072,176.4,186.9,,195.4,176.4,189.9,194.6,187.3,188.9,186.7,0,norm,1.867,1.929,-1.526,-1.959,-4.489,-5.29,-1.118,-1.381,-1.583,-1.585,1.767,-1.703,183.4,188.0,-4.532,-8.477,1.518,-1.952,8.071,4.364,-4.326,-7.637,3,4.952,4.73,4.646,4.868,1.735,1.763,1.474,1.275,3,5.039,4.82,20,49.1247018319,norm,0,13,13,13,381.667,381.676,381.6932975,381.694,381.695,381.696,up,1,4.23590079998,5.76409920002,001,329,1366_768,Intel(R) Core(TM) i7-8750H CPU @ 2.20GHz,orientation_search,GHUM-L-P55205,Intel(R) UHD Graphics 630,2019_Jan_26_1136,testMonitor,
314.8,333.5,333.8,329.1,36,-10,342.1,324.2,331.5,338.1,8.248,7.616,7.808,7.923,7.938,8.073,7.772,4.854,-5.19,-8.337,1.778,-1.87,8.029,4.413,-5.116,-7.894,347.8,328.6,-8.235,336.0,329.4,330.8,323.1,308.2,36,335.9,0,5,prime,10,0,78,norm,36,-5.066,up,norm,328.22406008,337.1,328.7,328.4,330.4,5,322.9,338.7,323.1,10,6,8.0,5.251,1.774,-1.123,-4.865,-8.226,328.8,6,406.2,-7.998,-7.761,-10,-8.084,-8.007,-4.659,-5.02,-4.98,-4.419,4.385,8.133,5,-1.746,1.232,4.961,7.501,-8.436,-7.996,-1.441,1.494,313.2,329.1,318.1,329.5,315.8,329.4,327.8,328.5,,329.9,0,norm,1.905,1.578,-1.242,-1.81,-4.982,-4.64,-1.794,-1.797,-1.895,-1.934,1.112,-1.288,319.3,348.2,-4.56,-7.778,1.65,-1.269,8.29,4.331,-5.18,-7.918,4,4.75,4.73,4.75,4.31,1.137,1.866,1.573,1.258,4,4.351,4.362,40,49.1247018319,norm,0,14,14,14,385.951,385.96,385.9764231,385.977,385.978,385.98,up,1,1.46912399994,8.53087600006,001,329,1366_768,Intel(R) Core(TM) i7-8750H CPU @ 2.20GHz,orientation_search,GHUM-L-P55205,Intel(R) UHD Graphics 630,2019_Jan_26_1136,testMonitor,
313.5,324.1,321.1,342.4,36,-10,337.9,336.7,317.0,326.9,7.939,8.002,8.308,8.061,7.914,8.385,7.622,4.399,-5.236,-7.819,2.056,-2.074,7.734,5.238,-4.92,-7.792,336.1,346.9,-7.921,327.1,338.6,315.5,324.6,329.1,36,332.5,3,5,prime,10,0,79,norm,36,-4.339,down,norm,328.22406008,314.9,311.7,328.2,320.3,0,334.7,337.3,348.2,10,6,7.926,5.009,2.062,-1.679,-4.936,-7.861,317.5,6,407.2,-7.943,-7.951,-10,-8.479,-7.576,-4.81,-5.282,-4.491,-4.444,4.953,7.846,18,-2.039,1.329,4.743,8.249,-8.246,-7.96,-1.276,1.555,308.2,346.1,339.5,328.3,329.4,316.4,341.0,315.6,331.8,312.3,1,norm,1.846,1.52,-1.168,-1.702,-4.523,-4.652,-1.378,-1.934,-1.478,-1.844,1.227,-1.235,318.9,,-4.959,-8.117,1.87,-1.934,7.585,4.785,-4.414,-8.182,4,4.392,4.862,4.654,5.103,1.153,1.326,1.552,1.12,4,4.719,4.713,40,49.1247018319,norm,0,15,15,15,387.465,387.474,387.4798953,387.48,387.481,387.483,down,1,0.698850199929,9.30114980007,001,329,1366_768,Intel(R) Core(TM) i7-8750H CPU @ 2.20GHz,orientation_search,GHUM-L-P55205,Intel(R) UHD Graphics 630,2019_Jan_26_1136,testMonitor,
318.9,334.7,347.7,320.2,36,-10,325.7,322.1,316.9,316.9,8.036,7.997,7.883,7.728,8.401,7.6,7.653,5.183,-4.701,-8.267,1.109,-1.911,7.9,4.526,-5.15,-7.765,321.5,328.8,-8.451,348.2,327.3,327.9,336.4,323.5,36,308.2,1,5,prime,10,0,85,norm,36,-4.966,down,norm,328.22406008,322.2,315.0,330.3,348.0,1,333.2,320.7,322.8,10,6,7.854,4.49,1.371,-1.934,-4.5,-8.263,332.7,6,413.2,-7.794,-7.861,-10,-8.439,-7.593,-4.961,-5.106,-4.472,-5.066,4.566,7.571,7,-1.759,1.73,4.649,7.695,-8.179,-7.667,-1.765,1.36,318.8,316.2,324.2,324.4,334.1,323.7,,345.0,308.4,321.3,2,norm,1.622,1.653,-1.614,-1.632,-4.621,-4.485,-1.191,-1.342,-1.243,-1.558,1.953,-1.786,321.4,316.6,-4.559,-7.571,2.033,-1.982,7.579,4.539,-4.85,-8.356,4,4.422,4.852,4.761,4.513,1.253,1.48,1.458,1.454,4,4.351,5.28,40,49.1247018319,norm,0,16,16,16,388.199,388.208,388.2265407,388.227,388.228,388.23,down,1,0.834680099972,9.16531990003,001,329,1366_768,Intel(R) Core(TM) i7-8750H CPU @ 2.20GHz,orientation_search,GHUM-L-P55205,Intel(R) UHD Graphics 630,2019_Jan_26_1136,testMonitor,
337.4,345.3,336.6,323.8,36,-10,333.8,308.2,318.5,315.4,7.84,8.445,8.229,8.095,8.001,7.811,8.399,4.576,-4.445,-7.853,1.111,-1.18,7.547,4.483,-4.968,-8.236,322.6,320.4,-7.511,317.9,336.9,324.0,322.3,,36,325.4,4,5,prime,10,0,103,norm,36,-4.401,down,norm,328.22406008,330.3,348.2,328.7,323.3,2,324.3,341.1,319.5,10,6,8.036,5.015,1.569,-1.393,-4.305,-7.883,320.4,6,431.2,-8.377,-7.943,-10,-7.804,-7.82,-4.498,-4.905,-4.347,-4.606,5.214,7.921,26,-1.904,1.482,4.493,7.557,-8.164,-7.663,-1.16,1.666,320.5,325.5,329.0,328.4,308.2,323.9,334.2,341.3,343.2,340.7,3,norm,1.588,1.677,-1.118,-1.721,-4.455,-4.947,-1.349,-1.131,-1.262,-1.701,2.09,-1.849,336.2,327.6,-4.51,-7.824,2.079,-1.339,7.844,4.904,-4.728,-7.593,4,4.462,5.134,5.224,5.069,1.913,1.261,1.796,1.795,4,4.703,4.611,40,49.1247018319,norm,0,17,17,17,389.081,389.09,389.0978238,389.098,389.099,389.101,up,0,0.929922900046,-10,001,329,1366_768,Intel(R) Core(TM) i7-8750H CPU @ 2.20GHz,orientation_search,GHUM-L-P55205,Intel(R) UHD Graphics 630,2019_Jan_26_1136,testMonitor,
327.7,318.8,320.6,318.2,36,-10,318.7,343.7,320.5,323.2,7.692,8.024,7.506,7.795,8.355,7.929,7.633,5.247,-5.04,-7.991,1.648,-1.138,8.06,4.351,-4.633,-8.351,342.3,317.7,-8.218,324.2,329.6,331.1,326.6,326.2,36,326.3,2,5,prime,10,0,92,norm,36,-5.292,down,norm,328.22406008,327.8,333.7,308.2,,2,316.5,320.4,320.5,10,6,8.04,4.575,1.835,-2.047,-4.435,-7.583,319.6,6,420.2,-7.746,-7.914,-10,-8.14,-7.692,-4.932,-4.52,-4.522,-5.268,5.076,7.585,14,-2.063,2.085,4.327,8.021,-8.305,-8.173,-1.221,1.306,329.3,328.0,319.0,337.7,344.0,308.2,327.1,311.9,334.4,316.7,4,norm,1.767,1.444,-1.113,-1.919,-4.532,-4.399,-1.412,-1.344,-1.249,-1.384,1.783,-1.299,348.2,322.1,-4.328,-7.808,1.823,-1.8,8.473,4.551,-5.236,-8.024,4,4.972,4.681,5.269,5.096,1.16,2.036,1.34,1.992,4,5.111,5.17,40,49.1247018319,norm,0,18,18,18,391.066,391.072,391.0797704,391.08,391.081,391.083,down,1,0.916060300078,9.08393969992,001,329,1366_768,Intel(R) Core(TM) i7-8750H CPU @ 2.20GHz,orientation_search,GHUM-L-P55205,Intel(R) UHD Graphics 630,2019_Jan_26_1136,testMonitor,
330.5,324.1,314.1,329.4,36,-10,309.9,,316.9,341.3,7.827,8.312,7.76,7.991,7.903,7.97,7.575,4.721,-4.453,-7.674,1.353,-1.444,8.494,4.77,-4.395,-8.379,348.2,329.3,-8.416,324.9,336.6,336.4,320.7,337.3,36,338.2,4,5,prime,10,0,67,norm,36,-4.78,down,norm,328.22406008,344.0,334.4,333.7,319.8,1,328.3,335.6,326.0,10,6,7.699,4.911,1.274,-1.603,-4.484,-8.358,326.6,6,395.2,-7.541,-8.254,-10,-7.748,-8.369,-4.539,-4.902,-5.088,-4.499,4.926,7.61,25,-1.183,1.168,4.717,7.503,-8.235,-7.738,-1.475,1.174,340.2,333.2,318.2,328.1,333.0,322.6,318.2,332.3,331.4,318.1,5,norm,1.247,1.972,-1.873,-1.363,-5.195,-5.013,-1.172,-1.276,-1.348,-1.915,1.919,-1.263,319.5,322.5,-5.205,-8.148,1.445,-1.908,8.487,4.996,-5.25,-8.196,4,4.92,4.512,5.27,4.624,1.461,1.277,1.163,1.617,4,5.236,4.317,40,49.1247018319,norm,0,19,19,19,392.016,392.022,392.0296392,392.03,392.031,392.033,down,1,0.916499800049,9.08350019995,001,329,1366_768,Intel(R) Core(TM) i7-8750H CPU @ 2.20GHz,orientation_search,GHUM-L-P55205,Intel(R) UHD Graphics 630,2019_Jan_26_1136,testMonitor,
420.1,423.4,422.3,424.3,36,-40,432.2,418.0,430.0,414.2,7.661,7.956,7.681,8.151,8.255,8.487,8.317,4.754,-4.397,-7.861,1.247,-1.539,7.64,4.302,-5.027,-7.85,419.3,419.1,-7.848,428.8,429.4,424.2,421.9,414.1,36,426.9,1,5,probe,5,0,105,norm,36,-4.509,up,norm,422.188820021,429.0,431.6,422.0,424.9,3,414.0,418.1,412.2,10,6,8.496,5.017,1.12,-1.134,-5.136,-7.618,420.6,1,317.2,-8.348,-7.588,-10,-7.795,-7.945,-4.7,-4.325,-4.347,-4.778,4.523,8.371,9,-1.23,1.17,4.87,8.1,-8.369,-7.907,-1.241,2.05,,427.0,421.0,423.2,425.8,422.9,417.8,427.2,420.6,425.0,0,norm,1.586,1.803,-2.013,-2.017,-5.167,-5.071,-1.222,-1.785,-1.309,-1.723,1.162,-1.895,417.8,420.4,-4.881,-8.209,1.658,-1.785,8.035,4.961,-4.561,-7.982,5,4.957,5.21,5.171,4.357,1.653,1.802,2.09,1.294,5,5.116,4.807,-10,328.22406008,norm,0,20,20,20,392.968,392.976,392.9932578,392.993,392.995,392.997,up,1,1.20176500001,8.79823499999,001,329,1366_768,Intel(R) Core(TM) i7-8750H CPU @ 2.20GHz,orientation_search,GHUM-L-P55205,Intel(R) UHD Graphics 630,2019_Jan_26_1136,testMonitor,
271.4,274.0,269.6,267.1,36,-10,262.5,257.2,265.3,273.0,7.572,8.431,7.518,8.378,7.93,7.575,8.093,4.462,-5.225,-7.804,1.961,-1.511,7.598,4.48,-4.43,-8.242,273.1,264.2,-7.695,276.5,263.3,254.7,270.3,262.7,36,261.0,0,5,prime,10,0,107,norm,36,-4.63,up,norm,267.727875211,256.3,264.0,282.5,277.0,5,273.8,251.4,271.1,10,5,8.103,4.462,1.343,-1.18,-4.604,-7.957,247.7,5,374.7,-7.672,-7.544,-10,-7.757,-7.767,-5.178,-4.749,-5.055,-5.254,5.043,7.676,5,-1.671,1.153,5.227,8.407,-7.892,-7.679,-1.296,1.712,269.3,262.3,269.9,265.8,274.2,265.2,287.7,248.9,,262.5,0,norm,1.87,1.46,-1.279,-1.735,-5.274,-4.421,-1.236,-2.028,-1.712,-1.805,1.658,-1.731,277.7,261.1,-4.606,-8.004,1.529,-2.045,8.413,4.519,-4.821,-8.039,6,4.536,5.088,4.997,4.612,1.41,1.501,1.811,1.576,6,4.584,4.604,-40,328.22406008,norm,0,21,21,21,394.215,394.221,394.2296655,394.23,394.231,394.233,up,1,4.06700020004,5.93299979996,001,329,1366_768,Intel(R) Core(TM) i7-8750H CPU @ 2.20GHz,orientation_search,GHUM-L-P55205,Intel(R) UHD Graphics 630,2019_Jan_26_1136,testMonitor,
269.4,266.8,263.0,287.7,36,-10,252.0,271.7,258.1,258.3,7.695,8.073,7.787,8.045,7.924,8.21,8.238,5.025,-5.248,-8.101,1.868,-1.746,7.579,4.32,-4.492,-7.7,269.4,262.8,-7.614,255.3,271.9,251.1,262.8,264.5,36,263.8,0,5,prime,10,0,99,norm,36,-4.652,down,norm,267.727875211,265.2,255.8,264.2,277.4,0,276.4,285.6,279.5,10,5,8.003,4.521,1.605,-1.937,-4.7,-7.885,264.0,5,366.7,-8.048,-8.139,-10,-8.349,-8.071,-4.834,-4.671,-5.116,-5.185,4.845,7.544,0,-2.024,1.366,5.097,8.499,-8.023,-7.619,-1.588,1.133,251.5,281.0,269.3,276.4,275.8,,247.7,253.3,252.9,273.4,1,norm,1.804,1.19,-1.615,-2.075,-5.203,-5.109,-1.117,-1.946,-1.584,-1.988,1.43,-1.399,275.6,268.2,-4.364,-8.036,1.571,-1.505,8.298,4.451,-4.422,-8.339,6,5.094,4.944,4.429,4.962,1.58,1.945,1.515,1.369,6,5.244,4.959,-40,328.22406008,norm,0,22,22,22,398.32,398.328,398.3433292,398.344,398.345,398.347,down,1,5.48516299995,4.51483700005,001,329,1366_768,Intel(R) Core(TM) i7-8750H CPU @ 2.20GHz,orientation_search,GHUM-L-P55205,Intel(R) UHD Graphics 630,2019_Jan_26_1136,testMonitor,
257.6,273.6,273.7,276.8,36,-10,262.0,267.4,259.8,266.3,8.334,7.954,8.368,8.169,8.114,8.113,8.079,4.742,-4.944,-7.518,1.801,-1.982,7.76,4.345,-5.212,-7.919,269.6,272.7,-7.78,275.8,254.5,260.7,266.3,263.8,36,253.7,0,5,prime,10,0,113,norm,36,-4.462,down,norm,267.727875211,262.2,268.6,287.7,260.9,0,260.3,277.8,271.2,10,5,8.313,4.309,1.862,-1.491,-4.624,-8.364,277.7,5,380.7,-8.375,-8.459,-10,-8.416,-8.447,-4.53,-5.03,-5.222,-5.059,4.55,7.557,0,-2.059,1.599,5.004,7.897,-8.088,-7.98,-1.36,1.764,264.1,266.6,268.7,250.9,247.7,,275.0,263.1,276.7,265.4,2,norm,1.879,1.281,-1.411,-1.217,-4.766,-4.85,-1.419,-1.381,-1.751,-2.024,1.932,-1.266,264.9,266.9,-4.695,-8.177,1.14,-1.926,8.14,4.642,-4.304,-8.195,6,4.509,4.419,4.425,5.187,1.579,1.207,1.879,1.243,6,4.75,5.037,-40,328.22406008,norm,0,23,23,23,403.847,403.854,403.8633373,403.864,403.865,403.866,down,1,5.25138100004,4.74861899996,001,329,1366_768,Intel(R) Core(TM) i7-8750H CPU @ 2.20GHz,orientation_search,GHUM-L-P55205,Intel(R) UHD Graphics 630,2019_Jan_26_1136,testMonitor,
258.1,269.0,266.0,252.2,36,-10,259.4,262.2,266.0,277.4,7.789,7.997,8.088,8.086,7.628,7.76,8.494,4.848,-4.849,-8.449,1.665,-1.99,8.263,5.215,-4.358,-7.686,266.3,271.1,-8.397,268.5,265.2,262.7,287.7,261.4,36,270.1,2,5,prime,10,0,118,norm,36,-5.041,up,norm,267.727875211,283.0,279.6,,270.9,3,266.3,266.9,247.7,10,5,8.32,4.838,1.66,-1.587,-4.9,-8.444,281.3,5,385.7,-8.371,-8.076,-10,-8.321,-8.16,-4.436,-5.126,-4.965,-4.533,5.055,8.493,15,-2.005,1.103,4.929,7.908,-8.025,-8.122,-1.411,1.204,284.5,263.3,278.9,273.4,272.8,266.9,258.2,280.8,260.2,263.3,3,norm,1.806,1.526,-1.582,-1.451,-5.058,-4.544,-1.623,-1.198,-1.687,-1.149,1.751,-1.715,256.8,269.8,-5.094,-8.198,1.985,-1.142,7.949,4.454,-4.624,-7.994,6,4.929,5.088,4.717,4.492,2.054,1.559,1.19,1.238,6,5.138,4.657,-40,328.22406008,norm,0,24,24,24,409.138,409.147,409.1594696,409.16,409.161,409.163,up,1,1.33690389991,8.66309610009,001,329,1366_768,Intel(R) Core(TM) i7-8750H CPU @ 2.20GHz,orientation_search,GHUM-L-P55205,Intel(R) UHD Graphics 630,2019_Jan_26_1136,testMonitor,
261.0,247.7,274.6,251.7,36,-10,263.6,255.8,264.8,267.9,7.634,8.412,8.085,7.672,7.792,7.709,7.982,4.36,-4.618,-7.96,2.095,-1.19,8.361,4.894,-5.185,-8.207,271.0,269.6,-7.854,265.1,266.0,281.3,262.4,277.2,36,258.5,0,5,prime,10,0,107,norm,36,-4.831,down,norm,267.727875211,271.5,273.8,249.5,260.0,2,275.9,270.7,263.3,10,5,7.688,5.25,2.096,-1.29,-4.454,-8.103,271.2,5,374.7,-7.781,-7.602,-10,-7.705,-8.12,-4.602,-4.909,-4.429,-4.617,4.761,8.426,2,-1.555,1.855,4.482,7.929,-7.825,-8.212,-1.266,1.423,272.2,255.9,279.6,,287.4,265.3,287.7,282.9,268.1,273.9,4,norm,1.296,1.964,-1.356,-1.989,-4.765,-4.459,-1.84,-1.723,-2.008,-1.34,1.741,-2.029,277.0,277.9,-4.327,-7.932,1.518,-1.485,8.183,5.125,-4.418,-8.157,6,4.818,5.259,4.784,5.099,2.088,1.659,1.715,1.34,6,5.05,4.388,-40,328.22406008,norm,0,25,25,25,410.515,410.521,410.52956,410.53,410.531,410.533,down,1,3.71633600001,6.28366399999,001,329,1366_768,Intel(R) Core(TM) i7-8750H CPU @ 2.20GHz,orientation_search,GHUM-L-P55205,Intel(R) UHD Graphics 630,2019_Jan_26_1136,testMonitor,
330.1,339.3,333.4,331.1,36,-20,344.9,344.8,340.8,338.6,7.749,8.285,7.777,8.186,7.912,8.081,7.71,4.954,-5.174,-7.696,1.98,-1.355,7.505,5.265,-4.754,-8.348,336.9,338.3,-8.3,337.6,340.3,340.1,337.3,335.2,36,342.7,2,5,probe,5,0,78,norm,36,-4.734,down,norm,340.054412493,331.2,346.6,338.1,338.5,1,338.2,,338.2,10,5,8.023,4.985,1.495,-1.821,-4.683,-8.217,340.5,1,262.1,-8.051,-8.478,-10,-8.484,-7.527,-4.898,-5.084,-4.424,-4.37,4.388,7.615,13,-1.706,2.072,5.23,7.549,-7.769,-7.724,-2.067,1.87,350.1,342.7,338.1,342.7,340.1,336.4,337.7,332.8,337.6,337.6,0,norm,1.345,1.237,-1.947,-1.901,-4.884,-4.744,-1.787,-1.983,-1.294,-1.378,1.204,-1.466,339.6,341.8,-4.534,-8.395,1.625,-1.154,8.265,4.568,-4.867,-7.546,7,4.831,4.72,5.24,4.67,1.319,2.037,1.786,1.396,7,5.281,4.93,-10,267.727875211,norm,0,26,26,26,414.267,414.276,414.2928099,414.293,414.294,414.296,down,1,1.02002340008,8.97997659992,001,329,1366_768,Intel(R) Core(TM) i7-8750H CPU @ 2.20GHz,orientation_search,GHUM-L-P55205,Intel(R) UHD Graphics 630,2019_Jan_26_1136,testMonitor,
281.5,284.3,300.6,289.0,36,-60,295.9,,292.8,281.5,7.646,8.408,8.132,7.771,8.333,8.067,8.476,5.288,-4.381,-7.838,1.662,-1.314,7.891,5.184,-4.423,-8.018,287.9,287.2,-8.442,276.6,286.6,302.7,274.0,272.6,36,286.9,4,5,prime,10,0,83,norm,36,-4.5,down,norm,288.287002031,290.0,290.3,273.1,305.5,1,301.6,308.3,302.5,10,6,8.229,4.881,1.499,-1.869,-4.424,-8.091,303.4,6,371.3,-8.068,-8.063,-60,-7.684,-7.882,-4.623,-4.772,-4.337,-4.829,5.194,7.798,25,-1.154,1.587,4.527,7.564,-7.794,-8.01,-1.635,1.528,277.5,288.6,294.5,279.3,271.6,284.9,283.9,298.2,293.8,268.3,0,norm,2.002,1.459,-2.031,-1.655,-5.205,-4.984,-1.794,-1.762,-1.483,-1.156,1.933,-1.281,289.4,280.3,-5.186,-7.742,1.419,-2.013,8.435,4.571,-5.133,-8.447,8,4.519,4.699,4.541,4.667,2.031,1.571,1.599,1.86,8,4.631,4.846,-20,267.727875211,norm,0,27,27,27,415.331,415.338,415.3466657,415.347,415.349,415.35,down,1,2.53182000003,7.46817999997,001,329,1366_768,Intel(R) Core(TM) i7-8750H CPU @ 2.20GHz,orientation_search,GHUM-L-P55205,Intel(R) UHD Graphics 630,2019_Jan_26_1136,testMonitor,
278.5,281.7,291.6,272.8,36,-60,306.4,294.1,288.3,296.0,8.391,8.155,8.223,7.581,7.983,7.997,8.465,4.793,-4.823,-8.275,1.288,-1.608,8.441,4.758,-4.956,-7.822,285.8,270.4,-8.111,282.1,294.5,286.7,289.7,,36,293.5,4,5,prime,10,0,96,norm,36,-5.035,down,norm,288.287002031,284.8,305.3,295.9,308.3,2,288.4,281.2,276.6,10,6,7.614,5.059,1.598,-1.683,-4.353,-7.604,283.1,6,384.3,-7.632,-7.655,-60,-7.754,-7.818,-5.155,-4.809,-4.614,-4.851,4.886,7.595,26,-1.311,1.269,4.489,7.844,-8.094,-8.464,-1.619,1.762,275.9,304.0,291.8,282.4,297.5,271.5,289.5,277.5,271.6,287.1,1,norm,1.837,1.221,-1.265,-1.492,-4.804,-4.951,-1.17,-1.862,-1.238,-1.217,1.623,-2.079,268.3,305.5,-4.668,-7.994,1.486,-1.817,8.07,4.597,-5.271,-7.901,8,4.812,5.136,4.306,4.928,1.416,1.636,1.993,2.062,8,4.31,4.382,-20,267.727875211,norm,0,28,28,28,417.899,417.908,417.926413,417.927,417.928,417.929,down,1,2.57009439997,7.42990560003,001,329,1366_768,Intel(R) Core(TM) i7-8750H CPU @ 2.20GHz,orientation_search,GHUM-L-P55205,Intel(R) UHD Graphics 630,2019_Jan_26_1136,testMonitor,
294.5,298.2,279.1,268.3,36,-60,290.0,275.5,301.1,283.6,8.281,8.159,8.096,7.726,8.448,8.271,8.183,4.389,-4.956,-8.372,2.031,-1.719,8.129,5.004,-5.042,-7.92,277.1,295.3,-7.832,286.0,280.8,283.5,286.3,279.3,36,274.7,1,5,prime,10,0,77,norm,36,-4.849,up,norm,288.287002031,287.4,295.9,284.7,284.8,5,,269.5,295.5,10,6,7.842,4.404,2.056,-1.431,-4.443,-7.658,283.6,6,365.3,-8.0,-7.669,-60,-7.884,-7.804,-5.083,-4.45,-4.637,-4.863,4.402,7.91,11,-1.541,1.221,4.731,7.661,-7.841,-7.587,-1.866,1.496,297.5,285.5,291.0,289.4,279.7,283.5,297.1,286.6,303.3,281.9,2,norm,2.079,1.44,-1.248,-1.751,-5.271,-4.632,-1.897,-1.153,-2.085,-1.36,1.481,-1.773,280.1,280.4,-5.277,-7.766,1.617,-1.956,7.791,4.384,-4.549,-7.604,8,5.255,4.991,5.15,4.788,1.381,1.769,1.197,1.959,8,5.099,4.554,-20,267.727875211,norm,0,29,29,29,420.517,420.526,420.5431655,420.543,420.545,420.546,up,1,2.20366630005,7.79633369995,001,329,1366_768,Intel(R) Core(TM) i7-8750H CPU @ 2.20GHz,orientation_search,GHUM-L-P55205,Intel(R) UHD Graphics 630,2019_Jan_26_1136,testMonitor,
281.9,288.1,291.6,275.4,36,-60,290.6,290.1,285.5,286.6,8.362,8.153,7.709,8.146,7.722,7.773,7.873,5.206,-5.067,-7.971,1.684,-1.857,8.249,4.63,-4.303,-7.518,306.1,290.7,-8.057,283.7,300.8,286.7,268.3,281.1,36,,4,5,prime,10,0,77,norm,36,-5.233,up,norm,288.287002031,305.3,286.1,306.8,282.2,3,288.5,308.3,287.7,10,6,8.244,5.227,1.596,-1.898,-5.269,-7.874,269.9,6,365.3,-7.918,-7.831,-60,-8.399,-7.782,-5.063,-4.729,-5.064,-5.041,4.576,8.043,27,-1.259,1.841,4.955,7.692,-8.387,-7.833,-1.294,1.108,299.5,300.3,287.6,271.0,291.5,296.0,286.1,297.3,276.0,297.5,3,norm,1.417,1.778,-1.453,-1.261,-4.847,-4.617,-1.574,-2.055,-1.758,-1.516,2.003,-1.719,302.0,270.3,-5.166,-8.024,1.675,-1.409,7.668,5.249,-5.162,-8.049,8,4.915,5.288,5.252,4.623,1.461,1.1,1.959,1.451,8,4.85,4.459,-20,267.727875211,norm,0,30,30,30,422.767,422.774,422.7929968,422.793,422.794,422.796,up,1,2.5363257,7.4636743,001,329,1366_768,Intel(R) Core(TM) i7-8750H CPU @ 2.20GHz,orientation_search,GHUM-L-P55205,Intel(R) UHD Graphics 630,2019_Jan_26_1136,testMonitor,
276.7,287.6,274.7,296.7,36,-60,287.5,297.5,268.3,268.7,8.066,7.838,7.881,8.371,8.445,8.022,8.272,4.488,-5.156,-7.87,1.712,-1.793,7.894,5.051,-4.536,-7.88,284.2,281.0,-8.25,292.0,284.2,292.5,286.5,307.5,36,297.9,0,5,prime,10,0,102,norm,36,-5.116,up,norm,288.287002031,299.7,306.5,297.0,291.4,4,287.4,276.5,285.9,10,6,7.91,4.658,2.078,-1.858,-4.693,-8.466,286.8,6,390.3,-8.485,-8.242,-60,-7.848,-7.639,-4.586,-4.9,-4.825,-4.429,4.395,8.11,4,-2.015,1.85,4.546,7.505,-8.109,-8.389,-1.154,1.677,287.8,272.7,306.2,274.9,290.9,291.6,272.5,279.8,284.1,,4,norm,1.217,1.997,-1.728,-1.217,-4.412,-4.76,-1.982,-1.669,-1.378,-1.559,1.238,-1.322,286.9,308.3,-4.336,-8.287,1.363,-1.724,8.138,4.316,-4.851,-8.333,8,5.227,5.177,4.927,5.202,2.099,1.993,1.162,1.246,8,4.921,5.239,-20,267.727875211,norm,0,31,31,31,425.348,425.354,425.3631774,425.363,425.365,425.366,up,1,1.68245069997,8.31754930003,001,329,1366_768,Intel(R) Core(TM) i7-8750H CPU @ 2.20GHz,orientation_search,GHUM-L-P55205,Intel(R) UHD Graphics 630,2019_Jan_26_1136,testMonitor,
298.5,278.8,281.6,292.8,36,-60,285.9,277.6,294.0,290.6,8.005,8.117,8.228,7.754,8.111,7.95,8.004,4.88,-4.388,-7.596,1.628,-1.884,7.848,4.952,-4.607,-7.526,285.7,,-7.519,273.5,289.1,270.3,298.5,271.2,36,289.0,5,5,prime,10,0,83,norm,36,-4.365,up,norm,288.287002031,294.5,268.7,296.0,293.6,4,294.3,292.4,308.3,10,6,8.34,4.72,1.69,-1.993,-5.024,-7.866,282.7,6,371.3,-7.547,-8.431,-60,-8.493,-8.178,-4.522,-4.355,-4.549,-4.829,4.967,7.944,34,-1.933,1.893,4.507,7.714,-7.939,-7.958,-1.893,1.382,296.6,288.6,295.0,291.7,284.0,293.9,293.1,296.4,285.4,300.1,5,norm,1.163,1.737,-1.325,-1.594,-5.206,-4.494,-1.807,-1.398,-1.924,-1.613,1.556,-1.72,288.0,294.9,-5.252,-8.259,1.981,-1.423,8.293,5.164,-4.309,-7.72,8,4.815,4.773,4.535,5.238,1.16,1.914,1.346,1.468,8,5.102,4.647,-20,267.727875211,norm,0,32,32,32,427.067,427.076,427.0928101,427.093,427.094,427.096,up,1,2.40245079994,7.59754920006,001,329,1366_768,Intel(R) Core(TM) i7-8750H CPU @ 2.20GHz,orientation_search,GHUM-L-P55205,Intel(R) UHD Graphics 630,2019_Jan_26_1136,testMonitor,
301.4,306.1,292.6,301.9,36,-30,301.8,296.9,291.2,298.4,8.177,7.672,7.768,7.66,7.953,8.134,8.186,4.584,-4.8,-8.201,1.695,-1.451,8.092,4.877,-4.61,-8.367,298.1,295.0,-8.047,301.2,295.5,310.0,296.8,303.9,36,294.3,0,5,probe,5,0,78,norm,36,-4.584,down,norm,300.040650176,300.3,297.8,305.0,298.6,2,306.1,307.9,296.3,10,6,8.464,4.483,1.542,-1.831,-4.924,-7.781,295.6,1,222.0,-8.093,-7.741,-60,-7.513,-8.43,-4.885,-4.971,-4.647,-5.176,4.957,8.29,2,-2.017,1.76,5.009,8.221,-7.603,-8.213,-1.444,1.316,305.9,299.9,295.8,,298.7,294.6,297.4,303.7,290.0,303.1,0,norm,1.577,1.131,-1.32,-1.363,-5.031,-5.177,-1.191,-1.232,-1.866,-1.757,1.562,-1.445,299.5,298.0,-5.248,-8.192,1.32,-1.17,7.838,5.208,-4.332,-8.009,9,4.879,4.365,5.177,4.6,1.229,1.765,1.571,1.118,9,5.035,5.246,-60,288.287002031,norm,0,33,33,33,429.515,429.525,429.5429223,429.543,429.544,429.546,down,1,1.5347969,8.4652031,001,329,1366_768,Intel(R) Core(TM) i7-8750H CPU @ 2.20GHz,orientation_search,GHUM-L-P55205,Intel(R) UHD Graphics 630,2019_Jan_26_1136,testMonitor,
116.6,109.7,117.6,132.9,36,60,105.8,121.9,110.9,119.3,8.085,7.649,7.507,7.769,7.828,7.785,7.515,5.253,-5.006,-8.143,1.821,-1.963,7.993,4.586,-4.622,-8.063,110.5,115.2,-8.171,108.0,117.4,109.4,112.7,121.2,36,112.6,0,5,prime,10,0,102,norm,36,-4.772,down,norm,112.938733916,115.4,113.3,120.5,107.0,0,98.0,118.3,92.9,10,5,7.526,5.061,1.153,-1.179,-5.046,-7.859,115.2,5,214.9,-8.355,-8.052,60,-7.743,-7.728,-4.41,-5.278,-5.215,-4.429,5.098,8.094,0,-1.192,1.379,5.216,8.276,-7.533,-7.931,-1.604,1.109,105.6,107.6,114.1,119.8,117.3,,123.6,118.4,118.3,118.0,0,norm,1.573,1.577,-1.175,-1.112,-4.666,-4.355,-1.214,-1.32,-1.101,-1.6,1.987,-1.148,103.1,123.1,-4.309,-7.719,1.774,-1.456,8.3,5.135,-5.146,-7.573,10,4.381,4.769,4.901,4.546,1.817,1.704,1.591,1.592,10,4.454,4.412,-30,288.287002031,norm,0,34,34,34,431.097,431.103,431.1131189,431.113,431.115,431.116,down,1,0.933958100039,9.06604189996,001,329,1366_768,Intel(R) Core(TM) i7-8750H CPU @ 2.20GHz,orientation_search,GHUM-L-P55205,Intel(R) UHD Graphics 630,2019_Jan_26_1136,testMonitor,
92.9,94.3,107.2,119.5,36,60,105.8,115.7,98.7,120.4,7.911,8.416,8.02,8.49,7.9,7.968,8.091,5.172,-4.658,-7.655,2.083,-1.822,7.613,4.803,-5.173,-8.014,119.5,113.9,-7.718,105.1,104.4,,106.4,97.2,36,102.8,5,5,prime,10,0,106,norm,36,-4.464,up,norm,112.938733916,98.3,123.3,106.5,124.7,3,103.5,101.4,121.2,10,5,8.132,4.387,1.603,-1.419,-5.165,-7.573,132.9,5,218.9,-8.169,-8.141,60,-8.466,-8.226,-4.59,-4.968,-5.227,-5.171,4.407,7.604,33,-1.462,2.077,4.926,8.446,-7.938,-8.472,-1.924,1.702,127.7,110.9,118.2,109.9,107.1,116.4,127.7,120.8,110.0,117.8,1,norm,1.899,1.978,-1.924,-2.033,-4.927,-4.431,-1.986,-1.232,-2.097,-1.589,1.453,-1.638,121.0,108.4,-4.398,-7.714,1.313,-1.168,7.918,4.39,-4.501,-8.018,10,5.021,5.244,4.365,5.219,1.644,2.037,1.399,1.103,10,4.316,5.156,-30,288.287002031,norm,0,35,35,35,432.064,432.071,432.079852,432.08,432.081,432.083,up,1,0.950335600064,9.04966439994,001,329,1366_768,Intel(R) Core(TM) i7-8750H CPU @ 2.20GHz,orientation_search,GHUM-L-P55205,Intel(R) UHD Graphics 630,2019_Jan_26_1136,testMonitor,
126.9,110.5,98.3,121.5,36,60,114.4,105.1,115.2,106.7,7.873,7.671,7.709,8.277,7.607,7.626,8.499,4.608,-4.731,-8.062,1.68,-1.518,7.721,5.011,-4.378,-8.117,108.9,128.8,-8.12,94.9,102.7,124.7,118.0,119.6,36,132.9,0,5,prime,10,0,85,norm,36,-4.655,down,norm,112.938733916,111.4,107.8,109.0,119.5,2,113.9,111.1,114.7,10,5,7.73,4.368,1.717,-1.139,-5.024,-7.651,101.5,5,197.9,-8.264,-8.262,60,-7.557,-7.878,-4.863,-5.004,-4.412,-4.441,5.249,7.639,2,-1.153,2.088,5.134,7.501,-8.061,-7.826,-1.899,1.592,106.9,103.1,103.6,,125.0,115.5,114.8,92.9,107.5,118.1,2,norm,1.316,2.059,-2.073,-1.441,-5.182,-4.403,-1.321,-2.033,-2.058,-1.217,1.65,-1.736,120.1,108.3,-4.567,-8.382,1.581,-1.547,7.91,4.601,-4.756,-7.573,10,5.004,5.292,4.688,4.717,1.308,1.73,2.047,1.374,10,4.686,4.599,-30,288.287002031,norm,0,36,36,36,433.048,433.055,433.0631152,433.063,433.065,433.066,down,1,0.713999600033,9.28600039997,001,329,1366_768,Intel(R) Core(TM) i7-8750H CPU @ 2.20GHz,orientation_search,GHUM-L-P55205,Intel(R) UHD Graphics 630,2019_Jan_26_1136,testMonitor,
110.3,112.4,92.9,112.2,36,60,115.1,112.9,98.8,116.9,7.795,7.517,7.558,7.616,8.305,7.508,7.952,5.021,-5.173,-8.316,1.187,-2.061,7.7,4.437,-5.009,-8.382,117.9,111.2,-8.379,129.7,125.9,106.2,110.8,,36,116.2,4,5,prime,10,0,114,norm,36,-5.194,down,norm,112.938733916,130.7,105.0,94.1,124.8,2,111.0,128.6,109.2,10,5,7.818,5.224,1.345,-2.028,-5.248,-7.639,126.7,5,226.9,-7.618,-8.46,60,-7.893,-7.504,-5.227,-5.031,-4.782,-4.572,5.095,8.466,26,-1.862,2.012,5.272,8.287,-8.081,-8.294,-1.921,2.07,132.9,113.9,104.5,103.3,103.4,117.0,102.4,127.9,123.6,115.6,3,norm,1.678,1.103,-2.056,-1.5,-5.222,-4.356,-1.982,-1.78,-1.927,-1.543,1.404,-1.651,94.1,120.9,-4.38,-8.265,1.198,-1.8,7.597,4.505,-4.362,-7.558,10,4.839,4.415,4.386,4.925,1.561,1.767,2.044,1.481,10,4.412,4.755,-30,288.287002031,norm,0,37,37,37,433.796,433.803,433.8125425,433.813,433.814,433.816,down,1,0.883228999912,9.11677100009,001,329,1366_768,Intel(R) Core(TM) i7-8750H CPU @ 2.20GHz,orientation_search,GHUM-L-P55205,Intel(R) UHD Graphics 630,2019_Jan_26_1136,testMonitor,
109.0,115.4,125.4,103.5,36,60,114.7,102.6,119.9,110.8,7.79,7.991,7.741,8.389,7.515,8.092,7.712,4.787,-4.664,-7.709,1.78,-1.684,8.224,4.695,-5.14,-7.828,118.2,110.3,-7.979,119.3,110.9,,114.9,120.2,36,125.8,5,5,prime,10,0,88,norm,36,-4.747,up,norm,112.938733916,116.1,128.7,108.6,129.0,3,114.9,120.5,105.9,10,5,7.641,4.683,1.149,-1.378,-4.696,-8.232,127.0,5,200.9,-8.313,-8.212,60,-8.177,-7.571,-5.206,-4.388,-5.11,-4.325,4.37,8.401,33,-2.057,1.936,4.718,8.21,-7.977,-8.287,-2.032,1.689,104.9,123.2,113.0,127.4,124.4,101.9,129.7,115.3,119.1,92.9,4,norm,1.646,1.625,-1.832,-1.493,-4.835,-5.095,-1.15,-1.401,-1.497,-1.682,1.682,-1.407,132.9,113.5,-4.722,-7.804,1.442,-2.083,7.684,4.941,-4.675,-7.832,10,4.872,4.907,4.709,4.681,1.287,1.814,1.67,1.712,10,4.472,4.503,-30,288.287002031,norm,0,38,38,38,434.718,434.727,434.7427987,434.743,434.744,434.746,up,1,0.686442199978,9.31355780002,001,329,1366_768,Intel(R) Core(TM) i7-8750H CPU @ 2.20GHz,orientation_search,GHUM-L-P55205,Intel(R) UHD Graphics 630,2019_Jan_26_1136,testMonitor,
254.7,246.9,250.0,266.6,36,20,254.3,257.1,249.5,260.6,7.548,8.485,8.241,7.648,7.803,8.338,7.776,4.594,-4.463,-8.105,2.059,-1.776,7.806,4.898,-5.181,-7.9,,246.6,-8.248,249.8,261.3,255.0,251.1,253.9,36,257.8,5,5,probe,5,0,86,norm,36,-4.858,up,norm,256.55507711,259.6,257.5,256.3,258.3,5,262.0,260.5,258.4,10,5,8.401,5.116,1.893,-1.772,-5.158,-7.566,255.2,1,170.6,-7.542,-7.561,60,-7.623,-8.421,-5.232,-4.965,-5.268,-4.909,4.458,8.405,35,-2.078,1.74,4.993,8.255,-7.548,-7.701,-1.333,1.709,249.2,255.6,248.4,256.9,259.8,255.2,254.5,247.9,251.1,253.8,0,norm,1.703,1.622,-1.801,-1.558,-4.983,-4.991,-1.351,-1.616,-1.39,-1.353,1.136,-1.253,251.9,263.5,-4.952,-7.637,1.52,-1.791,8.387,4.575,-4.932,-7.848,11,5.111,4.396,5.285,4.778,2.02,1.261,2.031,1.5,11,4.479,5.043,60,112.938733916,norm,0,39,39,39,435.448,435.457,435.4640409,435.464,435.466,435.467,down,0,0.999071699916,-10,001,329,1366_768,Intel(R) Core(TM) i7-8750H CPU @ 2.20GHz,orientation_search,GHUM-L-P55205,Intel(R) UHD Graphics 630,2019_Jan_26_1136,testMonitor,
70.6,83.9,92.2,85.5,36,0,89.9,87.5,90.1,76.7,8.218,8.421,8.318,7.639,7.945,8.06,8.222,5.218,-4.346,-8.277,1.205,-1.339,8.488,5.063,-4.601,-8.025,91.8,75.8,-7.545,83.8,66.8,96.3,90.1,72.0,36,80.5,1,5,prime,10,0,116,norm,36,-5.274,down,norm,78.9697570759,85.0,77.5,60.2,72.7,0,99.0,88.0,87.5,10,6,7.973,4.419,1.578,-1.817,-4.874,-7.545,77.0,6,195.0,-7.802,-7.846,0,-8.082,-7.933,-5.154,-4.845,-5.095,-4.837,4.548,8.375,6,-1.974,1.854,5.25,7.975,-8.259,-8.391,-2.077,1.789,63.2,90.5,87.2,63.1,71.9,68.7,72.0,,59.0,76.6,0,norm,1.247,2.054,-1.982,-1.187,-5.096,-4.565,-1.627,-1.233,-1.719,-1.32,1.577,-1.805,77.7,91.4,-4.601,-8.407,1.917,-2.076,8.116,5.106,-4.471,-8.312,12,5.03,4.589,4.494,4.466,1.69,1.959,1.684,2.015,12,5.104,5.139,20,112.938733916,norm,0,40,40,40,437.499,437.505,437.5131791,437.513,437.515,437.516,up,0,6.04926140001,-10,001,329,1366_768,Intel(R) Core(TM) i7-8750H CPU @ 2.20GHz,orientation_search,GHUM-L-P55205,Intel(R) UHD Graphics 630,2019_Jan_26_1136,testMonitor,
67.0,94.2,87.8,78.3,36,0,80.6,73.2,72.2,73.7,7.61,7.508,7.879,8.28,7.92,7.508,7.887,4.308,-4.517,-8.003,2.015,-1.501,8.167,4.819,-4.389,-8.318,80.0,74.2,-7.599,70.5,72.4,79.1,59.0,72.0,36,71.4,3,5,prime,10,0,75,norm,36,-4.826,down,norm,78.9697570759,81.5,84.2,73.7,72.5,0,63.7,68.2,99.0,10,6,7.951,4.41,1.112,-2.084,-4.849,-8.147,78.1,6,154.0,-8.059,-7.937,0,-7.592,-8.261,-5.017,-5.263,-4.697,-5.263,4.386,7.581,18,-1.866,2.002,4.983,8.411,-7.973,-8.246,-1.177,1.517,95.1,74.1,89.8,60.1,88.0,62.3,84.7,84.1,63.5,95.2,1,norm,1.486,1.438,-1.232,-1.428,-4.976,-4.561,-2.02,-2.049,-2.086,-1.979,2.039,-1.393,64.4,,-4.984,-8.392,1.762,-1.285,8.062,4.567,-4.977,-8.307,12,4.81,4.953,5.13,4.988,1.148,1.107,1.882,1.912,12,4.551,4.888,20,112.938733916,norm,0,41,41,41,444.6,444.607,444.6134156,444.614,444.615,444.616,down,1,2.93210470001,7.06789529999,001,329,1366_768,Intel(R) Core(TM) i7-8750H CPU @ 2.20GHz,orientation_search,GHUM-L-P55205,Intel(R) UHD Graphics 630,2019_Jan_26_1136,testMonitor,
,86.2,70.2,95.0,36,0,69.4,74.7,80.2,63.3,8.057,8.02,8.383,7.895,8.47,7.945,7.916,4.302,-4.943,-7.866,1.947,-2.044,8.235,4.479,-4.85,-7.515,86.1,85.6,-8.369,99.0,77.2,69.2,92.8,85.3,36,71.5,3,5,prime,10,0,116,norm,36,-4.794,up,norm,78.9697570759,81.9,64.6,72.5,94.7,4,74.4,73.8,92.3,10,6,7.631,4.768,1.575,-1.344,-4.61,-8.039,88.9,6,195.0,-8.257,-7.539,0,-7.524,-8.013,-4.929,-4.606,-4.679,-4.402,4.714,7.564,22,-1.688,1.825,4.437,8.139,-7.711,-8.052,-1.949,1.108,76.5,92.6,80.0,73.3,93.8,59.0,78.8,81.9,97.2,68.9,2,norm,1.515,1.789,-1.903,-1.834,-4.91,-4.381,-1.451,-1.905,-1.947,-1.92,1.227,-2.057,80.5,93.2,-4.892,-8.187,1.315,-1.566,7.586,4.316,-5.051,-8.389,12,5.232,5.161,5.232,5.164,1.671,1.176,1.282,1.179,12,4.5,4.509,20,112.938733916,norm,0,42,42,42,447.565,447.574,447.5927494,447.593,447.594,447.596,up,1,4.3878113,5.6121887,001,329,1366_768,Intel(R) Core(TM) i7-8750H CPU @ 2.20GHz,orientation_search,GHUM-L-P55205,Intel(R) UHD Graphics 630,2019_Jan_26_1136,testMonitor,
71.0,81.9,77.7,70.2,36,0,94.0,81.7,94.8,87.2,7.704,8.42,8.002,8.335,8.106,7.677,8.244,4.939,-4.372,-8.071,1.618,-1.558,7.611,4.437,-4.461,-7.925,92.5,59.0,-8.387,89.5,66.4,90.2,63.8,89.9,36,76.6,2,5,prime,10,0,93,norm,36,-4.696,down,norm,78.9697570759,78.2,76.2,99.0,94.3,0,87.5,80.1,,10,6,7.75,4.76,1.289,-1.124,-4.431,-7.695,82.7,6,172.0,-7.631,-7.639,0,-7.934,-8.414,-4.545,-5.126,-4.893,-4.74,4.894,8.311,12,-1.672,1.872,5.047,7.942,-7.651,-8.031,-1.454,1.787,71.1,75.8,75.8,80.3,76.5,91.1,76.8,67.9,83.7,82.3,3,norm,2.001,2.064,-1.911,-1.748,-4.492,-5.122,-1.764,-1.119,-1.337,-1.172,1.219,-1.257,81.2,66.1,-4.825,-7.808,1.778,-1.4,8.036,4.746,-5.189,-8.168,12,4.988,4.748,5.077,4.879,1.39,1.465,1.517,1.761,12,4.915,4.799,20,112.938733916,norm,0,43,43,43,452.005,452.014,452.0260127,452.026,452.027,452.029,down,1,4.87104500004,5.12895499996,001,329,1366_768,Intel(R) Core(TM) i7-8750H CPU @ 2.20GHz,orientation_search,GHUM-L-P55205,Intel(R) UHD Graphics 630,2019_Jan_26_1136,testMonitor,
85.7,79.6,75.8,92.5,36,0,78.1,70.1,95.0,82.1,7.59,8.471,7.876,7.567,8.286,7.699,8.076,5.161,-4.55,-7.994,1.639,-1.291,8.203,4.76,-4.535,-8.309,68.6,85.3,-7.796,76.9,80.0,86.6,79.4,98.0,36,79.3,0,5,prime,10,0,75,norm,36,-4.437,down,norm,78.9697570759,78.8,90.8,79.1,72.8,0,67.2,69.7,68.5,10,6,8.403,4.751,1.95,-1.297,-4.584,-7.975,89.7,6,154.0,-7.644,-7.736,0,-7.532,-7.689,-4.716,-4.716,-5.099,-5.17,5.126,7.889,0,-1.865,1.335,4.892,7.953,-7.659,-7.967,-1.745,2.07,81.9,99.0,90.8,70.3,73.8,,76.7,72.7,87.7,81.3,4,norm,1.147,1.334,-1.761,-1.617,-4.679,-5.233,-1.525,-2.043,-1.762,-1.648,1.675,-2.1,60.1,79.8,-4.733,-7.791,1.125,-1.382,7.691,4.482,-4.593,-7.826,12,4.755,4.305,4.475,5.186,1.923,1.559,1.497,1.587,12,4.409,4.374,20,112.938733916,norm,0,44,44,44,456.92,456.93,456.9428679,456.943,456.944,456.946,down,1,5.96927390003,4.03072609997,001,329,1366_768,Intel(R) Core(TM) i7-8750H CPU @ 2.20GHz,orientation_search,GHUM-L-P55205,Intel(R) UHD Graphics 630,2019_Jan_26_1136,testMonitor,
66.6,59.0,87.0,71.9,36,0,78.2,88.2,77.0,75.6,7.597,7.865,7.915,8.134,8.405,8.253,7.637,5.282,-5.26,-7.973,1.391,-1.743,8.15,4.745,-4.641,-7.62,76.3,66.7,-8.06,76.6,83.2,79.5,76.6,85.8,36,65.5,1,5,prime,10,0,83,norm,36,-4.609,up,norm,78.9697570759,87.5,75.0,81.9,68.9,5,,82.4,72.2,10,6,8.0,5.241,1.12,-1.355,-4.958,-8.47,82.0,6,162.0,-8.268,-7.887,0,-7.913,-7.592,-4.76,-4.786,-4.694,-4.793,4.594,7.552,11,-1.459,1.506,4.352,8.088,-8.079,-8.216,-1.433,1.666,88.3,78.7,88.9,95.0,78.2,74.0,68.7,90.2,99.0,77.5,5,norm,1.205,1.242,-2.017,-1.329,-4.458,-5.166,-1.109,-1.386,-1.453,-1.587,1.432,-1.989,73.9,75.3,-4.535,-7.717,1.887,-1.85,7.747,4.722,-5.269,-8.258,12,4.556,5.06,4.584,4.366,2.034,1.744,1.822,1.249,12,5.062,4.674,20,112.938733916,norm,0,45,45,45,462.932,462.941,462.959788,462.96,462.961,462.963,up,1,2.90297449997,7.09702550003,001,329,1366_768,Intel(R) Core(TM) i7-8750H CPU @ 2.20GHz,orientation_search,GHUM-L-P55205,Intel(R) UHD Graphics 630,2019_Jan_26_1136,testMonitor,
156.5,172.7,165.5,176.5,36,30,162.8,157.8,164.2,162.4,8.099,8.108,7.558,8.275,8.492,8.277,8.112,4.725,-4.957,-8.459,1.723,-1.134,7.791,4.962,-4.522,-7.729,161.1,163.3,-7.517,164.3,166.6,173.9,165.9,163.9,36,169.0,0,5,probe,5,0,84,norm,36,-4.634,up,norm,166.516819583,159.3,162.5,174.0,170.9,4,166.3,162.3,160.0,10,6,7.563,5.188,1.891,-1.524,-4.722,-7.605,157.0,2,82.5,-7.86,-8.022,0,-8.013,-8.25,-5.141,-5.277,-5.031,-4.397,4.639,7.749,4,-1.333,1.347,5.116,7.743,-8.291,-7.574,-1.215,1.479,165.9,163.8,168.8,167.3,164.4,168.6,161.5,163.7,165.5,,0,norm,1.757,1.497,-1.83,-1.219,-4.461,-4.961,-1.941,-1.145,-1.825,-1.877,1.104,-1.885,166.9,165.7,-4.933,-8.196,1.482,-1.573,7.675,4.424,-4.577,-7.616,13,4.491,4.814,4.727,4.811,1.991,1.539,1.311,1.26,13,4.721,4.348,0,78.9697570759,norm,0,46,46,46,465.884,465.892,465.9094147,465.91,465.911,465.913,up,1,2.26980690006,7.73019309994,001,329,1366_768,Intel(R) Core(TM) i7-8750H CPU @ 2.20GHz,orientation_search,GHUM-L-P55205,Intel(R) UHD Graphics 630,2019_Jan_26_1136,testMonitor,
142.0,139.5,153.1,,36,30,144.9,145.9,158.0,152.2,8.085,8.498,8.408,8.069,8.396,8.11,7.53,4.376,-4.332,-7.952,1.853,-1.942,8.396,5.29,-5.212,-7.938,145.6,152.3,-7.653,153.2,142.5,148.0,148.1,149.1,36,151.0,3,5,probe,5,0,67,norm,36,-4.637,up,norm,149.516819583,148.4,150.6,159.5,152.2,3,153.6,159.4,145.1,10,6,7.836,5.149,1.879,-1.822,-5.082,-7.782,154.4,2,82.5,-7.894,-7.539,0,-7.588,-7.856,-4.54,-5.006,-5.292,-4.364,4.878,8.307,21,-2.028,1.478,4.91,7.929,-7.851,-8.34,-2.094,1.833,152.4,153.2,155.4,149.2,151.6,150.0,151.4,147.7,150.8,150.9,1,norm,1.418,1.539,-1.687,-1.264,-4.951,-4.678,-1.152,-1.824,-1.821,-2.062,1.369,-1.554,149.0,156.9,-5.121,-7.775,1.141,-1.104,8.142,4.697,-4.407,-8.486,13,4.454,4.526,4.32,4.48,1.719,1.735,1.702,1.712,13,4.662,5.025,0,78.9697570759,norm,0,47,47,47,468.201,468.211,468.2265973,468.227,468.228,468.23,up,1,1.20236270002,8.79763729998,001,329,1366_768,Intel(R) Core(TM) i7-8750H CPU @ 2.20GHz,orientation_search,GHUM-L-P55205,Intel(R) UHD Graphics 630,2019_Jan_26_1136,testMonitor,
69.5,76.1,80.6,89.7,36,-40,69.2,79.1,90.7,82.3,7.515,8.09,8.46,8.188,8.429,8.354,7.969,4.69,-5.118,-8.332,1.729,-1.84,8.112,4.431,-5.128,-7.825,75.8,76.7,-7.981,69.6,68.6,70.8,73.6,66.4,36,75.0,2,5,prime,10,0,63,norm,36,-4.944,down,norm,76.1837384799,72.3,71.7,88.9,,2,76.1,75.4,96.2,10,6,8.383,4.633,1.711,-1.605,-4.585,-7.959,61.2,6,139.2,-7.919,-7.641,-40,-7.855,-7.861,-4.771,-4.496,-4.368,-4.741,5.098,7.734,14,-1.186,1.335,4.874,7.741,-7.842,-7.624,-2.081,1.762,56.2,80.4,79.8,68.8,72.0,79.9,86.6,75.2,81.4,91.0,0,norm,2.086,2.019,-2.042,-1.988,-4.887,-5.035,-1.737,-1.527,-1.279,-1.342,2.059,-1.26,75.7,78.3,-4.437,-7.789,1.401,-1.294,8.347,5.185,-4.902,-7.541,14,4.909,4.435,5.262,5.021,1.755,1.34,1.124,1.728,14,4.547,5.008,30,78.9697570759,norm,0,48,48,48,469.448,469.457,469.4628638,469.463,469.464,469.466,down,1,1.1659558001,8.8340441999,001,329,1366_768,Intel(R) Core(TM) i7-8750H CPU @ 2.20GHz,orientation_search,GHUM-L-P55205,Intel(R) UHD Graphics 630,2019_Jan_26_1136,testMonitor,
68.6,84.9,80.1,84.9,36,-40,87.6,65.3,71.8,88.2,7.823,7.983,7.542,8.245,8.437,7.756,7.65,4.754,-5.081,-7.63,1.991,-2.041,7.657,4.352,-5.265,-8.309,79.9,71.8,-7.62,,93.7,61.9,65.4,72.9,36,80.4,5,5,prime,10,0,73,norm,36,-4.567,down,norm,76.1837384799,92.2,67.6,72.7,61.5,1,72.3,76.5,81.1,10,6,8.094,4.544,1.956,-2.052,-4.853,-7.642,96.2,6,149.2,-7.97,-8.186,-40,-7.864,-8.353,-5.192,-4.619,-4.862,-5.101,4.911,7.648,31,-1.983,1.312,4.887,7.686,-7.676,-8.107,-2.06,1.294,76.9,56.2,88.8,87.2,78.8,68.3,77.3,83.5,76.6,82.1,1,norm,1.549,1.683,-1.337,-1.821,-4.44,-4.495,-1.421,-1.823,-1.43,-1.455,1.266,-1.136,71.6,65.3,-5.209,-8.066,1.839,-1.289,7.786,4.903,-5.25,-8.373,14,5.064,4.875,5.08,4.493,2.042,1.416,1.723,1.645,14,4.89,4.312,30,78.9697570759,norm,0,49,49,49,470.649,470.657,470.6763809,470.677,470.678,470.679,down,1,5.00282609998,4.99717390002,001,329,1366_768,Intel(R) Core(TM) i7-8750H CPU @ 2.20GHz,orientation_search,GHUM-L-P55205,Intel(R) UHD Graphics 630,2019_Jan_26_1136,testMonitor,
68.8,,73.2,79.9,36,-40,75.8,74.2,77.6,90.3,8.353,8.401,8.328,7.685,7.626,8.075,8.46,4.654,-4.494,-8.369,2.081,-1.275,8.357,5.074,-4.585,-7.598,65.0,93.0,-8.257,79.5,85.6,68.2,82.4,64.7,36,58.4,3,5,prime,10,0,119,norm,36,-4.383,up,norm,76.1837384799,70.6,80.2,77.4,76.6,5,67.0,57.3,86.8,10,6,7.683,5.097,1.248,-1.413,-4.448,-7.543,78.9,6,195.2,-7.647,-7.51,-40,-7.553,-7.835,-4.958,-5.045,-4.766,-4.511,5.216,7.896,23,-1.851,1.432,4.422,8.279,-8.192,-8.19,-1.58,1.841,69.5,76.9,83.7,68.6,82.7,96.2,56.2,62.4,91.3,81.6,2,norm,1.752,1.626,-1.179,-1.923,-4.354,-4.441,-1.84,-1.816,-2.055,-1.9,1.294,-1.924,65.1,71.1,-4.621,-7.549,2.02,-1.764,7.527,4.718,-4.568,-8.077,14,4.507,5.219,5.102,5.089,2.02,1.986,1.246,1.43,14,5.148,5.243,30,78.9697570759,norm,0,50,50,50,475.701,475.708,475.726278,475.726,475.728,475.729,up,1,2.75220930006,7.24779069994,001,329,1366_768,Intel(R) Core(TM) i7-8750H CPU @ 2.20GHz,orientation_search,GHUM-L-P55205,Intel(R) UHD Graphics 630,2019_Jan_26_1136,testMonitor,
83.8,84.3,,72.5,36,-40,56.2,90.5,68.4,70.8,7.572,7.731,7.754,7.806,8.358,8.152,8.434,5.077,-4.98,-7.895,1.993,-1.687,7.687,4.812,-4.385,-7.624,77.8,65.4,-8.411,83.2,75.9,57.4,77.1,77.7,36,71.0,3,5,prime,10,0,89,norm,36,-4.716,down,norm,76.1837384799,73.0,80.1,65.1,63.4,2,76.1,93.1,80.1,10,6,8.177,4.718,1.374,-1.587,-5.278,-8.203,89.8,6,165.2,-7.661,-7.663,-40,-8.13,-7.558,-4.745,-4.574,-5.097,-5.062,4.677,8.223,20,-1.299,2.002,4.513,7.941,-8.092,-7.882,-1.314,1.619,86.4,63.3,60.4,66.6,83.4,73.2,94.5,61.7,96.2,80.4,3,norm,1.845,1.117,-1.215,-1.877,-4.79,-4.536,-1.495,-1.574,-1.679,-1.732,1.558,-1.914,86.9,68.5,-4.916,-7.544,1.36,-1.207,7.685,4.412,-4.391,-7.78,14,4.52,4.689,4.717,5.006,1.439,1.803,1.989,1.667,14,4.694,5.21,30,78.9697570759,norm,0,51,51,51,478.498,478.506,478.5134466,478.514,478.515,478.517,down,1,2.68244999996,7.31755000004,001,329,1366_768,Intel(R) Core(TM) i7-8750H CPU @ 2.20GHz,orientation_search,GHUM-L-P55205,Intel(R) UHD Graphics 630,2019_Jan_26_1136,testMonitor,
76.0,81.4,64.4,83.9,36,-40,80.8,76.3,73.4,71.3,7.504,7.515,8.482,7.837,7.657,7.78,7.556,4.633,-4.69,-7.939,1.777,-1.808,7.588,5.157,-4.438,-8.085,96.2,72.2,-8.391,74.4,77.6,80.9,89.8,87.0,36,56.2,0,5,prime,10,0,60,norm,36,-4.663,down,norm,76.1837384799,60.8,75.5,66.5,77.6,1,84.4,79.1,68.8,10,6,8.333,4.875,1.263,-1.544,-4.39,-8.314,76.9,6,136.2,-7.619,-8.439,-40,-7.545,-8.459,-4.598,-4.674,-4.31,-4.566,4.54,7.86,1,-1.873,1.737,4.323,8.079,-7.619,-8.0,-1.199,1.399,82.8,77.6,75.9,83.2,,78.3,86.3,75.8,76.2,67.3,4,norm,1.308,1.599,-1.764,-1.933,-5.259,-5.273,-2.01,-1.346,-1.423,-1.677,1.337,-2.086,78.8,69.7,-4.963,-7.95,1.107,-1.388,7.727,5.188,-4.793,-8.395,14,4.482,4.341,4.955,4.776,1.325,2.095,1.384,1.395,14,4.789,4.517,30,78.9697570759,norm,0,52,52,52,481.217,481.226,481.2430788,481.243,481.245,481.246,down,1,2.62044020009,7.37955979991,001,329,1366_768,Intel(R) Core(TM) i7-8750H CPU @ 2.20GHz,orientation_search,GHUM-L-P55205,Intel(R) UHD Graphics 630,2019_Jan_26_1136,testMonitor,
88.8,73.2,76.1,76.4,36,-40,85.7,87.5,77.4,71.5,8.459,8.456,8.105,8.016,7.538,8.492,8.16,4.321,-4.867,-7.633,1.928,-1.966,7.699,4.783,-4.597,-8.18,59.2,76.4,-7.865,74.7,83.3,68.3,81.7,94.8,36,63.1,2,5,prime,10,0,76,norm,36,-4.749,down,norm,76.1837384799,81.4,80.8,74.5,69.4,0,96.2,78.4,,10,6,8.007,4.832,1.823,-1.519,-5.296,-8.45,70.9,6,152.2,-8.013,-8.372,-40,-7.879,-7.596,-4.957,-4.388,-5.061,-5.216,4.481,7.63,12,-1.637,1.893,4.72,8.283,-8.308,-7.817,-1.481,1.851,84.3,72.8,73.2,74.8,60.8,80.6,84.8,76.2,83.1,86.6,5,norm,1.434,1.446,-1.822,-1.443,-5.029,-4.73,-2.065,-1.885,-1.512,-1.89,1.659,-1.767,56.2,93.2,-4.679,-8.129,1.709,-2.052,7.876,4.903,-4.454,-8.384,14,4.67,4.8,5.239,5.119,1.848,1.397,1.924,1.288,14,4.695,5.071,30,78.9697570759,norm,0,53,53,53,483.886,483.895,483.9099059,483.91,483.911,483.913,down,1,2.21990460006,7.78009539994,001,329,1366_768,Intel(R) Core(TM) i7-8750H CPU @ 2.20GHz,orientation_search,GHUM-L-P55205,Intel(R) UHD Graphics 630,2019_Jan_26_1136,testMonitor,
109.0,109.6,110.4,108.9,36,80,106.5,108.6,104.7,113.4,8.239,8.293,7.817,7.717,7.892,8.46,8.131,4.742,-4.423,-8.424,1.824,-1.227,8.306,4.879,-4.409,-7.877,116.0,101.9,-7.79,115.9,121.2,105.6,113.8,114.2,36,107.1,2,5,probe,5,0,83,norm,36,-4.498,up,norm,111.875595184,116.6,112.9,,111.6,3,116.6,106.4,108.2,10,6,8.015,5.166,1.694,-1.393,-5.012,-8.444,116.3,1,28.9,-8.361,-7.98,-40,-8.362,-7.875,-4.837,-4.749,-5.1,-4.56,5.067,7.812,15,-1.897,2.093,4.919,8.209,-7.662,-7.885,-1.188,1.86,113.3,108.4,110.5,108.9,121.9,110.8,120.1,107.5,111.5,110.8,0,norm,1.928,1.432,-1.465,-1.804,-4.622,-5.254,-1.446,-1.787,-1.785,-2.06,1.248,-1.971,106.9,109.3,-5.231,-8.336,1.205,-2.08,8.497,5.091,-4.367,-8.205,15,5.069,5.286,4.476,4.466,1.61,1.564,1.565,1.998,15,4.456,5.257,-40,76.1837384799,norm,0,54,54,54,486.152,486.161,486.1765189,486.177,486.178,486.18,up,1,0.936119900085,9.06388009991,001,329,1366_768,Intel(R) Core(TM) i7-8750H CPU @ 2.20GHz,orientation_search,GHUM-L-P55205,Intel(R) UHD Graphics 630,2019_Jan_26_1136,testMonitor,
,73.0,69.9,82.7,36,-30,49.9,70.6,70.5,68.6,7.594,8.118,8.45,7.654,8.128,8.441,8.228,4.778,-5.206,-8.355,1.535,-1.907,8.047,4.674,-5.224,-8.279,72.7,76.7,-8.017,58.1,80.7,75.4,71.2,60.9,36,66.1,3,5,prime,10,0,79,norm,36,-4.569,up,norm,67.767332465,65.8,62.3,87.8,52.0,4,56.8,67.5,57.9,10,6,8.364,4.924,1.269,-1.232,-4.347,-7.532,70.8,6,146.8,-8.177,-7.62,-30,-7.917,-8.318,-4.632,-4.905,-5.197,-4.544,5.007,7.845,22,-1.769,1.723,4.977,8.492,-7.898,-8.257,-1.175,1.808,47.8,75.4,67.8,73.1,81.7,70.5,70.2,61.3,59.1,72.4,0,norm,1.543,1.714,-1.644,-2.074,-4.944,-5.026,-1.287,-1.811,-1.768,-1.707,1.39,-1.626,69.3,72.3,-4.902,-8.007,1.301,-1.382,7.733,4.947,-5.055,-8.334,16,4.494,4.465,4.991,4.905,1.83,1.802,1.305,1.991,16,5.243,4.662,80,76.1837384799,norm,0,55,55,55,487.134,487.143,487.1598434,487.16,487.161,487.163,up,1,2.0038377,7.9961623,001,329,1366_768,Intel(R) Core(TM) i7-8750H CPU @ 2.20GHz,orientation_search,GHUM-L-P55205,Intel(R) UHD Graphics 630,2019_Jan_26_1136,testMonitor,
65.9,78.9,67.4,70.3,36,-30,69.9,73.8,76.3,72.4,7.664,8.309,8.258,8.007,8.387,7.605,8.384,5.185,-4.908,-8.175,1.572,-1.56,7.707,4.856,-4.862,-7.724,76.5,66.0,-8.092,54.9,68.0,59.8,62.8,58.1,36,59.5,2,5,prime,10,0,86,norm,36,-5.167,up,norm,67.767332465,73.0,,82.0,66.9,4,49.5,80.5,75.6,10,6,7.521,5.105,1.31,-1.558,-4.74,-8.488,47.8,6,153.8,-7.617,-8.259,-30,-7.634,-8.021,-4.827,-4.725,-4.988,-5.024,4.514,7.83,16,-2.028,1.967,5.272,8.213,-7.52,-8.298,-1.657,1.523,56.4,83.5,66.8,75.3,60.8,78.1,68.0,68.2,77.5,87.8,1,norm,1.623,1.838,-1.855,-1.68,-5.21,-4.88,-1.698,-2.037,-1.454,-1.808,1.655,-1.375,74.5,69.9,-5.144,-7.523,1.798,-1.575,8.004,5.138,-5.243,-8.084,16,5.048,4.611,4.631,4.734,1.869,1.864,1.608,2.046,16,5.11,4.38,80,76.1837384799,norm,0,56,56,56,489.186,489.195,489.210069,489.21,489.212,489.213,up,1,1.53586990002,8.46413009998,001,329,1366_768,Intel(R) Core(TM) i7-8750H CPU @ 2.20GHz,orientation_search,GHUM-L-P55205,Intel(R) UHD Graphics 630,2019_Jan_26_1136,testMonitor,
75.3,70.7,56.7,57.9,36,-30,47.8,79.7,68.5,66.7,8.349,7.844,7.642,7.816,7.597,8.452,8.201,4.314,-5.009,-8.414,1.473,-1.551,8.186,4.898,-4.802,-8.406,62.9,,-7.95,60.1,54.8,78.9,71.6,61.2,36,69.1,5,5,prime,10,0,111,norm,36,-4.372,up,norm,67.767332465,60.5,78.2,55.5,76.2,4,58.2,69.0,52.1,10,6,7.903,4.307,2.063,-1.791,-4.65,-7.855,79.1,6,178.8,-8.009,-7.612,-30,-7.555,-7.572,-4.607,-5.259,-4.37,-4.517,4.306,8.416,34,-1.475,1.546,4.354,7.811,-8.442,-7.511,-1.958,1.287,73.9,73.0,68.8,87.8,71.2,68.6,67.2,64.6,66.0,57.2,2,norm,1.23,1.581,-1.623,-1.503,-4.515,-4.846,-1.747,-2.091,-1.171,-1.547,1.457,-1.4,73.3,69.0,-4.771,-7.594,1.298,-1.346,8.048,4.89,-4.781,-7.968,16,4.331,4.428,4.329,4.798,2.052,1.457,1.469,1.5,16,5.293,5.081,80,76.1837384799,norm,0,57,57,57,490.768,490.776,490.7929004,490.793,490.794,490.796,up,1,1.35256929998,8.64743070002,001,329,1366_768,Intel(R) Core(TM) i7-8750H CPU @ 2.20GHz,orientation_search,GHUM-L-P55205,Intel(R) UHD Graphics 630,2019_Jan_26_1136,testMonitor,
77.7,64.1,67.9,63.6,36,-30,51.1,63.8,66.8,50.0,7.857,7.557,7.563,7.543,7.636,7.957,8.014,4.887,-4.358,-7.767,1.346,-1.944,7.977,5.294,-4.743,-7.997,76.4,77.7,-7.945,80.9,81.4,56.3,73.8,80.7,36,74.9,1,5,prime,10,0,98,norm,36,-4.462,up,norm,67.767332465,52.5,70.6,73.1,57.9,5,,71.6,60.6,10,6,7.646,5.02,1.198,-1.619,-4.436,-7.99,49.3,6,165.8,-8.237,-8.275,-30,-7.526,-8.431,-5.071,-4.33,-5.275,-4.923,4.505,8.321,11,-1.389,1.233,4.367,8.425,-8.253,-8.246,-1.966,1.593,73.6,71.1,71.3,85.1,83.3,47.8,84.6,87.8,70.7,53.4,3,norm,1.385,1.339,-1.869,-1.781,-5.162,-5.131,-1.997,-2.02,-1.955,-1.957,1.539,-1.717,83.0,71.8,-4.709,-7.653,1.525,-1.703,8.271,4.835,-5.204,-7.771,16,5.109,4.926,4.784,5.064,1.428,1.181,1.941,1.212,16,4.896,4.556,80,76.1837384799,norm,0,58,58,58,492.167,492.175,492.1930328,492.193,492.195,492.196,up,1,2.28537499998,7.71462500002,001,329,1366_768,Intel(R) Core(TM) i7-8750H CPU @ 2.20GHz,orientation_search,GHUM-L-P55205,Intel(R) UHD Graphics 630,2019_Jan_26_1136,testMonitor,
71.7,65.2,73.2,57.3,36,-30,49.6,52.5,65.4,78.5,8.38,7.653,7.877,8.446,8.189,8.416,7.774,5.009,-5.044,-7.699,1.651,-2.073,7.617,5.07,-4.838,-8.258,75.3,68.3,-8.482,61.5,86.2,70.0,67.4,69.4,36,47.8,2,5,prime,10,0,62,norm,36,-5.136,up,norm,67.767332465,74.0,78.7,,76.6,3,71.9,61.1,65.1,10,6,8.086,5.15,1.372,-1.489,-5.264,-8.227,87.8,6,129.8,-8.396,-7.675,-30,-7.679,-7.645,-4.95,-4.418,-4.922,-4.757,4.607,8.261,15,-1.493,2.0,5.245,7.883,-8.141,-7.536,-1.199,1.734,63.7,69.8,60.8,60.3,63.5,67.1,65.3,80.8,57.6,61.8,4,norm,1.219,2.079,-1.596,-1.307,-4.557,-4.838,-2.019,-1.286,-1.845,-1.648,1.291,-1.197,74.2,81.9,-5.023,-8.279,1.894,-2.013,7.872,4.557,-5.081,-7.857,16,5.101,4.348,5.039,4.352,1.258,1.767,1.117,1.644,16,4.666,4.555,80,76.1837384799,norm,0,59,59,59,494.497,494.504,494.5130764,494.513,494.515,494.516,up,1,1.31619110005,8.68380889995,001,329,1366_768,Intel(R) Core(TM) i7-8750H CPU @ 2.20GHz,orientation_search,GHUM-L-P55205,Intel(R) UHD Graphics 630,2019_Jan_26_1136,testMonitor,
87.3,75.7,84.7,57.9,36,-30,53.0,47.8,64.7,78.3,7.573,7.839,8.013,8.136,8.468,8.308,7.674,4.518,-5.146,-8.235,1.905,-1.244,7.976,4.818,-4.69,-8.083,76.4,59.5,-8.281,69.4,79.3,77.6,70.2,,36,72.1,4,5,prime,10,0,104,norm,36,-5.077,down,norm,67.767332465,74.2,71.7,53.7,87.8,2,62.4,64.9,67.5,10,6,8.46,4.895,1.516,-2.06,-4.809,-7.794,56.6,6,171.8,-7.839,-8.08,-30,-8.388,-8.167,-4.975,-4.323,-4.675,-4.927,4.719,8.429,26,-1.412,1.552,5.226,7.838,-8.063,-8.012,-1.571,1.304,74.3,66.2,63.9,58.6,77.4,73.1,70.0,73.5,65.5,81.0,5,norm,1.692,1.734,-1.311,-1.438,-4.391,-4.913,-1.14,-1.956,-1.735,-1.995,1.344,-1.964,78.8,69.8,-4.321,-7.786,1.557,-1.362,7.681,4.922,-4.894,-8.044,16,5.133,4.873,4.533,4.627,1.489,1.113,1.332,1.311,16,5.198,4.303,80,76.1837384799,norm,0,60,60,60,495.85,495.858,495.876662,495.877,495.878,495.88,down,1,1.80274660001,8.19725339999,001,329,1366_768,Intel(R) Core(TM) i7-8750H CPU @ 2.20GHz,orientation_search,GHUM-L-P55205,Intel(R) UHD Graphics 630,2019_Jan_26_1136,testMonitor,
91.6,92.5,85.1,100.6,36,80,100.9,98.8,89.9,96.2,7.666,7.824,7.882,8.011,7.528,7.557,7.624,5.092,-4.953,-7.941,1.148,-2.088,7.623,5.165,-4.488,-7.822,103.7,97.0,-7.637,105.1,91.7,90.0,98.7,92.1,36,97.2,1,5,probe,5,0,60,norm,36,-4.469,down,norm,95.0508642176,96.4,98.1,88.9,95.4,0,97.4,90.0,100.3,10,6,8.1,4.952,1.246,-1.214,-4.696,-7.65,92.1,1,35.1,-7.698,-8.014,-30,-8.025,-8.392,-5.272,-4.835,-5.136,-4.641,4.814,8.38,6,-1.622,1.231,4.743,8.058,-7.626,-7.673,-1.175,1.879,93.0,93.8,100.6,94.5,96.5,104.4,94.8,,93.9,92.5,0,norm,1.182,1.945,-1.379,-1.415,-5.226,-4.567,-1.475,-2.073,-1.405,-1.941,1.815,-1.983,96.6,90.7,-5.095,-8.404,1.489,-1.478,8.214,5.122,-4.854,-8.359,17,4.776,5.28,5.007,5.038,1.863,1.152,1.342,1.9,17,4.778,4.916,-30,67.767332465,norm,0,61,61,61,497.697,497.704,497.7129527,497.713,497.714,497.716,down,1,2.38571900001,7.61428099999,001,329,1366_768,Intel(R) Core(TM) i7-8750H CPU @ 2.20GHz,orientation_search,GHUM-L-P55205,Intel(R) UHD Graphics 630,2019_Jan_26_1136,testMonitor,
158.4,125.1,149.5,134.8,36,30,,156.7,140.9,129.8,8.053,8.021,7.842,8.485,8.093,8.123,8.355,4.415,-4.908,-7.795,1.862,-1.498,7.871,4.434,-4.398,-8.081,147.4,147.3,-7.828,131.4,153.7,149.2,136.0,150.8,36,128.6,4,5,prime,10,0,68,norm,36,-4.918,down,norm,145.139461432,144.8,154.8,138.0,154.6,0,165.1,146.2,147.9,10,6,8.397,4.672,1.878,-2.069,-5.262,-8.047,157.2,6,213.1,-7.868,-7.918,30,-8.436,-8.012,-4.437,-4.319,-4.836,-4.417,5.162,7.969,24,-1.664,1.147,4.389,8.343,-8.459,-8.132,-1.587,1.258,145.7,151.1,131.9,139.2,153.2,135.7,154.7,138.5,131.6,149.5,0,norm,1.856,1.68,-1.578,-1.563,-4.916,-4.509,-1.225,-1.755,-2.087,-1.38,1.163,-1.898,139.1,140.6,-4.676,-7.593,1.139,-1.562,7.99,4.397,-4.719,-7.673,18,4.843,4.441,4.703,5.154,1.917,1.187,1.784,1.652,18,4.952,4.626,80,67.767332465,norm,0,62,62,62,500.121,514.935,514.9467328,514.947,514.951,514.955,down,1,1.31119350006,8.68880649994,001,329,1366_768,Intel(R) Core(TM) i7-8750H CPU @ 2.20GHz,orientation_search,GHUM-L-P55205,Intel(R) UHD Graphics 630,2019_Jan_26_1136,testMonitor,
137.0,160.1,140.9,159.2,36,30,,160.7,133.8,147.6,7.891,7.741,8.495,7.874,7.923,8.431,7.982,5.119,-4.411,-7.732,1.497,-1.524,8.052,4.792,-4.983,-8.185,136.1,140.4,-8.018,154.8,145.6,147.2,143.9,132.4,36,134.4,4,5,prime,10,0,89,norm,36,-4.627,down,norm,145.139461432,145.5,140.6,143.4,153.6,0,142.5,165.1,142.9,10,6,8.04,5.084,1.26,-1.963,-4.988,-7.83,131.4,6,234.1,-8.182,-8.277,30,-8.421,-7.694,-5.006,-4.994,-4.441,-4.691,4.647,7.769,24,-1.505,1.955,4.942,8.173,-8.103,-7.527,-1.683,1.464,141.0,154.8,133.7,125.1,134.1,143.3,161.6,128.8,148.7,149.5,1,norm,1.41,1.585,-1.808,-1.739,-4.702,-4.862,-1.955,-1.865,-1.793,-2.09,1.201,-1.361,144.1,152.0,-4.964,-7.77,1.489,-1.821,8.375,4.439,-4.594,-7.69,18,4.731,4.922,4.625,4.704,1.782,1.224,1.31,2.035,18,4.857,5.11,80,67.767332465,norm,0,63,63,63,516.284,516.289,516.2968492,516.297,516.298,516.3,down,1,0.916582300095,9.08341769991,001,329,1366_768,Intel(R) Core(TM) i7-8750H CPU @ 2.20GHz,orientation_search,GHUM-L-P55205,Intel(R) UHD Graphics 630,2019_Jan_26_1136,testMonitor,
138.8,143.3,145.3,147.8,36,30,151.3,125.1,156.6,158.8,8.203,8.159,8.042,8.135,7.633,7.877,7.813,4.665,-5.085,-8.37,1.136,-2.004,7.775,4.935,-5.061,-8.404,140.7,142.3,-8.277,137.8,135.3,165.1,148.2,147.2,36,154.3,3,5,prime,10,0,93,norm,36,-4.38,down,norm,145.139461432,143.3,136.4,149.3,147.1,1,128.0,149.7,145.0,10,6,7.811,4.996,2.053,-1.912,-4.307,-7.975,126.9,6,238.1,-7.592,-8.383,30,-8.353,-8.14,-4.673,-5.088,-4.912,-5.156,5.123,7.611,19,-2.081,1.327,4.666,8.132,-8.357,-8.059,-1.553,1.138,142.5,154.5,151.2,132.5,141.2,132.4,132.6,155.0,148.5,138.7,2,norm,1.394,1.373,-1.63,-1.806,-5.16,-4.588,-1.302,-1.288,-1.949,-1.676,1.649,-1.188,,156.9,-4.398,-7.98,1.596,-1.815,8.069,5.28,-5.139,-8.169,18,4.929,4.755,4.542,4.318,1.899,2.058,1.573,1.542,18,4.799,4.373,80,67.767332465,norm,0,64,64,64,517.235,517.245,517.2592908,517.26,517.261,517.263,down,1,0.854542099987,9.14545790001,001,329,1366_768,Intel(R) Core(TM) i7-8750H CPU @ 2.20GHz,orientation_search,GHUM-L-P55205,Intel(R) UHD Graphics 630,2019_Jan_26_1136,testMonitor,
155.6,,141.2,138.4,36,30,144.0,157.3,148.5,137.9,8.319,7.989,7.678,7.782,8.305,7.769,7.93,5.109,-4.428,-8.198,1.297,-1.934,7.945,4.963,-4.859,-8.162,154.1,149.9,-7.783,155.7,149.8,164.7,137.2,132.9,36,144.6,3,5,prime,10,0,87,norm,36,-4.869,up,norm,145.139461432,147.3,140.8,149.4,153.4,5,133.7,138.3,128.6,10,6,8.018,4.327,1.545,-1.871,-4.577,-8.458,137.7,6,232.1,-7.76,-7.688,30,-8.033,-8.141,-5.175,-4.747,-4.785,-4.456,4.711,7.64,23,-1.628,1.45,5.29,7.737,-8.495,-8.357,-1.968,2.047,143.2,142.9,145.3,135.0,145.0,142.2,125.1,144.5,165.1,149.8,3,norm,1.281,1.211,-1.498,-1.978,-4.692,-4.392,-2.036,-1.856,-1.306,-1.262,1.22,-1.463,137.5,140.5,-5.119,-8.352,1.412,-2.082,8.436,4.932,-4.672,-7.542,18,4.607,4.604,5.158,4.479,1.89,1.779,1.455,1.476,18,4.731,4.762,80,67.767332465,norm,0,65,65,65,518.138,518.145,518.1594862,518.16,518.161,518.163,up,1,0.618485099985,9.38151490001,001,329,1366_768,Intel(R) Core(TM) i7-8750H CPU @ 2.20GHz,orientation_search,GHUM-L-P55205,Intel(R) UHD Graphics 630,2019_Jan_26_1136,testMonitor,
149.8,135.0,155.2,140.0,36,30,163.6,132.2,142.8,141.9,7.896,8.043,7.978,8.468,8.488,8.034,7.928,4.537,-4.729,-8.479,2.07,-1.798,8.202,4.571,-4.927,-7.932,137.1,142.7,-7.829,141.0,146.6,151.8,143.8,152.9,36,140.6,1,5,prime,10,0,84,norm,36,-4.747,up,norm,145.139461432,128.9,144.2,128.0,147.5,3,150.1,147.6,159.9,10,6,7.876,4.328,1.49,-1.806,-4.377,-8.191,139.5,6,229.1,-8.462,-8.202,30,-7.767,-7.628,-4.548,-4.633,-5.211,-4.438,4.761,8.498,9,-1.665,1.383,4.703,8.152,-8.258,-7.942,-1.533,1.823,,125.1,156.3,165.1,153.5,142.4,151.6,134.7,150.2,142.9,4,norm,1.323,1.103,-1.885,-1.412,-4.511,-5.041,-1.154,-2.045,-1.366,-1.446,1.878,-1.219,141.8,134.2,-4.724,-7.9,1.875,-1.495,7.732,4.378,-5.291,-8.011,18,4.867,4.304,5.147,5.069,1.636,1.671,1.328,1.455,18,5.062,4.715,80,67.767332465,norm,0,66,66,66,518.797,518.803,518.8130356,518.813,518.815,518.816,up,1,0.731986599974,9.26801340003,001,329,1366_768,Intel(R) Core(TM) i7-8750H CPU @ 2.20GHz,orientation_search,GHUM-L-P55205,Intel(R) UHD Graphics 630,2019_Jan_26_1136,testMonitor,
132.3,,155.6,163.4,36,30,144.4,156.9,146.3,132.4,7.719,8.192,7.891,8.184,8.145,7.88,7.736,4.354,-5.248,-8.263,1.11,-1.544,8.437,5.109,-4.465,-7.628,155.7,152.0,-7.643,140.7,138.4,152.5,153.2,150.2,36,138.9,3,5,prime,10,0,81,norm,36,-4.885,up,norm,145.139461432,151.8,162.0,153.3,159.8,5,163.1,153.1,153.1,10,6,7.724,4.887,1.435,-2.078,-4.567,-7.892,148.3,6,226.1,-7.612,-8.0,30,-8.457,-8.398,-5.181,-4.478,-4.422,-4.88,5.268,7.879,23,-1.8,1.502,4.406,8.341,-8.379,-8.15,-1.648,1.149,132.2,125.2,125.1,137.7,133.8,141.8,165.1,143.4,139.7,133.7,5,norm,1.462,1.133,-1.939,-1.458,-4.5,-4.411,-1.296,-1.22,-1.293,-1.614,1.764,-2.059,156.0,134.7,-4.657,-7.562,1.914,-1.641,7.997,4.339,-4.979,-7.564,18,4.343,5.007,5.207,4.729,1.423,1.288,1.648,1.264,18,5.155,4.319,80,67.767332465,norm,0,67,67,67,519.565,519.571,519.5794367,519.58,519.581,519.583,up,1,0.666967700003,9.3330323,001,329,1366_768,Intel(R) Core(TM) i7-8750H CPU @ 2.20GHz,orientation_search,GHUM-L-P55205,Intel(R) UHD Graphics 630,2019_Jan_26_1136,testMonitor,
266.3,265.9,262.4,257.6,36,-80,262.3,261.0,261.0,266.0,8.427,7.568,7.979,8.445,8.349,7.941,7.669,4.679,-5.262,-8.214,2.023,-1.859,8.318,4.708,-5.124,-7.82,256.2,264.3,-7.653,266.0,273.4,261.7,253.4,255.7,36,266.4,0,5,probe,5,0,93,norm,36,-5.233,down,norm,263.372561417,267.1,256.7,265.9,270.8,2,259.5,271.2,262.6,10,6,8.168,4.795,1.573,-1.346,-4.792,-8.288,266.4,2,170.4,-7.666,-7.685,30,-8.165,-7.616,-5.005,-5.194,-4.741,-5.275,4.682,8.316,2,-1.619,1.204,4.594,8.305,-7.869,-8.242,-1.688,1.347,265.7,258.1,262.8,,265.8,271.7,261.7,271.5,266.2,263.6,0,norm,1.846,1.709,-1.505,-1.163,-4.861,-4.389,-2.073,-1.444,-1.728,-1.843,1.502,-1.167,262.0,265.6,-5.281,-8.089,2.08,-1.814,8.229,4.317,-4.386,-8.156,19,4.719,4.574,4.68,4.523,1.123,1.854,1.737,2.046,19,5.08,4.598,30,145.139461432,norm,0,68,68,68,520.269,520.278,520.2929215,520.293,520.295,520.296,down,1,0.802573299967,9.19742670003,001,329,1366_768,Intel(R) Core(TM) i7-8750H CPU @ 2.20GHz,orientation_search,GHUM-L-P55205,Intel(R) UHD Graphics 630,2019_Jan_26_1136,testMonitor,
296.4,286.9,287.6,286.6,36,-80,287.6,284.9,293.6,292.0,7.59,7.576,7.884,7.699,8.438,7.82,7.638,4.471,-4.934,-8.065,1.395,-2.027,8.182,4.309,-5.168,-8.483,284.8,295.7,-7.861,285.6,282.0,283.2,293.1,290.7,36,287.8,3,5,probe,5,0,116,norm,36,-4.482,down,norm,286.372561417,276.4,281.5,294.0,281.4,0,292.7,278.2,279.9,10,6,8.039,4.385,1.722,-2.055,-4.685,-7.987,289.9,2,170.4,-8.221,-8.313,30,-8.411,-8.389,-5.259,-4.896,-4.61,-5.206,4.874,7.687,18,-1.964,1.495,4.582,7.624,-7.951,-8.405,-1.223,1.445,282.9,294.5,290.3,282.3,285.0,281.6,290.5,288.2,283.7,285.2,1,norm,1.264,1.693,-1.448,-1.658,-4.654,-4.601,-1.187,-1.205,-1.128,-1.94,1.813,-1.381,283.3,,-4.405,-7.815,1.58,-1.911,8.064,4.886,-4.957,-7.948,19,4.76,5.249,5.024,4.891,1.71,1.474,2.015,2.005,19,4.553,4.378,30,145.139461432,norm,0,69,69,69,521.117,521.125,521.1430691,521.143,521.145,521.146,down,1,2.33503660001,7.66496339999,001,329,1366_768,Intel(R) Core(TM) i7-8750H CPU @ 2.20GHz,orientation_search,GHUM-L-P55205,Intel(R) UHD Graphics 630,2019_Jan_26_1136,testMonitor,
208.3,211.0,213.3,193.4,36,40,,205.4,212.8,208.8,7.557,8.355,7.599,8.078,8.288,8.185,8.053,4.792,-4.93,-7.988,1.738,-1.841,7.942,5.181,-4.409,-8.239,194.6,203.0,-7.524,215.1,198.1,203.7,223.1,218.0,36,199.6,4,5,prime,10,0,88,norm,36,-4.303,down,norm,204.55191768,221.1,196.7,209.4,213.3,0,198.1,196.0,213.3,10,6,7.502,4.573,1.796,-1.804,-4.755,-7.558,197.5,6,292.6,-8.265,-7.671,40,-8.254,-8.28,-5.1,-4.75,-4.426,-4.641,4.68,7.864,24,-1.461,1.608,4.48,7.809,-8.244,-7.984,-2.009,1.765,198.1,195.8,197.9,214.3,184.6,194.7,221.6,192.9,224.3,198.3,0,norm,1.737,1.316,-1.251,-2.062,-5.218,-4.372,-1.685,-1.456,-1.414,-2.051,1.472,-1.585,196.4,188.7,-5.231,-8.059,1.118,-2.098,8.091,4.703,-5.282,-7.756,20,4.913,4.311,5.015,4.448,1.819,1.22,1.995,1.816,20,4.39,4.605,-80,145.139461432,norm,0,70,70,70,523.498,523.505,523.5127066,523.513,523.514,523.516,down,1,1.43309940002,8.56690059998,001,329,1366_768,Intel(R) Core(TM) i7-8750H CPU @ 2.20GHz,orientation_search,GHUM-L-P55205,Intel(R) UHD Graphics 630,2019_Jan_26_1136,testMonitor,
199.5,207.7,216.2,205.3,36,40,204.7,208.9,213.0,195.3,7.912,7.514,8.185,7.662,8.108,8.267,7.854,4.897,-4.418,-8.147,1.916,-1.969,7.899,4.652,-5.0,-8.204,191.5,195.4,-8.258,206.5,184.6,189.4,212.4,,36,210.8,4,5,prime,10,0,72,norm,36,-4.4,down,norm,204.55191768,221.4,188.1,196.6,198.5,2,196.6,214.2,201.1,10,6,8.152,4.781,1.933,-1.785,-4.407,-8.426,206.5,6,276.6,-7.82,-8.415,40,-8.385,-8.108,-4.381,-4.668,-5.22,-5.185,5.067,8.266,26,-1.988,1.509,4.622,7.73,-8.469,-8.198,-2.08,1.901,215.8,190.7,221.0,224.6,191.5,207.1,213.5,195.5,209.7,193.3,1,norm,1.617,1.604,-1.594,-1.258,-5.086,-4.632,-1.706,-1.993,-1.142,-1.219,1.469,-1.525,208.2,194.6,-5.106,-7.711,1.138,-1.2,7.896,4.662,-5.063,-7.517,20,5.126,4.6,4.589,5.219,1.364,1.938,1.773,1.581,20,4.458,5.207,-80,145.139461432,norm,0,71,71,71,524.966,524.975,524.9928573,524.993,524.994,524.996,down,1,2.66773920006,7.33226079994,001,329,1366_768,Intel(R) Core(TM) i7-8750H CPU @ 2.20GHz,orientation_search,GHUM-L-P55205,Intel(R) UHD Graphics 630,2019_Jan_26_1136,testMonitor,
205.6,224.6,198.5,200.9,36,40,216.3,217.6,201.2,209.3,8.046,8.032,7.505,7.922,8.298,8.365,8.228,5.297,-4.589,-7.798,1.367,-1.411,8.095,4.584,-4.816,-7.836,201.0,209.3,-7.52,217.6,190.6,212.8,200.9,197.6,36,201.0,2,5,prime,10,0,94,norm,36,-5.141,up,norm,204.55191768,,185.2,196.2,199.1,5,214.7,204.8,202.4,10,6,8.487,4.973,1.788,-1.345,-4.508,-8.425,209.2,6,298.6,-7.629,-7.661,40,-8.088,-7.609,-4.43,-5.065,-4.967,-4.971,5.154,7.907,17,-1.332,2.018,4.958,7.672,-7.659,-8.394,-2.025,1.323,204.2,204.7,199.3,200.1,212.1,184.6,214.9,192.5,197.8,217.5,2,norm,1.762,2.035,-1.729,-1.369,-5.211,-5.226,-1.557,-1.188,-2.029,-1.474,1.29,-1.843,205.0,198.9,-4.344,-7.743,1.211,-1.506,7.76,4.584,-5.217,-8.478,20,4.953,4.712,4.616,4.731,2.087,1.903,1.318,1.692,20,4.49,5.059,-80,145.139461432,norm,0,72,72,72,527.68,527.688,527.6963656,527.697,527.698,527.7,up,1,0.731011399999,9.2689886,001,329,1366_768,Intel(R) Core(TM) i7-8750H CPU @ 2.20GHz,orientation_search,GHUM-L-P55205,Intel(R) UHD Graphics 630,2019_Jan_26_1136,testMonitor,
206.8,205.1,212.3,205.0,36,40,192.3,198.6,197.9,217.8,7.706,7.563,7.907,7.865,7.555,7.532,7.565,5.287,-5.073,-7.791,1.487,-1.669,7.604,4.535,-4.798,-7.895,202.3,195.1,-7.505,210.1,201.9,215.1,192.1,206.2,36,203.5,2,5,prime,10,0,109,norm,36,-4.698,up,norm,204.55191768,195.2,,186.5,217.8,4,199.1,224.6,210.7,10,6,8.336,5.238,2.062,-1.661,-4.758,-8.411,199.7,6,313.6,-8.39,-8.104,40,-7.581,-8.456,-5.133,-4.658,-4.412,-5.076,4.71,8.325,16,-1.287,1.178,4.433,7.783,-7.881,-7.786,-1.549,1.39,214.4,207.9,184.6,211.6,188.5,198.0,210.1,212.8,216.4,192.0,3,norm,1.497,2.064,-1.598,-1.698,-4.431,-4.311,-1.142,-1.847,-2.037,-1.796,2.098,-2.024,199.2,207.0,-4.442,-7.849,1.674,-1.42,7.71,4.835,-5.179,-8.345,20,5.261,4.543,5.146,4.6,1.562,1.174,1.367,1.136,20,5.22,4.578,-80,145.139461432,norm,0,73,73,73,528.447,528.454,528.4629662,528.463,528.465,528.466,up,1,0.801016799989,9.19898320001,001,329,1366_768,Intel(R) Core(TM) i7-8750H CPU @ 2.20GHz,orientation_search,GHUM-L-P55205,Intel(R) UHD Graphics 630,2019_Jan_26_1136,testMonitor,
208.7,184.6,219.9,201.4,36,40,219.8,202.1,198.1,210.9,7.78,8.008,7.82,8.128,8.125,8.264,7.866,4.551,-5.043,-8.397,1.757,-1.109,8.041,5.117,-5.047,-7.791,200.8,197.5,-8.214,213.6,187.4,216.1,201.8,,36,203.2,4,5,prime,10,0,89,norm,36,-5.293,down,norm,204.55191768,190.3,193.7,189.3,205.1,2,186.9,207.4,193.5,10,6,7.988,4.637,1.318,-1.645,-4.77,-7.523,193.3,6,293.6,-8.321,-8.157,40,-8.264,-8.209,-4.772,-4.349,-5.041,-4.728,4.591,7.979,26,-1.562,2.005,4.957,7.805,-7.886,-7.675,-1.622,1.411,216.0,213.7,202.6,215.4,191.6,194.0,194.9,204.0,211.9,219.4,4,norm,1.344,1.454,-1.97,-1.769,-5.002,-4.941,-2.039,-1.727,-1.972,-1.849,1.993,-1.657,194.5,199.5,-5.256,-7.8,1.149,-1.764,7.635,5.064,-4.654,-8.052,20,4.897,4.314,5.151,4.594,1.212,1.684,2.08,1.931,20,4.913,4.763,-80,145.139461432,norm,0,74,74,74,529.29,529.299,529.3098087,529.31,529.311,529.313,down,1,1.02106459998,8.97893540002,001,329,1366_768,Intel(R) Core(TM) i7-8750H CPU @ 2.20GHz,orientation_search,GHUM-L-P55205,Intel(R) UHD Graphics 630,2019_Jan_26_1136,testMonitor,
206.0,,207.6,200.6,36,40,200.9,204.8,201.1,199.8,8.337,8.451,7.817,8.238,7.828,8.383,8.002,4.772,-5.203,-7.529,1.698,-1.689,8.356,4.531,-4.97,-7.698,221.2,220.4,-8.364,197.5,197.1,206.5,196.0,210.7,36,196.8,3,5,prime,10,0,99,norm,36,-4.513,up,norm,204.55191768,218.1,205.0,207.0,200.6,5,209.7,219.3,184.6,10,6,7.649,4.567,2.06,-1.487,-4.658,-8.428,194.2,6,303.6,-8.333,-7.897,40,-7.882,-7.532,-4.606,-5.196,-5.068,-4.821,4.679,8.294,23,-1.723,2.094,4.984,7.982,-8.156,-8.018,-1.982,1.652,191.8,216.7,224.6,195.9,207.7,193.8,207.9,204.3,224.2,195.7,5,norm,2.075,1.935,-1.796,-1.936,-5.007,-4.872,-1.243,-2.001,-1.572,-1.254,1.316,-1.849,217.7,215.5,-4.427,-8.28,1.934,-1.553,7.995,5.276,-5.014,-8.351,20,5.153,5.292,5.059,4.606,2.094,1.873,1.994,1.585,20,4.832,4.731,-80,145.139461432,norm,0,75,75,75,530.356,530.365,530.3763129,530.377,530.378,530.38,up,1,0.770710999961,9.22928900004,001,329,1366_768,Intel(R) Core(TM) i7-8750H CPU @ 2.20GHz,orientation_search,GHUM-L-P55205,Intel(R) UHD Graphics 630,2019_Jan_26_1136,testMonitor,
320.7,311.3,317.2,317.6,36,10,316.1,314.2,311.8,324.2,7.841,8.437,7.685,7.865,8.074,7.761,8.233,4.981,-5.222,-7.992,1.15,-1.433,7.94,4.591,-5.099,-8.452,313.0,318.1,-7.738,314.4,315.5,320.2,318.6,328.3,36,325.6,0,5,probe,5,0,71,norm,36,-4.738,down,norm,319.462002961,311.8,316.8,329.5,325.0,0,310.2,316.5,309.5,10,6,8.459,4.538,1.948,-1.302,-4.599,-8.279,312.6,1,248.5,-8.139,-7.695,40,-8.46,-8.24,-4.508,-4.736,-4.71,-4.813,4.697,8.015,0,-1.768,1.68,4.663,8.249,-7.735,-7.759,-2.014,1.522,313.7,323.1,327.8,318.0,320.2,,322.3,311.4,317.6,321.7,0,norm,1.95,1.791,-1.862,-1.766,-4.916,-5.244,-1.153,-1.88,-1.438,-1.226,2.067,-1.99,320.9,318.0,-5.207,-8.198,1.513,-1.977,7.57,4.46,-4.973,-8.233,21,4.643,4.639,4.687,4.386,1.953,1.332,1.202,1.495,21,4.48,4.577,40,204.55191768,norm,0,76,76,76,531.169,531.176,531.1928757,531.193,531.194,531.196,down,1,1.38844780007,8.61155219993,001,329,1366_768,Intel(R) Core(TM) i7-8750H CPU @ 2.20GHz,orientation_search,GHUM-L-P55205,Intel(R) UHD Graphics 630,2019_Jan_26_1136,testMonitor,
229.7,231.7,234.4,230.1,36,0,215.0,245.5,209.6,241.7,7.945,7.531,8.103,7.775,7.617,8.175,8.435,4.791,-4.8,-7.687,1.753,-1.217,7.808,5.084,-4.412,-7.818,238.5,218.4,-8.332,245.5,248.9,215.9,225.2,208.9,36,,4,5,prime,10,0,70,norm,36,-4.735,up,norm,228.871024291,232.0,232.8,234.3,230.0,3,241.1,242.3,238.4,10,5,8.023,5.248,1.722,-1.331,-4.614,-7.899,240.9,5,298.9,-8.469,-8.13,0,-7.858,-7.857,-4.457,-4.896,-5.139,-4.577,4.637,7.965,27,-1.223,1.591,5.282,8.467,-7.731,-7.992,-1.83,1.199,210.3,244.6,237.7,235.1,223.5,214.7,226.2,239.1,227.5,239.3,0,norm,1.373,1.583,-1.568,-1.579,-4.728,-4.84,-1.703,-1.876,-1.34,-2.037,1.592,-1.891,234.4,245.0,-4.507,-8.221,1.246,-1.239,8.083,4.314,-4.701,-8.119,22,4.488,4.823,4.699,4.504,1.78,1.461,1.22,1.717,22,5.09,4.535,10,204.55191768,norm,0,77,77,77,532.604,532.613,532.6260468,532.626,532.628,532.629,up,1,1.4039267,8.5960733,001,329,1366_768,Intel(R) Core(TM) i7-8750H CPU @ 2.20GHz,orientation_search,GHUM-L-P55205,Intel(R) UHD Graphics 630,2019_Jan_26_1136,testMonitor,
224.7,223.3,230.7,226.7,36,0,214.0,213.2,230.5,222.5,7.52,8.068,7.984,7.856,7.94,8.384,7.649,4.63,-4.603,-8.19,1.388,-1.227,8.115,5.177,-4.824,-8.498,227.6,212.1,-8.16,239.9,216.7,217.1,,238.7,36,222.8,5,5,prime,10,0,63,norm,36,-4.838,down,norm,228.871024291,243.3,212.2,232.5,220.8,2,248.9,233.1,231.1,10,5,8.15,4.875,1.686,-2.067,-5.051,-7.811,246.2,5,291.9,-7.524,-7.958,0,-7.583,-8.041,-5.101,-5.132,-5.174,-4.605,5.217,8.328,32,-1.871,2.08,5.007,8.201,-8.239,-7.917,-1.675,1.177,230.7,241.7,234.3,208.9,226.2,238.5,223.7,229.0,209.4,244.9,1,norm,1.293,1.618,-1.463,-1.883,-4.457,-4.587,-1.248,-1.288,-1.123,-1.626,1.551,-1.443,233.6,228.6,-4.451,-8.025,1.322,-1.704,8.144,4.534,-4.627,-7.976,22,4.442,5.158,4.954,5.017,1.355,1.189,1.641,1.618,22,5.214,4.665,10,204.55191768,norm,0,78,78,78,534.052,534.06,534.0764737,534.077,534.078,534.08,down,1,1.98631409998,8.01368590002,001,329,1366_768,Intel(R) Core(TM) i7-8750H CPU @ 2.20GHz,orientation_search,GHUM-L-P55205,Intel(R) UHD Graphics 630,2019_Jan_26_1136,testMonitor,
235.0,235.5,228.7,234.1,36,0,240.7,230.8,228.9,234.7,8.285,8.319,8.138,8.375,7.52,8.239,7.862,5.259,-4.67,-8.478,1.946,-1.271,8.086,5.134,-4.631,-8.039,224.9,231.7,-7.738,224.1,211.4,220.8,226.2,215.4,36,242.4,0,5,prime,10,0,119,norm,36,-5.108,down,norm,228.871024291,228.6,218.7,234.4,218.1,1,248.9,238.9,236.2,10,5,7.695,4.556,2.016,-1.763,-4.802,-8.394,245.1,5,347.9,-7.542,-8.136,0,-7.705,-7.529,-4.815,-4.6,-4.332,-4.944,5.267,7.64,1,-1.436,1.316,4.312,8.089,-8.033,-7.571,-1.481,1.415,220.7,209.5,240.4,217.0,,229.2,234.1,248.2,227.2,228.7,2,norm,1.309,1.12,-1.684,-1.404,-4.4,-4.334,-1.391,-1.479,-1.655,-2.043,1.478,-1.674,212.4,228.0,-4.445,-7.597,1.776,-1.246,8.081,4.781,-4.585,-7.859,22,4.593,4.769,5.211,4.552,1.629,1.726,1.494,1.505,22,4.575,4.952,10,204.55191768,norm,0,79,79,79,536.081,536.087,536.0959413,536.098,536.101,536.102,down,1,1.74668749992,8.25331250008,001,329,1366_768,Intel(R) Core(TM) i7-8750H CPU @ 2.20GHz,orientation_search,GHUM-L-P55205,Intel(R) UHD Graphics 630,2019_Jan_26_1136,testMonitor,
223.8,223.3,239.7,,36,0,235.6,223.0,248.9,243.3,7.89,8.386,8.075,7.584,8.19,7.84,7.61,4.326,-4.904,-8.037,1.591,-1.251,7.783,5.28,-4.963,-8.411,225.0,238.4,-8.433,232.2,214.5,209.3,246.1,235.3,36,218.2,3,5,prime,10,0,100,norm,36,-4.608,up,norm,228.871024291,235.0,233.0,223.2,234.5,3,231.1,234.5,208.9,10,5,8.01,5.137,1.335,-1.546,-4.598,-8.311,240.8,5,328.9,-8.5,-7.754,0,-7.767,-7.558,-4.614,-4.709,-4.958,-4.398,4.43,7.719,21,-1.57,1.802,4.525,8.27,-8.47,-7.874,-1.702,1.462,237.3,237.2,235.0,233.1,223.4,225.6,226.8,222.9,214.8,237.0,3,norm,1.218,1.319,-1.829,-1.821,-4.342,-4.441,-2.082,-1.521,-1.342,-1.559,2.068,-1.862,221.2,220.2,-4.597,-8.471,1.549,-1.787,7.566,4.558,-4.38,-8.283,22,4.721,4.452,5.084,4.599,1.422,1.842,1.976,1.814,22,5.097,5.011,10,204.55191768,norm,0,80,80,80,537.866,537.875,537.892687,537.893,537.894,537.896,up,1,0.76989929995,9.23010070005,001,329,1366_768,Intel(R) Core(TM) i7-8750H CPU @ 2.20GHz,orientation_search,GHUM-L-P55205,Intel(R) UHD Graphics 630,2019_Jan_26_1136,testMonitor,
237.4,233.8,230.4,227.4,36,0,222.1,232.9,231.1,220.6,7.722,7.551,7.908,8.193,7.637,8.035,8.194,5.214,-4.861,-7.83,1.299,-1.85,7.852,5.147,-4.889,-7.93,237.2,216.5,-8.431,226.5,,223.8,233.1,228.5,36,234.4,5,5,prime,10,0,70,norm,36,-4.655,down,norm,228.871024291,220.7,230.6,219.7,215.0,0,243.1,235.3,228.7,10,5,8.366,4.893,1.177,-1.864,-4.873,-8.246,208.9,5,298.9,-8.181,-8.487,0,-7.808,-7.921,-4.554,-4.626,-4.846,-4.954,4.778,8.363,30,-2.008,1.588,5.011,8.492,-7.627,-8.422,-1.219,1.299,232.4,248.9,221.6,222.2,227.7,221.9,241.8,223.1,223.7,234.2,4,norm,1.335,1.797,-1.688,-1.706,-4.848,-4.992,-1.746,-1.897,-1.674,-1.532,2.062,-1.622,221.2,224.8,-4.569,-8.077,1.118,-1.646,8.2,4.372,-4.799,-8.399,22,4.311,4.914,4.542,5.246,1.24,1.351,2.007,1.137,22,5.007,4.979,10,204.55191768,norm,0,81,81,81,538.684,538.692,538.7094506,538.71,538.711,538.713,down,1,0.903267699992,9.09673230001,001,329,1366_768,Intel(R) Core(TM) i7-8750H CPU @ 2.20GHz,orientation_search,GHUM-L-P55205,Intel(R) UHD Graphics 630,2019_Jan_26_1136,testMonitor,
312.8,305.1,315.3,312.5,36,-80,301.4,309.6,312.2,319.6,7.614,8.27,7.818,8.163,8.121,8.045,8.255,4.675,-4.595,-7.855,2.026,-1.717,8.369,5.209,-4.642,-7.579,309.6,310.8,-8.443,310.8,308.6,312.7,308.1,311.1,36,309.6,0,5,probe,5,0,85,norm,36,-5.144,up,norm,309.57576864,299.6,314.8,316.0,316.5,3,317.7,309.5,302.1,10,5,7.87,4.327,1.354,-1.158,-4.695,-7.529,302.2,2,224.6,-8.057,-8.264,0,-8.148,-8.398,-4.601,-4.655,-4.682,-4.782,5.259,7.923,3,-1.665,1.567,4.357,7.7,-8.116,-7.726,-1.188,1.841,315.8,313.1,,310.0,307.8,312.2,311.8,309.2,308.6,302.1,0,norm,1.765,1.699,-2.052,-1.15,-4.586,-5.129,-1.731,-1.484,-1.333,-1.691,1.684,-1.18,302.9,303.1,-4.411,-8.252,1.822,-1.399,7.501,4.412,-4.861,-7.891,23,4.467,4.321,4.864,4.617,1.786,1.736,1.136,1.989,23,4.516,4.477,0,228.871024291,norm,0,82,82,82,539.634,539.643,539.6598077,539.66,539.661,539.663,up,1,0.869327099994,9.13067290001,001,329,1366_768,Intel(R) Core(TM) i7-8750H CPU @ 2.20GHz,orientation_search,GHUM-L-P55205,Intel(R) UHD Graphics 630,2019_Jan_26_1136,testMonitor,
301.9,307.9,305.2,314.1,36,-80,303.9,309.0,303.9,309.1,8.497,7.659,8.386,7.696,7.729,8.139,8.436,4.565,-4.581,-7.868,2.047,-1.668,7.603,4.891,-4.831,-7.501,301.0,309.3,-8.366,313.0,317.6,304.6,312.3,314.2,36,302.4,2,5,probe,5,0,83,norm,36,-4.919,up,norm,307.57576864,304.7,298.0,,314.6,3,305.4,307.9,316.4,10,5,7.768,4.915,1.542,-2.031,-4.892,-7.58,310.8,2,224.6,-7.546,-8.108,0,-8.122,-7.73,-4.376,-4.35,-4.719,-4.736,5.026,8.18,15,-1.936,1.673,4.917,8.291,-7.853,-8.421,-1.24,1.463,303.4,298.2,309.2,306.0,304.9,307.2,310.2,311.5,310.9,303.5,1,norm,1.469,1.54,-1.98,-1.922,-4.554,-4.314,-1.59,-1.768,-1.617,-1.98,1.393,-1.131,297.6,304.1,-5.05,-8.345,2.09,-1.705,7.54,4.91,-4.353,-7.84,23,4.501,4.524,5.095,4.893,1.421,1.285,1.417,1.72,23,4.985,4.401,0,228.871024291,norm,0,83,83,83,540.551,540.562,540.5765088,540.577,540.578,540.58,up,1,0.78609040007,9.21390959993,001,329,1366_768,Intel(R) Core(TM) i7-8750H CPU @ 2.20GHz,orientation_search,GHUM-L-P55205,Intel(R) UHD Graphics 630,2019_Jan_26_1136,testMonitor,
363.6,,333.9,334.6,36,-60,339.7,333.4,338.9,326.7,8.476,8.144,7.728,7.582,8.02,8.208,8.308,4.573,-4.422,-8.263,1.426,-1.969,8.334,4.739,-4.485,-7.694,347.9,332.3,-7.512,352.0,363.7,342.9,342.7,341.9,36,342.7,3,5,prime,10,0,113,norm,36,-4.674,up,norm,343.704307893,347.3,355.6,323.9,349.9,5,354.5,341.6,352.0,10,5,8.081,5.177,1.449,-1.394,-4.779,-8.426,352.9,5,456.7,-7.592,-8.352,-60,-8.334,-8.339,-5.13,-5.183,-4.989,-4.492,4.327,7.838,23,-1.997,1.901,4.556,7.658,-7.907,-8.331,-1.606,1.428,347.8,343.7,357.4,344.0,323.7,352.8,339.0,348.2,328.0,337.2,0,norm,1.721,1.553,-1.711,-1.313,-5.115,-4.841,-1.414,-1.553,-1.693,-1.142,1.274,-1.712,337.4,349.1,-4.408,-7.655,1.944,-1.742,7.563,4.764,-4.349,-7.873,24,4.46,5.239,5.16,4.769,1.433,1.156,1.192,1.791,24,4.877,4.788,-80,228.871024291,norm,0,84,84,84,541.384,541.39,541.3964658,541.397,541.398,541.4,up,1,2.36591769999,7.63408230001,001,329,1366_768,Intel(R) Core(TM) i7-8750H CPU @ 2.20GHz,orientation_search,GHUM-L-P55205,Intel(R) UHD Graphics 630,2019_Jan_26_1136,testMonitor,
358.5,338.4,350.0,340.9,36,-60,335.1,352.4,361.5,353.0,8.174,8.429,8.418,8.337,8.474,8.213,7.936,4.309,-4.532,-7.959,2.056,-1.394,8.215,4.57,-4.687,-7.667,325.1,338.1,-7.893,327.8,346.0,338.1,332.9,344.0,36,342.9,1,5,prime,10,0,112,norm,36,-4.955,up,norm,343.704307893,341.4,363.0,359.2,338.1,3,348.6,332.3,323.7,10,5,7.554,4.321,1.504,-1.384,-4.873,-7.729,327.0,5,455.7,-8.03,-8.281,-60,-7.62,-8.447,-4.398,-5.255,-5.028,-4.545,5.1,8.112,9,-1.251,1.566,4.639,8.454,-8.411,-7.856,-2.074,1.801,,328.2,339.6,351.5,334.3,346.5,334.3,363.7,333.0,337.3,1,norm,2.076,1.286,-1.22,-2.025,-4.656,-4.74,-1.666,-1.241,-1.721,-1.507,1.344,-2.059,357.9,348.6,-5.011,-8.051,2.033,-1.515,8.116,4.644,-4.902,-7.687,24,5.265,4.634,4.37,4.557,1.188,1.686,1.632,1.887,24,4.813,4.792,-80,228.871024291,norm,0,85,85,85,543.784,543.792,543.8094195,543.81,543.811,543.812,up,1,2.42010310001,7.57989689999,001,329,1366_768,Intel(R) Core(TM) i7-8750H CPU @ 2.20GHz,orientation_search,GHUM-L-P55205,Intel(R) UHD Graphics 630,2019_Jan_26_1136,testMonitor,
331.8,356.1,323.7,351.4,36,-60,343.2,342.9,335.7,352.7,7.725,8.177,7.509,7.921,7.965,8.058,7.945,5.037,-5.128,-7.978,1.593,-1.295,8.051,4.918,-5.241,-7.625,359.3,343.0,-7.822,363.7,327.6,334.3,344.5,340.7,36,330.4,0,5,prime,10,0,99,norm,36,-4.395,up,norm,343.704307893,324.0,344.4,350.6,338.9,4,355.2,336.4,338.4,10,5,8.157,5.091,1.102,-1.557,-4.468,-8.129,354.0,5,442.7,-8.275,-8.183,-60,-7.568,-8.163,-5.296,-5.236,-4.872,-4.858,4.426,7.573,4,-1.486,1.794,4.781,7.63,-7.589,-7.676,-1.596,1.825,332.9,358.6,350.9,324.2,328.3,356.6,358.1,337.7,346.0,,2,norm,1.807,1.401,-1.606,-1.327,-5.014,-4.377,-1.78,-1.387,-1.904,-1.439,2.017,-1.75,351.3,335.8,-4.64,-8.456,1.548,-1.983,8.243,4.533,-5.112,-8.256,24,4.326,4.677,4.556,4.516,1.536,1.778,1.347,2.018,24,4.312,4.715,-80,228.871024291,norm,0,86,86,86,546.249,546.257,546.2761373,546.276,546.278,546.279,up,1,3.73753590009,6.26246409991,001,329,1366_768,Intel(R) Core(TM) i7-8750H CPU @ 2.20GHz,orientation_search,GHUM-L-P55205,Intel(R) UHD Graphics 630,2019_Jan_26_1136,testMonitor,
350.7,333.0,340.2,341.6,36,-60,339.9,340.7,341.1,339.3,7.58,7.878,8.261,7.671,8.32,8.225,7.552,4.895,-4.428,-7.844,1.376,-1.609,7.629,5.175,-4.928,-7.7,344.5,325.7,-7.537,331.5,336.9,350.4,348.9,347.6,36,347.1,0,5,prime,10,0,109,norm,36,-4.961,down,norm,343.704307893,330.4,352.0,323.7,357.1,2,337.8,336.7,363.7,10,5,7.643,5.275,1.451,-1.313,-4.471,-8.251,355.6,5,452.7,-8.144,-7.729,-60,-8.391,-8.29,-4.882,-4.69,-4.303,-5.215,4.474,7.629,2,-1.768,1.487,4.606,8.109,-7.736,-7.58,-2.052,1.808,353.0,346.9,339.5,,336.4,344.0,356.0,355.9,342.7,335.8,3,norm,1.251,1.596,-1.826,-1.701,-5.153,-4.705,-1.432,-1.258,-1.288,-1.527,1.647,-1.114,345.1,342.7,-4.418,-8.244,1.319,-1.5,8.187,4.387,-5.133,-8.242,24,4.762,4.89,4.543,4.601,1.843,2.001,1.721,1.752,24,5.023,4.328,-80,228.871024291,norm,0,87,87,87,550.08,550.087,550.0962546,550.096,550.098,550.1,down,1,2.75038620003,7.24961379997,001,329,1366_768,Intel(R) Core(TM) i7-8750H CPU @ 2.20GHz,orientation_search,GHUM-L-P55205,Intel(R) UHD Graphics 630,2019_Jan_26_1136,testMonitor,
340.8,344.9,344.3,324.1,36,-60,335.5,337.9,349.6,346.3,7.971,8.442,8.431,7.767,7.563,8.165,7.817,4.46,-5.203,-8.197,1.561,-1.704,8.261,5.15,-5.297,-8.123,353.9,,-8.114,334.3,323.7,331.2,334.2,342.5,36,336.8,5,5,prime,10,0,94,norm,36,-5.073,up,norm,343.704307893,347.9,339.9,330.8,351.7,4,346.3,349.8,344.2,10,5,8.427,4.48,1.531,-2.083,-4.773,-7.501,344.4,5,437.7,-7.893,-7.573,-60,-7.62,-8.206,-5.263,-4.565,-4.801,-4.536,5.244,7.679,34,-1.94,1.17,4.46,7.793,-7.765,-8.499,-1.446,1.601,329.3,342.2,346.3,352.9,337.5,349.2,347.5,363.7,342.8,356.6,4,norm,1.236,1.403,-1.687,-1.901,-4.877,-4.913,-1.274,-1.577,-1.322,-1.531,1.747,-1.729,356.9,330.3,-4.363,-8.127,1.367,-1.168,7.681,4.331,-5.015,-8.296,24,4.98,4.938,5.025,4.814,2.078,1.533,1.154,1.116,24,5.184,5.1,-80,228.871024291,norm,0,88,88,88,552.869,552.878,552.8931291,552.893,552.895,552.896,up,1,1.3839433,8.6160567,001,329,1366_768,Intel(R) Core(TM) i7-8750H CPU @ 2.20GHz,orientation_search,GHUM-L-P55205,Intel(R) UHD Graphics 630,2019_Jan_26_1136,testMonitor,
387.0,391.1,384.3,386.5,36,60,387.0,389.5,381.4,384.1,7.565,8.162,7.67,8.133,8.024,7.903,8.13,5.059,-5.104,-8.009,1.21,-1.18,7.602,4.382,-4.346,-8.167,391.2,390.7,-8.203,383.9,380.3,377.7,391.8,380.2,36,393.4,0,5,probe,5,0,95,norm,36,-5.097,down,norm,383.382446621,377.2,376.3,382.9,388.7,1,384.8,392.5,384.8,10,5,7.502,5.288,1.563,-1.782,-4.748,-8.255,387.8,2,288.4,-8.225,-8.069,-60,-8.036,-8.373,-4.451,-5.14,-5.091,-4.882,4.519,7.513,1,-1.382,1.879,4.558,8.357,-7.994,-7.683,-1.628,1.611,385.7,387.7,383.1,384.4,,384.1,385.8,376.0,373.4,381.5,0,norm,1.729,1.145,-1.725,-1.624,-5.06,-5.096,-1.808,-1.546,-1.343,-1.125,1.925,-1.663,384.4,387.0,-5.113,-8.447,2.061,-2.067,8.141,4.494,-5.087,-8.244,25,5.059,5.241,4.685,4.318,1.278,1.862,2.09,1.205,25,4.997,4.379,-60,343.704307893,norm,0,89,89,89,554.296,554.303,554.3122367,554.312,554.314,554.315,down,1,1.36613880005,8.63386119995,001,329,1366_768,Intel(R) Core(TM) i7-8750H CPU @ 2.20GHz,orientation_search,GHUM-L-P55205,Intel(R) UHD Graphics 630,2019_Jan_26_1136,testMonitor,
361.1,366.9,365.5,361.8,36,60,365.6,362.3,361.9,372.3,7.652,8.061,8.038,7.934,7.605,8.218,8.076,4.868,-5.233,-8.312,1.872,-1.805,8.318,4.466,-4.507,-7.904,369.7,366.6,-8.425,368.1,360.7,,368.5,368.2,36,367.1,5,5,probe,5,0,79,norm,36,-4.401,up,norm,367.382446621,370.9,374.9,370.4,357.4,3,363.1,365.1,364.6,10,5,7.675,4.928,1.37,-1.87,-5.271,-8.157,371.3,2,288.4,-7.947,-7.537,-60,-7.905,-7.676,-4.651,-4.679,-4.475,-4.355,5.237,8.466,33,-2.09,1.923,4.726,8.241,-8.265,-7.75,-1.904,1.658,357.8,371.7,377.4,371.6,366.3,368.4,363.8,364.0,373.3,367.6,1,norm,1.286,1.42,-1.573,-1.334,-4.878,-4.846,-1.836,-1.617,-1.607,-2.029,1.864,-1.448,362.8,371.5,-4.557,-7.731,1.409,-1.657,8.091,4.956,-5.018,-7.955,25,4.349,4.373,5.039,4.833,1.422,1.412,1.207,1.679,25,5.135,4.806,-60,343.704307893,norm,0,90,90,90,555.7,555.708,555.7263656,555.727,555.728,555.729,up,1,0.969097300083,9.03090269992,001,329,1366_768,Intel(R) Core(TM) i7-8750H CPU @ 2.20GHz,orientation_search,GHUM-L-P55205,Intel(R) UHD Graphics 630,2019_Jan_26_1136,testMonitor,
184.6,191.1,170.4,165.6,36,60,161.8,179.7,,180.6,8.373,8.044,7.814,7.792,7.877,8.371,7.824,4.818,-4.853,-8.463,1.754,-2.054,8.042,5.145,-4.645,-8.483,182.6,168.8,-7.755,180.3,161.1,171.7,181.2,175.4,36,176.9,4,5,prime,10,0,107,norm,36,-5.043,up,norm,172.521441463,177.6,165.3,167.2,175.6,4,179.6,192.5,172.0,10,6,7.973,4.706,1.519,-2.071,-4.826,-7.504,164.5,6,279.5,-8.466,-8.038,60,-8.463,-7.643,-4.679,-5.14,-5.075,-4.723,4.996,7.659,28,-2.0,1.991,4.38,8.279,-7.89,-7.781,-1.131,1.165,176.8,174.9,187.5,171.7,185.1,174.0,164.4,159.7,171.7,167.0,0,norm,1.885,1.665,-1.766,-1.652,-4.759,-4.913,-1.256,-2.042,-1.752,-1.934,2.07,-2.046,163.9,161.4,-4.734,-7.53,1.696,-1.663,8.045,4.402,-4.816,-8.261,26,5.209,5.104,4.334,5.29,1.104,1.385,1.617,1.762,26,4.382,4.688,60,343.704307893,norm,0,91,91,91,556.717,556.726,556.7423762,556.743,556.744,556.745,up,1,1.42213680001,8.57786319999,001,329,1366_768,Intel(R) Core(TM) i7-8750H CPU @ 2.20GHz,orientation_search,GHUM-L-P55205,Intel(R) UHD Graphics 630,2019_Jan_26_1136,testMonitor,
181.3,177.0,165.4,165.3,36,60,172.7,185.5,152.5,181.7,7.606,7.74,8.186,8.402,7.886,7.757,7.928,4.33,-4.756,-7.812,1.732,-1.715,7.837,4.628,-5.253,-7.59,185.5,162.6,-8.476,173.9,182.9,164.5,189.9,,36,174.4,4,5,prime,10,0,79,norm,36,-4.735,down,norm,172.521441463,177.9,169.3,180.4,186.5,2,174.4,177.9,174.7,10,6,8.062,4.7,1.528,-1.417,-5.036,-7.75,165.7,6,251.5,-7.841,-8.345,60,-8.007,-8.328,-4.624,-4.404,-4.696,-4.978,4.579,8.007,26,-1.982,1.542,4.363,8.049,-7.907,-8.173,-1.787,2.038,188.3,173.9,178.8,176.2,161.1,175.2,188.0,192.5,185.4,176.2,1,norm,1.129,1.127,-1.88,-1.629,-4.669,-4.519,-2.029,-1.239,-2.078,-1.898,1.188,-1.995,173.0,182.1,-4.584,-7.715,1.834,-1.817,8.481,4.713,-4.97,-7.73,26,4.389,4.884,4.665,4.74,1.493,1.501,1.265,1.247,26,5.102,4.519,60,343.704307893,norm,0,92,92,92,558.186,558.192,558.2097295,558.21,558.211,558.213,down,1,1.40260110004,8.59739889996,001,329,1366_768,Intel(R) Core(TM) i7-8750H CPU @ 2.20GHz,orientation_search,GHUM-L-P55205,Intel(R) UHD Graphics 630,2019_Jan_26_1136,testMonitor,
189.1,176.1,,189.1,36,60,187.7,174.4,158.8,179.6,8.455,8.468,7.892,8.129,7.865,7.725,7.944,4.885,-5.245,-8.321,1.119,-2.009,7.945,4.583,-5.245,-7.533,174.9,180.7,-8.21,167.4,192.5,179.3,172.2,161.5,36,173.1,3,5,prime,10,0,64,norm,36,-5.199,down,norm,172.521441463,185.9,180.7,176.8,162.6,2,174.4,174.6,189.4,10,6,8.255,4.321,1.964,-1.639,-4.371,-8.334,188.6,6,236.5,-7.818,-8.002,60,-7.782,-8.23,-4.669,-4.853,-5.229,-4.932,4.712,8.035,20,-1.389,1.479,5.015,7.632,-7.833,-7.578,-1.749,1.198,177.9,162.3,181.6,179.0,170.2,170.5,152.5,172.1,170.4,178.9,2,norm,1.252,1.927,-1.316,-1.14,-4.945,-4.911,-1.188,-1.623,-1.792,-1.816,1.106,-1.922,167.7,166.8,-4.427,-7.732,1.722,-1.273,8.427,4.576,-5.212,-8.343,26,4.378,4.775,5.183,4.957,1.348,1.886,1.47,1.562,26,4.714,4.381,60,343.704307893,norm,0,93,93,93,559.634,559.643,559.6596722,559.66,559.661,559.663,down,1,1.48580919998,8.51419080002,001,329,1366_768,Intel(R) Core(TM) i7-8750H CPU @ 2.20GHz,orientation_search,GHUM-L-P55205,Intel(R) UHD Graphics 630,2019_Jan_26_1136,testMonitor,
179.7,155.9,152.5,168.7,36,60,168.3,185.0,167.6,167.8,8.186,7.844,7.94,7.929,7.828,8.463,7.796,4.95,-4.535,-7.756,1.649,-1.671,8.384,5.211,-4.926,-7.747,172.3,,-8.097,187.3,167.8,178.8,173.5,181.0,36,183.2,5,5,prime,10,0,76,norm,36,-4.775,up,norm,172.521441463,172.7,179.1,156.7,164.3,4,176.1,172.1,170.2,10,6,7.935,5.113,1.609,-1.325,-4.991,-7.626,182.0,6,248.5,-7.601,-8.064,60,-7.709,-8.389,-4.603,-5.096,-4.789,-4.981,5.111,8.466,34,-2.075,1.774,4.512,8.34,-8.311,-7.736,-1.37,2.0,182.1,166.9,186.8,162.5,168.6,182.1,167.9,167.0,169.2,192.5,3,norm,1.782,1.531,-1.124,-1.269,-4.884,-5.246,-1.551,-1.524,-1.22,-1.147,1.376,-1.391,184.5,179.1,-4.459,-8.254,1.864,-1.943,8.225,4.728,-5.016,-8.22,26,4.583,4.934,4.761,5.037,2.1,1.505,1.364,1.748,26,4.711,5.134,60,343.704307893,norm,0,94,94,94,561.168,561.177,561.1926958,561.193,561.194,561.196,up,1,1.36959240003,8.63040759997,001,329,1366_768,Intel(R) Core(TM) i7-8750H CPU @ 2.20GHz,orientation_search,GHUM-L-P55205,Intel(R) UHD Graphics 630,2019_Jan_26_1136,testMonitor,
178.5,174.8,177.1,166.1,36,60,157.6,182.8,171.9,152.5,8.435,8.266,8.024,8.479,8.263,8.333,8.038,4.815,-5.292,-8.153,1.378,-1.562,8.092,4.493,-5.13,-7.76,155.7,176.2,-8.351,174.3,181.5,174.8,161.4,,36,164.3,4,5,prime,10,0,111,norm,36,-5.227,down,norm,172.521441463,183.4,175.2,179.0,169.6,2,184.2,156.0,180.8,10,6,7.917,4.767,1.125,-1.776,-4.533,-7.943,175.4,6,283.5,-8.373,-8.395,60,-7.79,-8.379,-4.497,-4.632,-4.432,-4.523,4.603,8.309,26,-1.806,1.455,4.756,8.218,-7.883,-7.662,-1.785,2.018,192.5,160.3,167.7,170.3,176.9,171.2,181.8,162.6,182.4,168.3,4,norm,1.551,1.259,-1.546,-1.388,-4.679,-5.287,-1.775,-1.734,-1.749,-1.479,1.817,-1.419,170.6,157.2,-4.85,-8.061,1.772,-1.587,7.517,4.811,-5.039,-7.781,26,4.983,5.23,4.393,4.317,2.044,1.388,1.195,1.748,26,5.024,4.356,60,343.704307893,norm,0,95,95,95,562.584,562.593,562.6093906,562.61,562.611,562.613,down,1,2.02090050001,7.97909949999,001,329,1366_768,Intel(R) Core(TM) i7-8750H CPU @ 2.20GHz,orientation_search,GHUM-L-P55205,Intel(R) UHD Graphics 630,2019_Jan_26_1136,testMonitor,
