d_ori_22,d_ori_23,d_ori_20,d_ori_21,set_size,ctpd,d_ori_24,d_ori_25,d_ori_28,d_ori_29,stim_pos_x_30,stim_pos_x_31,stim_pos_x_32,stim_pos_x_33,stim_pos_x_34,stim_pos_x_35,stim_pos_y_11,stim_pos_y_10,stim_pos_y_13,stim_pos_y_12,stim_pos_y_15,stim_pos_y_14,stim_pos_y_17,stim_pos_y_16,stim_pos_y_19,stim_pos_y_18,d_ori_35,d_ori_34,stim_pos_x_3,d_ori_31,d_ori_30,d_ori_33,d_ori_32,d_ori_26,test_set_size,d_ori_27,targetCol,dsd_test,seq_type,dsd,blockRepN,targetDist,dtype_test,prime_set_size,stim_pos_y_25,correctResponse,dtype,distrMean,d_ori_17,d_ori_16,d_ori_15,d_ori_14,targetRow,d_ori_11,d_ori_13,d_ori_12,dsd_prime,streak_length_prime,stim_pos_y_35,stim_pos_y_34,stim_pos_y_33,stim_pos_y_32,stim_pos_y_31,stim_pos_y_30,d_ori_10,nextProbe,targetOri,stim_pos_x_1,stim_pos_x_2,ctpd_prime,stim_pos_x_4,stim_pos_x_5,stim_pos_x_6,stim_pos_x_7,stim_pos_x_8,stim_pos_x_9,stim_pos_y_28,stim_pos_y_29,targetPos,stim_pos_y_20,stim_pos_y_21,stim_pos_y_22,stim_pos_y_23,stim_pos_y_24,stim_pos_x_0,stim_pos_y_26,stim_pos_y_27,d_ori_9,d_ori_8,d_ori_3,d_ori_2,d_ori_1,d_ori_0,d_ori_7,d_ori_6,d_ori_5,d_ori_4,trialN,dtype_prime,stim_pos_x_18,stim_pos_x_19,stim_pos_x_12,stim_pos_x_13,stim_pos_x_10,stim_pos_x_11,stim_pos_x_16,stim_pos_x_17,stim_pos_x_14,stim_pos_x_15,stim_pos_y_9,stim_pos_y_8,d_ori_19,d_ori_18,stim_pos_y_1,stim_pos_y_0,stim_pos_y_3,stim_pos_y_2,stim_pos_y_5,stim_pos_y_4,stim_pos_y_7,stim_pos_y_6,totBlockN,stim_pos_x_27,stim_pos_x_26,stim_pos_x_25,stim_pos_x_24,stim_pos_x_23,stim_pos_x_22,stim_pos_x_21,stim_pos_x_20,blockN,stim_pos_x_29,stim_pos_x_28,prevDistrCTPD,prevDistrMean,prevDistrType,trials.thisRepN,trials.thisTrialN,trials.thisN,trials.thisIndex,timeStart,timeBeforeDraw,timeDraw,timeAfterSaving,timeAfterWritingToTemp,timeAfterPreparingNext,answer,correct,rt,trialScore,session,participant,resolution,cpu_info,expName,pc_name,graphic_card,date,monitorName,
371.6,349.8,351.8,359.3,36,-20,347.2,335.2,349.2,346.9,7.834,7.62,8.078,8.204,7.772,7.876,7.552,4.407,-5.242,-8.333,1.964,-2.047,8.168,5.204,-4.493,-7.567,335.1,335.1,-7.642,342.9,339.7,,347.0,358.7,36,350.9,5,5,prime,10,0,64,norm,36,-4.389,up,norm,351.575419426,347.6,344.3,350.5,347.7,3,347.0,340.6,346.0,10,5,8.183,4.555,1.23,-1.211,-4.328,-8.268,348.8,5,415.6,-8.032,-8.1,-20,-7.714,-7.642,-4.828,-5.271,-4.866,-4.699,4.643,7.922,33,-1.382,1.394,5.13,7.986,-7.756,-7.53,-1.546,1.387,348.4,348.6,359.0,358.8,349.8,354.0,349.3,369.4,343.8,331.6,0,norm,1.58,1.496,-1.458,-1.116,-5.191,-4.996,-1.935,-1.863,-1.572,-1.668,1.824,-1.459,349.0,356.8,-4.786,-8.268,1.722,-2.072,8.289,4.425,-4.739,-8.464,0,4.982,5.011,4.68,5.13,1.709,1.744,1.804,1.921,0,4.672,4.371,,,,0,0,0,0,56.296,56.326,56.3470928771,56.347,56.347,56.35,up,1,2.31651075822,7.68348924178,001,016_goed,1920_1200,Intel(R) Core(TM) i5-3570 CPU @ 3.40GHz,orientation_search,LEPPC096,Intel(R) HD Graphics 2500,2018_Nov_28_1155,testMonitor,
365.1,,342.4,353.7,36,-20,355.1,331.6,344.7,353.3,7.554,8.229,7.743,7.603,8.155,8.373,8.117,4.389,-4.815,-7.527,1.835,-2.006,8.409,4.367,-5.264,-7.664,338.8,346.7,-8.191,352.0,355.7,353.0,338.9,336.2,36,361.1,3,5,prime,10,0,111,norm,36,-4.644,up,norm,351.575419426,350.4,346.9,360.0,345.2,5,352.3,346.4,342.3,10,5,7.996,5.151,2.008,-1.772,-4.962,-8.191,360.5,5,462.6,-7.941,-7.797,-20,-7.747,-7.574,-4.777,-4.885,-4.91,-4.419,4.301,8.473,23,-1.953,1.228,4.63,7.774,-8.331,-8.183,-1.473,1.49,355.1,352.6,347.6,361.4,348.7,367.5,336.6,353.4,352.9,361.3,1,norm,1.912,1.849,-1.317,-1.692,-5.246,-5.017,-1.867,-1.113,-1.454,-1.396,1.877,-1.121,343.8,349.4,-4.815,-7.964,2.023,-1.544,7.652,4.97,-4.744,-7.857,0,4.832,4.407,4.574,5.038,1.663,1.64,1.762,1.642,0,4.737,4.831,,,,0,1,1,1,58.708,58.729,58.7399413634,58.74,58.741,58.744,up,1,3.07655988669,6.92344011331,001,016_goed,1920_1200,Intel(R) Core(TM) i5-3570 CPU @ 3.40GHz,orientation_search,LEPPC096,Intel(R) HD Graphics 2500,2018_Nov_28_1155,testMonitor,
360.3,347.0,350.3,336.3,36,-20,364.1,357.6,349.9,349.1,7.641,7.653,8.295,8.288,7.72,8.306,7.771,4.615,-5.278,-8.01,1.986,-1.511,8.007,4.638,-4.939,-7.552,363.1,350.0,-7.593,345.4,341.2,335.5,349.0,345.0,36,348.9,2,5,prime,10,0,75,norm,36,-4.452,down,norm,351.575419426,366.6,338.9,353.4,,2,334.5,367.3,363.0,10,5,7.782,5.192,1.111,-1.582,-5.097,-7.982,368.0,5,426.6,-8.099,-7.677,-20,-7.667,-8.126,-5.227,-4.628,-4.373,-4.44,4.564,7.614,14,-2.091,1.666,4.689,7.602,-8.038,-7.543,-1.902,1.936,351.5,340.3,331.6,353.8,352.7,343.9,333.7,362.4,371.6,348.5,2,norm,1.49,1.812,-1.604,-1.49,-5.149,-4.469,-1.64,-1.222,-1.623,-1.84,1.273,-1.887,358.2,339.9,-4.474,-8.159,1.733,-1.22,8.088,4.334,-5.04,-8.402,0,5.204,4.725,4.912,4.944,1.446,1.196,1.359,1.716,0,5.164,4.466,,,,0,2,2,2,61.853,61.864,61.8732660841,61.873,61.875,61.878,up,0,1.45353097797,-10,001,016_goed,1920_1200,Intel(R) Core(TM) i5-3570 CPU @ 3.40GHz,orientation_search,LEPPC096,Intel(R) HD Graphics 2500,2018_Nov_28_1155,testMonitor,
352.9,367.4,342.2,359.2,36,-20,343.2,355.3,353.3,353.3,7.548,8.021,8.078,7.906,7.56,8.052,7.551,5.028,-4.561,-8.315,1.312,-1.386,8.473,5.289,-4.866,-7.662,359.3,360.6,-8.439,354.5,369.4,357.7,360.3,,36,371.4,4,5,prime,10,0,87,norm,36,-4.959,down,norm,351.575419426,339.6,340.9,338.8,333.6,2,352.3,353.3,351.1,10,5,8.196,4.764,1.241,-1.802,-4.48,-7.649,354.0,5,438.6,-8.364,-8.327,-20,-8.416,-8.436,-4.94,-5.149,-4.688,-4.734,4.885,7.552,26,-1.23,1.233,4.511,7.778,-7.649,-7.564,-1.802,1.471,351.8,370.5,353.6,344.2,356.0,331.6,359.0,349.8,371.6,356.0,3,norm,1.616,2.072,-1.843,-2.047,-5.273,-4.896,-1.744,-1.891,-1.632,-1.999,2.024,-1.761,334.8,337.2,-4.757,-7.908,1.514,-1.866,8.206,4.888,-5.266,-8.344,0,4.868,4.958,4.918,5.026,1.5,1.413,1.788,1.719,0,4.425,5.136,,,,0,3,3,3,64.405,64.414,64.4316127414,64.432,64.433,64.436,down,1,4.48477142269,5.51522857731,001,016_goed,1920_1200,Intel(R) Core(TM) i5-3570 CPU @ 3.40GHz,orientation_search,LEPPC096,Intel(R) HD Graphics 2500,2018_Nov_28_1155,testMonitor,
342.0,339.2,351.9,333.5,36,-20,341.4,361.7,332.5,350.2,8.411,8.492,8.296,7.78,8.405,7.884,7.933,4.921,-5.194,-8.124,1.164,-1.102,8.392,4.933,-5.057,-8.35,346.0,357.2,-7.701,,356.3,351.3,358.5,352.8,36,334.5,5,5,prime,10,0,76,norm,36,-4.341,down,norm,351.575419426,370.2,365.3,362.9,363.0,1,371.6,362.9,353.3,10,5,7.568,5.148,1.675,-1.335,-5.3,-8.042,331.6,5,427.6,-7.593,-8.366,-20,-8.045,-7.759,-4.426,-4.485,-4.771,-4.896,5.168,7.639,31,-2.097,1.766,4.718,7.881,-8.329,-8.252,-1.724,1.488,367.0,352.0,355.5,339.6,340.3,366.1,357.0,355.3,358.1,346.1,4,norm,2.016,1.876,-1.42,-1.546,-4.484,-4.859,-1.93,-1.913,-2.003,-1.154,2.005,-1.805,354.8,345.4,-4.425,-8.228,1.289,-2.013,7.756,5.207,-4.918,-7.554,0,4.504,5.164,4.328,5.007,1.339,1.263,1.861,2.072,0,5.135,5.017,,,,0,4,4,4,68.94,68.95,68.9562525713,68.956,68.958,68.961,up,0,4.42813638243,-10,001,016_goed,1920_1200,Intel(R) Core(TM) i5-3570 CPU @ 3.40GHz,orientation_search,LEPPC096,Intel(R) HD Graphics 2500,2018_Nov_28_1155,testMonitor,
405.0,402.9,399.7,402.1,36,-80,390.3,408.1,395.1,400.4,7.914,8.458,7.663,7.925,8.418,7.792,7.599,4.306,-4.774,-8.257,1.326,-1.825,7.812,4.712,-4.667,-8.226,398.8,404.1,-8.244,402.4,397.1,398.0,404.7,395.0,36,401.4,2,5,probe,5,0,67,norm,36,-5.101,up,norm,400.338793845,395.4,396.7,,400.3,3,402.3,409.5,404.5,10,5,7.689,4.73,1.611,-1.316,-5.183,-7.604,404.8,1,333.3,-7.746,-8.119,-20,-7.94,-7.557,-4.366,-4.313,-4.738,-5.265,4.978,8.437,15,-1.348,1.833,5.163,8.036,-7.986,-7.655,-1.489,1.666,403.4,398.1,399.7,407.0,410.3,405.7,405.8,399.5,403.0,405.8,0,norm,1.847,1.655,-1.482,-1.763,-4.859,-4.504,-1.871,-1.271,-1.601,-1.19,1.981,-1.2,395.2,399.5,-5.253,-7.76,1.398,-1.834,8.434,4.64,-4.439,-8.467,1,5.252,4.422,5.062,4.356,1.658,2.008,1.279,1.186,1,5.102,5.206,-20,351.575419426,norm,0,5,5,5,74.455,74.466,74.4708355003,74.471,74.473,74.475,down,0,3.01340497544,-10,001,016_goed,1920_1200,Intel(R) Core(TM) i5-3570 CPU @ 3.40GHz,orientation_search,LEPPC096,Intel(R) HD Graphics 2500,2018_Nov_28_1155,testMonitor,
356.9,367.5,360.8,350.6,36,30,351.8,355.4,341.6,359.4,7.505,7.745,7.919,8.036,7.731,8.18,8.331,5.264,-4.77,-7.973,1.169,-2.036,7.651,4.986,-5.267,-8.366,351.7,335.6,-8.204,357.8,354.5,348.9,352.9,346.3,36,340.9,3,5,prime,10,0,105,norm,36,-5.251,down,norm,348.421875119,344.7,355.4,346.4,342.8,1,346.8,333.0,348.6,10,6,7.922,4.477,1.762,-2.022,-4.503,-7.858,352.0,6,453.4,-7.712,-8.249,30,-7.789,-8.006,-5.192,-4.626,-4.346,-4.578,5.139,8.217,19,-1.664,1.678,4.788,7.713,-8.352,-7.745,-1.394,1.186,350.8,328.4,355.2,364.4,350.7,360.7,345.5,368.4,330.2,356.6,0,norm,1.532,1.866,-1.265,-1.561,-4.721,-4.872,-1.936,-1.516,-2.006,-1.867,1.773,-1.625,,346.9,-4.512,-7.861,1.558,-1.408,7.725,4.814,-4.766,-8.355,2,4.508,5.29,4.589,4.819,1.38,1.79,1.868,1.744,2,4.685,4.743,-80,351.575419426,norm,0,6,6,6,78.539,78.548,78.5645435532,78.565,78.566,78.569,up,0,5.4786771544,-10,001,016_goed,1920_1200,Intel(R) Core(TM) i5-3570 CPU @ 3.40GHz,orientation_search,LEPPC096,Intel(R) HD Graphics 2500,2018_Nov_28_1155,testMonitor,
359.1,366.6,348.9,328.4,36,30,351.0,337.6,357.5,347.5,8.426,8.342,7.84,7.951,7.842,7.916,8.218,4.825,-4.924,-7.963,1.641,-1.196,7.801,4.702,-4.852,-7.972,344.8,343.6,-8.065,355.4,338.6,346.7,353.9,342.1,36,341.9,2,5,prime,10,0,69,norm,36,-5.218,up,norm,348.421875119,,343.4,344.9,350.6,5,345.2,353.6,333.6,10,6,7.679,5.031,1.473,-1.885,-4.51,-7.528,345.2,6,417.4,-7.734,-7.542,30,-7.887,-7.57,-5.001,-5.266,-4.544,-4.877,4.374,7.612,17,-1.292,1.988,5.086,7.942,-7.833,-7.517,-2.028,1.132,360.5,349.4,347.2,340.4,347.8,340.9,348.0,339.2,336.3,342.6,1,norm,1.28,1.212,-1.572,-1.194,-5.291,-5.027,-1.763,-2.037,-1.989,-1.642,1.733,-1.334,351.7,346.2,-5.194,-8.205,1.695,-1.806,7.864,4.945,-5.263,-8.256,2,4.725,4.643,4.984,5.046,1.721,1.741,1.553,1.723,2,4.541,5.179,-80,351.575419426,norm,0,7,7,7,85.114,85.124,85.1318372242,85.132,85.134,85.136,down,0,7.79676294443,-10,001,016_goed,1920_1200,Intel(R) Core(TM) i5-3570 CPU @ 3.40GHz,orientation_search,LEPPC096,Intel(R) HD Graphics 2500,2018_Nov_28_1155,testMonitor,
348.1,351.8,347.1,331.9,36,30,352.5,360.2,352.3,338.7,7.83,8.155,8.228,8.216,8.333,7.835,8.209,5.013,-4.656,-8.48,2.012,-1.637,7.96,4.867,-5.284,-7.756,358.0,329.3,-8.322,343.3,348.2,339.7,368.4,354.7,36,342.8,0,5,prime,10,0,107,norm,36,-4.365,up,norm,348.421875119,349.4,357.9,328.4,360.3,5,337.6,348.4,360.2,10,6,7.967,4.567,2.096,-1.356,-4.668,-8.417,339.9,6,455.4,-8.102,-7.98,30,-7.669,-8.148,-5.125,-5.187,-4.817,-5.164,5.029,8.429,5,-1.883,1.597,4.752,7.934,-7.65,-7.83,-1.632,1.747,343.9,343.9,349.9,348.7,345.3,334.3,351.1,347.1,,352.2,2,norm,1.799,1.908,-1.541,-2.006,-4.726,-4.396,-1.139,-1.456,-1.591,-1.701,1.836,-1.692,359.4,350.6,-4.752,-7.793,1.844,-1.428,8.412,4.884,-5.221,-8.364,2,5.228,4.882,5.074,4.441,1.248,1.202,1.12,1.825,2,4.423,5.15,-80,351.575419426,norm,0,8,8,8,93.997,94.006,94.0233972814,94.024,94.025,94.028,up,1,1.45184637612,8.54815362388,001,016_goed,1920_1200,Intel(R) Core(TM) i5-3570 CPU @ 3.40GHz,orientation_search,LEPPC096,Intel(R) HD Graphics 2500,2018_Nov_28_1155,testMonitor,
368.4,346.0,356.9,337.5,36,30,350.7,347.2,342.4,343.5,7.992,8.138,8.308,8.153,8.47,7.739,8.454,4.99,-4.82,-8.236,1.142,-1.705,8.413,4.927,-5.166,-8.471,355.0,358.4,-7.537,328.4,,347.3,355.5,337.7,36,351.4,5,5,prime,10,0,100,norm,36,-4.75,down,norm,348.421875119,354.4,336.0,340.9,346.6,0,340.4,366.7,355.2,10,6,7.823,5.099,1.432,-1.152,-4.96,-8.287,348.6,6,448.4,-7.841,-8.299,30,-7.637,-8.314,-5.271,-4.669,-4.575,-4.718,4.983,8.219,30,-1.193,1.286,4.956,8.447,-8.452,-7.582,-1.853,1.195,337.2,349.2,364.8,359.6,344.4,343.6,356.5,346.6,349.0,337.3,3,norm,1.359,1.552,-1.919,-1.957,-5.07,-5.148,-1.905,-1.435,-1.202,-1.722,2.049,-1.164,351.9,338.3,-4.311,-8.027,1.297,-1.834,7.83,5.262,-4.606,-8.083,2,4.423,4.887,4.836,4.894,1.673,1.316,1.546,1.992,2,4.685,4.718,-80,351.575419426,norm,0,9,9,9,95.513,95.525,95.544884633,95.545,95.547,95.549,up,0,4.6226250389,-10,001,016_goed,1920_1200,Intel(R) Core(TM) i5-3570 CPU @ 3.40GHz,orientation_search,LEPPC096,Intel(R) HD Graphics 2500,2018_Nov_28_1155,testMonitor,
337.4,362.7,359.6,330.3,36,30,362.0,368.4,345.5,354.1,8.409,8.199,7.941,7.764,8.269,7.808,7.501,5.197,-4.355,-8.015,1.389,-1.377,8.156,5.149,-4.608,-7.747,336.8,338.2,-8.265,350.1,337.3,353.4,340.9,356.7,36,344.7,1,5,prime,10,0,110,norm,36,-4.988,up,norm,348.421875119,350.6,345.8,350.5,362.8,3,342.7,345.5,343.9,10,6,8.147,4.947,1.579,-1.991,-4.909,-8.099,343.4,6,458.4,-8.181,-8.423,30,-8.467,-7.78,-4.984,-4.936,-5.136,-5.153,4.562,7.935,9,-1.742,1.533,5.06,7.867,-7.82,-7.929,-1.94,1.79,,351.0,354.8,347.1,362.0,346.5,341.2,340.4,335.3,328.4,4,norm,1.487,1.692,-1.829,-1.203,-4.703,-4.806,-1.747,-1.301,-1.875,-1.849,1.67,-1.871,342.3,338.1,-4.413,-7.889,1.399,-1.688,7.638,5.223,-4.815,-8.269,2,4.787,5.26,4.453,5.205,1.399,1.125,1.984,1.183,2,4.329,4.394,-80,351.575419426,norm,0,10,10,10,101.238,101.248,101.261514137,101.262,101.263,101.266,down,0,0.365751178178,-10,001,016_goed,1920_1200,Intel(R) Core(TM) i5-3570 CPU @ 3.40GHz,orientation_search,LEPPC096,Intel(R) HD Graphics 2500,2018_Nov_28_1155,testMonitor,
339.2,362.9,358.5,345.1,36,30,360.0,346.2,359.4,345.2,8.422,8.123,7.875,8.315,7.923,7.986,8.416,4.977,-4.959,-8.269,2.043,-1.948,7.907,4.893,-4.654,-7.964,347.7,,-7.757,335.1,354.9,329.7,362.0,339.7,36,363.5,5,5,prime,10,0,110,norm,36,-5.179,up,norm,348.421875119,340.5,368.4,348.1,353.7,4,353.4,350.8,344.4,10,6,8.226,4.924,1.564,-1.927,-4.432,-8.039,328.4,6,458.4,-7.992,-8.082,30,-8.204,-8.198,-4.924,-4.677,-4.394,-4.507,4.755,8.327,34,-1.21,1.863,4.523,7.626,-8.109,-7.597,-1.43,2.051,355.5,340.2,347.9,347.5,348.7,351.4,335.1,344.4,350.9,365.2,5,norm,1.795,1.396,-1.363,-1.682,-5.296,-4.648,-1.529,-1.835,-1.905,-1.282,1.222,-1.998,343.3,351.5,-4.847,-7.685,1.884,-1.334,7.664,4.86,-5.178,-8.365,2,5.091,4.945,5.297,5.083,1.902,1.744,1.956,1.536,2,4.456,4.579,-80,351.575419426,norm,0,11,11,11,102.685,102.695,102.71231341,102.713,102.717,102.723,up,1,3.36533281978,6.63466718022,001,016_goed,1920_1200,Intel(R) Core(TM) i5-3570 CPU @ 3.40GHz,orientation_search,LEPPC096,Intel(R) HD Graphics 2500,2018_Nov_28_1155,testMonitor,
450.4,453.7,442.2,440.5,36,60,450.1,453.8,446.3,441.3,8.357,8.185,8.318,8.424,8.34,8.497,7.639,4.796,-5.092,-8.338,1.785,-1.906,8.189,4.398,-4.796,-7.823,444.2,450.7,-8.076,447.4,448.2,446.7,440.8,446.3,36,451.8,0,5,probe,5,0,65,norm,36,-4.419,down,norm,446.569053247,446.9,443.4,436.6,456.6,1,448.4,447.1,444.5,10,6,7.969,4.431,1.753,-1.48,-5.263,-7.621,445.8,1,381.6,-7.684,-8.333,30,-8.496,-8.308,-4.689,-4.797,-4.925,-4.753,4.642,7.914,1,-1.918,2.046,5.26,7.646,-8.061,-7.973,-1.692,1.33,439.7,441.5,448.9,452.0,,448.3,443.5,443.5,445.4,438.5,0,norm,1.115,1.583,-1.733,-1.571,-5.241,-4.718,-1.311,-1.533,-1.199,-1.685,2.059,-1.706,453.8,450.1,-5.297,-8.162,1.732,-2.061,8.024,4.976,-5.108,-7.626,3,4.538,5.149,4.75,4.678,1.452,1.183,1.371,1.43,3,5.134,4.669,30,348.421875119,norm,0,12,12,12,106.129,106.138,106.144918017,106.145,106.147,106.149,down,1,1.60582188258,8.39417811742,001,016_goed,1920_1200,Intel(R) Core(TM) i5-3570 CPU @ 3.40GHz,orientation_search,LEPPC096,Intel(R) HD Graphics 2500,2018_Nov_28_1155,testMonitor,
63.5,53.7,42.0,47.2,36,30,29.4,39.0,40.1,61.2,8.115,8.416,7.924,7.707,8.161,8.487,8.129,5.064,-4.774,-8.459,1.35,-1.192,7.842,4.668,-4.921,-7.795,50.8,39.1,-7.952,35.9,53.6,,23.6,51.8,36,38.9,5,5,prime,10,0,93,norm,36,-5.221,up,norm,43.6058714085,37.1,60.7,46.1,43.7,3,31.8,49.7,49.0,10,5,8.024,4.994,1.289,-1.484,-5.14,-8.111,41.8,5,136.6,-7.759,-7.638,30,-7.802,-8.228,-4.967,-5.232,-4.4,-5.077,5.137,8.217,33,-1.516,1.234,4.5,7.638,-7.778,-7.931,-1.453,1.221,57.7,27.1,41.8,59.4,32.0,49.4,28.6,63.6,28.2,38.8,0,norm,1.976,1.662,-1.928,-2.034,-4.997,-4.986,-1.117,-1.865,-1.994,-1.442,1.832,-1.536,41.6,35.9,-4.623,-7.68,1.41,-1.455,8.305,4.603,-4.589,-7.975,4,4.808,4.836,4.971,4.542,1.363,1.721,1.974,1.917,4,5.25,4.431,60,348.421875119,norm,0,13,13,13,107.788,107.797,107.812854952,107.813,107.815,107.817,up,1,2.56629939069,7.43370060931,001,016_goed,1920_1200,Intel(R) Core(TM) i5-3570 CPU @ 3.40GHz,orientation_search,LEPPC096,Intel(R) HD Graphics 2500,2018_Nov_28_1155,testMonitor,
44.3,46.6,44.9,60.6,36,30,54.3,41.6,44.6,44.8,8.358,8.186,8.061,7.549,7.94,7.685,8.315,5.099,-4.68,-7.885,1.469,-1.483,7.748,4.359,-4.875,-8.463,49.3,54.9,-8.176,44.4,44.8,46.0,52.5,60.6,36,56.4,1,5,prime,10,0,81,norm,36,-4.752,up,norm,43.6058714085,59.6,52.0,28.1,44.5,4,44.0,43.2,35.3,10,5,8.439,4.768,1.857,-1.548,-4.352,-8.329,,5,124.6,-8.128,-8.093,30,-7.833,-8.213,-4.397,-4.7,-4.891,-4.646,4.858,8.211,10,-1.817,1.897,4.682,8.139,-8.274,-7.569,-2.085,1.213,41.6,36.3,40.2,39.0,42.7,31.0,63.6,43.5,23.6,35.5,1,norm,1.402,1.647,-1.538,-1.502,-4.666,-4.854,-1.998,-1.161,-1.721,-1.684,1.268,-1.643,43.4,42.8,-5.152,-8.126,2.004,-1.848,7.636,4.727,-5.137,-8.313,4,5.28,4.703,4.979,4.748,1.106,1.611,1.587,1.737,4,5.103,4.555,60,348.421875119,norm,0,14,14,14,110.403,110.413,110.419103343,110.419,110.421,110.424,up,1,1.47011529608,8.52988470392,001,016_goed,1920_1200,Intel(R) Core(TM) i5-3570 CPU @ 3.40GHz,orientation_search,LEPPC096,Intel(R) HD Graphics 2500,2018_Nov_28_1155,testMonitor,
42.7,36.7,45.9,49.3,36,30,45.8,,63.6,41.2,8.287,7.978,8.016,7.586,8.277,7.79,8.364,4.431,-4.982,-7.665,1.815,-1.868,7.784,5.051,-4.791,-7.712,31.2,54.8,-8.432,58.0,48.0,50.8,46.6,37.6,36,34.9,4,5,prime,10,0,79,norm,36,-5.165,down,norm,43.6058714085,39.1,35.9,26.7,52.0,1,54.8,42.4,38.3,10,5,8.464,4.447,1.506,-1.385,-4.443,-7.764,35.8,5,122.6,-8.302,-8.392,30,-7.853,-7.922,-4.47,-5.19,-4.666,-5.117,5.248,8.42,25,-1.923,1.41,4.941,8.201,-7.888,-7.83,-1.607,1.686,41.9,30.5,42.8,34.6,51.5,26.6,40.3,23.6,23.7,55.3,2,norm,1.417,2.04,-2.084,-1.75,-5.188,-4.692,-1.69,-1.104,-1.93,-1.463,1.598,-2.008,45.5,46.6,-4.758,-7.599,1.435,-1.398,8.17,4.553,-4.867,-7.793,4,4.74,4.448,4.355,5.227,1.712,1.342,2.044,1.962,4,4.8,4.44,60,348.421875119,norm,0,15,15,15,111.932,111.953,111.964610986,111.965,111.967,111.97,up,0,0.979255642014,-10,001,016_goed,1920_1200,Intel(R) Core(TM) i5-3570 CPU @ 3.40GHz,orientation_search,LEPPC096,Intel(R) HD Graphics 2500,2018_Nov_28_1155,testMonitor,
31.6,44.2,30.2,56.6,36,30,26.6,40.9,62.4,32.3,7.777,8.34,8.407,7.73,8.187,8.125,8.097,4.65,-4.618,-7.7,1.865,-1.559,8.489,4.877,-5.27,-7.637,50.0,36.3,-8.372,27.7,,40.0,48.3,44.9,36,39.9,5,5,prime,10,0,61,norm,36,-4.891,down,norm,43.6058714085,53.4,41.2,50.0,42.6,0,47.5,42.9,37.8,10,5,7.687,5.067,2.062,-1.141,-5.274,-8.04,23.6,5,104.6,-7.658,-8.28,30,-8.254,-7.776,-5.019,-4.994,-4.678,-4.677,4.456,7.756,30,-1.554,1.787,4.334,8.446,-8.381,-8.297,-1.25,1.864,50.6,57.0,54.2,28.0,52.4,46.8,39.4,45.9,45.9,63.6,3,norm,1.223,1.192,-1.311,-1.338,-5.145,-4.333,-1.115,-1.195,-1.764,-1.309,1.153,-1.863,51.3,48.7,-5.262,-7.932,1.216,-1.251,7.726,5.03,-4.993,-7.576,4,4.921,4.356,5.228,4.939,1.487,2.085,1.54,1.429,4,4.811,4.547,60,348.421875119,norm,0,16,16,16,114.015,114.024,114.037276457,114.037,114.039,114.042,up,0,2.38489243269,-10,001,016_goed,1920_1200,Intel(R) Core(TM) i5-3570 CPU @ 3.40GHz,orientation_search,LEPPC096,Intel(R) HD Graphics 2500,2018_Nov_28_1155,testMonitor,
43.3,47.8,46.4,44.3,36,30,41.5,31.1,,40.7,8.156,7.548,7.679,7.967,7.728,8.174,7.834,4.911,-4.749,-8.27,1.568,-1.334,7.749,4.446,-4.489,-8.333,44.9,45.3,-8.381,35.7,31.3,41.7,41.1,39.0,36,43.3,4,5,prime,10,0,95,norm,36,-4.982,up,norm,43.6058714085,52.0,51.9,55.8,38.8,4,48.4,51.6,40.8,10,5,7.8,4.9,1.539,-1.731,-4.87,-8.407,61.9,5,138.6,-7.91,-7.533,30,-7.946,-7.708,-5.064,-5.011,-5.281,-4.753,4.906,7.734,28,-2.063,1.243,5.283,7.959,-7.701,-7.979,-2.084,1.201,49.6,35.6,34.8,43.1,50.1,44.9,49.7,40.5,40.5,50.1,4,norm,1.657,1.626,-1.891,-2.042,-4.368,-4.942,-1.985,-1.919,-1.747,-2.018,1.49,-1.205,63.6,23.6,-4.997,-8.203,1.333,-1.347,8.352,5.028,-4.801,-7.597,4,5.057,5.282,4.662,5.153,1.372,1.916,1.705,1.547,4,4.642,4.957,60,348.421875119,norm,0,17,17,17,117.492,117.502,117.51590109,117.516,117.518,117.52,up,1,0.723010224407,9.27698977559,001,016_goed,1920_1200,Intel(R) Core(TM) i5-3570 CPU @ 3.40GHz,orientation_search,LEPPC096,Intel(R) HD Graphics 2500,2018_Nov_28_1155,testMonitor,
181.7,193.0,187.9,195.2,36,80,182.8,182.0,190.1,186.3,7.643,7.558,8.133,8.203,8.123,8.138,7.883,4.326,-4.819,-7.521,1.179,-1.831,8.082,5.105,-5.18,-7.935,189.7,182.8,-8.479,190.6,190.4,179.5,193.7,182.0,36,187.1,1,5,probe,5,0,115,norm,36,-4.89,down,norm,186.777956555,183.0,181.6,182.9,196.8,2,184.0,190.0,186.9,10,5,7.926,4.951,1.242,-1.666,-4.993,-8.073,189.9,2,71.8,-7.791,-7.611,30,-8.169,-7.843,-4.687,-4.773,-4.415,-4.468,4.668,7.789,8,-1.961,1.834,5.019,8.002,-8.248,-7.854,-2.052,1.394,183.4,,191.1,192.6,184.9,185.5,176.8,188.5,186.4,193.2,0,norm,1.79,1.773,-1.126,-1.345,-4.611,-5.113,-1.948,-1.112,-2.028,-1.394,1.93,-1.858,186.4,190.6,-4.959,-7.709,1.467,-1.23,8.211,5.215,-4.776,-7.58,5,4.447,5.265,5.182,4.358,1.716,1.698,1.808,2.041,5,4.527,4.574,30,43.6058714085,norm,0,18,18,18,118.281,118.29,118.296730496,118.297,118.299,118.301,down,1,2.06163119324,7.93836880676,001,016_goed,1920_1200,Intel(R) Core(TM) i5-3570 CPU @ 3.40GHz,orientation_search,LEPPC096,Intel(R) HD Graphics 2500,2018_Nov_28_1155,testMonitor,
147.8,149.2,157.0,151.6,36,80,158.7,150.7,149.8,145.8,8.28,7.786,7.738,8.009,8.035,8.234,7.998,4.598,-4.513,-7.528,1.39,-1.591,7.92,4.308,-5.06,-8.149,148.0,143.2,-8.304,148.2,158.0,155.1,148.4,157.3,36,143.5,1,5,probe,5,0,80,norm,36,-4.611,down,norm,151.777956555,143.5,151.8,145.2,161.8,0,147.6,152.6,147.0,10,5,8.362,5.099,1.773,-1.858,-4.543,-8.004,141.8,2,71.8,-8.316,-8.232,30,-7.777,-8.452,-4.601,-5.264,-4.484,-5.167,4.798,8.49,6,-1.261,1.445,4.984,8.276,-7.686,-8.372,-2.019,2.049,151.0,156.4,154.4,155.7,149.8,149.9,153.9,,151.5,152.5,1,norm,1.308,1.693,-1.454,-1.775,-4.646,-4.909,-1.631,-1.599,-2.058,-1.229,1.906,-1.228,160.2,147.4,-4.93,-7.834,2.006,-1.758,7.718,4.83,-4.689,-8.159,5,4.644,4.635,4.953,4.9,1.403,1.517,1.958,1.959,5,4.779,4.822,30,43.6058714085,norm,0,19,19,19,120.402,120.415,120.435065858,120.435,120.437,120.441,up,0,1.46794411866,-10,001,016_goed,1920_1200,Intel(R) Core(TM) i5-3570 CPU @ 3.40GHz,orientation_search,LEPPC096,Intel(R) HD Graphics 2500,2018_Nov_28_1155,testMonitor,
214.7,243.3,210.0,230.1,36,20,217.8,223.6,238.7,221.8,8.114,7.879,8.352,8.216,8.373,7.719,8.303,5.095,-5.213,-7.606,1.265,-1.633,8.44,4.48,-5.24,-8.105,250.0,231.1,-8.462,219.3,218.8,218.9,238.8,223.0,36,236.0,2,5,prime,10,0,95,norm,36,-4.9,down,norm,229.955385349,237.0,232.6,242.3,,2,239.8,221.6,225.1,10,5,8.207,4.816,2.034,-1.182,-4.532,-7.954,241.8,5,325.0,-7.987,-7.945,20,-8.372,-8.023,-4.657,-4.514,-5.052,-4.436,4.841,7.845,14,-1.332,1.639,4.912,8.024,-7.737,-8.363,-1.282,1.135,217.5,231.3,217.6,219.1,231.6,213.2,218.9,247.1,229.5,211.6,0,norm,1.769,1.443,-1.323,-1.885,-4.327,-4.863,-1.386,-1.929,-1.476,-1.655,1.254,-1.727,230.8,228.3,-4.433,-8.356,1.541,-1.921,7.976,5.144,-4.328,-7.588,6,5.049,4.596,4.503,4.438,1.801,1.925,1.632,1.805,6,5.25,5.24,80,43.6058714085,norm,0,20,20,20,122.98,122.99,123.006755613,123.007,123.009,123.011,down,1,1.60563353074,8.39436646926,001,016_goed,1920_1200,Intel(R) Core(TM) i5-3570 CPU @ 3.40GHz,orientation_search,LEPPC096,Intel(R) HD Graphics 2500,2018_Nov_28_1155,testMonitor,
238.1,223.1,239.8,218.6,36,20,234.8,229.5,228.8,229.9,7.603,8.228,8.4,7.733,8.325,8.446,7.87,4.863,-5.152,-7.716,1.127,-1.707,8.168,4.875,-4.636,-8.038,225.4,238.5,-8.234,235.3,232.5,236.3,232.1,214.1,36,240.5,1,5,prime,10,0,93,norm,36,-4.767,up,norm,229.955385349,220.6,227.8,210.0,238.7,4,226.5,235.2,238.7,10,5,8.068,5.126,1.784,-1.696,-5.11,-7.93,,5,323.0,-8.486,-8.262,20,-7.996,-8.317,-5.163,-4.798,-4.943,-4.773,5.046,7.592,10,-1.551,1.984,4.651,7.679,-7.75,-8.101,-1.219,1.535,237.3,226.7,236.7,211.3,231.3,230.6,212.5,230.5,240.9,231.1,1,norm,1.391,1.191,-1.69,-1.932,-4.985,-4.314,-1.166,-1.286,-1.78,-1.619,1.791,-1.591,215.5,238.8,-4.571,-8.477,1.909,-1.103,7.813,5.262,-4.641,-7.708,6,5.279,5.175,4.674,5.145,1.455,1.939,1.504,2.091,6,4.641,4.662,80,43.6058714085,norm,0,21,21,21,124.649,124.659,124.675674754,124.676,124.678,124.68,up,1,0.819112820638,9.18088717936,001,016_goed,1920_1200,Intel(R) Core(TM) i5-3570 CPU @ 3.40GHz,orientation_search,LEPPC096,Intel(R) HD Graphics 2500,2018_Nov_28_1155,testMonitor,
229.5,234.4,216.1,210.0,36,20,228.8,,233.7,233.1,7.728,7.888,8.107,8.408,7.952,8.038,8.385,4.991,-5.264,-7.724,1.185,-1.705,7.788,4.569,-5.266,-7.702,226.1,223.1,-8.363,228.2,217.7,227.5,226.6,235.4,36,235.2,4,5,prime,10,0,109,norm,36,-4.885,down,norm,229.955385349,228.7,242.2,227.0,230.6,1,234.7,225.1,225.4,10,5,7.845,4.686,1.417,-1.626,-4.912,-7.992,237.6,5,339.0,-7.606,-8.222,20,-7.89,-7.97,-4.824,-4.675,-4.761,-4.894,5.187,7.704,25,-1.253,1.779,4.394,8.292,-8.267,-8.426,-1.803,1.572,227.0,239.7,227.4,227.3,236.0,215.7,220.9,212.6,245.3,222.0,2,norm,1.163,1.602,-1.672,-1.327,-5.007,-4.42,-1.929,-1.373,-1.959,-1.571,1.399,-1.157,250.0,220.6,-4.506,-8.127,2.07,-1.561,8.189,4.957,-4.428,-8.464,6,4.541,4.545,4.716,4.672,1.652,1.867,1.146,1.115,6,4.488,4.993,80,43.6058714085,norm,0,22,22,22,125.519,125.529,125.534861237,125.535,125.537,125.54,down,1,0.994999319344,9.00500068066,001,016_goed,1920_1200,Intel(R) Core(TM) i5-3570 CPU @ 3.40GHz,orientation_search,LEPPC096,Intel(R) HD Graphics 2500,2018_Nov_28_1155,testMonitor,
221.3,240.9,238.5,226.6,36,20,219.2,246.1,213.9,228.8,7.872,8.359,7.529,8.075,7.693,8.36,8.19,5.16,-4.492,-7.807,1.648,-1.153,7.66,4.356,-5.265,-8.416,217.6,221.3,-8.168,231.7,241.8,231.0,217.0,250.0,36,225.3,1,5,prime,10,0,80,norm,36,-5.244,up,norm,229.955385349,235.1,219.2,229.8,229.3,4,217.8,210.0,232.6,10,5,8.123,4.317,1.71,-1.346,-4.895,-8.358,,5,310.0,-8.337,-8.209,20,-8.231,-8.117,-4.833,-4.682,-4.754,-4.824,5.069,7.801,10,-1.999,2.018,4.628,8.207,-8.1,-8.358,-1.766,1.538,243.1,241.2,220.7,227.0,248.7,227.0,237.7,232.7,235.3,218.9,3,norm,1.344,1.51,-1.269,-1.257,-5.029,-5.031,-2.071,-1.196,-1.289,-1.152,1.48,-1.101,242.3,237.3,-5.009,-7.75,1.508,-1.917,8.4,5.182,-5.275,-7.846,6,4.815,5.07,4.666,4.898,1.148,1.456,1.76,1.35,6,5.011,4.623,80,43.6058714085,norm,0,23,23,23,126.567,126.578,126.594516245,126.595,126.597,126.6,up,1,0.770939727721,9.22906027228,001,016_goed,1920_1200,Intel(R) Core(TM) i5-3570 CPU @ 3.40GHz,orientation_search,LEPPC096,Intel(R) HD Graphics 2500,2018_Nov_28_1155,testMonitor,
228.2,219.9,236.3,225.5,36,20,237.9,240.7,223.8,235.2,7.659,7.859,8.013,7.865,8.082,8.379,8.244,4.779,-5.002,-8.224,1.937,-1.13,7.542,4.748,-4.823,-8.045,210.0,231.7,-7.843,234.6,214.9,246.5,226.3,249.3,36,237.3,0,5,prime,10,0,70,norm,36,-4.993,up,norm,229.955385349,234.1,222.4,250.0,231.5,3,241.0,236.1,220.5,10,5,8.002,4.329,1.29,-1.254,-4.892,-7.685,235.6,5,300.0,-7.64,-7.949,20,-7.744,-8.465,-5.208,-4.303,-5.117,-4.717,4.861,8.335,3,-1.872,1.833,4.456,7.712,-7.779,-7.687,-1.479,1.459,226.0,217.9,,232.2,226.0,234.8,235.6,238.7,223.1,229.4,4,norm,2.089,1.612,-1.869,-1.78,-5.235,-4.938,-1.932,-1.675,-1.122,-1.592,2.053,-1.55,222.2,240.6,-4.998,-7.889,1.555,-1.504,8.331,4.864,-4.953,-7.626,6,4.461,4.334,4.521,5.298,1.794,1.675,2.043,1.612,6,4.751,4.823,80,43.6058714085,norm,0,24,24,24,127.391,127.4,127.408579184,127.409,127.41,127.413,down,0,0.944991003489,-10,001,016_goed,1920_1200,Intel(R) Core(TM) i5-3570 CPU @ 3.40GHz,orientation_search,LEPPC096,Intel(R) HD Graphics 2500,2018_Nov_28_1155,testMonitor,
360.3,347.1,349.4,352.8,36,-30,356.6,359.4,360.1,359.4,8.122,8.185,7.564,8.268,8.01,7.942,7.989,5.149,-4.485,-7.872,1.85,-1.666,8.145,4.334,-4.416,-7.801,355.9,359.6,-8.43,355.6,360.7,356.0,360.7,356.4,36,355.8,3,5,probe,5,0,101,norm,36,-5.161,down,norm,353.731889273,349.6,355.9,351.4,343.7,1,358.7,352.1,363.7,10,5,7.855,4.998,1.348,-1.624,-4.957,-7.794,355.6,2,252.7,-7.794,-7.826,20,-7.535,-7.91,-4.724,-5.271,-5.24,-4.799,4.916,7.684,19,-1.949,1.276,4.572,7.716,-7.722,-8.323,-1.861,1.686,359.1,352.5,351.0,357.1,347.2,348.9,351.3,358.8,355.3,345.8,0,norm,1.644,1.819,-1.487,-1.34,-5.042,-4.636,-1.378,-2.034,-1.921,-1.131,1.977,-1.373,,359.2,-4.726,-8.383,1.429,-2.002,7.971,5.033,-4.394,-7.653,7,5.027,4.387,5.222,4.987,1.851,1.208,1.709,2.003,7,4.946,5.002,20,229.955385349,norm,0,25,25,25,129.423,129.432,129.449352827,129.45,129.451,129.454,down,1,3.53169487367,6.46830512633,001,016_goed,1920_1200,Intel(R) Core(TM) i5-3570 CPU @ 3.40GHz,orientation_search,LEPPC096,Intel(R) HD Graphics 2500,2018_Nov_28_1155,testMonitor,
309.1,312.7,316.2,312.3,36,-30,313.0,310.9,310.5,311.0,8.494,8.334,8.357,8.494,7.787,7.543,7.569,4.667,-5.199,-7.713,1.333,-2.037,8.375,4.31,-4.486,-8.35,310.4,309.9,-7.803,317.8,316.8,313.9,314.3,304.0,36,312.3,2,5,probe,5,0,61,norm,36,-5.209,up,norm,313.731889273,315.0,,315.7,320.5,4,310.4,314.5,317.9,10,5,8.288,5.103,2.071,-1.883,-4.744,-7.582,308.2,2,252.7,-8.473,-8.221,20,-7.776,-8.039,-4.948,-5.055,-5.058,-4.729,5.197,8.309,16,-1.422,1.632,5.169,7.988,-7.598,-8.362,-1.95,1.821,309.9,313.6,320.3,303.7,318.1,318.7,317.2,319.8,316.4,323.7,1,norm,1.661,1.684,-1.836,-1.208,-4.574,-4.56,-1.981,-1.166,-2.024,-1.259,1.767,-1.285,304.3,311.6,-5.064,-8.144,1.648,-1.234,8.421,4.592,-4.426,-8.415,7,5.103,4.899,5.17,4.669,1.626,1.86,1.818,1.793,7,4.328,4.827,20,229.955385349,norm,0,26,26,26,133.006,133.016,133.024357151,133.025,133.026,133.029,up,1,1.19859285487,8.80140714513,001,016_goed,1920_1200,Intel(R) Core(TM) i5-3570 CPU @ 3.40GHz,orientation_search,LEPPC096,Intel(R) HD Graphics 2500,2018_Nov_28_1155,testMonitor,
343.5,361.1,346.1,359.4,36,-30,358.4,351.8,355.4,331.2,7.606,7.742,8.255,8.267,8.321,7.942,8.107,4.536,-5.058,-8.302,1.957,-1.595,7.677,5.035,-4.645,-7.619,337.4,351.9,-7.585,342.8,347.1,353.5,344.0,356.1,36,343.6,2,5,prime,10,0,109,norm,36,-5.295,down,norm,350.516573867,348.9,370.5,343.2,364.1,0,356.7,342.8,,10,5,8.105,5.242,1.327,-1.16,-4.328,-7.97,330.5,5,459.5,-8.097,-7.653,-30,-7.681,-8.343,-4.989,-4.554,-4.768,-4.905,4.896,8.22,12,-1.898,1.214,4.592,7.899,-7.532,-7.788,-1.725,1.335,367.7,345.4,334.4,361.3,363.3,364.3,349.7,346.5,364.1,348.5,0,norm,1.387,1.674,-1.54,-1.357,-4.639,-4.833,-1.527,-1.654,-1.152,-1.572,1.169,-1.331,359.4,349.3,-5.118,-7.903,1.916,-1.558,8.001,4.719,-4.354,-7.51,8,5.173,5.155,4.606,5.289,1.909,1.759,1.379,1.569,8,4.851,4.302,-30,229.955385349,norm,0,27,27,27,134.26,134.269,134.275813784,134.276,134.278,134.28,up,0,3.67109997768,-10,001,016_goed,1920_1200,Intel(R) Core(TM) i5-3570 CPU @ 3.40GHz,orientation_search,LEPPC096,Intel(R) HD Graphics 2500,2018_Nov_28_1155,testMonitor,
354.6,337.2,349.6,350.4,36,-30,338.2,357.3,347.2,370.0,8.491,7.69,7.533,8.378,8.214,7.815,8.008,4.328,-5.03,-7.503,1.547,-1.876,7.842,4.866,-4.491,-7.765,348.9,330.5,-7.917,334.3,339.7,367.9,362.5,335.5,36,360.2,1,5,prime,10,0,110,norm,36,-4.378,down,norm,350.516573867,359.6,349.5,355.2,364.2,2,340.5,370.5,348.7,10,5,7.738,4.901,1.659,-1.795,-5.037,-8.41,344.9,5,460.5,-8.229,-7.901,-30,-7.749,-8.397,-4.761,-4.338,-4.908,-4.414,4.39,8.356,8,-2.023,2.016,5.177,7.888,-8.109,-8.331,-1.893,1.264,367.3,,342.4,347.0,366.6,350.0,347.2,346.9,349.7,351.8,1,norm,1.23,2.053,-1.404,-1.425,-4.481,-5.079,-1.324,-2.019,-1.194,-1.623,1.824,-1.66,352.0,352.1,-4.518,-7.8,1.88,-1.54,8.213,4.473,-4.525,-7.703,8,5.265,4.318,5.256,5.187,1.46,1.669,1.524,1.983,8,5.152,4.713,-30,229.955385349,norm,0,28,28,28,139.002,139.012,139.027279321,139.027,139.029,139.032,down,1,4.22858577059,5.77141422941,001,016_goed,1920_1200,Intel(R) Core(TM) i5-3570 CPU @ 3.40GHz,orientation_search,LEPPC096,Intel(R) HD Graphics 2500,2018_Nov_28_1155,testMonitor,
,363.2,344.5,354.5,36,-30,343.9,338.1,356.9,338.4,7.576,7.962,8.231,8.325,7.616,7.924,7.553,4.3,-5.114,-8.254,1.115,-1.434,7.667,4.49,-4.927,-8.421,337.9,344.9,-8.088,347.4,362.7,370.5,345.8,358.3,36,339.2,3,5,prime,10,0,102,norm,36,-4.976,up,norm,350.516573867,353.4,347.1,335.0,358.0,4,342.2,340.9,332.7,10,5,8.0,4.87,1.832,-1.123,-4.752,-7.689,339.4,5,452.5,-7.66,-8.018,-30,-7.586,-8.496,-4.464,-4.792,-4.815,-4.472,4.417,8.44,22,-1.568,1.77,4.319,8.269,-7.909,-8.309,-1.326,1.263,360.4,345.9,359.8,352.9,360.2,360.5,344.7,343.9,330.5,349.2,2,norm,1.804,1.446,-1.227,-1.948,-4.994,-4.835,-1.573,-1.189,-1.711,-1.697,1.424,-1.96,348.5,340.4,-4.65,-7.672,1.275,-1.723,8.323,4.884,-5.124,-8.391,8,4.663,5.152,4.443,4.368,1.109,1.864,1.811,1.127,8,4.938,5.077,-30,229.955385349,norm,0,29,29,29,143.293,143.305,143.325443887,143.326,143.327,143.33,down,0,4.97218097834,-10,001,016_goed,1920_1200,Intel(R) Core(TM) i5-3570 CPU @ 3.40GHz,orientation_search,LEPPC096,Intel(R) HD Graphics 2500,2018_Nov_28_1155,testMonitor,
370.5,345.0,346.8,344.2,36,-30,343.8,348.4,349.7,345.3,7.742,7.609,7.876,8.316,7.685,7.694,7.623,4.575,-4.717,-8.337,1.316,-2.018,8.443,4.747,-5.088,-8.232,357.7,357.7,-8.364,346.8,361.6,349.8,338.3,357.7,36,354.0,1,5,prime,10,0,106,norm,36,-4.459,down,norm,350.516573867,336.7,350.6,344.3,353.6,0,352.7,353.6,357.8,10,5,7.595,4.906,1.494,-1.863,-4.453,-8.376,347.0,5,456.5,-7.525,-7.902,-30,-8.359,-8.405,-4.854,-4.51,-4.471,-5.166,4.952,8.122,6,-1.528,1.166,4.425,7.949,-8.248,-7.962,-1.132,1.346,332.2,340.6,341.7,365.5,336.8,355.1,350.0,,330.5,338.2,3,norm,2.016,1.362,-1.837,-1.725,-4.531,-4.488,-2.006,-2.01,-1.761,-1.609,1.939,-1.143,347.0,358.9,-4.931,-8.145,1.729,-2.011,7.807,4.861,-4.497,-7.709,8,4.722,5.269,4.618,4.887,1.531,1.814,1.484,1.641,8,4.98,4.427,-30,229.955385349,norm,0,30,30,30,149.374,149.383,149.400772544,149.401,149.403,149.405,up,0,1.38562561633,-10,001,016_goed,1920_1200,Intel(R) Core(TM) i5-3570 CPU @ 3.40GHz,orientation_search,LEPPC096,Intel(R) HD Graphics 2500,2018_Nov_28_1155,testMonitor,
353.7,342.7,348.5,355.1,36,-30,351.1,343.9,341.9,357.4,7.978,8.215,8.13,7.699,7.957,8.155,8.406,4.317,-4.936,-7.576,1.915,-1.681,8.342,5.091,-4.381,-7.703,360.7,348.0,-8.21,351.5,341.2,361.6,353.1,334.7,36,347.0,3,5,prime,10,0,100,norm,36,-4.315,down,norm,350.516573867,348.7,352.4,358.6,336.8,1,365.5,348.6,356.7,10,5,8.22,4.804,1.964,-1.418,-4.644,-7.772,360.0,5,450.5,-7.993,-8.206,-30,-7.553,-7.659,-5.274,-4.359,-5.166,-5.292,4.912,8.19,19,-1.985,1.24,4.944,7.78,-8.256,-7.817,-2.008,1.359,370.5,343.4,363.3,360.2,343.3,342.0,352.6,349.7,346.3,360.8,4,norm,1.208,1.474,-1.377,-1.791,-4.419,-4.906,-2.019,-1.311,-1.344,-1.211,1.37,-1.163,,357.6,-4.631,-7.627,2.023,-1.544,8.427,4.442,-5.14,-8.349,8,4.965,4.394,5.272,4.872,1.122,1.465,1.92,2.066,8,4.57,4.521,-30,229.955385349,norm,0,31,31,31,151.87,151.881,151.885779407,151.886,151.888,151.89,down,1,4.02313558102,5.97686441898,001,016_goed,1920_1200,Intel(R) Core(TM) i5-3570 CPU @ 3.40GHz,orientation_search,LEPPC096,Intel(R) HD Graphics 2500,2018_Nov_28_1155,testMonitor,
423.6,411.5,424.8,413.0,36,0,416.7,418.7,417.4,426.6,7.929,8.05,7.523,7.713,8.304,7.938,7.526,4.443,-4.436,-8.193,1.184,-1.961,8.479,5.224,-5.08,-8.297,410.4,420.7,-7.732,415.6,,417.7,415.3,421.0,36,412.0,5,5,probe,5,0,95,norm,36,-5.244,down,norm,416.559365858,413.2,414.2,407.7,418.7,0,420.0,416.2,419.6,10,5,7.892,4.554,1.522,-1.275,-4.572,-8.02,407.6,1,321.6,-7.57,-8.283,-30,-8.081,-7.556,-4.472,-4.344,-4.469,-5.149,4.754,7.975,30,-1.541,1.644,4.438,8.334,-7.855,-7.682,-1.367,1.314,410.8,417.9,413.0,413.3,408.6,411.3,414.4,412.8,409.1,411.0,0,norm,2.062,1.95,-1.682,-1.779,-5.174,-4.409,-2.021,-1.918,-1.178,-1.904,1.836,-1.808,416.3,419.1,-4.378,-7.93,1.189,-1.702,7.901,4.796,-4.832,-7.96,9,5.295,5.286,4.964,4.971,1.292,1.392,2.025,1.615,9,4.982,4.585,-30,350.516573867,norm,0,32,32,32,155.953,155.962,155.969086454,155.969,155.971,155.974,up,0,1.75295544844,-10,001,016_goed,1920_1200,Intel(R) Core(TM) i5-3570 CPU @ 3.40GHz,orientation_search,LEPPC096,Intel(R) HD Graphics 2500,2018_Nov_28_1155,testMonitor,
237.8,221.2,238.3,214.4,36,40,225.8,237.6,232.7,205.8,8.335,7.874,7.721,8.048,7.959,7.63,8.243,4.428,-4.848,-7.879,1.626,-1.258,8.129,5.076,-4.995,-8.291,224.5,230.0,-8.492,211.6,224.5,228.2,215.5,228.7,36,222.0,0,5,prime,10,0,94,norm,36,-4.538,up,norm,225.833185744,219.8,245.8,234.1,231.5,3,219.8,234.2,220.2,10,5,8.234,4.996,1.694,-1.889,-4.706,-7.745,228.6,5,319.8,-8.186,-8.057,40,-8.071,-7.633,-4.307,-4.754,-5.233,-4.994,4.887,7.576,3,-1.143,1.27,5.031,7.803,-7.601,-7.526,-1.829,1.308,212.8,240.7,,221.2,242.3,228.1,231.8,214.9,227.9,234.4,0,norm,2.015,1.293,-1.493,-2.01,-4.364,-4.769,-1.164,-1.513,-1.331,-2.041,1.548,-1.72,215.5,228.8,-4.646,-7.927,1.549,-2.013,7.925,5.132,-4.659,-7.872,10,4.719,4.558,5.208,4.531,1.231,1.233,2.045,1.782,10,4.462,4.487,0,350.516573867,norm,0,33,33,33,158.78,158.79,158.807158516,158.807,158.809,158.812,up,1,2.53246095849,7.46753904151,001,016_goed,1920_1200,Intel(R) Core(TM) i5-3570 CPU @ 3.40GHz,orientation_search,LEPPC096,Intel(R) HD Graphics 2500,2018_Nov_28_1155,testMonitor,
237.7,218.7,215.0,237.9,36,40,232.6,210.6,238.3,237.0,8.428,8.408,7.526,7.758,7.958,7.815,8.476,4.511,-4.825,-7.764,2.034,-1.295,7.657,4.631,-4.441,-7.538,,233.9,-7.556,233.9,227.0,211.3,226.2,222.5,36,230.9,5,5,prime,10,0,97,norm,36,-4.713,up,norm,225.833185744,213.2,223.8,216.7,223.0,5,219.6,215.1,220.3,10,5,8.356,4.359,1.616,-1.514,-4.935,-8.128,223.6,5,322.8,-7.635,-8.435,40,-8.449,-7.894,-4.84,-4.305,-4.587,-4.613,4.395,7.719,35,-1.901,1.485,4.611,8.153,-7.717,-8.095,-1.961,1.499,221.2,245.8,214.1,222.7,205.8,229.4,230.4,233.4,217.8,225.6,1,norm,1.229,1.119,-1.362,-1.737,-4.456,-4.5,-2.093,-2.093,-1.43,-1.284,1.743,-1.591,237.2,230.4,-4.966,-8.404,1.627,-1.736,8.164,4.91,-4.392,-7.558,10,4.903,5.296,4.368,4.749,1.886,1.842,1.877,1.75,10,4.833,4.697,0,350.516573867,norm,0,34,34,34,161.381,161.391,161.397501441,161.398,161.399,161.402,up,1,1.59036586437,8.40963413563,001,016_goed,1920_1200,Intel(R) Core(TM) i5-3570 CPU @ 3.40GHz,orientation_search,LEPPC096,Intel(R) HD Graphics 2500,2018_Nov_28_1155,testMonitor,
231.3,,232.9,235.1,36,40,245.0,218.2,237.3,221.2,8.321,8.161,8.149,7.696,8.174,8.388,7.548,5.166,-4.768,-7.663,1.496,-1.398,7.932,5.003,-4.805,-8.261,233.6,230.7,-7.972,225.8,228.1,237.3,236.2,226.9,36,232.6,3,5,prime,10,0,90,norm,36,-4.474,up,norm,225.833185744,234.2,226.9,209.9,235.3,5,216.9,210.9,245.8,10,5,7.751,4.368,2.089,-1.714,-4.544,-7.581,210.5,5,315.8,-8.357,-8.166,40,-8.193,-7.805,-5.257,-4.919,-5.098,-5.223,5.06,8.131,23,-1.702,1.468,5.027,8.011,-7.954,-8.39,-1.221,1.48,237.6,228.3,230.7,213.7,219.8,243.7,223.9,205.8,240.4,232.5,2,norm,1.729,1.662,-1.231,-1.547,-5.115,-4.322,-1.615,-2.097,-2.015,-2.012,1.921,-2.014,222.7,228.8,-4.442,-7.722,1.897,-2.092,7.706,4.655,-4.972,-7.709,10,5.253,4.681,4.419,5.086,1.25,1.488,1.49,1.145,10,4.754,5.146,0,350.516573867,norm,0,35,35,35,163.025,163.035,163.050009221,163.05,163.052,163.055,up,1,0.604874086508,9.39512591349,001,016_goed,1920_1200,Intel(R) Core(TM) i5-3570 CPU @ 3.40GHz,orientation_search,LEPPC096,Intel(R) HD Graphics 2500,2018_Nov_28_1155,testMonitor,
233.1,239.2,236.5,212.3,36,40,218.9,205.8,222.8,232.1,7.639,7.529,8.131,7.529,8.241,8.103,8.326,4.334,-4.373,-7.947,1.141,-1.141,7.614,4.978,-4.652,-7.819,235.0,221.3,-7.938,245.8,239.5,223.3,234.3,227.6,36,226.7,2,5,prime,10,0,73,norm,36,-5.011,down,norm,225.833185744,227.0,219.6,228.9,,2,220.6,242.2,229.0,10,5,8.235,4.769,1.617,-1.135,-5.166,-7.585,235.2,5,298.8,-7.55,-7.597,40,-7.597,-8.488,-4.893,-4.356,-5.1,-5.23,4.563,8.425,14,-2.001,1.382,4.41,8.157,-7.586,-7.717,-1.775,1.319,229.6,213.6,234.1,225.8,237.5,223.6,224.5,207.2,230.9,225.9,3,norm,1.175,1.565,-1.625,-1.896,-4.571,-4.706,-1.799,-1.225,-2.051,-1.792,2.087,-1.904,230.0,225.5,-4.536,-7.857,1.193,-2.031,8.499,4.96,-4.368,-8.254,10,5.251,5.148,5.117,5.003,1.574,1.433,1.22,1.82,10,4.408,4.998,0,350.516573867,norm,0,36,36,36,163.677,163.686,163.705104425,163.705,163.707,163.71,down,1,1.34792355692,8.65207644308,001,016_goed,1920_1200,Intel(R) Core(TM) i5-3570 CPU @ 3.40GHz,orientation_search,LEPPC096,Intel(R) HD Graphics 2500,2018_Nov_28_1155,testMonitor,
216.6,245.8,231.9,229.4,36,40,206.9,234.0,205.8,225.3,7.764,8.149,8.365,8.249,7.521,7.995,8.257,4.616,-4.797,-8.235,1.999,-1.325,8.184,4.419,-5.074,-7.725,222.4,214.9,-8.051,,212.8,213.9,230.1,230.0,36,218.5,5,5,prime,10,0,60,norm,36,-4.873,down,norm,225.833185744,236.2,217.6,230.6,223.0,1,236.4,217.4,234.8,10,5,8.075,4.848,1.42,-1.61,-4.836,-8.46,243.8,5,285.8,-8.067,-8.205,40,-7.894,-7.633,-4.717,-4.571,-5.002,-5.2,4.396,7.537,31,-2.086,1.189,4.562,8.045,-7.522,-8.416,-1.439,2.059,233.7,209.1,233.9,238.3,227.9,235.9,236.7,216.4,225.8,241.4,4,norm,1.194,1.339,-1.89,-2.001,-4.819,-5.243,-1.625,-1.132,-1.223,-1.504,1.673,-1.251,226.7,218.7,-4.979,-7.944,2.037,-1.432,7.965,5.07,-4.917,-7.538,10,4.483,4.838,4.98,4.506,2.014,2.093,2.071,1.514,10,4.564,5.146,0,350.516573867,norm,0,37,37,37,165.089,165.099,165.109238929,165.109,165.111,165.114,up,0,2.09365885198,-10,001,016_goed,1920_1200,Intel(R) Core(TM) i5-3570 CPU @ 3.40GHz,orientation_search,LEPPC096,Intel(R) HD Graphics 2500,2018_Nov_28_1155,testMonitor,
368.2,366.6,367.7,374.0,36,-40,380.4,377.7,,374.3,8.257,8.158,8.141,7.93,7.716,8.136,8.156,4.64,-5.287,-8.204,1.758,-2.025,7.763,5.23,-4.543,-8.317,379.4,379.7,-7.857,380.3,374.4,383.4,370.8,385.5,36,386.3,4,5,probe,5,0,103,norm,36,-5.19,up,norm,376.580929456,378.9,369.4,386.6,371.6,4,371.3,380.3,376.7,10,5,7.825,4.66,1.651,-1.508,-5.268,-7.563,379.0,1,273.6,-7.532,-7.762,40,-7.807,-8.291,-4.313,-4.431,-4.614,-4.447,4.362,8.131,28,-2.059,1.693,5.266,7.776,-8.268,-7.931,-1.11,1.38,377.7,370.4,368.7,368.7,366.6,375.7,374.2,370.4,379.7,369.9,0,norm,1.811,1.594,-2.088,-1.415,-4.674,-5.002,-1.654,-1.918,-1.973,-2.032,1.15,-1.878,379.4,374.8,-4.556,-8.344,1.876,-1.41,7.922,4.433,-5.201,-8.181,11,4.774,5.278,4.549,5.062,1.954,1.788,2.043,1.21,11,4.655,5.249,40,225.833185744,norm,0,38,38,38,168.272,168.282,168.291432799,168.292,168.293,168.296,up,1,1.905438327,8.094561673,001,016_goed,1920_1200,Intel(R) Core(TM) i5-3570 CPU @ 3.40GHz,orientation_search,LEPPC096,Intel(R) HD Graphics 2500,2018_Nov_28_1155,testMonitor,
24.2,19.4,12.2,25.0,36,-80,26.8,21.8,19.1,44.2,8.185,7.634,8.085,8.01,7.754,8.486,8.084,4.964,-4.526,-7.705,1.724,-1.869,7.644,5.3,-4.75,-7.825,24.0,9.8,-8.233,29.0,21.4,13.9,19.1,24.2,36,21.5,1,5,prime,10,0,64,norm,36,-4.835,down,norm,24.1788471939,36.3,21.1,29.0,20.8,0,35.6,33.8,27.1,10,6,7.928,4.683,1.876,-1.621,-4.813,-7.982,37.6,6,88.2,-7.52,-7.81,-80,-7.727,-7.839,-4.359,-5.238,-5.154,-4.476,4.829,7.519,6,-1.882,1.491,4.365,8.137,-7.853,-8.252,-1.378,1.983,35.1,5.7,24.9,14.0,27.7,31.3,4.2,,34.2,24.2,0,norm,1.966,1.233,-1.257,-1.967,-4.412,-5.147,-1.615,-1.419,-1.203,-1.543,1.677,-1.778,33.6,37.9,-4.416,-8.476,1.235,-1.207,7.592,4.853,-5.216,-7.592,12,4.339,5.264,4.54,4.332,1.377,1.887,1.136,1.541,12,5.213,4.832,-40,225.833185744,norm,0,39,39,39,170.234,170.246,170.266528703,170.267,170.268,170.271,down,1,1.30404693825,8.69595306175,001,016_goed,1920_1200,Intel(R) Core(TM) i5-3570 CPU @ 3.40GHz,orientation_search,LEPPC096,Intel(R) HD Graphics 2500,2018_Nov_28_1155,testMonitor,
33.9,14.3,26.5,20.5,36,-80,27.4,24.0,19.2,23.7,8.147,7.619,7.963,8.04,8.09,7.648,8.311,4.651,-4.372,-8.2,1.406,-1.851,8.465,5.116,-4.636,-8.019,28.4,25.5,-8.476,21.1,18.4,5.2,15.3,23.6,36,26.8,2,5,prime,10,0,101,norm,36,-5.026,down,norm,24.1788471939,44.2,26.7,6.7,4.2,1,23.9,,25.4,10,6,7.55,5.059,2.015,-1.465,-4.469,-7.674,8.7,6,125.2,-8.349,-8.107,-80,-7.653,-8.233,-4.531,-4.472,-4.858,-4.318,4.32,7.537,13,-1.235,1.138,4.625,8.155,-8.267,-8.496,-1.775,1.752,21.0,24.8,16.1,20.9,26.3,21.7,18.6,15.3,16.5,17.5,1,norm,1.881,1.937,-1.404,-1.512,-4.932,-5.094,-1.929,-1.884,-1.236,-1.425,1.256,-1.226,13.5,17.0,-4.803,-7.66,1.287,-1.751,7.542,4.803,-4.503,-7.515,12,4.991,4.777,4.876,4.991,1.204,1.964,2.023,1.947,12,5.056,4.595,-40,225.833185744,norm,0,40,40,40,171.615,171.625,171.630744391,171.631,171.633,171.635,up,0,0.760524837533,-10,001,016_goed,1920_1200,Intel(R) Core(TM) i5-3570 CPU @ 3.40GHz,orientation_search,LEPPC096,Intel(R) HD Graphics 2500,2018_Nov_28_1155,testMonitor,
24.5,22.7,13.1,23.7,36,-80,27.0,27.1,18.1,33.7,7.678,7.88,7.597,8.325,7.739,8.474,7.911,4.804,-5.24,-8.013,1.862,-2.092,7.599,4.592,-4.434,-8.328,22.5,31.0,-8.459,25.4,31.1,29.8,13.6,26.0,36,29.4,0,5,prime,10,0,114,norm,36,-4.618,down,norm,24.1788471939,12.3,14.2,6.5,20.2,2,29.6,26.2,28.3,10,6,8.128,4.35,1.748,-1.643,-5.008,-8.204,15.1,6,138.2,-7.888,-7.966,-80,-7.852,-7.812,-5.153,-4.354,-4.551,-4.897,4.643,8.004,2,-1.385,1.163,4.971,7.952,-7.818,-8.396,-1.29,1.826,36.7,22.5,23.8,,4.2,37.2,20.5,27.9,28.0,25.9,2,norm,1.47,1.688,-1.799,-1.159,-5.181,-4.419,-1.764,-1.183,-1.616,-1.462,1.67,-1.783,44.2,34.3,-4.457,-7.719,1.253,-2.009,7.597,4.853,-4.544,-8.154,12,4.413,5.033,5.069,4.446,1.345,1.704,1.47,1.264,12,4.894,5.019,-40,225.833185744,norm,0,41,41,41,173.459,173.469,173.486078113,173.486,173.488,173.49,up,0,0.959273746761,-10,001,016_goed,1920_1200,Intel(R) Core(TM) i5-3570 CPU @ 3.40GHz,orientation_search,LEPPC096,Intel(R) HD Graphics 2500,2018_Nov_28_1155,testMonitor,
29.0,20.3,26.8,41.7,36,-80,7.8,23.5,22.0,13.5,8.47,8.455,8.155,7.841,8.237,7.615,8.006,4.598,-4.758,-8.399,1.656,-1.711,7.577,4.439,-5.268,-8.135,27.3,39.7,-8.34,25.7,28.6,18.9,,24.5,36,18.2,5,5,prime,10,0,78,norm,36,-4.891,down,norm,24.1788471939,17.5,31.8,40.5,18.4,2,20.3,14.9,16.3,10,6,8.077,5.121,1.456,-1.777,-4.67,-7.987,28.8,6,102.2,-7.76,-7.618,-80,-8.012,-7.923,-4.478,-4.395,-5.018,-4.751,5.005,7.991,32,-1.56,1.262,4.929,8.174,-7.859,-7.655,-1.675,1.258,10.7,44.2,25.1,30.0,9.9,17.8,4.2,23.0,35.7,30.7,3,norm,2.091,1.644,-1.744,-1.248,-5.269,-4.824,-1.346,-1.32,-1.142,-2.097,1.353,-1.473,31.0,40.7,-4.61,-7.754,1.387,-1.687,8.365,4.668,-5.147,-8.33,12,5.164,5.267,4.772,4.933,1.247,1.415,1.341,1.259,12,4.809,4.792,-40,225.833185744,norm,0,42,42,42,175.503,175.512,175.529547844,175.53,175.531,175.534,down,1,2.11012333725,7.88987666275,001,016_goed,1920_1200,Intel(R) Core(TM) i5-3570 CPU @ 3.40GHz,orientation_search,LEPPC096,Intel(R) HD Graphics 2500,2018_Nov_28_1155,testMonitor,
12.1,4.2,14.1,15.4,36,-80,28.4,37.2,,22.4,8.421,7.83,8.204,8.089,8.046,7.691,7.646,4.766,-5.071,-8.23,1.304,-1.139,8.354,4.518,-5.187,-7.878,35.6,37.0,-7.702,18.0,35.4,9.6,9.5,39.8,36,28.0,4,5,prime,10,0,117,norm,36,-4.33,up,norm,24.1788471939,28.8,22.4,21.5,21.2,4,25.7,20.5,18.3,10,6,8.367,5.191,1.68,-1.662,-5.049,-8.406,28.9,6,141.2,-8.332,-8.422,-80,-8.181,-7.525,-4.55,-4.951,-4.863,-4.742,4.665,8.081,28,-2.077,1.138,4.399,8.18,-7.832,-8.097,-1.468,1.143,44.2,23.3,17.5,18.4,30.9,26.7,27.4,21.8,11.6,18.9,4,norm,2.094,1.173,-1.618,-1.472,-4.663,-4.606,-1.873,-2.099,-1.335,-2.055,1.737,-1.618,23.6,30.9,-4.968,-8.193,2.051,-1.2,7.987,4.886,-4.658,-7.873,12,5.238,4.803,5.173,5.272,1.272,1.204,2.029,1.445,12,4.682,4.355,-40,225.833185744,norm,0,43,43,43,177.677,177.687,177.697533527,177.698,177.699,177.702,up,1,0.959709914052,9.04029008595,001,016_goed,1920_1200,Intel(R) Core(TM) i5-3570 CPU @ 3.40GHz,orientation_search,LEPPC096,Intel(R) HD Graphics 2500,2018_Nov_28_1155,testMonitor,
18.8,26.7,33.6,23.0,36,-80,19.6,21.2,22.6,22.6,7.588,7.936,7.698,8.33,8.218,8.127,8.14,5.157,-4.68,-7.682,1.92,-1.363,8.365,4.47,-4.671,-8.38,42.5,26.2,-8.405,24.5,7.9,6.9,28.7,30.3,36,11.3,1,5,prime,10,0,89,norm,36,-5.16,down,norm,24.1788471939,43.5,11.4,31.2,25.7,1,29.7,38.9,20.6,10,6,7.943,5.279,1.621,-1.39,-5.133,-7.529,9.6,6,113.2,-8.374,-7.828,-80,-7.94,-7.947,-4.317,-5.124,-4.307,-4.938,4.699,8.102,7,-1.932,1.878,4.858,8.082,-7.512,-7.614,-1.569,2.099,23.4,32.9,21.8,7.6,41.0,29.1,,35.5,18.8,44.2,5,norm,1.216,1.532,-1.287,-1.163,-5.072,-4.414,-1.459,-1.7,-1.222,-1.436,1.669,-1.953,18.5,4.2,-4.361,-8.267,1.506,-1.913,7.683,4.795,-4.436,-8.476,12,5.228,4.392,4.63,5.287,1.566,1.512,2.029,2.087,12,4.401,4.538,-40,225.833185744,norm,0,44,44,44,178.681,178.691,178.697118791,178.697,178.699,178.702,down,1,0.876969129313,9.12303087069,001,016_goed,1920_1200,Intel(R) Core(TM) i5-3570 CPU @ 3.40GHz,orientation_search,LEPPC096,Intel(R) HD Graphics 2500,2018_Nov_28_1155,testMonitor,
18.7,7.2,4.0,3.0,36,60,9.0,8.7,18.0,14.6,8.291,8.307,7.676,8.345,8.176,7.993,8.047,4.844,-5.255,-8.447,1.364,-1.821,8.401,4.431,-5.269,-8.229,2.2,14.8,-8.091,22.2,16.4,10.9,11.8,20.1,36,13.9,0,5,probe,5,0,60,norm,36,-4.956,up,norm,12.2206126193,8.8,10.4,4.8,11.9,5,13.7,14.7,13.1,10,6,8.041,4.733,1.664,-1.675,-5.086,-7.925,16.8,1,-47.8,-8.122,-7.676,-80,-7.519,-8.118,-4.733,-4.372,-4.595,-4.817,4.379,7.556,5,-2.08,1.15,4.98,8.199,-8.462,-7.543,-1.952,1.811,6.2,6.2,5.8,17.7,14.0,13.5,14.6,9.4,,5.9,0,norm,1.715,1.848,-1.417,-1.455,-4.314,-4.38,-1.674,-1.431,-1.925,-1.613,1.514,-1.723,9.5,10.9,-5.01,-8.035,1.167,-1.104,7.998,4.481,-4.873,-7.976,13,5.174,5.257,5.128,5.1,1.913,1.99,1.809,1.777,13,4.781,4.617,-80,24.1788471939,norm,0,45,45,45,179.617,179.627,179.633163082,179.633,179.635,179.638,up,1,0.707208592707,9.29279140729,001,016_goed,1920_1200,Intel(R) Core(TM) i5-3570 CPU @ 3.40GHz,orientation_search,LEPPC096,Intel(R) HD Graphics 2500,2018_Nov_28_1155,testMonitor,
218.5,218.5,225.8,234.5,36,10,242.7,224.1,231.1,220.9,7.907,8.379,7.545,7.959,7.921,7.755,7.846,4.904,-5.042,-8.464,1.154,-1.748,8.213,4.839,-4.806,-7.966,213.3,230.7,-7.987,222.1,235.4,228.7,234.9,221.4,36,246.1,3,5,prime,10,0,118,norm,36,-5.152,down,norm,226.429707126,215.8,231.2,229.1,210.0,0,222.3,227.0,208.2,10,5,8.29,5.194,1.291,-1.15,-4.344,-7.528,225.7,5,344.4,-8.487,-7.858,10,-7.964,-7.606,-4.615,-4.955,-5.166,-5.272,4.319,8.114,18,-1.598,1.912,4.41,8.242,-8.332,-8.197,-1.563,1.168,206.4,231.3,231.1,212.3,217.9,233.2,227.8,227.7,246.4,211.8,0,norm,2.058,1.401,-1.661,-1.243,-5.006,-4.85,-1.628,-1.226,-1.183,-1.58,1.856,-1.893,219.9,,-4.475,-8.024,1.697,-1.272,7.517,4.444,-4.487,-8.36,14,4.615,5.268,5.06,4.302,2.028,1.403,1.592,1.485,14,4.326,4.414,60,24.1788471939,norm,0,46,46,46,180.378,180.387,180.396426869,180.397,180.398,180.401,down,1,1.40007678958,8.59992321042,001,016_goed,1920_1200,Intel(R) Core(TM) i5-3570 CPU @ 3.40GHz,orientation_search,LEPPC096,Intel(R) HD Graphics 2500,2018_Nov_28_1155,testMonitor,
217.5,222.6,246.4,231.4,36,10,230.9,234.3,214.4,209.4,7.771,7.664,7.719,8.183,7.638,8.011,8.087,4.39,-4.507,-7.536,1.23,-2.068,8.44,5.084,-4.385,-7.747,241.3,206.4,-8.022,,230.5,221.1,231.2,210.2,36,238.4,5,5,prime,10,0,95,norm,36,-4.858,down,norm,226.429707126,240.7,240.2,237.1,210.3,1,232.3,221.2,221.2,10,5,8.387,4.348,1.235,-1.312,-4.641,-7.792,223.9,5,321.4,-7.588,-7.621,10,-8.186,-8.102,-4.409,-4.37,-4.605,-5.166,5.203,8.3,31,-1.893,2.031,5.26,7.86,-8.332,-7.701,-1.572,1.819,231.2,244.5,238.0,230.4,231.5,213.2,235.3,218.4,225.1,235.3,1,norm,1.347,1.161,-1.879,-1.186,-4.686,-4.825,-2.055,-2.003,-1.149,-1.654,1.675,-1.768,230.4,233.7,-4.702,-8.146,1.478,-1.603,8.425,4.6,-5.092,-7.667,14,5.074,4.483,4.699,4.385,1.36,1.148,1.659,1.383,14,4.791,5.067,60,24.1788471939,norm,0,47,47,47,181.817,181.827,181.833523245,181.834,181.835,181.838,up,0,1.72190426113,-10,001,016_goed,1920_1200,Intel(R) Core(TM) i5-3570 CPU @ 3.40GHz,orientation_search,LEPPC096,Intel(R) HD Graphics 2500,2018_Nov_28_1155,testMonitor,
219.5,243.9,223.2,207.0,36,10,233.5,226.9,241.6,235.9,7.942,8.231,8.109,8.291,8.265,8.068,8.136,5.218,-5.066,-8.341,1.262,-1.53,7.72,4.884,-4.342,-8.184,216.0,230.8,-8.228,217.2,239.9,229.9,234.9,236.6,36,,4,5,prime,10,0,108,norm,36,-4.704,up,norm,226.429707126,209.8,224.1,226.3,238.1,3,246.4,222.1,226.6,10,5,8.442,4.318,2.06,-1.885,-4.459,-8.017,229.7,5,334.4,-8.268,-8.466,10,-7.694,-8.238,-4.715,-5.205,-5.299,-4.478,5.275,8.255,27,-1.874,1.687,4.814,8.086,-7.993,-7.628,-1.162,1.262,220.4,226.2,221.7,232.3,231.4,232.6,233.8,233.5,232.8,215.1,2,norm,1.235,2.076,-1.915,-1.895,-5.001,-5.101,-1.839,-1.334,-1.678,-1.714,1.156,-1.534,216.0,231.1,-4.817,-8.286,1.514,-1.797,8.323,4.82,-5.294,-7.738,14,5.271,5.089,4.826,4.915,1.263,1.409,1.263,1.355,14,4.368,5.019,60,24.1788471939,norm,0,48,48,48,184.613,184.622,184.639535351,184.64,184.641,184.644,up,1,1.41858296038,8.58141703962,001,016_goed,1920_1200,Intel(R) Core(TM) i5-3570 CPU @ 3.40GHz,orientation_search,LEPPC096,Intel(R) HD Graphics 2500,2018_Nov_28_1155,testMonitor,
221.7,231.8,222.7,224.0,36,10,233.3,222.3,212.0,221.8,7.919,8.096,8.238,7.951,7.76,7.942,7.609,4.633,-4.67,-7.735,1.831,-1.974,7.641,4.88,-5.119,-7.646,238.8,226.0,-7.828,226.7,219.8,228.2,234.9,246.4,36,,4,5,prime,10,0,85,norm,36,-4.542,up,norm,226.429707126,227.8,237.5,231.2,232.5,3,220.0,236.1,218.2,10,5,8.062,4.311,2.0,-2.053,-4.449,-8.37,241.8,5,311.4,-8.428,-7.631,10,-7.821,-8.281,-4.929,-4.781,-4.425,-4.875,5.158,8.265,27,-1.165,1.144,4.857,7.773,-7.684,-7.547,-1.218,1.455,227.1,231.2,224.3,207.4,231.9,235.3,206.4,225.4,222.9,221.1,3,norm,1.797,1.533,-1.799,-1.537,-4.6,-4.305,-1.917,-1.58,-1.611,-1.359,1.43,-1.742,236.4,227.0,-4.973,-8.463,2.069,-1.26,8.139,4.428,-5.071,-7.572,14,5.28,4.642,4.606,4.507,1.76,1.602,1.103,1.582,14,4.716,5.287,60,24.1788471939,norm,0,49,49,49,186.095,186.104,186.121436823,186.122,186.123,186.126,up,1,0.722021377325,9.27797862267,001,016_goed,1920_1200,Intel(R) Core(TM) i5-3570 CPU @ 3.40GHz,orientation_search,LEPPC096,Intel(R) HD Graphics 2500,2018_Nov_28_1155,testMonitor,
219.8,229.7,230.8,217.2,36,10,208.2,213.7,227.4,224.8,8.174,8.193,8.037,8.293,7.9,7.658,7.696,4.427,-4.41,-8.349,1.285,-1.474,8.009,5.116,-4.614,-8.339,235.8,226.8,-8.145,223.7,244.8,218.4,228.8,219.5,36,246.4,2,5,prime,10,0,61,norm,36,-4.692,up,norm,226.429707126,222.9,229.4,,231.6,3,221.2,227.8,225.6,10,5,8.322,4.863,1.469,-1.628,-4.378,-7.819,228.8,5,287.4,-7.925,-8.119,10,-8.105,-7.802,-4.7,-4.771,-4.959,-4.908,4.62,8.07,15,-1.14,1.768,4.844,8.208,-7.614,-7.701,-1.337,1.477,216.6,224.2,232.5,230.1,211.6,240.2,220.9,206.4,225.9,232.4,4,norm,1.947,1.242,-1.345,-1.597,-5.262,-5.182,-1.63,-1.641,-1.172,-1.874,1.804,-2.005,225.5,242.6,-4.873,-7.619,1.914,-1.393,7.535,4.779,-4.382,-8.279,14,5.192,4.494,4.868,4.746,2.052,1.313,1.854,2.049,14,5.174,5.114,60,24.1788471939,norm,0,50,50,50,186.886,186.896,186.904195628,186.904,186.906,186.909,up,1,0.89063821992,9.10936178008,001,016_goed,1920_1200,Intel(R) Core(TM) i5-3570 CPU @ 3.40GHz,orientation_search,LEPPC096,Intel(R) HD Graphics 2500,2018_Nov_28_1155,testMonitor,
337.5,,330.1,338.4,36,-40,334.2,345.8,338.0,335.6,7.855,8.436,7.873,8.225,7.698,8.105,7.616,4.583,-4.691,-8.362,1.434,-2.011,7.735,5.105,-5.12,-8.467,334.9,338.9,-7.601,336.4,339.2,338.4,332.6,332.3,36,332.7,3,5,probe,5,0,103,norm,36,-5.059,up,norm,335.824459728,325.8,331.5,335.6,334.3,5,328.6,332.3,333.6,10,5,7.991,4.536,1.817,-1.348,-4.365,-7.77,332.6,2,232.8,-8.387,-8.192,10,-8.042,-7.551,-5.069,-4.979,-4.807,-4.417,5.107,8.358,23,-1.767,1.987,5.189,8.353,-7.731,-8.136,-1.725,1.426,335.9,328.9,330.2,337.0,337.7,337.9,330.9,333.0,330.7,330.6,0,norm,2.005,1.975,-1.257,-1.808,-4.884,-5.13,-1.191,-1.855,-1.721,-1.678,1.971,-1.773,326.2,337.0,-4.712,-8.073,1.802,-1.426,7.982,4.848,-5.135,-8.39,15,5.114,4.608,4.602,4.4,1.431,1.574,1.503,1.564,15,5.278,4.575,10,226.429707126,norm,0,51,51,51,187.838,187.847,187.85464008,187.855,187.856,187.859,down,0,1.73423406156,-10,001,016_goed,1920_1200,Intel(R) Core(TM) i5-3570 CPU @ 3.40GHz,orientation_search,LEPPC096,Intel(R) HD Graphics 2500,2018_Nov_28_1155,testMonitor,
326.3,318.4,328.8,327.7,36,-40,314.4,317.6,325.3,,7.611,7.853,8.141,7.584,7.734,7.681,8.378,4.98,-5.08,-8.44,1.405,-1.766,8.077,4.894,-4.8,-8.161,318.4,319.9,-7.804,315.5,322.7,321.5,322.1,317.4,36,322.6,4,5,probe,5,0,86,norm,36,-4.402,up,norm,318.824459728,321.3,319.8,323.7,326.4,5,315.2,317.9,308.8,10,5,7.774,4.965,1.375,-1.809,-4.837,-8.031,318.4,2,232.8,-8.073,-8.374,10,-8.314,-8.448,-5.099,-4.56,-4.736,-5.153,4.862,8.249,29,-1.524,1.435,4.79,8.432,-8.408,-7.77,-1.709,1.568,318.0,311.3,313.8,318.5,322.1,326.8,313.0,327.4,318.9,313.1,1,norm,1.579,1.219,-1.305,-1.259,-4.512,-5.096,-1.667,-2.061,-1.685,-1.784,2.011,-2.095,318.5,324.1,-4.467,-7.844,1.795,-1.554,7.611,4.878,-4.505,-8.344,15,5.166,4.736,4.476,4.369,1.11,1.693,1.927,1.842,15,5.024,4.744,10,226.429707126,norm,0,52,52,52,190.662,190.671,190.677394068,190.678,190.679,190.682,up,1,1.5020967724,8.4979032276,001,016_goed,1920_1200,Intel(R) Core(TM) i5-3570 CPU @ 3.40GHz,orientation_search,LEPPC096,Intel(R) HD Graphics 2500,2018_Nov_28_1155,testMonitor,
,331.3,331.7,333.6,36,0,324.2,333.4,312.7,351.0,8.06,7.956,8.273,8.454,8.101,7.751,7.889,5.195,-4.935,-8.41,1.448,-1.158,7.916,4.636,-5.124,-8.363,344.7,322.2,-8.083,331.4,338.7,336.6,313.3,338.9,36,347.0,3,5,prime,10,0,84,norm,36,-4.422,up,norm,332.729316119,338.4,343.9,328.4,352.7,4,342.2,335.3,322.6,10,5,7.665,4.508,1.28,-1.244,-4.675,-8.264,339.2,5,416.7,-8.294,-7.988,0,-8.317,-7.903,-4.758,-5.067,-4.502,-5.176,5.002,7.551,22,-1.691,1.796,4.565,7.925,-7.707,-7.508,-1.372,1.605,327.4,333.9,332.5,314.1,325.7,333.7,334.4,337.0,338.2,333.2,0,norm,1.119,1.128,-1.838,-1.527,-4.695,-4.833,-1.803,-2.024,-1.547,-1.793,1.367,-2.082,335.5,326.2,-4.575,-7.504,1.617,-1.666,8.404,4.86,-5.215,-7.637,16,5.057,4.619,4.595,4.404,1.476,1.57,1.353,1.794,16,5.102,5.147,-40,226.429707126,norm,0,53,53,53,192.221,192.23,192.237933334,192.238,192.24,192.242,up,1,3.40029532602,6.59970467398,001,016_goed,1920_1200,Intel(R) Core(TM) i5-3570 CPU @ 3.40GHz,orientation_search,LEPPC096,Intel(R) HD Graphics 2500,2018_Nov_28_1155,testMonitor,
,326.8,328.2,343.0,36,0,327.0,330.0,325.7,318.9,7.988,8.168,8.393,8.232,7.881,8.488,7.699,4.585,-4.484,-7.608,1.543,-1.682,7.618,5.005,-5.255,-7.732,341.9,315.2,-7.999,336.3,348.2,317.4,332.2,320.3,36,316.8,3,5,prime,10,0,62,norm,36,-5.183,up,norm,332.729316119,336.3,337.9,351.6,341.4,4,338.5,337.1,334.3,10,5,8.097,4.683,1.842,-1.993,-4.426,-7.89,334.9,5,394.7,-8.231,-7.968,0,-7.526,-7.51,-4.46,-4.561,-4.867,-4.579,4.644,7.649,22,-1.259,2.015,4.851,7.815,-8.32,-8.179,-2.047,1.211,331.4,337.6,347.3,323.9,329.3,331.7,331.0,342.9,352.7,325.5,1,norm,2.029,1.584,-1.852,-1.571,-5.267,-4.634,-1.606,-1.962,-1.309,-2.028,1.644,-1.482,338.0,340.6,-5.225,-8.298,1.175,-1.441,8.322,4.573,-5.172,-7.698,16,5.282,5.182,5.291,4.86,1.685,1.897,1.514,1.62,16,4.868,5.282,-40,226.429707126,norm,0,54,54,54,195.676,195.688,195.707861184,195.708,195.71,195.712,up,1,0.679077764245,9.32092223575,001,016_goed,1920_1200,Intel(R) Core(TM) i5-3570 CPU @ 3.40GHz,orientation_search,LEPPC096,Intel(R) HD Graphics 2500,2018_Nov_28_1155,testMonitor,
324.2,334.5,317.4,327.5,36,0,334.9,343.0,317.5,335.7,8.047,8.189,8.031,8.217,7.545,7.87,8.398,5.094,-4.518,-7.916,1.559,-1.714,8.124,5.021,-4.618,-7.656,340.6,323.6,-7.744,331.2,325.6,337.7,340.5,352.7,36,340.5,0,5,prime,10,0,96,norm,36,-5.141,up,norm,332.729316119,324.2,334.2,333.9,330.0,5,334.2,322.9,322.3,10,5,7.617,4.346,2.03,-1.222,-5.07,-8.384,338.0,5,428.7,-7.827,-7.933,0,-7.555,-8.224,-4.709,-4.968,-4.47,-4.371,4.879,8.448,5,-1.104,1.259,4.634,7.722,-8.354,-8.187,-1.839,1.384,331.0,325.8,328.6,339.7,322.8,342.7,338.9,347.4,,338.9,2,norm,1.771,1.433,-1.541,-1.376,-5.044,-5.269,-1.742,-1.547,-1.906,-1.241,1.526,-1.11,312.7,333.1,-5.022,-8.14,1.603,-1.669,7.948,4.414,-4.669,-8.411,16,5.224,4.867,4.517,4.671,1.81,1.747,1.373,1.967,16,5.078,4.678,-40,226.429707126,norm,0,55,55,55,196.425,196.437,196.456594714,196.457,196.458,196.461,up,1,0.964210436097,9.0357895639,001,016_goed,1920_1200,Intel(R) Core(TM) i5-3570 CPU @ 3.40GHz,orientation_search,LEPPC096,Intel(R) HD Graphics 2500,2018_Nov_28_1155,testMonitor,
331.5,313.1,325.1,339.8,36,0,333.6,352.7,340.3,,7.568,7.826,8.054,7.955,7.516,8.117,8.181,5.158,-4.42,-7.855,1.982,-1.223,7.624,4.754,-5.282,-8.022,324.9,327.9,-8.222,331.1,343.0,332.9,328.8,336.6,36,337.9,4,5,prime,10,0,98,norm,36,-4.428,up,norm,332.729316119,337.9,339.3,342.7,327.6,5,334.2,312.7,341.7,10,5,8.428,4.451,2.073,-1.326,-4.484,-7.974,333.8,5,430.7,-8.057,-8.365,0,-8.098,-7.902,-4.522,-4.609,-5.176,-5.208,4.977,7.597,29,-1.52,1.844,5.152,7.724,-8.214,-8.091,-1.365,2.047,338.7,324.1,335.2,314.5,340.5,325.3,327.1,316.5,335.0,329.2,3,norm,1.597,1.429,-1.553,-2.07,-4.753,-4.955,-2.028,-1.602,-1.111,-1.959,1.208,-1.104,336.7,343.7,-4.434,-7.907,1.644,-1.488,7.676,5.003,-4.484,-8.28,16,5.153,4.328,5.141,5.176,1.255,1.868,1.594,1.318,16,4.783,4.552,-40,226.429707126,norm,0,56,56,56,197.463,197.476,197.495595918,197.496,197.498,197.5,up,1,1.21324415196,8.78675584804,001,016_goed,1920_1200,Intel(R) Core(TM) i5-3570 CPU @ 3.40GHz,orientation_search,LEPPC096,Intel(R) HD Graphics 2500,2018_Nov_28_1155,testMonitor,
345.7,327.7,333.4,343.3,36,0,324.0,326.0,325.8,335.9,7.867,8.318,8.31,8.222,7.996,8.293,7.702,4.875,-4.832,-7.554,2.064,-1.571,8.184,5.075,-4.573,-8.34,333.3,347.7,-7.729,338.2,325.8,325.5,324.8,325.1,36,,4,5,prime,10,0,115,norm,36,-4.501,up,norm,332.729316119,347.9,343.4,352.7,332.8,3,334.1,331.6,315.6,10,5,8.387,4.898,1.486,-1.124,-4.376,-8.193,336.6,5,447.7,-8.079,-8.269,0,-8.143,-7.629,-4.323,-4.629,-4.339,-5.006,5.015,8.396,27,-2.028,1.75,5.017,7.52,-7.528,-7.522,-1.521,1.707,341.6,315.0,323.3,343.6,339.8,312.7,316.8,322.9,334.9,337.6,4,norm,1.574,1.719,-1.23,-1.95,-4.468,-4.482,-1.711,-1.339,-1.221,-1.684,1.697,-1.617,327.0,338.8,-4.462,-7.754,1.122,-1.404,8.426,4.923,-5.016,-8.364,16,4.391,4.568,4.937,4.304,1.911,1.456,1.481,1.85,16,4.589,4.522,-40,226.429707126,norm,0,57,57,57,198.746,198.755,198.772439902,198.773,198.774,198.777,up,1,1.11075630804,8.88924369196,001,016_goed,1920_1200,Intel(R) Core(TM) i5-3570 CPU @ 3.40GHz,orientation_search,LEPPC096,Intel(R) HD Graphics 2500,2018_Nov_28_1155,testMonitor,
,421.1,422.1,425.9,36,80,410.1,415.6,415.8,405.9,7.55,8.029,7.521,7.659,7.884,7.517,8.023,4.779,-4.807,-7.727,1.389,-1.274,7.82,4.498,-4.357,-8.35,416.7,421.5,-8.477,413.0,407.1,422.9,413.9,418.7,36,420.9,3,5,probe,5,0,79,norm,36,-5.173,up,norm,415.855227639,413.2,407.6,416.3,419.8,4,419.6,405.9,421.9,10,5,8.001,5.206,1.7,-1.184,-5.179,-7.612,414.3,2,336.9,-8.359,-8.258,0,-8.416,-8.295,-4.804,-4.653,-4.902,-4.342,5.111,7.687,22,-1.482,1.251,4.707,7.801,-7.613,-8.343,-1.813,1.627,413.5,414.5,408.8,417.6,406.4,413.0,416.1,419.8,408.6,410.0,0,norm,1.561,1.807,-1.284,-1.979,-4.716,-4.864,-1.826,-1.737,-2.062,-1.903,1.4,-1.164,418.5,419.1,-5.214,-7.993,1.4,-1.727,8.46,5.058,-4.72,-7.861,17,4.864,4.42,5.075,5.21,1.104,1.277,1.407,1.31,17,4.729,4.744,0,332.729316119,norm,0,58,58,58,199.927,199.937,199.9433061,199.943,199.945,199.948,up,1,1.75224792172,8.24775207828,001,016_goed,1920_1200,Intel(R) Core(TM) i5-3570 CPU @ 3.40GHz,orientation_search,LEPPC096,Intel(R) HD Graphics 2500,2018_Nov_28_1155,testMonitor,
431.2,426.5,427.6,424.3,36,80,437.7,438.8,434.8,427.9,7.902,8.207,7.652,8.277,8.124,7.603,7.694,4.636,-4.314,-7.977,1.743,-1.86,7.725,4.706,-4.415,-7.699,431.5,434.7,-7.97,433.9,432.6,434.8,433.8,434.6,36,439.7,2,5,probe,5,0,97,norm,36,-4.369,down,norm,433.855227639,427.7,430.9,426.5,431.1,1,429.9,,434.1,10,5,8.139,5.092,1.112,-1.149,-5.01,-7.536,432.9,2,336.9,-8.467,-7.604,0,-7.521,-7.781,-4.332,-4.574,-5.258,-4.599,4.341,8.464,13,-1.153,1.696,4.352,8.016,-7.977,-8.042,-1.831,1.998,438.7,429.1,430.6,439.1,437.7,426.7,430.8,443.0,423.9,430.3,1,norm,2.079,1.92,-1.192,-1.77,-5.137,-4.693,-1.974,-1.872,-1.738,-1.369,2.1,-1.913,430.7,443.9,-4.525,-8.476,1.938,-1.201,7.708,4.373,-5.172,-8.203,17,5.207,4.634,4.374,4.408,1.658,1.498,1.136,1.783,17,4.409,5.032,0,332.729316119,norm,0,59,59,59,201.733,201.742,201.751860653,201.752,201.754,201.756,down,1,0.998870190873,9.00112980913,001,016_goed,1920_1200,Intel(R) Core(TM) i5-3570 CPU @ 3.40GHz,orientation_search,LEPPC096,Intel(R) HD Graphics 2500,2018_Nov_28_1155,testMonitor,
271.2,282.1,274.7,281.0,36,-10,272.3,279.4,261.0,274.4,8.08,8.099,8.129,7.968,7.968,7.907,8.429,5.197,-4.479,-7.559,1.125,-1.434,8.238,4.409,-4.637,-7.727,280.4,277.0,-7.922,278.6,292.5,271.6,287.9,282.5,36,278.6,0,5,prime,10,0,76,norm,36,-4.812,down,norm,277.756470332,281.4,271.8,285.8,297.4,0,258.3,283.4,277.3,10,5,8.013,4.528,1.376,-1.624,-4.93,-7.733,282.4,5,353.8,-7.968,-7.907,-10,-7.93,-7.712,-4.547,-4.323,-4.355,-4.417,4.806,8.417,0,-1.916,1.677,5.008,8.496,-7.803,-7.621,-1.711,1.352,297.8,269.7,257.8,274.4,293.0,,285.7,273.7,286.2,291.3,0,norm,1.949,1.713,-2.038,-1.416,-4.69,-5.181,-1.979,-1.892,-1.344,-2.082,1.57,-1.457,270.1,292.4,-4.314,-8.058,1.109,-2.09,8.443,5.146,-5.147,-8.035,18,5.299,4.449,4.561,4.988,1.143,1.407,1.825,1.592,18,4.954,4.676,80,332.729316119,norm,0,60,60,60,202.787,232.07,232.077878953,232.078,232.08,232.082,down,1,3.43410447912,6.56589552088,001,016_goed,1920_1200,Intel(R) Core(TM) i5-3570 CPU @ 3.40GHz,orientation_search,LEPPC096,Intel(R) HD Graphics 2500,2018_Nov_28_1155,testMonitor,
280.5,283.6,261.8,275.4,36,-10,289.7,288.9,287.2,269.1,7.883,7.609,8.383,7.84,8.009,7.807,8.419,4.443,-5.257,-8.091,1.632,-1.907,7.609,5.08,-4.939,-8.187,289.9,286.2,-7.779,267.5,295.9,270.4,286.2,270.5,36,272.2,3,5,prime,10,0,93,norm,36,-5.194,down,norm,277.756470332,282.5,297.8,273.4,269.3,1,276.4,261.9,275.9,10,5,7.866,4.703,1.724,-2.078,-5.017,-8.422,264.5,5,370.8,-8.398,-7.998,-10,-8.303,-7.502,-5.012,-5.075,-4.704,-4.878,4.825,8.325,19,-1.636,1.333,4.398,8.381,-7.773,-8.362,-1.263,1.932,274.5,273.8,269.2,281.0,286.9,257.8,266.2,273.0,264.6,293.8,1,norm,1.815,1.661,-1.275,-1.758,-4.958,-5.166,-1.867,-1.186,-1.186,-1.842,1.333,-1.747,,290.5,-4.821,-8.099,1.392,-1.735,8.161,4.377,-4.93,-7.891,18,4.949,4.336,4.666,4.874,1.785,1.668,1.567,1.299,18,4.784,4.893,80,332.729316119,norm,0,61,61,61,235.549,235.559,235.571127717,235.571,235.573,235.576,down,1,4.41983652633,5.58016347367,001,016_goed,1920_1200,Intel(R) Core(TM) i5-3570 CPU @ 3.40GHz,orientation_search,LEPPC096,Intel(R) HD Graphics 2500,2018_Nov_28_1155,testMonitor,
280.1,283.3,260.5,279.1,36,-10,293.6,266.0,275.2,261.5,8.087,8.31,8.243,7.952,8.261,8.069,8.422,4.413,-4.865,-8.488,1.555,-1.938,7.956,4.711,-4.373,-8.455,276.3,271.3,-8.096,266.3,261.5,283.9,297.8,276.9,36,287.0,2,5,prime,10,0,66,norm,36,-5.165,up,norm,277.756470332,,289.9,286.3,279.4,5,287.6,274.5,284.5,10,5,7.561,5.125,1.664,-1.232,-5.176,-7.951,278.5,5,343.8,-7.557,-8.0,-10,-8.354,-7.958,-4.479,-5.244,-5.21,-4.556,5.072,8.34,17,-1.965,1.188,5.191,7.613,-8.22,-7.584,-1.41,1.154,269.3,274.1,284.6,278.6,285.2,276.9,278.3,271.6,263.8,273.8,2,norm,1.613,1.915,-1.714,-1.38,-4.526,-4.553,-1.365,-1.59,-1.13,-1.877,1.755,-2.025,273.8,257.8,-5.141,-7.84,1.609,-1.139,7.684,5.251,-4.945,-7.916,18,4.39,4.67,4.3,5.294,2.084,1.357,1.857,1.625,18,4.56,4.879,80,332.729316119,norm,0,62,62,62,240.023,240.033,240.04818577,240.048,240.05,240.053,down,0,1.72007447141,-10,001,016_goed,1920_1200,Intel(R) Core(TM) i5-3570 CPU @ 3.40GHz,orientation_search,LEPPC096,Intel(R) HD Graphics 2500,2018_Nov_28_1155,testMonitor,
269.6,265.3,267.4,292.0,36,-10,279.6,266.3,279.2,281.8,8.143,7.602,7.83,8.078,8.464,8.186,8.254,5.289,-4.595,-7.832,1.551,-1.71,8.094,4.902,-4.509,-8.094,281.8,274.2,-7.56,275.0,268.0,273.5,259.4,275.0,36,272.0,1,5,prime,10,0,64,norm,36,-4.702,up,norm,277.756470332,275.0,261.8,281.1,265.0,5,,268.0,275.2,10,5,8.227,4.996,1.589,-1.623,-5.289,-7.576,285.2,5,341.8,-7.785,-8.0,-10,-7.667,-7.729,-5.107,-4.982,-4.706,-4.366,5.064,8.108,11,-1.19,1.332,4.35,8.414,-7.636,-8.241,-1.29,1.303,284.6,297.8,260.1,257.8,273.8,267.6,274.6,279.0,278.0,265.1,3,norm,1.164,1.783,-1.207,-1.336,-4.883,-4.302,-1.536,-1.966,-1.783,-1.51,1.194,-1.228,265.1,258.7,-4.814,-7.617,1.951,-1.591,8.073,5.263,-4.334,-7.948,18,4.515,4.68,4.899,4.367,1.661,1.68,1.677,1.172,18,4.866,4.873,80,332.729316119,norm,0,63,63,63,242.845,242.854,242.871629778,242.872,242.873,242.876,down,0,1.43522794946,-10,001,016_goed,1920_1200,Intel(R) Core(TM) i5-3570 CPU @ 3.40GHz,orientation_search,LEPPC096,Intel(R) HD Graphics 2500,2018_Nov_28_1155,testMonitor,
273.4,279.0,266.2,264.1,36,-10,284.9,282.4,279.9,288.7,8.336,8.023,7.961,7.974,8.209,8.325,8.439,4.984,-5.114,-7.89,1.23,-1.188,8.446,5.17,-4.424,-8.073,297.8,262.2,-8.228,,259.6,268.7,281.4,268.9,36,284.7,5,5,prime,10,0,68,norm,36,-4.986,down,norm,277.756470332,289.4,283.1,272.0,287.7,1,272.1,276.0,279.5,10,5,8.2,5.123,1.665,-1.138,-4.824,-7.767,290.8,5,345.8,-7.745,-8.229,-10,-7.748,-8.107,-4.698,-5.241,-4.835,-4.567,4.725,7.816,31,-1.922,1.842,4.42,8.355,-7.998,-7.585,-1.702,1.281,271.9,266.4,277.8,284.5,289.4,289.7,263.4,281.0,266.9,277.5,4,norm,1.416,1.655,-1.791,-1.568,-4.404,-4.745,-1.989,-2.054,-1.855,-1.277,1.733,-1.193,257.8,277.8,-5.172,-8.312,1.954,-1.296,8.008,4.674,-4.846,-7.605,18,4.558,4.344,4.965,4.528,1.205,1.19,1.165,1.929,18,4.62,4.763,80,332.729316119,norm,0,64,64,64,245.377,245.386,245.398669584,245.399,245.401,245.403,down,1,3.54874705285,6.45125294715,001,016_goed,1920_1200,Intel(R) Core(TM) i5-3570 CPU @ 3.40GHz,orientation_search,LEPPC096,Intel(R) HD Graphics 2500,2018_Nov_28_1155,testMonitor,
368.3,375.3,377.4,366.4,36,10,379.5,377.4,386.4,372.2,7.749,7.763,7.846,8.105,7.513,8.088,8.229,4.78,-5.272,-7.81,1.279,-1.924,8.002,4.793,-4.468,-7.616,368.7,385.1,-8.33,374.6,,382.4,380.8,381.1,36,376.1,5,5,probe,5,0,104,norm,36,-5.005,down,norm,376.441202839,376.9,377.8,379.2,372.6,0,368.1,372.7,384.7,10,5,7.659,5.199,1.556,-1.456,-5.082,-7.734,382.3,2,272.4,-8.305,-7.826,-10,-8.304,-8.286,-4.483,-4.407,-4.582,-5.256,5.11,8.019,30,-1.136,2.057,4.545,8.265,-8.494,-7.828,-1.822,1.898,370.9,368.3,380.8,384.7,377.8,382.9,377.7,373.3,372.7,369.7,0,norm,1.499,1.621,-1.309,-1.806,-4.489,-5.27,-2.007,-1.148,-1.856,-1.905,1.575,-1.611,377.5,379.9,-4.507,-8.344,1.756,-1.519,8.265,4.997,-5.012,-8.304,19,4.335,5.146,5.139,5.001,1.346,1.647,1.833,1.517,19,4.487,4.426,-10,277.756470332,norm,0,65,65,65,248.971,248.981,248.987366844,248.988,248.989,248.992,down,1,1.63819756958,8.36180243042,001,016_goed,1920_1200,Intel(R) Core(TM) i5-3570 CPU @ 3.40GHz,orientation_search,LEPPC096,Intel(R) HD Graphics 2500,2018_Nov_28_1155,testMonitor,
389.1,397.3,383.0,392.8,36,10,395.6,390.6,390.4,388.1,8.302,7.835,8.496,8.19,7.684,7.785,7.864,4.989,-5.036,-8.179,1.183,-1.416,7.714,4.581,-4.776,-8.096,387.8,388.5,-7.737,383.0,388.8,,391.8,385.5,36,394.8,5,5,probe,5,0,117,norm,36,-4.629,up,norm,389.441202839,386.2,387.8,399.0,387.9,3,394.4,390.8,390.0,10,5,8.073,4.89,1.916,-1.204,-4.833,-8.475,399.4,2,272.4,-7.75,-7.75,-10,-8.297,-8.304,-4.427,-4.967,-4.443,-4.651,4.939,8.38,33,-1.105,1.11,4.536,7.764,-8.345,-7.841,-1.72,1.891,384.1,385.1,389.6,390.6,386.2,399.0,391.4,396.8,389.1,379.4,1,norm,1.644,1.7,-1.783,-1.136,-4.678,-5.003,-2.065,-1.872,-1.524,-1.392,1.603,-1.881,390.7,394.5,-5.089,-8.104,1.864,-1.861,8.348,5.183,-5.117,-7.735,19,4.634,5.1,4.423,4.99,2.086,1.62,1.389,1.614,19,4.667,4.604,-10,277.756470332,norm,0,66,66,66,250.672,250.693,250.704435535,250.705,250.707,250.71,up,1,3.36794982356,6.63205017644,001,016_goed,1920_1200,Intel(R) Core(TM) i5-3570 CPU @ 3.40GHz,orientation_search,LEPPC096,Intel(R) HD Graphics 2500,2018_Nov_28_1155,testMonitor,
104.4,102.4,105.1,92.6,36,-10,108.8,109.9,91.4,90.1,8.332,7.839,7.517,7.94,7.69,7.505,8.459,4.683,-5.046,-8.188,1.325,-1.406,8.488,5.103,-4.919,-8.207,104.9,109.6,-7.885,105.0,79.5,104.1,103.8,106.9,36,96.4,3,5,prime,10,0,103,norm,36,-4.353,down,norm,99.5167021223,114.1,86.0,92.3,94.1,0,96.3,119.5,106.0,10,6,8.275,5.264,1.508,-1.675,-4.707,-7.652,88.0,6,202.5,-7.591,-7.785,-10,-7.695,-7.759,-4.96,-4.835,-5.154,-5.189,5.162,7.579,18,-1.178,1.766,4.712,8.261,-8.274,-7.945,-1.165,1.78,97.5,110.8,103.5,100.2,99.7,104.9,102.2,79.7,98.4,100.1,0,norm,1.344,1.992,-1.129,-1.241,-4.481,-4.868,-1.937,-1.192,-1.124,-1.178,1.827,-1.538,99.6,,-4.893,-8.477,1.618,-2.066,8.183,4.758,-5.279,-8.116,20,5.17,4.511,4.584,4.848,1.507,1.397,1.926,1.253,20,5.283,4.869,10,277.756470332,norm,0,67,67,67,254.12,254.14,254.15190424,254.152,254.154,254.157,down,1,1.65386367252,8.34613632748,001,016_goed,1920_1200,Intel(R) Core(TM) i5-3570 CPU @ 3.40GHz,orientation_search,LEPPC096,Intel(R) HD Graphics 2500,2018_Nov_28_1155,testMonitor,
109.5,101.2,100.0,87.5,36,-10,105.7,106.6,79.5,113.9,8.0,8.409,7.732,7.587,7.518,7.895,8.042,4.475,-5.029,-8.049,1.108,-1.375,7.677,4.586,-5.261,-8.47,119.5,97.4,-8.191,,115.5,103.3,93.0,93.8,36,91.1,5,5,prime,10,0,70,norm,36,-4.413,down,norm,99.5167021223,88.4,89.2,107.2,92.7,1,89.8,85.2,81.9,10,6,8.382,4.735,1.6,-1.717,-5.264,-8.106,113.3,6,169.5,-8.079,-8.177,-10,-8.222,-7.629,-5.121,-5.019,-4.698,-5.186,5.187,7.77,31,-1.344,1.17,4.837,7.591,-7.876,-7.783,-1.434,1.337,106.9,108.6,89.6,92.9,89.2,86.9,98.8,104.7,95.1,92.9,1,norm,1.948,1.595,-1.101,-1.937,-5.182,-4.844,-1.332,-1.282,-2.07,-1.922,1.144,-1.479,85.1,90.0,-4.97,-7.754,1.336,-1.254,8.348,4.386,-5.097,-7.692,20,4.486,4.785,4.763,5.242,1.761,1.406,1.971,1.561,20,4.78,4.519,10,277.756470332,norm,0,68,68,68,255.851,255.86,255.86758293,255.868,255.869,255.872,down,1,3.02346338565,6.97653661435,001,016_goed,1920_1200,Intel(R) Core(TM) i5-3570 CPU @ 3.40GHz,orientation_search,LEPPC096,Intel(R) HD Graphics 2500,2018_Nov_28_1155,testMonitor,
97.0,106.7,109.9,101.5,36,-10,102.3,105.8,91.6,108.5,7.582,7.736,7.838,8.402,8.343,8.255,8.269,4.902,-5.064,-7.577,1.442,-1.776,7.604,4.433,-5.288,-7.872,99.8,105.8,-8.008,104.1,86.9,98.5,91.2,102.9,36,105.4,1,5,prime,10,0,96,norm,36,-4.918,down,norm,99.5167021223,104.6,104.2,98.1,102.4,0,100.2,101.7,80.3,10,6,7.955,4.736,1.962,-1.228,-4.994,-8.049,114.8,6,195.5,-7.515,-7.539,-10,-8.389,-7.914,-4.973,-4.79,-4.803,-5.175,4.646,8.104,6,-1.767,2.039,5.264,8.172,-8.178,-8.363,-1.173,1.583,110.4,106.1,119.5,100.0,85.9,100.1,103.2,,79.5,113.2,2,norm,1.536,1.187,-1.818,-1.898,-5.199,-4.706,-2.006,-1.348,-1.146,-1.341,1.504,-1.7,115.9,102.8,-5.132,-8.035,1.251,-1.679,7.762,5.288,-4.94,-8.406,20,5.153,4.581,5.273,4.648,1.937,1.488,1.355,1.257,20,4.951,5.207,10,277.756470332,norm,0,69,69,69,258.928,258.937,258.954305967,258.954,258.956,258.959,down,1,1.21390489259,8.78609510741,001,016_goed,1920_1200,Intel(R) Core(TM) i5-3570 CPU @ 3.40GHz,orientation_search,LEPPC096,Intel(R) HD Graphics 2500,2018_Nov_28_1155,testMonitor,
103.6,98.4,92.6,87.2,36,-10,95.6,99.3,119.4,101.9,7.806,8.481,7.599,8.433,7.653,7.642,7.556,4.301,-5.211,-8.443,2.014,-1.224,8.399,5.063,-4.325,-7.961,81.2,113.6,-7.738,100.5,110.8,105.5,101.8,114.5,36,93.8,2,5,prime,10,0,78,norm,36,-4.359,down,norm,99.5167021223,111.2,83.7,88.4,119.5,1,108.3,,94.5,10,6,8.033,5.231,1.312,-1.961,-5.223,-8.26,79.5,6,177.5,-8.331,-7.896,-10,-7.509,-7.794,-4.44,-5.16,-5.284,-4.868,4.872,7.67,13,-1.337,1.217,4.908,7.761,-7.937,-8.073,-1.176,1.561,110.1,90.8,80.5,105.4,118.0,99.9,104.7,91.0,91.0,97.4,3,norm,1.698,1.837,-2.062,-1.305,-4.413,-4.435,-1.329,-1.463,-1.304,-1.4,1.731,-1.221,114.4,90.9,-4.495,-7.633,1.211,-1.205,8.203,4.422,-5.204,-8.178,20,4.444,4.871,5.24,4.389,1.148,1.93,1.504,1.63,20,5.122,4.556,10,277.756470332,norm,0,70,70,70,260.203,260.213,260.218970772,260.219,260.221,260.224,down,1,1.70306877649,8.29693122351,001,016_goed,1920_1200,Intel(R) Core(TM) i5-3570 CPU @ 3.40GHz,orientation_search,LEPPC096,Intel(R) HD Graphics 2500,2018_Nov_28_1155,testMonitor,
102.9,103.3,106.1,119.3,36,-10,114.8,79.5,114.3,105.8,7.815,7.82,7.607,8.302,8.013,8.13,7.635,4.411,-4.613,-8.322,1.567,-1.664,8.455,4.646,-4.806,-7.824,89.9,103.2,-8.03,105.3,89.5,100.2,95.5,107.4,36,112.5,0,5,prime,10,0,115,norm,36,-4.472,up,norm,99.5167021223,111.7,82.1,86.7,112.7,4,118.4,95.4,88.3,10,6,7.88,5.126,1.865,-1.331,-4.408,-8.193,88.7,6,214.5,-7.828,-7.684,-10,-8.176,-7.788,-5.015,-4.733,-4.36,-4.471,5.143,8.184,4,-1.907,1.946,4.722,7.714,-7.658,-7.655,-1.877,1.537,111.6,91.5,82.6,97.1,92.6,90.2,104.2,99.5,95.7,,4,norm,1.754,1.657,-1.964,-1.756,-4.345,-4.653,-1.264,-1.684,-1.968,-1.483,1.723,-1.276,83.3,119.5,-4.871,-7.541,2.1,-1.777,7.767,4.686,-5.201,-7.714,20,5.15,4.989,5.127,4.596,1.874,1.895,1.615,1.52,20,4.864,4.511,10,277.756470332,norm,0,71,71,71,261.966,261.975,261.983577471,261.984,261.985,261.988,up,1,1.09652759519,8.90347240481,001,016_goed,1920_1200,Intel(R) Core(TM) i5-3570 CPU @ 3.40GHz,orientation_search,LEPPC096,Intel(R) HD Graphics 2500,2018_Nov_28_1155,testMonitor,
83.2,92.6,99.0,101.8,36,-10,119.5,95.0,98.3,97.2,7.858,8.063,8.362,7.824,8.017,7.73,7.573,4.74,-5.203,-8.345,1.195,-1.455,7.693,4.705,-4.822,-8.356,94.3,100.3,-8.275,81.0,90.1,113.7,118.3,115.8,36,113.8,1,5,prime,10,0,116,norm,36,-5.28,down,norm,99.5167021223,98.8,90.1,91.7,109.2,0,104.0,104.2,86.2,10,6,7.577,4.989,1.612,-1.419,-4.718,-8.1,115.5,6,215.5,-7.558,-7.752,-10,-7.509,-8.408,-4.55,-5.186,-5.237,-4.407,4.662,8.012,6,-1.226,1.409,4.947,8.109,-8.369,-8.333,-1.764,1.857,94.2,88.9,79.5,87.3,94.0,94.2,116.5,,100.3,107.6,5,norm,1.37,1.559,-1.134,-2.049,-4.451,-4.6,-1.286,-1.483,-1.96,-1.474,1.566,-1.524,104.0,100.5,-4.852,-7.531,1.29,-1.507,8.169,4.713,-4.358,-8.37,20,4.422,5.002,4.887,5.034,1.134,1.416,1.505,2.003,20,4.716,4.819,10,277.756470332,norm,0,72,72,72,263.115,263.125,263.134805275,263.135,263.137,263.139,down,1,1.00557780996,8.99442219004,001,016_goed,1920_1200,Intel(R) Core(TM) i5-3570 CPU @ 3.40GHz,orientation_search,LEPPC096,Intel(R) HD Graphics 2500,2018_Nov_28_1155,testMonitor,
147.7,163.2,151.9,159.6,36,40,151.5,161.7,163.5,145.1,8.462,8.405,7.822,8.438,7.995,7.63,8.322,4.802,-4.35,-8.154,1.932,-1.679,8.181,4.301,-4.492,-7.699,149.6,164.4,-7.943,158.4,157.9,155.8,159.5,153.1,36,158.1,3,5,probe,5,0,63,norm,36,-4.86,down,norm,154.435417607,160.2,155.9,155.8,148.6,1,160.6,156.2,153.8,10,6,8.329,4.405,1.603,-1.246,-4.933,-8.119,151.9,2,91.4,-8.329,-7.693,-10,-8.02,-8.427,-5.052,-5.046,-4.768,-5.022,4.653,8.471,19,-2.049,2.063,4.647,8.112,-7.896,-7.921,-1.864,1.199,147.2,160.3,150.4,150.0,154.9,157.4,160.0,144.4,148.2,152.4,0,norm,2.084,1.965,-1.882,-1.225,-4.695,-5.161,-1.661,-1.79,-1.338,-1.224,1.111,-1.224,,157.2,-4.907,-8.113,1.685,-2.087,8.382,4.909,-5.263,-7.512,21,4.946,4.704,4.976,5.046,1.401,1.987,1.598,1.843,21,5.233,4.429,-10,99.5167021223,norm,0,73,73,73,264.165,264.175,264.183096389,264.183,264.185,264.188,down,1,5.83352958344,4.16647041656,001,016_goed,1920_1200,Intel(R) Core(TM) i5-3570 CPU @ 3.40GHz,orientation_search,LEPPC096,Intel(R) HD Graphics 2500,2018_Nov_28_1155,testMonitor,
210.3,207.1,198.5,199.0,36,40,205.6,199.7,207.7,201.1,8.181,7.529,8.118,7.613,7.544,7.968,8.474,5.096,-4.489,-8.299,1.408,-1.559,7.501,5.193,-4.655,-7.963,200.4,197.6,-7.558,,195.3,205.3,192.7,196.6,36,197.0,5,5,probe,5,0,111,norm,36,-4.344,down,norm,202.435417607,209.5,192.4,202.7,203.2,1,210.8,199.6,197.3,10,6,8.278,4.9,1.166,-1.99,-4.744,-8.191,198.2,2,91.4,-7.732,-8.36,-10,-7.828,-8.101,-5.183,-4.84,-4.932,-4.619,4.981,7.728,31,-1.49,1.478,5.025,7.917,-8.445,-7.994,-1.751,1.493,203.4,209.9,201.0,206.7,194.9,205.9,194.7,201.4,201.7,212.4,1,norm,1.26,1.984,-1.756,-1.433,-4.519,-4.872,-1.724,-2.021,-1.427,-1.718,2.09,-1.8,207.1,202.3,-4.979,-8.44,1.262,-1.584,7.976,4.774,-4.726,-7.735,21,4.431,5.029,4.489,4.867,1.197,2.044,1.627,1.616,21,4.572,5.135,-10,99.5167021223,norm,0,74,74,74,270.062,270.071,270.077692714,270.078,270.08,270.082,down,1,2.05916994193,7.94083005807,001,016_goed,1920_1200,Intel(R) Core(TM) i5-3570 CPU @ 3.40GHz,orientation_search,LEPPC096,Intel(R) HD Graphics 2500,2018_Nov_28_1155,testMonitor,
301.4,301.8,292.7,275.0,36,20,299.9,295.2,305.7,298.3,7.543,7.631,7.918,8.338,7.746,7.966,8.002,4.364,-4.817,-7.988,1.608,-1.372,7.539,5.09,-5.227,-7.974,302.0,295.7,-8.352,284.8,300.0,,291.4,294.1,36,290.7,5,5,prime,10,0,93,norm,36,-4.367,up,norm,295.046204771,305.2,291.2,281.8,285.9,3,287.0,281.8,283.6,10,6,7.634,4.682,1.921,-1.883,-4.459,-8.053,294.2,6,388.0,-8.04,-7.593,20,-8.201,-8.411,-4.754,-4.666,-4.726,-4.388,5.096,7.979,33,-1.331,1.572,4.383,8.333,-8.01,-8.27,-1.29,1.948,290.0,281.5,277.0,308.1,298.4,287.6,303.5,299.7,301.1,291.6,0,norm,1.407,2.088,-1.209,-1.929,-5.181,-5.248,-1.309,-1.293,-1.347,-1.43,1.956,-1.711,285.5,315.0,-4.639,-8.313,1.186,-1.842,7.778,4.908,-5.046,-8.365,22,4.454,4.633,4.432,5.036,1.27,1.232,1.882,1.459,22,4.585,4.519,40,99.5167021223,norm,0,75,75,75,272.174,272.187,272.20656883,272.207,272.208,272.211,up,1,1.29028457726,8.70971542274,001,016_goed,1920_1200,Intel(R) Core(TM) i5-3570 CPU @ 3.40GHz,orientation_search,LEPPC096,Intel(R) HD Graphics 2500,2018_Nov_28_1155,testMonitor,
294.7,309.4,300.1,293.8,36,20,304.6,306.8,290.8,306.2,8.144,7.901,7.771,8.437,8.446,8.054,7.73,5.019,-5.18,-8.271,1.658,-1.396,7.561,5.062,-4.748,-7.669,287.1,289.7,-7.634,301.6,294.5,275.0,280.5,308.0,36,293.2,1,5,prime,10,0,76,norm,36,-4.847,down,norm,295.046204771,281.5,291.4,290.7,305.3,2,292.1,315.0,303.1,10,6,8.067,5.262,2.038,-1.413,-5.249,-8.06,292.5,6,371.0,-8.472,-7.73,20,-8.444,-7.938,-4.796,-4.324,-4.397,-5.267,5.227,7.771,8,-1.398,1.947,5.248,7.776,-7.704,-7.733,-2.076,1.625,286.2,,300.7,299.8,306.8,313.5,307.4,309.0,304.4,303.7,1,norm,1.447,1.349,-1.702,-1.469,-4.465,-4.345,-1.726,-1.784,-1.729,-1.255,1.655,-1.732,308.3,286.9,-4.471,-7.511,1.519,-1.667,8.355,4.669,-5.283,-7.855,22,5.198,4.58,4.883,4.658,1.265,1.805,1.189,1.112,22,5.055,5.131,40,99.5167021223,norm,0,76,76,76,273.533,273.542,273.555181501,273.555,273.557,273.56,down,1,1.04446733106,8.95553266894,001,016_goed,1920_1200,Intel(R) Core(TM) i5-3570 CPU @ 3.40GHz,orientation_search,LEPPC096,Intel(R) HD Graphics 2500,2018_Nov_28_1155,testMonitor,
285.8,299.0,281.4,308.3,36,20,290.4,308.6,315.0,292.3,8.32,7.58,7.733,7.878,7.542,7.743,7.791,5.286,-4.937,-8.085,1.504,-1.44,8.203,4.688,-5.283,-8.285,286.8,306.8,-7.726,300.1,287.8,297.7,288.5,300.6,36,300.2,2,5,prime,10,0,112,norm,36,-5.25,up,norm,295.046204771,,296.4,296.1,296.8,5,294.9,300.5,300.9,10,6,7.707,4.554,1.893,-1.511,-4.824,-7.972,289.8,6,407.0,-7.767,-7.75,20,-7.864,-8.072,-5.122,-4.464,-4.633,-4.703,5.067,8.225,17,-1.986,1.439,5.142,7.747,-8.123,-7.792,-1.911,1.252,301.5,306.7,291.5,288.9,302.9,292.1,303.6,306.2,286.6,302.1,2,norm,1.834,1.191,-1.498,-1.465,-5.199,-4.886,-1.693,-1.844,-1.832,-1.915,1.573,-1.874,275.0,294.1,-5.151,-7.906,1.194,-1.826,8.339,4.852,-5.117,-8.127,22,5.062,4.675,4.534,4.732,1.712,1.929,1.138,1.971,22,4.653,4.598,40,99.5167021223,norm,0,77,77,77,274.637,274.65,274.669217969,274.669,274.671,274.674,up,1,0.944258423522,9.05574157648,001,016_goed,1920_1200,Intel(R) Core(TM) i5-3570 CPU @ 3.40GHz,orientation_search,LEPPC096,Intel(R) HD Graphics 2500,2018_Nov_28_1155,testMonitor,
,289.1,311.5,292.8,36,20,283.1,291.4,298.3,281.6,8.485,7.65,8.352,7.6,7.554,7.981,7.644,5.115,-4.552,-7.975,1.104,-1.482,7.963,4.519,-4.796,-7.746,287.2,296.9,-8.128,277.0,301.3,292.4,284.4,294.1,36,296.5,3,5,prime,10,0,116,norm,36,-5.219,up,norm,295.046204771,295.7,302.3,307.3,296.8,4,292.0,293.6,315.0,10,6,7.654,5.012,1.584,-1.968,-4.879,-8.207,297.0,6,411.0,-7.507,-8.26,20,-8.478,-8.403,-4.818,-4.995,-4.766,-4.798,4.561,8.355,22,-2.029,1.285,5.151,8.474,-8.394,-8.196,-1.281,1.182,304.2,297.5,311.9,275.0,305.0,289.2,304.9,299.3,280.5,305.5,3,norm,1.798,1.31,-1.157,-1.367,-4.366,-5.217,-1.741,-1.377,-1.578,-1.693,1.222,-1.934,291.6,287.5,-4.91,-7.963,1.25,-1.371,7.564,4.382,-5.3,-8.399,22,4.387,5.273,4.675,4.526,1.105,1.448,1.944,1.47,22,4.901,5.214,40,99.5167021223,norm,0,78,78,78,275.651,275.664,275.683108312,275.683,275.685,275.688,down,0,1.05774372019,-10,001,016_goed,1920_1200,Intel(R) Core(TM) i5-3570 CPU @ 3.40GHz,orientation_search,LEPPC096,Intel(R) HD Graphics 2500,2018_Nov_28_1155,testMonitor,
310.0,287.4,282.7,287.3,36,20,295.3,294.5,286.6,291.4,7.544,8.288,8.054,8.113,8.089,8.054,8.37,4.486,-4.735,-7.563,1.123,-1.185,7.626,4.368,-5.036,-7.859,285.0,295.2,-7.815,283.3,301.0,302.6,296.0,,36,297.8,4,5,prime,10,0,75,norm,36,-5.042,down,norm,295.046204771,295.5,275.0,299.1,311.5,2,307.5,315.0,288.5,10,6,8.281,4.746,1.935,-1.669,-4.906,-8.188,281.6,6,370.0,-7.859,-7.603,20,-7.567,-7.672,-5.037,-4.698,-4.437,-4.608,4.816,8.44,26,-2.003,1.428,4.642,7.805,-8.236,-8.353,-1.196,1.512,313.0,291.0,306.7,296.7,287.6,306.9,303.2,291.5,297.2,298.9,4,norm,1.772,2.03,-1.302,-1.809,-4.557,-5.023,-1.835,-1.645,-1.86,-1.286,1.638,-1.689,289.8,294.8,-5.18,-7.813,1.48,-1.553,7.694,5.215,-4.454,-8.05,22,4.356,5.206,5.299,4.602,1.24,1.755,2.061,1.504,22,5.01,4.871,40,99.5167021223,norm,0,79,79,79,277.818,277.827,277.845145518,277.845,277.847,277.85,down,1,2.41813139894,7.58186860106,001,016_goed,1920_1200,Intel(R) Core(TM) i5-3570 CPU @ 3.40GHz,orientation_search,LEPPC096,Intel(R) HD Graphics 2500,2018_Nov_28_1155,testMonitor,
303.2,276.8,282.6,292.5,36,20,294.3,313.8,299.6,275.0,7.745,7.777,7.988,8.418,7.771,7.621,7.687,4.898,-4.36,-7.584,1.142,-1.129,7.584,4.71,-4.33,-7.874,289.2,303.6,-7.768,305.0,295.3,294.4,303.3,294.1,36,291.2,2,5,prime,10,0,119,norm,36,-4.96,up,norm,295.046204771,,301.9,292.9,290.3,5,291.0,283.7,299.7,10,6,7.78,4.542,1.386,-1.229,-5.053,-7.674,294.3,6,414.0,-8.099,-8.334,20,-8.491,-7.666,-4.867,-5.159,-4.579,-5.256,4.603,7.524,17,-1.998,1.508,4.724,8.466,-8.168,-7.66,-2.009,1.16,299.7,286.4,315.0,306.4,294.6,299.0,294.0,309.9,279.4,278.6,5,norm,1.45,1.871,-1.79,-1.91,-4.569,-4.972,-1.401,-1.262,-1.762,-1.603,1.458,-1.216,299.6,292.4,-5.095,-7.915,1.132,-1.89,8.005,5.081,-5.05,-8.257,22,5.267,4.559,4.789,4.429,1.862,1.863,1.313,2.066,22,4.736,4.765,40,99.5167021223,norm,0,80,80,80,280.311,280.332,280.343071384,280.343,280.345,280.348,up,1,0.941258981038,9.05874101896,001,016_goed,1920_1200,Intel(R) Core(TM) i5-3570 CPU @ 3.40GHz,orientation_search,LEPPC096,Intel(R) HD Graphics 2500,2018_Nov_28_1155,testMonitor,
418.0,420.2,414.9,420.4,36,-20,,421.1,411.6,422.9,8.005,8.285,8.29,8.376,8.003,7.948,8.385,4.988,-4.545,-7.745,1.247,-1.386,7.634,5.122,-4.953,-8.488,422.6,415.4,-8.175,411.4,410.0,427.5,425.8,425.6,36,420.7,4,5,probe,5,0,106,norm,36,-5.043,down,norm,420.048510379,423.2,417.1,419.8,415.2,0,414.9,430.0,419.0,10,6,8.327,4.798,1.186,-1.975,-4.365,-8.224,416.8,1,314.0,-7.667,-8.34,20,-7.521,-7.986,-5.211,-4.324,-4.372,-4.321,5.081,8.351,24,-1.25,2.069,5.082,7.709,-7.766,-8.094,-1.968,1.914,416.4,415.7,422.3,414.9,420.5,423.9,429.3,426.7,425.9,419.2,0,norm,1.569,1.907,-1.931,-1.601,-4.582,-5.003,-1.381,-1.869,-1.778,-1.205,1.907,-1.517,419.1,421.2,-5.158,-7.545,1.796,-2.061,7.555,4.891,-5.139,-8.09,23,4.396,4.523,4.561,4.844,1.184,1.108,1.166,1.768,23,4.456,5.074,20,295.046204771,norm,0,81,81,81,281.322,281.332,281.339256958,281.339,281.341,281.344,down,1,1.56649981631,8.43350018369,001,016_goed,1920_1200,Intel(R) Core(TM) i5-3570 CPU @ 3.40GHz,orientation_search,LEPPC096,Intel(R) HD Graphics 2500,2018_Nov_28_1155,testMonitor,
30.8,8.9,19.5,13.4,36,-60,42.3,43.2,24.3,47.2,8.265,8.377,7.789,7.759,7.583,7.626,7.831,5.097,-4.984,-8.151,1.902,-1.322,8.393,4.412,-5.299,-7.976,27.9,21.3,-8.009,48.5,38.3,16.4,31.8,29.9,36,23.6,1,5,prime,10,0,76,norm,36,-4.537,down,norm,28.8624904938,36.8,37.5,21.0,26.9,2,38.1,30.7,27.1,10,5,7.73,5.129,1.596,-1.768,-4.408,-7.684,25.2,5,104.9,-8.359,-7.564,-60,-8.029,-8.288,-4.565,-5.141,-4.803,-4.834,5.055,7.545,8,-1.708,1.817,5.188,8.083,-8.052,-8.177,-1.523,2.012,33.8,,28.6,19.3,37.5,25.4,18.5,18.5,34.3,48.9,0,norm,1.625,1.646,-1.995,-1.583,-4.396,-4.369,-1.16,-2.002,-1.222,-1.342,1.852,-1.414,44.1,24.7,-5.248,-7.912,1.318,-1.106,8.381,4.7,-5.063,-8.054,24,5.21,4.351,4.742,4.652,1.588,1.282,1.905,1.706,24,5.009,4.534,-20,295.046204771,norm,0,82,82,82,282.943,282.952,282.961573209,282.962,282.964,282.966,up,0,1.01194102294,-10,001,016_goed,1920_1200,Intel(R) Core(TM) i5-3570 CPU @ 3.40GHz,orientation_search,LEPPC096,Intel(R) HD Graphics 2500,2018_Nov_28_1155,testMonitor,
35.3,48.5,11.8,25.7,36,-60,25.5,24.8,22.1,45.7,8.257,7.666,7.847,7.638,8.046,8.355,7.874,5.195,-5.078,-7.841,1.906,-1.546,7.815,4.314,-4.485,-7.771,,40.7,-8.235,32.5,34.0,25.0,33.9,48.9,36,34.5,5,5,prime,10,0,65,norm,36,-4.611,up,norm,28.8624904938,26.2,27.7,20.2,26.5,5,33.2,44.1,39.8,10,5,8.362,4.543,1.521,-2.052,-5.069,-7.572,26.1,5,93.9,-8.146,-7.901,-60,-7.959,-7.708,-4.75,-5.291,-4.883,-5.158,5.237,7.713,35,-1.354,1.5,5.223,8.214,-7.625,-8.224,-1.536,1.119,43.7,37.9,26.3,22.4,32.0,15.6,39.6,8.9,44.4,14.7,1,norm,1.46,1.724,-2.037,-1.352,-4.77,-4.39,-1.504,-1.16,-1.287,-1.939,1.71,-1.262,37.1,37.8,-4.373,-7.614,1.204,-2.057,8.014,4.86,-4.704,-8.035,24,4.306,5.293,4.93,4.865,1.527,1.279,2.079,1.433,24,4.451,4.383,-20,295.046204771,norm,0,83,83,83,285.044,285.054,285.067621627,285.068,285.07,285.072,up,1,2.15700875563,7.84299124437,001,016_goed,1920_1200,Intel(R) Core(TM) i5-3570 CPU @ 3.40GHz,orientation_search,LEPPC096,Intel(R) HD Graphics 2500,2018_Nov_28_1155,testMonitor,
38.4,33.3,30.1,20.9,36,-60,15.6,23.4,15.4,33.2,7.623,8.325,8.031,7.623,8.374,7.762,8.124,4.659,-4.763,-7.515,1.799,-1.65,8.364,4.662,-5.049,-7.585,9.8,23.3,-8.398,48.9,20.4,32.1,17.8,33.4,36,8.9,2,5,prime,10,0,72,norm,36,-4.701,up,norm,28.8624904938,,41.6,35.9,30.9,5,40.2,32.2,47.7,10,5,7.936,4.739,1.864,-1.689,-4.389,-7.754,34.4,5,100.9,-7.932,-8.13,-60,-8.236,-7.79,-4.781,-5.246,-4.469,-4.822,4.963,7.663,17,-1.662,1.116,4.772,7.865,-7.833,-7.797,-1.227,1.711,15.3,33.5,34.4,35.0,28.9,23.5,37.4,33.1,11.3,24.8,2,norm,1.485,1.81,-1.757,-1.466,-4.322,-5.127,-1.44,-1.383,-1.135,-1.965,1.625,-1.899,42.3,35.8,-4.694,-7.532,1.288,-1.801,7.799,4.939,-5.089,-8.05,24,4.652,4.5,4.639,4.972,1.702,1.13,1.515,1.102,24,5.269,4.718,-20,295.046204771,norm,0,84,84,84,287.262,287.272,287.282585394,287.283,287.284,287.287,up,1,1.3637565806,8.6362434194,001,016_goed,1920_1200,Intel(R) Core(TM) i5-3570 CPU @ 3.40GHz,orientation_search,LEPPC096,Intel(R) HD Graphics 2500,2018_Nov_28_1155,testMonitor,
39.8,29.8,20.0,35.8,36,-60,28.9,48.9,29.3,28.9,8.103,7.885,7.891,7.947,8.139,7.718,7.918,4.935,-4.381,-7.617,1.178,-1.882,7.752,5.033,-4.689,-8.355,,16.9,-8.229,34.0,28.1,23.4,18.5,13.7,36,34.0,5,5,prime,10,0,61,norm,36,-4.372,up,norm,28.8624904938,12.0,32.4,28.2,29.5,5,41.5,8.9,43.5,10,5,8.052,4.686,1.578,-1.535,-4.896,-7.749,42.5,5,89.9,-8.116,-8.12,-60,-8.368,-8.109,-4.378,-5.159,-4.909,-4.45,4.451,7.533,35,-1.335,1.772,4.743,7.727,-8.342,-8.275,-1.702,1.262,25.6,30.8,33.7,16.7,21.7,16.0,20.1,18.4,30.7,33.3,3,norm,1.111,1.233,-2.088,-1.653,-4.385,-4.681,-1.533,-1.873,-2.019,-2.099,1.591,-1.673,22.2,17.5,-4.931,-7.888,1.932,-1.572,8.211,5.204,-4.922,-8.107,24,4.814,4.383,4.65,4.77,1.363,1.17,1.444,2.026,24,4.344,4.486,-20,295.046204771,norm,0,85,85,85,288.683,288.693,288.702078118,288.702,288.704,288.707,up,1,1.07981921846,8.92018078154,001,016_goed,1920_1200,Intel(R) Core(TM) i5-3570 CPU @ 3.40GHz,orientation_search,LEPPC096,Intel(R) HD Graphics 2500,2018_Nov_28_1155,testMonitor,
18.1,21.4,23.7,23.1,36,-60,25.3,39.0,27.6,25.4,7.792,7.895,7.959,7.961,8.353,7.612,8.285,4.93,-5.188,-7.721,1.794,-1.488,8.204,4.598,-5.261,-8.14,39.3,34.0,-8.326,38.5,21.5,37.2,48.9,28.2,36,32.6,2,5,prime,10,0,70,norm,36,-5.025,up,norm,28.8624904938,,34.5,30.7,38.0,5,17.2,8.9,27.8,10,5,8.112,4.474,1.161,-1.615,-4.463,-8.014,15.3,5,98.9,-8.049,-8.425,-60,-7.572,-8.204,-4.651,-5.247,-4.522,-5.148,4.551,8.342,17,-1.985,1.88,4.353,7.579,-7.601,-8.245,-1.365,1.873,25.7,31.0,22.2,27.3,31.4,23.3,39.3,48.5,27.3,25.8,4,norm,1.458,1.937,-1.699,-1.464,-4.908,-4.774,-1.832,-1.35,-1.504,-1.441,1.508,-1.364,24.5,16.9,-5.175,-8.055,1.513,-1.739,8.325,4.375,-4.918,-8.299,24,4.532,4.463,5.012,4.893,1.537,1.714,1.731,1.558,24,4.524,4.752,-20,295.046204771,norm,0,86,86,86,289.819,289.829,289.840852364,289.841,289.843,289.845,up,1,0.724702976091,9.27529702391,001,016_goed,1920_1200,Intel(R) Core(TM) i5-3570 CPU @ 3.40GHz,orientation_search,LEPPC096,Intel(R) HD Graphics 2500,2018_Nov_28_1155,testMonitor,
72.0,60.4,62.5,52.9,36,-60,62.8,70.9,,68.0,8.461,8.05,8.167,8.384,8.494,8.002,8.119,4.76,-4.979,-8.402,1.593,-1.897,7.696,4.871,-5.018,-7.548,70.6,54.3,-8.173,71.0,71.6,72.9,58.9,60.2,36,63.6,4,5,probe,5,0,85,norm,36,-4.893,up,norm,62.8813075526,68.9,67.6,64.4,62.2,4,59.9,67.9,62.0,10,5,8.126,4.547,1.226,-1.477,-4.696,-7.926,63.7,1,-22.1,-8.055,-8.049,-60,-7.547,-8.364,-4.99,-4.916,-5.199,-4.336,5.201,7.977,28,-2.084,1.791,4.938,8.004,-8.499,-8.133,-1.315,1.926,68.5,59.4,68.8,66.5,66.4,62.3,57.1,56.6,60.3,61.0,0,norm,1.132,1.6,-1.21,-1.572,-4.302,-4.68,-1.502,-1.24,-1.704,-1.291,1.765,-1.483,64.9,64.1,-4.567,-8.319,1.505,-2.013,8.213,4.665,-4.666,-8.308,25,4.961,4.31,4.465,4.769,1.17,1.767,1.737,1.763,25,4.812,4.374,-60,28.8624904938,norm,0,87,87,87,290.59,290.6,290.606243863,290.606,290.608,290.611,up,1,0.722423737898,9.2775762621,001,016_goed,1920_1200,Intel(R) Core(TM) i5-3570 CPU @ 3.40GHz,orientation_search,LEPPC096,Intel(R) HD Graphics 2500,2018_Nov_28_1155,testMonitor,
136.2,145.1,120.4,135.3,36,-60,135.4,124.9,139.3,124.4,8.31,8.354,7.515,8.07,8.499,8.114,7.845,4.337,-4.561,-8.164,1.478,-2.025,7.754,5.197,-4.957,-8.154,148.0,132.0,-8.009,143.7,,142.9,128.6,131.9,36,142.6,5,5,prime,10,0,72,norm,36,-5.164,down,norm,140.40242346,146.7,154.3,137.6,128.3,0,150.4,141.7,140.8,10,6,7.732,4.528,2.064,-1.153,-4.883,-8.033,152.5,6,212.4,-7.591,-8.242,-60,-8.256,-8.111,-4.488,-4.633,-4.656,-5.001,4.655,7.786,30,-2.043,1.344,4.85,8.364,-7.879,-8.454,-1.128,1.461,137.0,131.5,153.5,130.3,142.9,151.0,131.0,149.9,149.3,149.7,0,norm,1.588,1.488,-1.175,-1.281,-4.558,-4.694,-1.573,-1.186,-1.614,-1.591,1.914,-1.84,140.9,155.8,-4.771,-8.252,1.115,-1.474,7.51,4.401,-4.336,-7.901,26,4.727,4.393,4.359,4.957,1.553,1.581,1.484,1.148,26,4.53,4.536,-60,28.8624904938,norm,0,88,88,88,291.366,291.375,291.385274871,291.385,291.387,291.39,down,1,1.53315097818,8.46684902182,001,016_goed,1920_1200,Intel(R) Core(TM) i5-3570 CPU @ 3.40GHz,orientation_search,LEPPC096,Intel(R) HD Graphics 2500,2018_Nov_28_1155,testMonitor,
120.4,148.2,128.1,126.9,36,-60,159.4,129.0,144.1,125.8,8.035,8.367,7.867,7.736,7.882,7.556,7.849,5.13,-4.739,-8.138,1.939,-1.953,8.436,4.902,-4.569,-8.021,149.8,153.4,-8.076,140.7,160.4,138.5,141.2,122.9,36,133.2,2,5,prime,10,0,112,norm,36,-4.353,down,norm,140.40242346,149.9,136.3,140.9,139.3,1,135.3,,154.9,10,6,8.413,4.994,1.393,-1.216,-4.515,-8.246,145.8,6,252.4,-7.527,-7.836,-60,-8.201,-8.456,-4.91,-5.296,-4.45,-4.43,4.632,8.252,13,-1.189,2.064,4.406,7.791,-7.645,-7.87,-1.808,1.524,143.9,140.3,133.4,135.7,125.7,126.2,141.3,133.3,137.5,140.3,1,norm,1.265,1.515,-1.629,-1.859,-4.752,-4.8,-1.238,-1.267,-1.242,-1.251,1.689,-1.14,142.7,151.8,-4.584,-7.91,1.34,-1.946,7.93,4.522,-4.895,-7.806,26,5.094,5.149,4.826,4.883,1.581,1.799,2.088,1.966,26,4.366,4.595,-60,28.8624904938,norm,0,89,89,89,292.962,292.972,292.977423739,292.978,292.979,292.982,up,0,0.739737315598,-10,001,016_goed,1920_1200,Intel(R) Core(TM) i5-3570 CPU @ 3.40GHz,orientation_search,LEPPC096,Intel(R) HD Graphics 2500,2018_Nov_28_1155,testMonitor,
141.5,133.5,146.6,138.2,36,-60,160.4,137.9,134.7,144.2,7.771,8.088,7.833,7.67,7.62,7.812,8.031,4.329,-4.68,-7.97,1.278,-1.261,8.023,4.763,-4.681,-7.997,,137.2,-7.933,156.0,140.7,141.7,138.4,129.2,36,148.4,5,5,prime,10,0,106,norm,36,-4.951,up,norm,140.40242346,148.7,151.8,140.5,126.4,5,126.5,157.4,145.1,10,6,8.045,4.382,1.468,-1.6,-4.642,-8.076,127.5,6,246.4,-8.109,-8.233,-60,-7.634,-8.196,-4.996,-4.341,-5.284,-4.925,5.231,7.943,35,-1.53,1.151,4.934,8.345,-8.488,-8.116,-1.144,1.185,148.5,135.8,145.1,149.3,151.0,157.7,135.2,138.5,120.4,150.6,2,norm,2.06,1.235,-1.458,-1.862,-5.171,-4.854,-1.562,-1.965,-1.628,-1.934,1.838,-2.078,124.6,148.6,-4.485,-7.539,1.141,-1.236,7.955,4.781,-4.978,-7.712,26,5.284,4.663,4.636,5.099,1.224,1.211,1.664,1.85,26,5.113,4.389,-60,28.8624904938,norm,0,90,90,90,294.775,294.784,294.80168424,294.802,294.804,294.806,up,1,2.1953546523,7.8046453477,001,016_goed,1920_1200,Intel(R) Core(TM) i5-3570 CPU @ 3.40GHz,orientation_search,LEPPC096,Intel(R) HD Graphics 2500,2018_Nov_28_1155,testMonitor,
138.4,155.8,131.4,131.0,36,-60,159.1,145.4,145.8,126.9,7.841,8.024,7.572,8.072,8.37,7.824,8.075,4.554,-4.798,-8.249,1.854,-1.338,7.967,4.903,-4.838,-8.052,143.2,139.6,-8.155,132.4,,144.1,140.0,134.8,36,149.9,5,5,prime,10,0,75,norm,36,-4.886,down,norm,140.40242346,134.8,145.5,141.7,160.4,0,138.9,144.0,138.4,10,6,7.866,5.263,2.003,-1.862,-4.348,-7.782,137.7,6,215.4,-8.424,-7.923,-60,-8.47,-7.721,-4.326,-4.792,-4.545,-5.193,4.9,8.224,30,-1.996,1.224,4.89,7.522,-8.052,-8.46,-1.988,1.642,142.7,145.0,126.5,153.9,147.4,142.3,152.0,128.7,144.0,138.7,3,norm,1.739,1.493,-1.212,-1.281,-4.307,-4.797,-1.245,-1.309,-1.169,-1.533,1.88,-1.822,148.3,142.5,-5.145,-8.008,1.597,-1.393,8.073,5.213,-4.325,-7.957,26,4.38,4.916,4.433,4.78,1.87,1.594,1.405,1.115,26,5.039,5.286,-60,28.8624904938,norm,0,91,91,91,297.018,297.027,297.047810576,297.048,297.05,297.052,down,1,0.807352301548,9.19264769845,001,016_goed,1920_1200,Intel(R) Core(TM) i5-3570 CPU @ 3.40GHz,orientation_search,LEPPC096,Intel(R) HD Graphics 2500,2018_Nov_28_1155,testMonitor,
151.2,145.5,144.9,140.0,36,-60,,140.5,133.5,141.9,8.149,8.137,7.799,8.206,7.736,8.027,8.078,4.427,-5.233,-7.739,1.692,-1.365,8.276,4.567,-4.792,-7.778,139.8,120.4,-8.453,133.3,144.2,133.2,147.4,136.4,36,140.6,4,5,prime,10,0,115,norm,36,-4.965,down,norm,140.40242346,147.3,123.2,139.5,146.9,0,145.9,137.2,157.8,10,6,8.324,4.678,1.189,-1.562,-4.318,-8.416,144.4,6,255.4,-7.56,-7.64,-60,-8.477,-8.413,-5.108,-4.653,-4.904,-4.789,5.254,8.046,24,-2.069,1.482,4.988,8.2,-8.165,-8.315,-2.035,1.763,130.6,138.4,160.4,147.4,134.2,135.1,144.9,128.2,140.0,129.4,4,norm,1.598,1.502,-1.142,-1.907,-5.267,-4.354,-1.418,-1.795,-1.13,-1.861,1.699,-1.508,129.6,142.0,-4.379,-8.204,1.988,-1.797,7.957,4.481,-4.718,-7.624,26,5.089,4.918,5.097,4.648,1.738,1.204,1.102,1.249,26,4.976,4.832,-60,28.8624904938,norm,0,92,92,92,297.876,297.885,297.892251586,297.892,297.894,297.897,down,1,1.04505562867,8.95494437133,001,016_goed,1920_1200,Intel(R) Core(TM) i5-3570 CPU @ 3.40GHz,orientation_search,LEPPC096,Intel(R) HD Graphics 2500,2018_Nov_28_1155,testMonitor,
150.6,139.0,133.6,125.8,36,-60,134.4,160.4,159.1,139.6,7.622,8.4,7.782,8.122,8.361,7.85,7.838,5.156,-5.153,-8.12,1.962,-1.576,8.311,5.116,-4.78,-7.703,148.8,147.6,-8.084,143.2,136.8,146.4,125.8,146.2,36,127.5,1,5,prime,10,0,63,norm,36,-4.813,down,norm,140.40242346,149.8,141.8,123.1,158.5,2,127.8,137.7,127.5,10,6,7.768,4.463,1.149,-1.406,-4.446,-8.429,132.6,6,203.4,-8.113,-8.314,-60,-8.235,-8.213,-4.536,-4.385,-5.003,-4.671,5.09,8.053,8,-1.355,1.682,4.399,7.621,-7.584,-7.832,-1.986,1.267,141.0,,146.6,147.4,144.8,142.6,128.9,129.6,148.0,129.4,5,norm,2.041,1.771,-1.476,-1.493,-4.461,-4.525,-1.655,-1.698,-1.994,-1.845,1.601,-1.169,120.4,123.5,-5.136,-7.71,1.241,-1.228,7.544,4.714,-4.761,-8.46,26,5.287,4.775,4.536,4.618,1.768,1.243,1.52,1.387,26,4.723,4.85,-60,28.8624904938,norm,0,93,93,93,298.975,298.984,298.997744608,298.998,299.0,299.002,down,1,0.637188498804,9.3628115012,001,016_goed,1920_1200,Intel(R) Core(TM) i5-3570 CPU @ 3.40GHz,orientation_search,LEPPC096,Intel(R) HD Graphics 2500,2018_Nov_28_1155,testMonitor,
203.1,195.5,200.8,187.3,36,-60,200.6,185.0,199.3,188.5,7.958,7.935,8.033,7.953,7.976,7.866,8.002,4.482,-4.917,-7.865,1.65,-1.405,8.152,4.438,-4.782,-8.297,194.8,200.0,-7.512,199.5,202.6,195.7,190.3,187.5,36,199.8,0,5,probe,5,0,103,norm,36,-4.459,down,norm,193.118519196,199.6,199.5,202.4,193.2,1,194.6,189.7,187.9,10,6,7.509,4.899,1.446,-1.138,-5.137,-7.764,197.5,1,90.1,-7.919,-8.182,-60,-8.089,-8.014,-4.755,-4.999,-4.643,-4.328,4.33,7.791,1,-1.484,1.598,4.646,7.928,-7.989,-7.861,-2.053,1.789,191.7,188.2,188.6,195.3,,185.1,193.5,194.0,202.4,196.1,0,norm,2.004,1.109,-2.014,-1.92,-5.224,-4.997,-1.146,-1.896,-1.944,-1.258,1.11,-1.684,193.3,183.1,-5.059,-7.527,1.786,-1.833,8.392,4.784,-4.551,-8.099,27,4.457,5.028,4.976,5.152,1.639,2.05,1.14,1.752,27,4.315,4.592,-60,140.40242346,norm,0,94,94,94,299.672,299.681,299.69949794,299.7,299.701,299.704,down,1,3.22932559482,6.77067440518,001,016_goed,1920_1200,Intel(R) Core(TM) i5-3570 CPU @ 3.40GHz,orientation_search,LEPPC096,Intel(R) HD Graphics 2500,2018_Nov_28_1155,testMonitor,
127.8,89.3,121.0,104.4,36,-20,89.7,,114.7,107.1,7.937,7.537,8.157,8.467,7.947,8.159,8.346,4.61,-5.218,-8.32,2.048,-1.142,7.804,4.939,-4.681,-7.828,107.7,128.0,-7.925,104.8,104.7,97.7,116.1,122.9,36,113.4,4,5,prime,10,0,103,norm,36,-4.505,down,norm,108.046186718,112.7,125.0,121.4,92.2,1,103.6,88.0,109.0,10,6,8.365,4.925,1.891,-1.87,-5.291,-8.399,106.3,6,211.0,-7.922,-8.16,-20,-7.974,-8.041,-5.248,-4.609,-5.115,-4.918,4.861,8.161,25,-1.271,1.486,4.519,7.882,-7.838,-7.67,-1.546,1.753,122.4,112.5,113.8,109.7,110.5,114.0,106.6,98.7,102.6,111.5,0,norm,1.658,2.066,-1.414,-1.762,-4.473,-4.392,-1.738,-2.098,-1.889,-1.837,1.831,-1.602,108.7,93.9,-5.027,-8.277,1.802,-1.943,7.703,5.023,-4.962,-7.671,28,4.713,4.689,5.195,4.477,1.694,1.145,1.622,1.485,28,5.171,4.531,-60,140.40242346,norm,0,95,95,95,302.966,302.975,302.99112392,302.991,302.993,302.996,down,1,2.19521761429,7.80478238571,001,016_goed,1920_1200,Intel(R) Core(TM) i5-3570 CPU @ 3.40GHz,orientation_search,LEPPC096,Intel(R) HD Graphics 2500,2018_Nov_28_1155,testMonitor,
