d_ori_22,d_ori_23,d_ori_20,d_ori_21,set_size,ctpd,d_ori_24,d_ori_25,d_ori_28,d_ori_29,stim_pos_x_30,stim_pos_x_31,stim_pos_x_32,stim_pos_x_33,stim_pos_x_34,stim_pos_x_35,stim_pos_y_11,stim_pos_y_10,stim_pos_y_13,stim_pos_y_12,stim_pos_y_15,stim_pos_y_14,stim_pos_y_17,stim_pos_y_16,stim_pos_y_19,stim_pos_y_18,d_ori_35,d_ori_34,stim_pos_x_3,d_ori_31,d_ori_30,d_ori_33,d_ori_32,d_ori_26,test_set_size,d_ori_27,targetCol,dsd_test,seq_type,dsd,blockRepN,targetDist,dtype_test,prime_set_size,stim_pos_y_25,correctResponse,dtype,distrMean,d_ori_17,d_ori_16,d_ori_15,d_ori_14,targetRow,d_ori_11,d_ori_13,d_ori_12,dsd_prime,streak_length_prime,stim_pos_y_35,stim_pos_y_34,stim_pos_y_33,stim_pos_y_32,stim_pos_y_31,stim_pos_y_30,d_ori_10,nextProbe,targetOri,stim_pos_x_1,stim_pos_x_2,ctpd_prime,stim_pos_x_4,stim_pos_x_5,stim_pos_x_6,stim_pos_x_7,stim_pos_x_8,stim_pos_x_9,stim_pos_y_28,stim_pos_y_29,targetPos,stim_pos_y_20,stim_pos_y_21,stim_pos_y_22,stim_pos_y_23,stim_pos_y_24,stim_pos_x_0,stim_pos_y_26,stim_pos_y_27,d_ori_9,d_ori_8,d_ori_3,d_ori_2,d_ori_1,d_ori_0,d_ori_7,d_ori_6,d_ori_5,d_ori_4,trialN,dtype_prime,stim_pos_x_18,stim_pos_x_19,stim_pos_x_12,stim_pos_x_13,stim_pos_x_10,stim_pos_x_11,stim_pos_x_16,stim_pos_x_17,stim_pos_x_14,stim_pos_x_15,stim_pos_y_9,stim_pos_y_8,d_ori_19,d_ori_18,stim_pos_y_1,stim_pos_y_0,stim_pos_y_3,stim_pos_y_2,stim_pos_y_5,stim_pos_y_4,stim_pos_y_7,stim_pos_y_6,totBlockN,stim_pos_x_27,stim_pos_x_26,stim_pos_x_25,stim_pos_x_24,stim_pos_x_23,stim_pos_x_22,stim_pos_x_21,stim_pos_x_20,blockN,stim_pos_x_29,stim_pos_x_28,prevDistrCTPD,prevDistrMean,prevDistrType,trials.thisRepN,trials.thisTrialN,trials.thisN,trials.thisIndex,timeStart,timeBeforeDraw,timeDraw,timeAfterSaving,timeAfterWritingToTemp,timeAfterPreparingNext,answer,correct,rt,trialScore,session,participant,resolution,cpu_info,expName,pc_name,graphic_card,date,monitorName
179.4,174.5,169.7,183.5,36,10,171.9,187.9,197,192.4,7.989,7.862,7.976,8.281,7.929,7.564,7.991,4.499,-4.772,-7.689,1.851,-1.96,8.25,5.103,-5.196,-7.698,176.6,195.5,-7.997,171.2,175.7,176.5,190.4,183.5,36,169.5,1,5,prime,10,0,84,norm,36,-4.352,up,norm,176.9880715,173.1,183.9,167.4,178.4,5,,176.4,175.2,10,6,7.908,4.486,1.986,-1.329,-5.141,-7.52,175.9,6,261,-8.399,-8.168,10,-8.474,-8.422,-4.493,-5.129,-4.421,-4.403,4.391,8.325,11,-1.319,1.611,4.686,8.238,-8.258,-8.307,-2.039,1.234,180.2,170.3,181,173.9,172.9,168.9,177.6,157,191.5,172.2,0,norm,1.864,1.335,-1.601,-2.096,-4.662,-4.752,-1.449,-1.944,-1.567,-1.185,1.708,-1.337,186.6,180.7,-4.352,-8.325,1.427,-1.67,7.545,4.906,-5.211,-7.806,0,4.516,4.686,4.346,4.878,1.205,1.624,1.115,1.299,0,4.675,4.608,,,,0,0,0,0,271.217,271.242,271.2636333,271.264,271.264,271.267,up,1,1.924723938,8.075276062,1,323,1920_1080,Intel(R) Core(TM) i5-3570 CPU @ 3.40GHz,orientation_search,LEPPC096,Intel(R) HD Graphics 2500,2018_Nov_24_1448,testMonitor
169.2,,170.3,187.7,36,10,178,172.6,179.6,174.9,8.225,7.834,7.929,7.546,7.714,7.776,7.912,4.957,-4.442,-8.034,1.503,-1.355,8.214,4.689,-4.556,-7.891,187.1,178.5,-8.426,179,172.3,183.7,189.5,188.8,36,169.4,3,5,prime,10,0,107,norm,36,-4.785,up,norm,176.9880715,197,165.8,159.3,180.2,5,157,171.7,174.3,10,6,7.55,5.289,1.764,-1.243,-5.09,-8.48,162.8,6,284,-8.185,-8.034,10,-8.044,-7.991,-5.104,-5.252,-4.991,-4.332,5.105,7.71,23,-1.429,1.462,4.757,8.08,-7.637,-8.267,-2.014,1.489,184.5,183.3,195.5,176.3,184.9,170,175.5,180.4,164.2,185.7,1,norm,1.542,1.992,-1.804,-2.063,-5.26,-5.036,-1.817,-1.848,-1.217,-1.498,1.508,-1.109,170.1,179.6,-5.074,-8.405,1.132,-1.402,7.631,4.496,-4.353,-7.639,0,4.435,4.467,5.001,4.426,1.206,1.16,2.087,1.452,0,5.233,4.66,,,,0,1,1,1,273.208,273.218,273.2375685,273.238,273.239,273.241,up,1,1.704246894,8.295753106,1,323,1920_1080,Intel(R) Core(TM) i5-3570 CPU @ 3.40GHz,orientation_search,LEPPC096,Intel(R) HD Graphics 2500,2018_Nov_24_1448,testMonitor
189.1,,186,180.4,36,10,175.8,174.2,178.8,173.7,8.377,8.11,8.392,8.465,8.324,8.488,7.774,5.272,-4.905,-7.881,1.729,-1.589,7.922,4.941,-4.825,-8.255,157,180.9,-8.376,181.2,177.8,174.3,186.7,173,36,171.7,3,5,prime,10,0,101,norm,36,-4.413,up,norm,176.9880715,163.3,176.2,170.4,172.5,5,169.2,158.9,170.6,10,6,7.531,4.619,1.793,-1.915,-4.958,-8.451,172.9,6,278,-7.62,-7.735,10,-8.174,-7.848,-4.524,-4.675,-4.852,-5.192,4.38,8.279,23,-2.063,1.793,4.982,8.462,-7.617,-7.911,-1.72,1.192,197,171.3,171.6,164,187.6,159.1,167.7,163.2,178.9,162.9,2,norm,2.027,1.57,-1.22,-1.995,-5.02,-4.36,-2.077,-1.269,-1.488,-1.175,2.091,-1.4,168.9,192.2,-4.76,-8.024,1.63,-2.04,8.081,4.309,-4.352,-8.469,0,4.405,4.44,4.793,5.112,1.975,1.387,1.788,1.481,0,4.771,5.053,,,,0,2,2,2,274.978,274.989,275.0003106,275,275.002,275.005,up,1,1.623566567,8.376433433,1,323,1920_1080,Intel(R) Core(TM) i5-3570 CPU @ 3.40GHz,orientation_search,LEPPC096,Intel(R) HD Graphics 2500,2018_Nov_24_1448,testMonitor
159.6,181.8,167.4,,36,10,180.4,177.1,185.8,182.1,7.614,7.572,7.926,7.974,7.615,7.655,8.071,5.131,-4.396,-7.851,1.909,-1.666,8.428,4.559,-4.74,-8.48,174.1,173.3,-8.353,180.6,187,175.8,179.8,164.5,36,187.9,3,5,prime,10,0,102,norm,36,-4.742,up,norm,176.9880715,195.9,185.6,184.3,180.4,3,184.3,162.3,172.8,10,6,8.41,5.006,1.964,-1.229,-5.285,-7.988,184.7,6,279,-7.849,-8.264,10,-7.723,-8.411,-5.008,-4.699,-4.839,-4.609,4.405,7.89,21,-1.94,2.047,4.434,8.329,-7.585,-8.349,-1.86,1.883,181.7,177.5,159.9,180.3,176.9,157,186.9,170.6,192.5,160.1,3,norm,1.68,1.16,-1.619,-1.204,-4.87,-4.621,-1.113,-1.527,-1.945,-2.048,1.345,-1.839,171.9,176.3,-4.528,-7.972,1.154,-2.089,7.669,5.083,-4.618,-8.012,0,5.04,4.945,4.967,4.767,1.82,1.745,2.014,1.55,0,5.256,4.748,,,,0,3,3,3,276.671,276.69,276.7026474,276.703,276.705,276.708,up,1,1.684109789,8.315890211,1,323,1920_1080,Intel(R) Core(TM) i5-3570 CPU @ 3.40GHz,orientation_search,LEPPC096,Intel(R) HD Graphics 2500,2018_Nov_24_1448,testMonitor
159.8,197,164.9,185.9,36,10,175,190.8,186.9,167.6,7.517,7.839,8.166,7.563,8.199,8.125,7.806,4.336,-4.53,-7.847,1.48,-1.817,7.53,4.412,-5.219,-8.121,188.6,182,-7.623,186.5,193.8,171.2,182.3,172.2,36,185.6,1,5,prime,10,0,103,norm,36,-4.428,down,norm,176.9880715,188.1,177.2,165.7,178,2,180.7,178.6,164.4,10,6,8.312,5.101,1.34,-1.322,-5.004,-8.118,171.1,6,280,-7.561,-8.459,10,-8.277,-8.209,-4.632,-4.718,-5.281,-5.111,4.594,8.097,8,-1.755,1.284,5.055,7.616,-7.794,-8.244,-1.248,1.273,181.5,,178,188.6,172.9,157,181.1,176.7,184.5,167.7,4,norm,1.13,1.758,-1.499,-1.232,-4.863,-4.389,-1.739,-2.095,-1.647,-1.526,1.833,-1.106,176.6,180.8,-4.488,-7.516,1.705,-1.908,7.759,4.437,-4.739,-8.487,0,5.278,5.079,4.708,4.857,2.065,1.473,1.16,2.066,0,4.657,4.389,,,,0,4,4,4,278.433,278.456,278.465394,278.466,278.468,278.47,down,1,2.010879162,7.989120838,1,323,1920_1080,Intel(R) Core(TM) i5-3570 CPU @ 3.40GHz,orientation_search,LEPPC096,Intel(R) HD Graphics 2500,2018_Nov_24_1448,testMonitor
,179.6,183,183.3,36,10,188.2,180.3,182.2,168.1,8.139,8.327,7.86,7.952,8.211,7.771,8.022,4.451,-4.604,-7.596,1.915,-1.906,7.883,4.761,-4.333,-8.13,186,175.2,-8.37,178.2,174.2,172.7,159.1,160,36,170.4,3,5,prime,10,0,110,norm,36,-5.11,up,norm,176.9880715,173,175.7,176.3,169.5,4,179.4,162.4,172.9,10,6,8.129,4.563,1.754,-2.095,-4.364,-7.621,172.2,6,287,-7.739,-8.383,10,-7.868,-8.13,-5.277,-4.787,-4.939,-4.803,4.57,8.333,22,-1.241,1.281,4.843,7.588,-8.038,-7.92,-1.457,1.799,175.8,169.6,187,173.1,190.2,170.5,197,173.9,166.9,164.3,5,norm,2.085,1.473,-1.622,-1.116,-5.095,-4.704,-2.009,-1.319,-1.217,-1.62,2.038,-2.008,157,188.5,-4.881,-7.674,1.722,-1.385,8.081,4.336,-5.24,-7.703,0,4.985,5.111,4.912,4.991,1.849,1.55,1.359,2.016,0,5.016,4.991,,,,0,5,5,5,280.514,280.523,280.5380543,280.538,280.54,280.542,up,1,1.800823378,8.199176622,1,323,1920_1080,Intel(R) Core(TM) i5-3570 CPU @ 3.40GHz,orientation_search,LEPPC096,Intel(R) HD Graphics 2500,2018_Nov_24_1448,testMonitor
253.5,257.3,254,241.7,36,40,258.1,254,253.5,243.9,7.648,7.692,7.846,8.168,8.058,8.427,7.667,5.076,-5.274,-7.92,1.302,-2.083,7.779,5.27,-4.586,-8.079,249.5,256.2,-8.355,256.3,250,243.8,259.2,249.7,36,244.6,2,5,probe,5,0,63,norm,36,-4.936,down,norm,251.5373308,256.2,246.9,252.6,245.7,1,252.4,,258.6,10,6,7.643,4.902,1.242,-1.614,-4.355,-7.518,253.7,2,188.5,-7.742,-8.45,10,-7.872,-8.358,-4.757,-4.313,-4.728,-4.67,4.42,8.366,13,-1.813,2.074,4.711,7.508,-8.381,-8.146,-1.881,1.978,247.7,252.4,255.9,247.6,248.5,246.7,253.5,241.5,244.6,251.1,0,norm,1.407,1.407,-1.829,-2.017,-5.024,-5.235,-1.794,-2.071,-1.207,-1.998,1.467,-1.223,251,261.5,-4.825,-8.261,1.39,-1.625,8.252,5.018,-4.74,-8.497,1,4.914,4.728,4.753,4.483,1.9,2.068,1.638,1.763,1,5.105,5.043,10,176.9880715,norm,0,6,6,6,282.36,282.37,282.3787486,282.379,282.381,282.383,down,1,1.299101191,8.700898809,1,323,1920_1080,Intel(R) Core(TM) i5-3570 CPU @ 3.40GHz,orientation_search,LEPPC096,Intel(R) HD Graphics 2500,2018_Nov_24_1448,testMonitor
279.5,289.5,277.2,281.6,36,40,273.1,282,283.8,277.9,7.888,7.984,7.634,7.656,7.913,8.233,8.488,4.852,-4.787,-8.324,1.837,-2.004,8.287,4.409,-4.764,-8.035,279.6,278.9,-8.265,281.1,277.8,280.3,276.1,,36,284,4,5,probe,5,0,91,norm,36,-4.698,down,norm,279.5373308,283.6,281,283.4,282.1,2,281.3,284.6,277.4,10,6,7.537,4.379,1.734,-2.094,-4.814,-7.761,280,2,188.5,-8.312,-7.58,10,-8.248,-8.152,-4.332,-4.776,-4.845,-4.459,4.862,8.148,26,-1.253,1.505,5.145,8.307,-7.785,-7.766,-1.565,1.247,280.1,281.8,284.9,284.4,273.7,281.6,284.8,281.3,276.1,288.1,1,norm,1.292,1.43,-1.464,-1.695,-4.301,-5.058,-1.505,-1.835,-1.71,-1.587,1.616,-2.072,269.5,269.8,-4.677,-7.893,1.619,-1.582,7.579,4.667,-4.986,-7.546,1,4.382,5.163,5.267,5.19,1.819,1.672,1.88,1.587,1,4.393,4.391,10,176.9880715,norm,0,7,7,7,283.715,283.725,283.7358128,283.736,283.738,283.74,down,1,1.349606497,8.650393503,1,323,1920_1080,Intel(R) Core(TM) i5-3570 CPU @ 3.40GHz,orientation_search,LEPPC096,Intel(R) HD Graphics 2500,2018_Nov_24_1448,testMonitor
320.6,340.5,318.9,332.7,36,80,327.4,318.5,333,305.5,7.579,8.331,8.072,7.835,7.943,8.18,8.406,5.262,-4.849,-8.27,1.652,-1.359,8.2,5.199,-4.689,-7.569,330.8,309.1,-7.853,320.8,335.9,316.4,315.3,333.7,36,311.6,0,5,prime,10,0,61,norm,36,-5.209,down,norm,320.5291973,330.3,303.4,327,320.6,0,323.8,315.9,308.1,10,6,8.307,4.835,1.806,-2.071,-4.46,-7.673,314.5,6,381.5,-7.598,-8.257,80,-8.062,-8.481,-5.254,-5.085,-4.645,-4.414,4.948,7.614,0,-1.354,1.454,5.287,8.013,-7.761,-7.54,-1.366,1.142,314.1,320.8,300.5,318.4,333.8,,310.6,311.8,323.3,309.8,0,norm,2.097,1.709,-1.712,-1.806,-5.018,-4.75,-1.164,-1.601,-1.37,-1.777,2.067,-1.803,325.3,315.9,-4.98,-8.19,1.846,-2.005,8.191,4.786,-5.032,-7.734,2,4.737,5.068,5.229,4.815,1.181,1.921,1.955,1.973,2,4.85,4.314,40,176.9880715,norm,0,8,8,8,285.109,285.118,285.1251436,285.125,285.127,285.13,up,0,1.719357948,-10,1,323,1920_1080,Intel(R) Core(TM) i5-3570 CPU @ 3.40GHz,orientation_search,LEPPC096,Intel(R) HD Graphics 2500,2018_Nov_24_1448,testMonitor
322.7,338.7,336,328.7,36,80,320.8,306.5,319.7,306.5,7.552,7.9,8.028,8.012,7.638,7.915,7.864,5.143,-5.237,-8.012,1.133,-1.754,8.464,5.222,-4.806,-7.957,318.7,331.1,-8.109,312.5,312.9,325.7,321.7,300.5,36,304.6,1,5,prime,10,0,67,norm,36,-4.799,down,norm,320.5291973,306.5,334.8,320.2,308,2,321.7,331.2,335.1,10,6,7.8,4.553,1.787,-1.133,-4.61,-7.91,313,6,387.5,-8.372,-8.372,80,-8.389,-8.276,-4.722,-4.398,-5.286,-5.015,4.953,7.938,8,-1.617,1.718,4.697,8.403,-7.762,-8.093,-1.187,1.771,322.6,,340.5,316,317,315.4,324.4,318.2,314.7,313.3,1,norm,1.818,1.568,-2.089,-1.962,-4.673,-4.752,-1.744,-1.494,-1.199,-1.553,1.755,-1.762,320.3,307.5,-4.502,-8.124,1.245,-1.508,7.773,5.256,-4.689,-8.164,2,4.746,4.956,4.647,4.545,2.06,1.817,1.472,1.968,2,4.737,5.214,40,176.9880715,norm,0,9,9,9,287.921,287.93,287.9367595,287.937,287.939,287.941,down,1,2.091066271,7.908933729,1,323,1920_1080,Intel(R) Core(TM) i5-3570 CPU @ 3.40GHz,orientation_search,LEPPC096,Intel(R) HD Graphics 2500,2018_Nov_24_1448,testMonitor
305.7,318.9,328.8,301.5,36,80,337.7,305.4,308.7,318.3,8.12,7.647,8.173,8.075,7.964,8.266,7.837,5.208,-4.33,-7.879,1.826,-1.783,7.843,5.085,-4.841,-7.683,319.1,322.1,-7.916,311.4,330.3,323.4,324.5,,36,300.5,4,5,prime,10,0,82,norm,36,-5.272,down,norm,320.5291973,322.5,321.9,331.6,312.7,2,340.5,329.4,310.9,10,6,7.697,5.129,2.046,-2.025,-4.902,-8.366,305,6,402.5,-8.456,-7.902,80,-7.971,-8.319,-4.644,-4.524,-4.318,-4.701,4.538,8.303,26,-1.741,2.084,4.889,8.27,-8.241,-7.517,-1.936,1.765,322.7,306.4,326.3,318.3,316.4,328.5,322.2,318.4,327.4,318.8,2,norm,1.931,2.01,-1.384,-1.729,-5.037,-4.868,-1.196,-1.869,-1.411,-1.213,1.531,-1.477,335.5,307.6,-4.535,-8.253,1.453,-2.064,8.099,4.851,-4.483,-7.933,2,4.511,4.718,4.55,4.523,1.361,1.868,1.328,1.988,2,5.156,5.103,40,176.9880715,norm,0,10,10,10,290.07,290.079,290.0856279,290.086,290.088,290.09,down,1,1.314957806,8.685042194,1,323,1920_1080,Intel(R) Core(TM) i5-3570 CPU @ 3.40GHz,orientation_search,LEPPC096,Intel(R) HD Graphics 2500,2018_Nov_24_1448,testMonitor
331.4,310.7,319.7,333.2,36,80,316,327.6,317.8,315.5,8.14,8.42,8.211,7.694,7.541,7.946,7.869,5.204,-4.797,-8.404,1.627,-1.701,7.896,4.938,-4.694,-7.656,320.7,328,-8.088,308.9,317.5,310.7,,327.7,36,329.3,5,5,prime,10,0,60,norm,36,-5.276,down,norm,320.5291973,320.7,314.4,308.9,305.2,2,300.5,313.9,306.8,10,6,7.642,4.528,1.504,-1.285,-4.554,-7.953,313.9,6,380.5,-8.054,-7.552,80,-8.327,-8.008,-5.225,-5.081,-5.114,-4.788,4.728,8.413,32,-1.611,1.277,5.109,8.022,-8.487,-8.36,-1.526,1.587,328.9,316.1,319.4,314.2,325.2,320.1,340.5,318.2,321.5,307.4,3,norm,1.958,1.319,-1.241,-1.652,-4.828,-4.391,-1.211,-1.436,-1.7,-1.971,1.901,-1.951,323.2,338.3,-5.24,-7.535,1.337,-1.451,7.841,5.275,-4.664,-8.223,2,4.51,4.816,4.55,4.53,1.994,1.472,1.911,1.818,2,4.385,4.472,40,176.9880715,norm,0,11,11,11,291.443,291.452,291.4584606,291.459,291.46,291.463,down,1,1.50109012,8.49890988,1,323,1920_1080,Intel(R) Core(TM) i5-3570 CPU @ 3.40GHz,orientation_search,LEPPC096,Intel(R) HD Graphics 2500,2018_Nov_24_1448,testMonitor
303.3,306.4,318.8,318.8,36,80,331.9,317.1,314.3,300.5,8.312,7.787,8.482,7.92,7.905,7.748,8.258,4.428,-4.4,-8.403,1.344,-1.945,8.035,4.406,-4.735,-8.235,326.3,323.2,-7.782,317,315.2,339.5,318.6,326.2,36,328.1,0,5,prime,10,0,70,norm,36,-5.178,down,norm,320.5291973,318.5,323.5,340.5,332.9,2,309.8,330.8,321.5,10,6,8.4,5.242,1.889,-1.736,-5.288,-8.17,335.3,6,390.5,-8.335,-7.638,80,-8.498,-7.838,-4.666,-5.118,-4.345,-4.553,5.111,7.527,2,-1.566,1.461,4.357,7.554,-8.064,-8.071,-1.93,1.79,317.7,315.7,314,,317.3,319.4,337.6,332.3,322.2,321.6,4,norm,1.556,1.106,-1.57,-1.684,-4.568,-4.385,-1.11,-2.075,-1.997,-1.564,1.334,-1.304,336.4,316.5,-4.978,-8.061,1.424,-1.513,7.614,4.677,-4.772,-7.716,2,4.822,4.645,4.993,5.042,1.477,1.895,1.599,1.934,2,4.336,4.505,40,176.9880715,norm,0,12,12,12,293.003,293.015,293.0351793,293.035,293.038,293.041,down,1,1.245489277,8.754510723,1,323,1920_1080,Intel(R) Core(TM) i5-3570 CPU @ 3.40GHz,orientation_search,LEPPC096,Intel(R) HD Graphics 2500,2018_Nov_24_1448,testMonitor
303,327.8,327.5,318.2,36,80,314.5,300.5,309.8,316.3,7.533,7.686,8.486,7.805,7.805,8.208,7.928,5.239,-5.044,-7.853,1.988,-1.688,8.45,4.545,-4.675,-7.779,313.7,310.1,-8.152,318.5,315.8,321.4,319.3,328.2,36,,4,5,prime,10,0,111,norm,36,-4.618,up,norm,320.5291973,308,314.5,308.7,325,3,325.3,326.5,340.5,10,6,7.688,5.178,1.103,-1.251,-5.05,-8.066,311.5,6,431.5,-7.763,-8.028,80,-7.975,-7.521,-5.239,-4.604,-4.557,-4.543,4.759,8.258,27,-1.947,1.146,4.638,7.529,-7.827,-7.63,-1.628,1.9,333.2,323.1,309.3,320.3,318.7,340,327.5,323.2,320.5,323.5,5,norm,2.079,2.1,-1.525,-1.981,-5.215,-5.225,-1.103,-1.136,-1.91,-1.311,1.27,-1.494,308.4,328.2,-5.098,-8.067,1.724,-1.473,7.968,4.654,-4.839,-8.224,2,5.088,4.334,4.884,4.503,1.484,1.609,1.824,1.537,2,4.789,4.558,40,176.9880715,norm,0,13,13,13,294.319,294.329,294.343396,294.344,294.345,294.348,up,1,0.995527838,9.004472162,1,323,1920_1080,Intel(R) Core(TM) i5-3570 CPU @ 3.40GHz,orientation_search,LEPPC096,Intel(R) HD Graphics 2500,2018_Nov_24_1448,testMonitor
464,456.6,458.2,,36,30,458.5,463.6,461.6,451.9,8.205,8.256,8.028,7.695,8.404,7.843,7.906,4.659,-5.293,-7.882,1.308,-1.641,7.892,4.5,-5.029,-8.171,468.5,453.9,-8.16,465.3,459.8,462.2,458.8,457.4,36,459,3,5,probe,5,0,67,norm,36,-5.096,up,norm,458.5123504,460.4,456.2,455.3,452.9,3,448.5,462.3,468.2,10,6,7.952,4.842,1.29,-1.41,-4.996,-7.645,452.7,2,391.5,-8.119,-8.414,80,-8.341,-7.763,-4.605,-4.889,-4.352,-5.222,4.98,8.357,21,-1.36,2.064,4.587,7.607,-7.609,-8.317,-1.888,1.923,454.6,453.8,459.5,459.2,453.4,463.8,452.5,462.7,461,455.4,0,norm,1.934,1.391,-1.245,-1.789,-4.329,-4.871,-1.898,-1.464,-1.433,-1.34,1.295,-1.827,463.2,459.8,-4.382,-8.446,1.488,-1.143,8.067,4.956,-4.922,-7.739,3,5.004,5.292,5.104,4.923,1.303,1.786,1.754,1.311,3,4.81,4.813,80,320.5291973,norm,0,14,14,14,295.374,295.385,295.3895134,295.39,295.392,295.395,up,1,0.858570291,9.141429709,1,323,1920_1080,Intel(R) Core(TM) i5-3570 CPU @ 3.40GHz,orientation_search,LEPPC096,Intel(R) HD Graphics 2500,2018_Nov_24_1448,testMonitor
480.9,472.6,482.5,464.7,36,30,479,480.7,467.2,467.7,7.54,8.22,8.462,7.918,8.308,7.586,8.259,5.213,-5.276,-7.901,1.581,-1.683,8.304,5.22,-4.455,-7.538,466.9,478.8,-8.078,474,469.5,466.6,473,475.8,36,468.7,3,5,probe,5,0,81,norm,36,-5.161,down,norm,472.5123504,478.8,463.9,474.9,474.8,0,472.8,468.8,462.5,10,6,7.821,4.559,1.438,-1.956,-5.239,-7.593,479.1,2,391.5,-8.032,-7.711,80,-7.928,-7.729,-4.806,-4.507,-5.283,-5.195,5.042,7.687,18,-1.98,1.998,5.238,8.434,-7.598,-8.169,-1.952,1.511,470.9,465,466,473.2,468.1,467,469.8,473.6,476.3,477.1,1,norm,1.634,1.134,-1.777,-1.622,-5.271,-5.077,-2.099,-1.24,-1.745,-1.409,1.402,-1.428,477.8,,-4.627,-8.493,1.944,-1.551,7.621,5.237,-5.095,-8.201,3,4.614,5.275,4.314,4.725,1.7,1.947,1.408,1.254,3,5.242,4.545,80,320.5291973,norm,0,15,15,15,296.286,296.297,296.3018248,296.302,296.304,296.306,down,1,0.730064453,9.269935547,1,323,1920_1080,Intel(R) Core(TM) i5-3570 CPU @ 3.40GHz,orientation_search,LEPPC096,Intel(R) HD Graphics 2500,2018_Nov_24_1448,testMonitor
80.9,76.4,68.8,75.9,36,-10,84,62,75.4,61.5,8.011,8.446,8.038,8.19,8.489,7.662,7.632,4.613,-4.926,-8.035,1.998,-1.681,8.28,4.831,-5.277,-8.118,57.2,78.2,-7.591,80.2,87,,70.8,64.9,36,77.8,5,5,prime,10,0,61,norm,36,-4.593,up,norm,77.15649339,92.8,81.2,81.8,67.4,3,76,79.1,97.2,10,5,7.78,5.246,1.129,-1.101,-4.73,-7.988,73.7,5,138.2,-7.55,-8.4,-10,-8,-7.632,-5.091,-4.871,-5.04,-5.218,4.82,8.394,33,-2.005,1.178,4.811,7.673,-7.601,-8.027,-1.996,1.248,77.9,68.4,69.4,87,85.5,86.3,60.7,85.3,69.4,92.7,0,norm,1.294,1.197,-2.087,-1.487,-4.727,-4.581,-1.809,-1.583,-1.439,-1.961,1.396,-1.782,77.9,86,-4.502,-7.944,1.66,-1.1,7.992,4.831,-4.86,-8.375,4,4.823,5.192,4.758,4.45,1.562,1.475,1.395,1.477,4,5.163,4.609,30,320.5291973,norm,0,16,16,16,297.068,297.078,297.0889066,297.089,297.091,297.093,up,1,1.922103305,8.077896695,1,323,1920_1080,Intel(R) Core(TM) i5-3570 CPU @ 3.40GHz,orientation_search,LEPPC096,Intel(R) HD Graphics 2500,2018_Nov_24_1448,testMonitor
80.4,73.5,81,86.1,36,-10,73,85.7,85.3,75.7,8.008,8.014,7.985,8.394,8.435,8.05,7.918,5.007,-4.389,-7.869,2.089,-1.796,7.613,5.147,-4.814,-7.764,97.2,66.3,-8.204,71.8,88.8,60.8,80,76.1,36,77.5,0,5,prime,10,0,99,norm,36,-4.93,up,norm,77.15649339,83.6,61.9,80.9,80.6,3,82.7,82.6,66.2,10,5,8.279,4.607,1.401,-1.985,-4.507,-7.654,79.3,5,176.2,-7.948,-8.243,-10,-8.47,-7.553,-4.92,-4.399,-4.854,-4.522,4.551,8.301,3,-1.301,1.314,4.816,8.242,-8.492,-7.853,-1.827,1.189,73.7,73.6,,88.5,81.1,72.7,83.2,70.6,70.4,57.2,1,norm,1.264,1.975,-1.306,-1.642,-4.903,-5.161,-1.966,-1.899,-2.036,-1.422,1.568,-2.025,86,84.1,-5.016,-7.718,1.215,-1.775,7.656,4.538,-4.779,-7.736,4,4.968,4.728,4.508,4.571,1.817,2.096,1.796,1.326,4,4.726,5.224,30,320.5291973,norm,0,17,17,17,299.048,299.059,299.0639988,299.064,299.066,299.068,up,1,2.757686453,7.242313547,1,323,1920_1080,Intel(R) Core(TM) i5-3570 CPU @ 3.40GHz,orientation_search,LEPPC096,Intel(R) HD Graphics 2500,2018_Nov_24_1448,testMonitor
67.7,89.7,65.9,87,36,-10,59.7,67,77.1,75.8,8.462,8.3,7.601,7.972,7.815,7.803,7.631,4.434,-4.687,-7.653,1.532,-2.013,8.289,4.301,-5.06,-7.915,71.4,97.2,-7.574,73.3,,68.5,90.2,76.6,36,62.1,5,5,prime,10,0,77,norm,36,-4.592,down,norm,77.15649339,86,88.6,65.2,71.5,0,83,95,89.5,10,5,7.59,4.487,1.194,-1.972,-4.455,-8.394,78,5,154.2,-7.74,-7.673,-10,-7.752,-7.568,-5.23,-5.063,-5.17,-4.738,4.825,7.96,30,-1.324,1.209,4.408,7.845,-8.388,-8.061,-1.199,1.709,77.8,67,68.6,67.6,72.6,80.2,84.8,76.1,94.9,57.2,2,norm,1.429,1.452,-1.98,-1.707,-4.416,-4.432,-1.333,-1.987,-2.085,-1.337,1.56,-1.937,80.4,71.8,-4.843,-7.987,1.565,-1.262,8.399,5.233,-5.018,-8.118,4,5.236,4.814,4.529,5.027,1.426,1.976,1.564,1.397,4,4.35,4.929,30,320.5291973,norm,0,18,18,18,301.847,301.857,301.8632492,301.863,301.865,301.868,down,1,1.061841766,8.938158234,1,323,1920_1080,Intel(R) Core(TM) i5-3570 CPU @ 3.40GHz,orientation_search,LEPPC096,Intel(R) HD Graphics 2500,2018_Nov_24_1448,testMonitor
93.4,62.5,85,65.6,36,-10,78.3,76.6,91.1,71.5,7.901,7.925,7.869,8.096,7.836,8.237,8.296,4.894,-5.138,-7.537,1.592,-1.283,8.001,4.694,-4.654,-8.495,78.3,87.6,-7.606,57.2,94.8,87.9,94.1,64.7,36,92.1,0,5,prime,10,0,100,norm,36,-4.317,up,norm,77.15649339,69.4,72.4,85,81.5,5,72.5,79.3,92.5,10,5,7.971,5.235,1.291,-1.674,-4.383,-8.489,85,5,177.2,-7.89,-8.05,-10,-7.783,-7.672,-4.609,-4.397,-4.702,-4.963,4.409,8.229,5,-1.851,1.213,5.233,8.259,-8.276,-7.85,-1.791,1.96,86.6,65.5,72.1,61.6,91.4,72,97.2,67.5,,68.4,3,norm,2.061,1.623,-1.95,-1.326,-5.234,-4.634,-1.9,-1.399,-2.025,-1.104,1.257,-2.034,88.2,63.6,-4.36,-8.289,1.126,-1.931,7.585,5.024,-4.339,-8.099,4,4.468,4.823,4.494,5.289,1.369,1.202,1.493,1.265,4,4.621,5.135,30,320.5291973,norm,0,19,19,19,302.97,302.98,302.9864697,302.987,302.988,302.991,up,1,1.199184772,8.800815228,1,323,1920_1080,Intel(R) Core(TM) i5-3570 CPU @ 3.40GHz,orientation_search,LEPPC096,Intel(R) HD Graphics 2500,2018_Nov_24_1448,testMonitor
83,68.4,73,73.1,36,-10,90.5,78.5,73.4,85.6,8.468,7.843,8.089,7.898,8.005,8.097,8.115,4.698,-5.057,-7.765,1.266,-1.143,8.151,4.675,-4.422,-7.784,86.3,75,-7.969,65.5,86.6,85.5,88.4,83.5,36,78.2,2,5,prime,10,0,94,norm,36,-4.979,up,norm,77.15649339,88,76.6,,83.7,3,78.2,88.8,81.5,10,5,8.493,4.993,1.199,-1.52,-5.106,-8.297,80.9,5,171.2,-8.106,-8.353,-10,-8.131,-8.388,-5.164,-4.752,-5.032,-4.614,4.523,8.379,15,-2.088,1.652,4.44,7.803,-8.344,-8.061,-1.585,1.415,81,78.8,73.5,91.6,75.2,73.1,75.2,75.5,91,79.8,4,norm,1.465,1.381,-1.554,-1.586,-4.633,-4.472,-1.901,-1.976,-1.967,-1.926,1.181,-1.942,78.6,57.2,-4.367,-7.696,2.044,-1.119,8.042,4.834,-4.939,-8.302,4,4.773,5.092,4.363,4.583,1.234,1.815,1.627,2.021,4,4.728,4.444,30,320.5291973,norm,0,20,20,20,304.223,304.237,304.255395,304.256,304.257,304.26,up,1,1.384143807,8.615856193,1,323,1920_1080,Intel(R) Core(TM) i5-3570 CPU @ 3.40GHz,orientation_search,LEPPC096,Intel(R) HD Graphics 2500,2018_Nov_24_1448,testMonitor
129.2,134.2,127.1,127.4,36,-60,131.4,129,131.8,136.4,8.174,7.634,7.521,8.435,8.054,7.964,7.964,4.594,-5.047,-7.71,1.501,-1.123,7.506,4.819,-5.037,-8.466,127.8,,-7.63,130.2,124.1,131.4,138.3,135.2,36,131.7,5,5,probe,5,0,64,norm,36,-5.28,up,norm,130.0875538,127.6,133.5,127.3,133.9,4,137.1,130.6,133.3,10,5,8.388,5.013,2.019,-1.486,-5.265,-7.809,128.4,2,66.1,-7.735,-7.656,-10,-7.887,-8.085,-4.632,-4.402,-5.158,-4.35,4.615,8.13,34,-1.74,1.379,5.126,7.962,-7.698,-8.123,-1.949,1.209,139.7,136.3,123.4,137.8,128.7,137.4,140.1,124.7,120.1,131.4,0,norm,1.711,1.291,-2.001,-2.077,-4.644,-4.847,-1.151,-1.124,-1.577,-1.129,1.979,-1.682,131.2,124.6,-4.735,-8.272,1.59,-1.191,8.215,4.522,-4.574,-8.45,5,5.277,4.702,5.197,4.963,1.586,1.449,1.39,1.199,5,4.449,4.943,-10,77.15649339,norm,0,21,21,21,305.677,305.689,305.6928187,305.693,305.695,305.697,up,1,2.053559694,7.946440306,1,323,1920_1080,Intel(R) Core(TM) i5-3570 CPU @ 3.40GHz,orientation_search,LEPPC096,Intel(R) HD Graphics 2500,2018_Nov_24_1448,testMonitor
161.2,155.2,159.3,154.8,36,-60,154.3,153,155.3,162.1,7.524,7.625,8.256,8.141,8.215,7.877,8.142,5.113,-4.69,-7.855,1.493,-1.269,8.437,4.424,-5.007,-7.905,155.7,151.9,-8.492,156.6,152.3,158.5,160.1,164.1,36,148.5,0,5,probe,5,0,88,norm,36,-4.655,down,norm,154.0875538,158.6,154.8,154.6,152.3,2,153.5,158.2,163.4,10,5,8.177,4.633,1.863,-1.91,-5.108,-7.932,160.1,2,66.1,-8.283,-7.91,-10,-8.016,-7.92,-4.305,-4.573,-4.33,-4.309,5.18,7.516,2,-1.961,1.294,4.492,7.849,-8.284,-8.285,-1.533,1.248,154,147.8,152.4,,158.4,153.7,149.3,161.4,150.6,144.1,1,norm,2,1.841,-2.031,-2.031,-4.701,-4.429,-2.04,-1.428,-1.334,-1.835,1.949,-1.957,150.1,153.5,-4.853,-8.151,1.82,-1.135,8.433,5.13,-4.534,-8.273,5,5.253,5.02,4.594,4.563,1.999,1.413,1.258,1.86,5,4.456,4.633,-10,77.15649339,norm,0,22,22,22,307.791,307.8,307.8065373,307.807,307.808,307.811,down,1,0.755604012,9.244395988,1,323,1920_1080,Intel(R) Core(TM) i5-3570 CPU @ 3.40GHz,orientation_search,LEPPC096,Intel(R) HD Graphics 2500,2018_Nov_24_1448,testMonitor
70.4,68,90.8,70.2,36,-10,60.9,75.2,76.1,,8.279,7.882,7.768,7.615,8.421,8.219,8.118,5.267,-5.016,-8.285,2.009,-1.858,8.001,4.868,-4.607,-8.178,72.4,68.6,-7.973,79.1,76.9,50.8,73.3,84.5,36,65,4,5,prime,10,0,107,norm,36,-4.558,up,norm,70.76147354,86.8,78.4,76.6,79.7,5,81.4,57.9,67.6,10,6,7.734,4.728,1.602,-1.781,-4.566,-7.506,57.5,6,177.8,-8.29,-8.169,-10,-8.321,-8.38,-5.157,-4.831,-5.278,-4.879,4.601,8.327,29,-1.108,1.979,5.05,8.038,-8.44,-7.974,-2.049,1.134,77.9,70.5,68.1,90.2,81.6,64.2,85.1,57.1,64.5,74.2,0,norm,1.935,1.734,-1.927,-1.137,-4.713,-4.542,-1.856,-2.008,-1.639,-1.633,1.776,-1.777,83.1,57.1,-5.256,-7.996,1.891,-1.276,7.697,4.429,-4.729,-8.241,6,4.596,4.847,4.396,4.316,1.147,1.296,1.164,1.919,6,5.06,4.475,-60,77.15649339,norm,0,23,23,23,308.598,308.607,308.6177029,308.618,308.62,308.622,up,1,1.283705495,8.716294505,1,323,1920_1080,Intel(R) Core(TM) i5-3570 CPU @ 3.40GHz,orientation_search,LEPPC096,Intel(R) HD Graphics 2500,2018_Nov_24_1448,testMonitor
62.2,70.2,56.8,74.1,36,-10,90.8,80.8,81.2,78,8.448,8.457,8.487,8.442,8.349,7.936,8.156,4.484,-5.143,-8.264,1.26,-1.495,8.446,4.583,-4.629,-7.683,78.1,64,-8.004,71.5,71.6,78.2,56.3,61.6,36,81.8,1,5,prime,10,0,77,norm,36,-4.486,down,norm,70.76147354,84.5,85,57.5,64.9,2,66.6,50.8,68.1,10,6,7.746,5.136,1.805,-1.856,-4.625,-8.371,79.4,6,147.8,-8.355,-8.155,-10,-7.889,-7.651,-4.44,-4.743,-4.948,-4.749,5.016,7.844,8,-1.746,1.93,4.372,7.908,-7.575,-7.98,-1.919,2.041,62.2,,76.8,80.3,57.2,68.1,90,73.9,72.2,72.5,1,norm,1.355,1.785,-1.709,-1.573,-4.371,-4.959,-1.871,-1.286,-1.816,-1.755,1.635,-1.255,72.5,77.4,-5.229,-8.111,1.377,-1.863,8.101,4.306,-4.619,-7.754,6,4.741,5.216,4.488,4.716,1.272,1.641,1.463,2.09,6,4.893,5.189,-60,77.15649339,norm,0,24,24,24,309.939,309.948,309.9581975,309.958,309.96,309.963,down,1,2.513857333,7.486142667,1,323,1920_1080,Intel(R) Core(TM) i5-3570 CPU @ 3.40GHz,orientation_search,LEPPC096,Intel(R) HD Graphics 2500,2018_Nov_24_1448,testMonitor
64.7,62.2,79.9,74.4,36,-10,50.8,58,80,65.8,7.925,8.167,8.288,7.608,7.693,8.391,8.28,5.22,-4.795,-7.881,1.435,-1.561,7.542,5.119,-4.912,-7.844,74.2,68.4,-7.54,82.9,66.8,75.8,52.5,65.6,36,81,0,5,prime,10,0,73,norm,36,-4.364,down,norm,70.76147354,90.8,68.1,82.6,79,2,72.5,67.3,64.9,10,6,8.438,4.834,2.089,-1.534,-4.949,-7.809,52.7,6,143.8,-7.636,-7.572,-10,-8.455,-7.613,-4.687,-5,-4.519,-5.098,4.445,7.972,2,-1.612,1.531,4.916,8.448,-8.395,-8.109,-1.631,1.932,59.9,56.4,72.8,,81.3,75.7,85.4,88.3,77,66.9,2,norm,1.894,1.158,-1.722,-1.857,-4.341,-4.467,-2.03,-1.328,-1.21,-1.699,1.992,-2.081,79.1,64.3,-4.7,-7.748,1.215,-1.395,8.28,4.824,-4.714,-7.772,6,4.868,4.391,4.67,5.063,1.877,1.846,1.601,1.941,6,4.439,4.502,-60,77.15649339,norm,0,25,25,25,312.51,312.521,312.5252859,312.525,312.527,312.53,down,1,1.629412132,8.370587868,1,323,1920_1080,Intel(R) Core(TM) i5-3570 CPU @ 3.40GHz,orientation_search,LEPPC096,Intel(R) HD Graphics 2500,2018_Nov_24_1448,testMonitor
61.8,70.6,81.1,67.8,36,-10,50.8,64.1,81.7,,7.712,8.314,8.273,7.778,7.643,8.492,7.996,5.033,-5.066,-7.533,1.823,-1.129,8.336,4.5,-5.075,-7.736,75.6,61.7,-7.887,65.9,53,74.6,71,80.5,36,72.7,4,5,prime,10,0,115,norm,36,-4.495,up,norm,70.76147354,58.1,85.7,65,90.8,5,76.4,77.9,82.2,10,6,8.13,4.342,1.706,-1.159,-5.295,-7.629,71.9,6,185.8,-7.708,-8.036,-10,-7.746,-7.869,-4.716,-4.998,-4.566,-4.439,5.201,7.695,29,-1.735,1.232,4.674,8.129,-8.088,-8.233,-1.274,1.183,77.6,64.3,80.7,82.3,71.4,73.2,56.9,52.5,78.1,85.6,3,norm,1.942,1.653,-1.191,-1.409,-5.29,-4.488,-1.175,-1.891,-1.721,-1.638,1.653,-1.187,76.1,71.5,-5.297,-8.113,1.862,-1.327,7.63,5.164,-4.609,-7.782,6,5.1,5.034,4.346,5.05,1.612,1.927,1.79,1.664,6,5.011,4.565,-60,77.15649339,norm,0,26,26,26,314.192,314.205,314.2243989,314.225,314.226,314.229,up,1,1.897932319,8.102067681,1,323,1920_1080,Intel(R) Core(TM) i5-3570 CPU @ 3.40GHz,orientation_search,LEPPC096,Intel(R) HD Graphics 2500,2018_Nov_24_1448,testMonitor
68.4,65.9,64.4,69.1,36,-10,78,70.3,71.6,77.2,7.904,8.352,7.962,7.928,8.281,8.012,8.261,5.024,-4.824,-7.814,1.262,-1.689,8.239,4.778,-4.533,-7.591,74.5,81.4,-7.707,72.1,61.3,76.4,50.8,65.4,36,62.5,2,5,prime,10,0,70,norm,36,-4.5,down,norm,70.76147354,62.9,54.1,69.2,,2,68,72.6,71,10,6,7.894,4.56,1.459,-1.606,-4.532,-7.633,55.1,6,140.8,-7.981,-7.659,-10,-7.881,-7.933,-4.567,-5.005,-4.927,-4.597,4.388,7.568,14,-1.468,1.594,4.681,8.1,-8.235,-8.16,-1.634,1.746,63.3,63,53,90.8,77.6,67.7,76.9,73.3,56.3,72.3,4,norm,1.4,1.347,-1.892,-1.392,-5.007,-5.187,-1.358,-1.729,-1.14,-1.499,1.959,-1.745,75,69.7,-4.545,-8.313,1.538,-1.614,7.87,4.978,-4.516,-8.221,6,4.479,5.264,5.022,4.475,1.494,1.91,2.014,1.813,6,4.521,5.216,-60,77.15649339,norm,0,27,27,27,316.168,316.177,316.1839708,316.184,316.186,316.188,down,1,0.770619079,9.229380921,1,323,1920_1080,Intel(R) Core(TM) i5-3570 CPU @ 3.40GHz,orientation_search,LEPPC096,Intel(R) HD Graphics 2500,2018_Nov_24_1448,testMonitor
61.7,60.6,67.2,63.6,36,-10,67.2,66.9,71.5,51.7,7.776,7.995,7.622,7.708,8.128,7.845,8.073,5.291,-4.596,-8.014,1.834,-1.776,7.776,4.501,-5.181,-8.22,64.8,75.5,-7.773,58.3,76.3,75.8,63.4,60,36,69.3,1,5,prime,10,0,62,norm,36,-4.757,up,norm,70.76147354,62.3,73.5,67.6,72.4,4,90.8,55.5,71.9,10,6,8.022,4.608,1.851,-1.698,-4.42,-7.923,,6,132.8,-7.723,-8.426,-10,-8.38,-8.038,-5.071,-4.47,-4.897,-5.027,4.613,8.468,10,-1.374,1.247,4.377,7.906,-7.77,-7.968,-1.113,1.786,67.7,73.1,76.6,65.1,78.2,72.1,62.9,61,70.1,74.2,5,norm,1.996,1.502,-1.928,-1.736,-5.219,-4.397,-1.346,-1.108,-1.166,-1.622,1.933,-1.219,50.8,74.4,-4.51,-7.883,1.507,-1.854,8.199,4.354,-4.657,-7.705,6,4.713,5.18,4.704,4.823,1.6,2.098,1.319,1.806,6,4.451,5.217,-60,77.15649339,norm,0,28,28,28,316.979,316.988,316.9946295,316.995,316.997,316.999,up,1,0.755619104,9.244380896,1,323,1920_1080,Intel(R) Core(TM) i5-3570 CPU @ 3.40GHz,orientation_search,LEPPC096,Intel(R) HD Graphics 2500,2018_Nov_24_1448,testMonitor
140.7,138.8,137.7,149.7,36,-20,137.5,141.9,142.2,144.8,7.644,8.368,7.742,8.32,8.227,7.943,7.682,4.898,-4.866,-7.573,2.096,-1.697,8.153,4.41,-4.655,-8.43,145.4,141.4,-8.093,142.9,148.6,141.5,147.5,135.5,36,140.4,2,5,probe,5,0,76,norm,36,-5.055,down,norm,141.2566005,149.2,143,143.2,,2,138.6,149.1,146.6,10,6,8.26,4.425,1.673,-1.385,-4.894,-8.333,144,1,65.3,-8.081,-7.658,-10,-7.871,-8.215,-4.678,-5.064,-4.906,-5.057,5.019,7.788,14,-1.536,1.816,4.766,8.392,-7.57,-7.984,-2.094,1.681,146.4,138.7,144.5,135,139.7,142.8,145.1,140.2,141.9,142,0,norm,1.717,1.666,-1.546,-1.752,-4.974,-4.333,-1.504,-1.116,-1.94,-2.071,1.271,-2.083,151.3,131.3,-4.859,-8.255,1.162,-1.492,7.715,4.393,-5.165,-7.613,7,5.249,5.035,4.856,4.962,1.44,1.541,1.659,1.159,7,4.372,5.083,-10,70.76147354,norm,0,29,29,29,317.771,317.781,317.7890607,317.789,317.791,317.793,down,1,0.990904451,9.009095549,1,323,1920_1080,Intel(R) Core(TM) i5-3570 CPU @ 3.40GHz,orientation_search,LEPPC096,Intel(R) HD Graphics 2500,2018_Nov_24_1448,testMonitor
99.1,82.6,77.7,71.6,36,-80,81,95.2,73.9,95,8.357,8.21,7.805,8.432,8.012,7.88,7.549,4.722,-4.591,-8.165,1.178,-1.395,7.574,4.447,-4.531,-8.199,87,76,-7.946,86.7,87.5,82.7,81.2,85.1,36,74.2,1,5,prime,10,0,105,norm,36,-4.765,up,norm,79.14373955,84,86.7,80.7,68.4,5,,83.2,73.5,10,6,8.286,4.421,1.282,-1.648,-4.736,-8.143,73.9,6,184.1,-7.59,-7.892,-80,-8.052,-8.466,-4.365,-4.738,-4.33,-4.842,5.023,7.739,11,-1.157,1.295,4.525,7.84,-7.747,-8.395,-1.477,1.159,84.5,68.1,75.2,81.9,59.1,76.2,97.5,89,82.7,74.8,0,norm,1.272,1.916,-1.341,-1.423,-5.161,-5.216,-1.583,-1.223,-1.112,-1.472,1.293,-1.241,83.8,74.1,-5.056,-7.828,1.457,-1.678,8.237,4.608,-4.383,-8.422,8,4.426,4.688,4.796,5.272,2.028,1.142,1.541,1.354,8,5.174,4.795,-20,70.76147354,norm,0,30,30,30,318.804,318.813,318.8196526,318.82,318.822,318.824,up,1,3.258433071,6.741566929,1,323,1920_1080,Intel(R) Core(TM) i5-3570 CPU @ 3.40GHz,orientation_search,LEPPC096,Intel(R) HD Graphics 2500,2018_Nov_24_1448,testMonitor
71.5,74.3,84,85.9,36,-80,68.3,59.1,82.2,64.6,7.818,7.607,8.287,7.858,8.134,7.935,7.824,4.328,-4.499,-7.609,1.489,-1.416,8.18,4.778,-4.655,-7.785,69.1,93.4,-8.235,71.7,80.9,98.8,86.9,89.4,36,95.8,2,5,prime,10,0,83,norm,36,-4.825,down,norm,79.14373955,80.1,78.5,77.2,78.4,1,99.1,,96.6,10,6,8.186,4.83,1.945,-1.445,-4.774,-8.277,70.3,6,162.1,-7.743,-7.952,-80,-7.525,-7.607,-4.934,-4.955,-5.293,-4.489,5.111,8.258,13,-1.751,1.855,5.172,7.593,-8.458,-8.378,-1.794,1.772,87.2,75.9,66.5,65,89.9,90.5,67.3,69.2,67.5,80.9,1,norm,1.982,1.12,-1.747,-1.568,-4.926,-4.561,-2.032,-1.622,-1.873,-1.592,1.445,-1.782,86.5,71.1,-4.628,-8.17,1.296,-1.154,8.455,5.119,-4.823,-7.699,8,4.33,4.902,4.327,4.533,2.094,1.849,1.515,1.471,8,4.753,5.087,-20,70.76147354,norm,0,31,31,31,322.1,322.11,322.1300803,322.13,322.132,322.134,down,1,0.891838033,9.108161967,1,323,1920_1080,Intel(R) Core(TM) i5-3570 CPU @ 3.40GHz,orientation_search,LEPPC096,Intel(R) HD Graphics 2500,2018_Nov_24_1448,testMonitor
71.7,92.6,77.6,81.4,36,-80,85.4,86.4,71.1,86.5,7.683,8.152,8.454,7.553,7.56,8.351,8.017,4.519,-4.459,-7.776,1.908,-1.443,7.895,4.697,-4.945,-8.405,86.5,85.9,-8.264,,67.3,85.2,63.8,85,36,66.2,5,5,prime,10,0,66,norm,36,-4.501,down,norm,79.14373955,81.8,91.8,71.7,72.4,1,73.9,75.3,71.7,10,6,8.372,4.865,1.759,-1.436,-5.041,-8.373,83.2,6,145.1,-8.131,-8.134,-80,-8.036,-7.839,-5.02,-4.506,-4.463,-4.777,5.101,7.816,31,-1.379,1.379,5.263,7.896,-8.035,-8.154,-1.628,1.678,83.7,99.1,89.1,59.1,74.8,76.3,69.6,61.6,87.6,78.6,2,norm,1.269,1.698,-1.503,-1.203,-5.215,-4.58,-1.573,-1.381,-2.091,-1.453,1.143,-1.213,89.5,65.7,-4.615,-7.878,1.815,-2.096,8.095,4.813,-4.304,-7.874,8,5.249,4.629,4.629,4.367,1.813,1.841,1.233,1.784,8,4.624,4.62,-20,70.76147354,norm,0,32,32,32,323.059,323.069,323.0772767,323.077,323.079,323.082,down,1,1.31591285,8.68408715,1,323,1920_1080,Intel(R) Core(TM) i5-3570 CPU @ 3.40GHz,orientation_search,LEPPC096,Intel(R) HD Graphics 2500,2018_Nov_24_1448,testMonitor
69.1,68.1,70.2,83,36,-80,68.9,72.2,88.1,77.3,7.523,7.866,7.859,8.357,8.092,8.477,7.943,5.051,-4.945,-8.064,1.776,-2.006,8.058,4.734,-4.398,-7.813,76.8,99.1,-7.701,75.9,67.3,82.3,59.7,78.1,36,73.4,0,5,prime,10,0,119,norm,36,-4.41,up,norm,79.14373955,73.5,87.4,93.9,78.3,4,90.2,82.8,84.3,10,6,8.349,4.738,1.841,-1.502,-5.263,-7.739,78.9,6,198.1,-8.106,-8.176,-80,-7.906,-8.22,-5.061,-5.048,-5.27,-5.03,4.622,8.106,4,-1.798,1.86,4.835,8.402,-7.651,-7.837,-1.696,1.466,62.9,88,59.1,94.7,71.5,90.9,71.7,71.9,72.2,,3,norm,1.942,1.536,-1.124,-1.314,-4.473,-5.278,-1.794,-1.735,-1.63,-1.415,1.665,-1.357,66.8,84.9,-4.737,-8.436,1.577,-1.344,7.911,4.459,-4.625,-8.335,8,4.399,4.375,4.574,4.595,1.531,1.538,1.491,1.906,8,5.256,4.995,-20,70.76147354,norm,0,33,33,33,324.43,324.44,324.4499959,324.45,324.452,324.455,up,1,0.956995888,9.043004112,1,323,1920_1080,Intel(R) Core(TM) i5-3570 CPU @ 3.40GHz,orientation_search,LEPPC096,Intel(R) HD Graphics 2500,2018_Nov_24_1448,testMonitor
86.8,79.7,89,85.1,36,-80,70.4,81.4,79.9,92.4,8.285,7.846,8.379,7.828,7.749,8.469,7.671,4.893,-4.634,-8.097,1.895,-1.501,7.92,5.094,-4.986,-7.967,89.9,83.7,-8.124,86.8,77,59.1,72.7,61.8,36,81.2,1,5,prime,10,0,98,norm,36,-4.589,up,norm,79.14373955,80.7,74.3,99.1,77,5,,73.8,71.9,10,6,8.167,4.447,1.382,-1.743,-5.145,-8.352,64.2,6,177.1,-7.717,-8.149,-80,-7.836,-8.373,-4.479,-5.228,-4.722,-4.648,5.094,8.049,11,-2.005,1.546,5.207,7.813,-8.073,-7.81,-1.41,1.751,91.5,62.7,88.4,72.1,64.6,76.6,92.8,81.1,80.5,78.7,4,norm,1.213,1.508,-1.711,-1.515,-5.065,-4.383,-1.857,-1.143,-1.342,-2.073,1.459,-1.92,86.1,62.8,-5.173,-8.219,1.731,-1.66,8.14,5.111,-4.428,-7.822,8,5.292,4.641,4.676,4.598,1.491,1.826,1.652,1.578,8,5.179,5.272,-20,70.76147354,norm,0,34,34,34,325.444,325.454,325.463966,325.464,325.466,325.468,down,0,2.908056864,-10,1,323,1920_1080,Intel(R) Core(TM) i5-3570 CPU @ 3.40GHz,orientation_search,LEPPC096,Intel(R) HD Graphics 2500,2018_Nov_24_1448,testMonitor
59.1,72.6,71,89,36,-80,86.7,96.1,92.2,75.1,8.323,7.507,8.218,7.99,8.093,8.397,7.904,4.771,-4.322,-8.303,1.444,-1.831,7.694,5.128,-5.141,-7.555,81.2,73,-8.375,73.6,92.4,99.1,86.9,68.4,36,78,0,5,prime,10,0,66,norm,36,-4.425,down,norm,79.14373955,80.2,77.3,72.8,86,1,90.5,86,83,10,6,8.236,4.683,1.756,-1.314,-4.399,-8.188,86.2,6,145.1,-7.514,-7.902,-80,-7.664,-7.75,-4.426,-4.924,-4.655,-4.69,4.427,8.464,1,-1.84,1.458,4.809,7.808,-7.666,-7.597,-1.113,1.425,73.2,69,78.9,90.2,,72.5,77.3,85.6,80.9,92.7,5,norm,1.254,1.154,-1.576,-1.152,-4.39,-4.799,-2,-1.284,-1.886,-1.294,1.457,-1.784,76.1,84.6,-4.764,-8.499,1.677,-1.895,7.949,4.393,-4.771,-7.876,8,4.966,5.008,5.177,4.97,1.697,1.419,1.734,1.426,8,4.831,4.813,-20,70.76147354,norm,0,35,35,35,329.443,329.452,329.458489,329.459,329.46,329.463,down,1,2.371455375,7.628544625,1,323,1920_1080,Intel(R) Core(TM) i5-3570 CPU @ 3.40GHz,orientation_search,LEPPC096,Intel(R) HD Graphics 2500,2018_Nov_24_1448,testMonitor
107,108.9,101.4,109.8,36,-30,103.2,113.4,110.3,103.6,7.775,8.269,7.669,7.963,7.774,8.121,7.722,5.291,-4.774,-8.237,1.371,-1.973,7.893,4.955,-4.973,-8.272,100.9,109.3,-7.898,113.2,115.5,111.3,108.4,111.6,36,105,1,5,probe,5,0,107,norm,36,-4.922,down,norm,110.8978157,108.3,111.7,116,104,1,112.3,109.2,107.4,10,6,8.474,4.612,2.065,-1.746,-4.757,-7.555,106,1,3.9,-7.883,-8.27,-80,-7.904,-7.556,-5.094,-4.585,-4.585,-4.329,4.668,7.746,7,-1.673,1.914,4.526,8.285,-7.787,-8.208,-1.584,1.951,108.9,103.3,112.1,104.2,106,107.7,,109.3,118.5,116.5,0,norm,1.725,1.791,-1.163,-1.33,-4.655,-4.391,-1.883,-1.85,-1.857,-1.639,1.846,-2.073,103,114.5,-4.426,-8.163,1.868,-1.35,7.722,4.603,-4.831,-8.26,9,4.706,4.861,4.332,4.667,1.617,1.451,1.129,1.538,9,5.209,5.082,-80,79.14373955,norm,0,36,36,36,331.865,331.875,331.8909065,331.891,331.893,331.895,down,1,2.655608811,7.344391189,1,323,1920_1080,Intel(R) Core(TM) i5-3570 CPU @ 3.40GHz,orientation_search,LEPPC096,Intel(R) HD Graphics 2500,2018_Nov_24_1448,testMonitor
119.2,150.6,,133.2,36,-40,136.3,124.2,113.8,124.8,7.954,7.582,8.315,7.573,8.462,7.513,7.793,4.787,-4.507,-7.633,1.665,-1.467,8.413,5.024,-4.458,-8.18,135.5,124.2,-7.796,140.2,125.8,135.8,145.2,122.1,36,152.9,3,5,prime,10,0,65,norm,36,-4.908,down,norm,132.9451745,125.8,117.6,129.4,146.4,2,129.9,128,120.9,10,6,7.894,5.055,1.41,-1.649,-4.394,-8.22,142.6,6,197.9,-8.001,-8.314,-40,-8.075,-8.031,-4.742,-4.469,-5.088,-4.368,4.307,8.313,20,-1.977,1.223,4.376,8.328,-7.839,-8.129,-1.986,1.485,120.7,130.6,146.9,135,112.9,140.5,152.4,125.7,134.3,138.5,0,norm,1.159,1.336,-1.955,-1.635,-4.747,-5.145,-1.236,-1.585,-1.54,-1.138,1.221,-1.823,128.6,134.2,-4.527,-7.747,1.507,-1.348,7.973,4.481,-4.669,-8.475,10,4.492,4.859,4.999,5.255,1.944,1.822,1.499,2.086,10,4.619,4.327,-30,79.14373955,norm,0,37,37,37,334.591,334.613,334.622911,334.623,334.625,334.627,down,1,1.6527304,8.3472696,1,323,1920_1080,Intel(R) Core(TM) i5-3570 CPU @ 3.40GHz,orientation_search,LEPPC096,Intel(R) HD Graphics 2500,2018_Nov_24_1448,testMonitor
132.9,131.1,147,135.1,36,-40,132.6,138.7,114.3,152.9,8.289,7.55,7.765,8.104,8.069,7.66,7.518,5.173,-4.887,-7.986,1.934,-2.044,8.421,5.147,-4.434,-7.819,151.3,119.7,-7.941,134.8,129.1,124.6,152.8,125.9,36,148.4,2,5,prime,10,0,119,norm,36,-5.146,down,norm,132.9451745,133.9,124.3,118.4,128.6,1,127.4,,127.5,10,6,8.252,4.528,1.967,-1.531,-5.158,-7.669,145.5,6,251.9,-7.624,-7.59,-40,-8.232,-7.625,-5.134,-5.083,-4.89,-4.46,4.646,8.467,13,-1.374,1.19,4.427,7.955,-7.694,-8.111,-1.54,1.244,125.9,124.5,124,140.3,125.4,127.5,112.9,119.9,140.9,141.4,1,norm,1.64,1.147,-1.827,-1.673,-5.16,-5.007,-1.162,-1.965,-1.28,-1.952,1.463,-1.519,119.8,127.3,-4.856,-7.661,1.59,-1.807,7.642,5.14,-4.734,-7.743,10,4.76,4.376,4.685,4.36,1.817,1.192,1.866,1.536,10,5.184,4.327,-30,79.14373955,norm,0,38,38,38,336.322,336.331,336.3377035,336.338,336.34,336.342,down,1,1.165197427,8.834802573,1,323,1920_1080,Intel(R) Core(TM) i5-3570 CPU @ 3.40GHz,orientation_search,LEPPC096,Intel(R) HD Graphics 2500,2018_Nov_24_1448,testMonitor
135.4,119.1,125.6,136.4,36,-40,133.4,152.9,132.6,140.6,8.355,7.85,7.534,7.505,8.228,8.193,7.98,4.986,-4.415,-7.707,1.781,-1.737,7.841,4.355,-4.699,-7.562,123.2,149,-7.818,117.4,119.7,117.6,128.7,141,36,124.7,1,5,prime,10,0,110,norm,36,-5.165,up,norm,132.9451745,112.9,144.6,140,123.9,5,,120.2,131.2,10,6,8.098,4.505,1.151,-1.422,-5.055,-7.803,136.8,6,242.9,-7.589,-7.759,-40,-7.984,-8.279,-4.449,-5.219,-5.1,-4.856,5.001,7.569,11,-1.309,1.687,5.008,7.581,-8.356,-8.466,-1.545,1.753,133.1,137.1,145.6,135.9,141.9,122.6,145.7,137.2,133.4,137.7,2,norm,2.099,1.453,-1.929,-1.315,-4.578,-5.025,-2.1,-1.95,-1.453,-1.699,1.284,-1.36,133.2,127.5,-4.332,-8.087,1.768,-1.614,7.593,4.944,-5.066,-7.817,10,4.719,4.841,5.102,4.981,1.586,2.051,1.181,1.474,10,4.762,4.357,-30,79.14373955,norm,0,39,39,39,337.524,337.534,337.5535155,337.554,337.555,337.558,up,1,1.58412304,8.41587696,1,323,1920_1080,Intel(R) Core(TM) i5-3570 CPU @ 3.40GHz,orientation_search,LEPPC096,Intel(R) HD Graphics 2500,2018_Nov_24_1448,testMonitor
116.3,127.4,145.6,146.7,36,-40,150.5,140.3,116.7,119.6,7.522,7.917,7.676,8.461,8.246,7.768,7.723,4.372,-4.521,-7.98,2.019,-1.11,7.859,4.322,-5.272,-8.244,130.4,130.2,-8.303,132,136.3,132,130.6,115.2,36,135.4,0,5,prime,10,0,83,norm,36,-5.073,up,norm,132.9451745,140.3,133.6,128.9,125.8,4,134.5,112.9,136.8,10,6,8.407,5.165,1.227,-1.458,-5.263,-8.021,152.9,6,215.9,-7.598,-7.589,-40,-8.406,-8.368,-5.036,-4.958,-4.988,-4.649,5.027,7.884,4,-1.992,1.693,5.075,7.574,-7.877,-7.534,-2.025,1.918,139,145.9,122.9,131.8,123.2,136.8,132.3,135.5,144.4,,3,norm,1.712,1.981,-1.596,-1.389,-4.883,-5.275,-1.287,-1.48,-1.744,-2.081,1.293,-1.839,135.9,148.2,-5.132,-8.432,1.491,-1.934,7.866,4.718,-4.817,-8.191,10,5.251,4.798,5.009,5.102,1.813,2.096,1.383,1.86,10,5.201,4.785,-30,79.14373955,norm,0,40,40,40,339.176,339.186,339.1923434,339.193,339.194,339.197,up,1,0.790482409,9.209517591,1,323,1920_1080,Intel(R) Core(TM) i5-3570 CPU @ 3.40GHz,orientation_search,LEPPC096,Intel(R) HD Graphics 2500,2018_Nov_24_1448,testMonitor
,130.7,130.2,138.8,36,-40,129.4,135.8,138.8,126.2,7.676,7.652,8.446,7.539,8.157,7.52,7.709,4.855,-4.562,-7.766,1.433,-1.486,8.018,4.453,-4.474,-8.121,142.9,137.5,-8.071,126.6,117.5,147.7,133.4,121.7,36,120.8,3,5,prime,10,0,108,norm,36,-4.825,up,norm,132.9451745,136.4,148,144.2,132.6,4,129.7,152.9,138.5,10,6,8.162,5.278,1.191,-2.084,-5.282,-8.268,128.3,6,240.9,-7.628,-7.86,-40,-8.211,-7.64,-4.598,-4.338,-4.412,-4.565,5.001,8.215,22,-1.214,1.854,5.097,7.584,-7.501,-7.828,-1.707,1.21,112.9,130.1,137.1,138.1,117.9,137.2,135.9,132.7,133.4,126.3,4,norm,1.793,1.178,-1.391,-1.933,-4.881,-5.145,-2.071,-1.904,-1.21,-1.494,1.5,-1.551,129.3,137.8,-4.783,-8.107,1.292,-1.97,7.935,4.89,-4.76,-8.125,10,4.848,5.131,4.538,5.111,1.365,1.468,2.076,1.298,10,4.62,4.365,-30,79.14373955,norm,0,41,41,41,340.004,340.014,340.019953,340.02,340.022,340.024,up,1,0.801671869,9.198328131,1,323,1920_1080,Intel(R) Core(TM) i5-3570 CPU @ 3.40GHz,orientation_search,LEPPC096,Intel(R) HD Graphics 2500,2018_Nov_24_1448,testMonitor
129.6,135.3,131.9,133.7,36,-40,139.7,135.6,128.1,144.8,7.633,8.422,7.899,8.249,8.427,7.582,7.87,4.4,-5.262,-7.735,1.245,-1.685,8.397,4.722,-4.44,-7.99,127.8,125.8,-7.521,117.8,127.2,129.5,126.7,145.3,36,129.2,3,5,prime,10,0,82,norm,36,-4.651,down,norm,132.9451745,141.5,134.1,152.1,142.3,1,140.5,112.9,137,10,6,8.092,4.63,1.758,-1.336,-5.09,-7.534,152.9,6,214.9,-8.056,-7.61,-40,-7.76,-8.408,-5.236,-5.132,-5.006,-5.263,5.255,7.654,19,-2.066,2.09,4.537,7.639,-7.88,-8.039,-1.249,2.057,139.9,139.4,152.1,143.6,131.3,141.5,142.1,141.8,137.7,149.6,5,norm,1.928,1.143,-1.907,-1.781,-5.232,-4.931,-1.778,-1.265,-1.477,-1.452,1.41,-2.046,,120.1,-5.175,-8.429,1.454,-1.244,7.768,5.137,-4.301,-7.888,10,4.688,4.778,4.941,4.613,2.007,1.627,2.048,1.918,10,4.676,5.217,-30,79.14373955,norm,0,42,42,42,340.846,340.855,340.8614858,340.862,340.863,340.866,down,1,0.656469678,9.343530322,1,323,1920_1080,Intel(R) Core(TM) i5-3570 CPU @ 3.40GHz,orientation_search,LEPPC096,Intel(R) HD Graphics 2500,2018_Nov_24_1448,testMonitor
171.6,153,166.6,172.9,36,30,162.6,161.3,165,159,7.798,8.469,8.185,7.859,8.144,7.556,7.566,4.979,-4.326,-7.665,1.655,-1.245,7.557,5.063,-5.188,-7.907,163,163.1,-8.297,162.8,161.2,163.8,169.9,166,36,164.1,0,5,probe,5,0,67,norm,36,-5.265,down,norm,162.8716384,168.6,164.1,155.6,166.2,1,156.9,169,156.5,10,6,7.923,5.001,2.007,-1.683,-5.198,-8.152,168.7,2,95.9,-7.878,-8.032,-40,-7.597,-7.939,-4.842,-4.556,-4.462,-4.654,4.928,7.856,1,-2.096,1.729,4.96,8.403,-7.573,-8.43,-1.71,1.383,162.6,154.1,166.1,157.4,,154,153.7,163.3,159,152.9,0,norm,1.641,1.243,-1.243,-1.597,-4.856,-5.088,-1.65,-1.97,-2.074,-1.348,1.557,-2.096,157.6,164.1,-4.474,-8.136,1.862,-1.423,8.477,4.633,-4.739,-8.022,11,5.002,4.729,5.287,4.466,1.392,1.935,1.831,1.392,11,5.024,4.381,-40,132.9451745,norm,0,43,43,43,341.556,341.567,341.5936668,341.594,341.596,341.598,down,1,1.061775058,8.938224942,1,323,1920_1080,Intel(R) Core(TM) i5-3570 CPU @ 3.40GHz,orientation_search,LEPPC096,Intel(R) HD Graphics 2500,2018_Nov_24_1448,testMonitor
202.7,203.6,212.7,204.3,36,30,198,193.9,207.8,200.6,7.586,8.223,7.962,8.32,8.154,8.035,7.77,4.325,-4.603,-7.662,1.84,-1.569,7.534,4.46,-4.65,-8.198,196.4,205.9,-7.701,204.3,209.4,210.7,198.5,205,36,204.2,2,5,probe,5,0,108,norm,36,-4.303,up,norm,203.8716384,211.7,,212.1,206.1,4,205.7,203.4,205.1,10,6,7.714,4.737,1.107,-1.137,-5.255,-7.509,202.7,2,95.9,-7.617,-7.996,-40,-8.039,-7.511,-4.962,-5.031,-4.521,-4.668,5.224,8.398,16,-1.155,1.863,4.86,8.014,-8.322,-8.07,-1.466,1.696,194.9,203.8,203.4,195.6,203.5,209,203.4,213.9,207.5,195.8,1,norm,1.486,1.552,-1.922,-1.627,-4.434,-4.583,-1.611,-1.116,-2.097,-1.655,1.214,-2.016,205.1,203,-5.08,-8.061,1.402,-1.721,8.346,5.121,-4.823,-8.366,11,4.561,4.633,4.354,4.318,1.11,2.041,1.272,1.145,11,4.412,4.419,-40,132.9451745,norm,0,44,44,44,342.703,342.723,342.7345855,342.735,342.737,342.74,up,1,0.566583629,9.433416371,1,323,1920_1080,Intel(R) Core(TM) i5-3570 CPU @ 3.40GHz,orientation_search,LEPPC096,Intel(R) HD Graphics 2500,2018_Nov_24_1448,testMonitor
135.1,142.2,160.6,159.1,36,-20,141.3,125.9,139.9,154.8,7.943,8.304,7.901,8.136,8.031,7.521,8.108,4.358,-5.077,-7.628,1.864,-1.538,7.967,4.342,-4.938,-8.32,152.7,133.2,-7.863,144.5,146.1,151.8,131.8,139.8,36,153.9,0,5,prime,10,0,84,norm,36,-5.143,up,norm,145.8984246,141.8,136.2,151.2,134.7,4,135.1,143.5,145.9,10,5,8.223,5.252,1.502,-1.347,-5.008,-7.83,127.7,5,229.9,-7.635,-7.604,-20,-7.778,-7.634,-4.346,-4.714,-5.153,-4.695,4.321,7.919,4,-1.226,1.485,4.343,8.312,-7.72,-8.313,-1.523,1.883,149,165.9,145.8,143.9,156.7,141.8,153.9,148.3,153.7,,0,norm,1.917,1.399,-2.077,-1.294,-4.831,-5.114,-1.607,-2.053,-1.27,-1.56,1.367,-1.153,153.1,136.1,-5.209,-7.879,2.052,-1.91,7.698,4.737,-5.106,-8.275,12,4.494,4.63,4.77,4.987,1.127,1.295,1.241,1.632,12,4.692,4.761,30,132.9451745,norm,0,45,45,45,343.326,343.335,343.3417853,343.342,343.344,343.346,up,1,1.145677599,8.854322401,1,323,1920_1080,Intel(R) Core(TM) i5-3570 CPU @ 3.40GHz,orientation_search,LEPPC096,Intel(R) HD Graphics 2500,2018_Nov_24_1448,testMonitor
129.2,125.9,155,142.2,36,-20,151.8,130.1,138.1,150.1,7.741,7.787,7.667,8.431,8.3,7.942,8.23,4.459,-4.748,-7.992,1.655,-1.755,7.818,4.847,-4.711,-8.11,155.9,155.5,-7.781,139.8,157.2,138.3,142.5,131.6,36,160.4,0,5,prime,10,0,95,norm,36,-4.662,up,norm,145.8984246,146.2,163.4,157,155.4,4,140,165.9,138.3,10,5,8.229,4.826,1.791,-1.478,-5.246,-7.72,132.6,5,240.9,-7.879,-8.275,-20,-8.301,-7.769,-4.789,-4.754,-5.191,-4.882,5.048,7.644,4,-1.577,2.077,4.386,8.198,-8.357,-8.487,-1.386,1.533,136,145.9,126.7,142.8,127.3,136.5,147.3,152.2,149.7,,1,norm,1.273,1.381,-1.168,-1.229,-4.341,-4.603,-2.076,-1.323,-1.965,-2.063,1.269,-1.647,130.3,145.5,-4.463,-8.221,1.811,-1.806,8.443,4.735,-4.659,-7.674,12,4.77,4.861,4.882,4.965,1.209,1.206,1.858,2.084,12,4.973,5.04,30,132.9451745,norm,0,46,46,46,344.511,344.521,344.5273405,344.528,344.529,344.532,up,1,0.793543739,9.206456261,1,323,1920_1080,Intel(R) Core(TM) i5-3570 CPU @ 3.40GHz,orientation_search,LEPPC096,Intel(R) HD Graphics 2500,2018_Nov_24_1448,testMonitor
149,141.9,140.5,131.7,36,-20,150.7,150.6,157.7,153.5,7.902,8.473,8.178,8.432,8.243,7.536,8.279,4.761,-4.364,-8.16,1.759,-1.477,7.686,5.118,-4.737,-8.352,144.8,129.4,-7.73,152.5,125.9,140.4,141.4,153.3,36,154.3,0,5,prime,10,0,103,norm,36,-5.126,up,norm,145.8984246,143.9,154.2,151,145.7,4,143.9,146.5,132.9,10,5,8.422,4.464,1.217,-2.032,-4.647,-8.187,133.9,5,248.9,-7.755,-8.049,-20,-7.83,-7.763,-4.979,-4.959,-5.018,-5.138,5.298,7.909,4,-1.745,1.297,4.804,8.46,-7.935,-8.347,-1.941,1.369,128.1,165.9,140.4,143.2,142.6,153.1,148.7,143.1,159,,2,norm,1.943,1.245,-1.469,-1.46,-4.634,-4.582,-2.098,-1.7,-1.831,-2.006,1.138,-1.916,142.9,150.8,-4.703,-7.766,1.905,-1.743,7.74,4.5,-4.999,-7.933,12,4.94,4.814,5.132,4.623,1.152,1.248,1.526,1.845,12,4.766,4.594,30,132.9451745,norm,0,47,47,47,345.358,345.371,345.3906184,345.391,345.392,345.395,up,1,1.230446139,8.769553861,1,323,1920_1080,Intel(R) Core(TM) i5-3570 CPU @ 3.40GHz,orientation_search,LEPPC096,Intel(R) HD Graphics 2500,2018_Nov_24_1448,testMonitor
159.8,149.5,128.9,129.6,36,-20,143.8,144,142.4,132,8.372,7.566,8.095,7.691,7.82,8.368,8.392,4.711,-5.265,-7.848,1.311,-1.976,7.547,5.04,-4.748,-8.438,151,161.4,-8.021,157.3,156,135,155.7,140.4,36,148,3,5,prime,10,0,116,norm,36,-4.328,down,norm,145.8984246,151.7,146.2,129.7,152.8,1,147.8,144.1,138.3,10,5,8.156,5.022,2.06,-1.294,-5.046,-8.227,155.7,5,261.9,-8.386,-8.21,-20,-7.96,-7.827,-4.987,-4.869,-4.666,-5.028,4.876,7.846,19,-1.879,1.975,4.817,8.014,-8.318,-7.878,-1.849,1.622,153.7,143,126,135,137.5,159.8,163.4,161.7,125.9,165.9,3,norm,1.724,1.922,-1.438,-1.216,-4.77,-4.667,-1.561,-1.869,-1.444,-2.068,1.314,-2.037,,143.8,-4.407,-7.538,1.699,-1.722,8.338,4.404,-4.319,-8.482,12,4.503,4.822,4.677,5.063,1.838,1.685,1.646,1.619,12,4.487,4.652,30,132.9451745,norm,0,48,48,48,346.658,346.668,346.6790264,346.679,346.681,346.683,down,1,1.166848228,8.833151772,1,323,1920_1080,Intel(R) Core(TM) i5-3570 CPU @ 3.40GHz,orientation_search,LEPPC096,Intel(R) HD Graphics 2500,2018_Nov_24_1448,testMonitor
140.1,155.5,145.9,165.9,36,-20,142.4,150,144.9,154.6,8.06,7.636,8.418,8.405,7.931,7.917,7.962,4.347,-5.171,-7.927,1.841,-2.085,8.198,4.946,-4.437,-7.727,125.9,147,-8,131.7,148.3,151.3,146.7,135.7,36,143,0,5,prime,10,0,116,norm,36,-5.018,up,norm,145.8984246,159.3,158.5,144.3,150.2,4,135,154.1,141.8,10,5,8.064,4.522,1.939,-1.553,-4.736,-7.904,133.3,5,261.9,-7.502,-7.524,-20,-7.98,-7.985,-5.012,-5.169,-4.335,-4.861,4.52,8.311,4,-1.56,1.204,5.298,7.88,-8.042,-7.574,-1.375,1.183,144.4,153.2,144,144.5,139.2,140.9,139.3,141.7,159.8,,4,norm,1.39,1.36,-1.175,-1.144,-4.375,-4.866,-1.467,-1.522,-1.717,-1.154,1.573,-1.914,137.8,152.4,-4.591,-7.612,1.562,-1.921,8.436,4.582,-5.055,-8.425,12,4.961,4.446,4.41,4.532,1.303,1.958,1.174,1.397,12,4.477,4.618,30,132.9451745,norm,0,49,49,49,347.883,347.894,347.9270412,347.927,347.929,347.932,up,1,0.557038931,9.442961069,1,323,1920_1080,Intel(R) Core(TM) i5-3570 CPU @ 3.40GHz,orientation_search,LEPPC096,Intel(R) HD Graphics 2500,2018_Nov_24_1448,testMonitor
243.2,250.1,243.5,242.5,36,60,241.6,246.3,236,240.8,8.431,7.596,7.615,7.543,7.833,8.11,7.962,5.136,-4.342,-8.01,1.312,-1.513,8.101,4.96,-5.165,-7.97,252.6,235.3,-7.784,247,239.9,246,243.2,243.1,36,249.7,0,5,probe,5,0,119,norm,36,-4.365,down,norm,243.160025,243.4,251.5,237.8,240.2,2,247,233.2,243,10,5,7.693,4.723,1.71,-1.776,-4.833,-8.485,253.2,1,124.2,-8.364,-7.5,-20,-7.831,-8.033,-5.194,-5.134,-5.118,-4.85,4.77,7.981,2,-1.857,1.23,4.824,7.633,-7.518,-7.564,-1.778,1.81,244.1,242.2,245.8,,244.9,251.7,240.4,237.1,250,243.8,0,norm,1.995,1.801,-1.254,-1.73,-4.346,-5.223,-1.705,-1.455,-1.867,-1.899,1.613,-1.938,247.1,244.1,-4.638,-7.813,1.79,-1.603,8.452,4.924,-4.719,-8.49,13,5.071,4.926,4.896,4.88,2.047,1.123,1.422,1.475,13,4.564,4.645,-20,145.8984246,norm,0,50,50,50,348.506,348.516,348.5354593,348.536,348.537,348.54,down,1,0.876939781,9.123060219,1,323,1920_1080,Intel(R) Core(TM) i5-3570 CPU @ 3.40GHz,orientation_search,LEPPC096,Intel(R) HD Graphics 2500,2018_Nov_24_1448,testMonitor
,64.5,73.6,62.4,36,60,84.4,71,55.5,59.1,7.521,8.459,7.879,7.805,8.362,7.756,7.856,5.248,-5.16,-8.376,1.59,-1.77,7.658,4.845,-4.938,-8.334,59.3,82.6,-7.848,66.7,66.5,57.4,76.1,59.9,36,69,3,5,prime,10,0,64,norm,36,-4.998,up,norm,71.72602085,73.9,79.3,74.3,60,4,60.6,58.3,74.1,10,5,8.183,4.71,2.064,-1.493,-4.822,-7.648,78.6,5,135.7,-7.742,-7.999,60,-7.923,-8.24,-4.664,-4.674,-4.984,-4.539,4.662,7.59,22,-1.305,1.672,5.179,7.919,-8.276,-8.172,-2.019,1.401,67.8,91.7,84.6,56.3,87.9,70.2,69.9,82.7,64.8,69.7,0,norm,1.604,1.555,-1.309,-2.075,-4.869,-5.248,-1.655,-1.991,-1.475,-1.539,1.422,-1.399,59.7,51.7,-4.696,-7.617,1.548,-1.989,7.986,4.35,-4.394,-8.481,14,5.116,4.808,4.862,4.663,1.526,1.792,1.705,1.918,14,4.849,4.419,60,145.8984246,norm,0,51,51,51,349.456,349.468,349.4725345,349.473,349.475,349.478,up,1,0.638542998,9.361457002,1,323,1920_1080,Intel(R) Core(TM) i5-3570 CPU @ 3.40GHz,orientation_search,LEPPC096,Intel(R) HD Graphics 2500,2018_Nov_24_1448,testMonitor
55.2,64.2,84.2,66.9,36,60,65.8,73.8,67.3,68.4,8.373,8.468,8.039,8.233,7.567,8.177,8.358,5.08,-5.165,-8.276,1.908,-1.702,7.661,4.597,-5.104,-8.16,83.3,72.2,-7.94,84.7,51.7,85.1,91.7,88.3,36,76.2,1,5,prime,10,0,68,norm,36,-4.854,up,norm,71.72602085,78.7,81.8,61.3,75.3,5,,67.2,69.6,10,5,7.6,5.296,1.843,-1.479,-4.915,-8.123,66,5,139.7,-8.288,-7.66,60,-7.669,-7.905,-5.006,-4.679,-4.801,-5.276,4.639,8.456,11,-1.511,2.034,4.563,8.355,-7.544,-7.939,-1.632,2.011,86.5,69.5,74.4,59.3,68,66.6,70.9,85.4,81.6,61.8,1,norm,1.581,1.698,-1.791,-1.758,-4.51,-5.036,-1.685,-1.923,-1.312,-1.379,1.751,-1.715,80.2,53.9,-5.108,-7.997,1.297,-1.887,7.695,5.113,-4.55,-7.699,14,4.821,4.437,5.014,4.44,1.391,1.806,1.697,1.563,14,4.397,5.138,60,145.8984246,norm,0,52,52,52,350.148,350.158,350.1733802,350.174,350.175,350.178,up,1,0.893474042,9.106525958,1,323,1920_1080,Intel(R) Core(TM) i5-3570 CPU @ 3.40GHz,orientation_search,LEPPC096,Intel(R) HD Graphics 2500,2018_Nov_24_1448,testMonitor
80.1,60.4,71.2,65.9,36,60,67.8,60.4,66.6,83,7.858,7.579,8.434,7.929,8.425,7.659,7.679,5.254,-4.525,-8.48,1.281,-1.474,7.6,4.945,-4.895,-8.051,72,51.7,-8.18,72,73.1,74.3,88.2,79.4,36,69.2,1,5,prime,10,0,100,norm,36,-5.087,up,norm,71.72602085,89.8,61.5,87.2,62.5,5,,62.4,62.8,10,5,7.696,4.771,1.16,-1.725,-4.896,-7.819,61.8,5,171.7,-8.016,-8.339,60,-8.192,-7.955,-5.231,-4.609,-5.004,-4.793,4.655,7.748,11,-1.236,1.628,4.961,8.192,-8.494,-7.737,-1.21,1.183,56.4,74.5,56,60.5,59.8,62.7,91.7,63.9,84.6,81.1,2,norm,1.968,1.627,-1.628,-1.487,-4.483,-4.538,-1.31,-1.519,-1.948,-1.732,1.607,-1.521,79.5,71.6,-5.16,-7.889,1.482,-1.867,7.838,4.92,-4.525,-8.177,14,4.419,4.747,5.014,5.136,1.825,1.486,1.936,1.863,14,5.005,5.187,60,145.8984246,norm,0,53,53,53,351.11,351.12,351.1259275,351.126,351.128,351.13,up,1,1.77338309,8.22661691,1,323,1920_1080,Intel(R) Core(TM) i5-3570 CPU @ 3.40GHz,orientation_search,LEPPC096,Intel(R) HD Graphics 2500,2018_Nov_24_1448,testMonitor
60.3,82.9,,75,36,60,66.4,79.6,57.3,73.3,7.896,7.544,8.422,7.538,7.568,8.487,7.564,4.583,-5.289,-7.595,1.112,-1.329,8.203,4.669,-5.093,-7.634,73.5,74.9,-7.813,91.7,81.2,73.1,65.9,67.8,36,68.5,3,5,prime,10,0,90,norm,36,-4.759,down,norm,71.72602085,70.7,81.3,86.5,52.1,2,72,74.5,58,10,5,7.6,4.577,1.209,-1.327,-4.545,-7.945,72.2,5,161.7,-7.72,-7.902,60,-7.707,-7.886,-5.138,-5.116,-4.559,-5.05,5.026,7.508,20,-1.813,1.381,4.943,7.997,-8.262,-7.815,-1.649,2.054,67.4,79.3,90,68.8,86.5,82.2,90.8,82,75.3,51.7,3,norm,1.798,1.987,-1.219,-1.81,-4.776,-5.288,-1.544,-1.931,-1.397,-1.106,1.954,-1.923,70.7,70.6,-4.906,-7.651,1.905,-1.703,7.739,4.994,-4.71,-8.255,14,5.094,4.456,4.951,5.145,1.855,1.932,1.479,2.018,14,4.396,4.385,60,145.8984246,norm,0,54,54,54,352.921,352.93,352.9500516,352.95,352.952,352.955,down,1,0.585311411,9.414688589,1,323,1920_1080,Intel(R) Core(TM) i5-3570 CPU @ 3.40GHz,orientation_search,LEPPC096,Intel(R) HD Graphics 2500,2018_Nov_24_1448,testMonitor
70.6,85,65.8,75.1,36,60,59.6,81.7,51.7,81.6,7.529,8.323,7.512,8.419,8.012,7.892,7.892,5.288,-5.05,-8.065,1.992,-1.648,7.864,5.26,-4.634,-7.93,75.8,71.1,-7.772,89.7,59.3,80.2,89.7,57.2,36,65.9,1,5,prime,10,0,66,norm,36,-5.044,down,norm,71.72602085,65.7,61.1,75,77.4,2,90.3,88.4,64.1,10,5,8.323,4.356,1.315,-1.154,-4.535,-8.45,61.8,5,137.7,-7.812,-7.577,60,-7.787,-7.816,-5.105,-4.708,-4.541,-4.877,5.059,8.057,8,-1.509,1.992,4.851,7.702,-7.968,-8.059,-2.041,1.856,76.7,,74.2,55.2,63.4,68.4,82.5,69.4,79.7,76.8,4,norm,1.255,1.696,-1.31,-1.599,-4.638,-5.056,-1.567,-1.64,-1.61,-2.075,1.793,-1.167,89.4,82,-4.9,-8.282,1.697,-2.022,7.647,4.637,-4.549,-7.615,14,4.774,4.603,4.724,4.978,1.819,1.613,1.812,1.658,14,4.606,4.465,60,145.8984246,norm,0,55,55,55,353.573,353.583,353.589607,353.59,353.591,353.594,down,1,0.655872022,9.344127978,1,323,1920_1080,Intel(R) Core(TM) i5-3570 CPU @ 3.40GHz,orientation_search,LEPPC096,Intel(R) HD Graphics 2500,2018_Nov_24_1448,testMonitor
228.8,226.5,230.4,229.1,36,80,217.9,226.2,233.5,234.2,8.238,7.574,7.782,7.639,8.331,8.235,7.997,5.044,-4.758,-7.509,1.724,-1.731,7.502,5.186,-5.286,-7.806,216.9,230.9,-7.85,216.2,230.4,232.4,231.1,217.5,36,236.2,0,5,probe,5,0,91,norm,36,-4.834,up,norm,226.246401,231.9,236,223.6,222.2,5,225.5,229.7,221.8,10,5,8.35,5.231,1.351,-1.309,-4.56,-7.859,226.9,1,135.2,-8.356,-8.155,60,-8.179,-8.201,-4.773,-5.124,-5.03,-4.438,4.938,7.859,5,-1.764,1.381,4.554,7.73,-8.174,-8.464,-1.181,1.748,228.9,229.4,231,228.5,227.9,228.4,229.3,226.2,,221.3,0,norm,1.802,1.17,-1.339,-1.475,-4.759,-4.607,-1.69,-1.999,-1.597,-2.024,1.858,-2.065,223.5,223.6,-4.438,-7.911,1.549,-1.883,7.658,4.955,-4.363,-8.388,15,5.233,4.675,4.581,5.187,1.908,1.904,1.609,1.119,15,4.425,4.706,60,71.72602085,norm,0,56,56,56,354.292,354.302,354.3081753,354.308,354.31,354.313,up,1,0.552946191,9.447053809,1,323,1920_1080,Intel(R) Core(TM) i5-3570 CPU @ 3.40GHz,orientation_search,LEPPC096,Intel(R) HD Graphics 2500,2018_Nov_24_1448,testMonitor
55.8,52,43.5,58.4,36,20,41.7,39.8,42.7,65.4,8.252,8.071,7.515,8.395,7.564,8.04,8.342,4.539,-4.346,-8.003,1.76,-1.799,7.923,4.887,-4.346,-7.529,61.3,56,-7.881,55.7,54.3,40.2,63.4,64.2,36,53.2,1,5,prime,10,0,74,norm,36,-4.48,up,norm,52.52233034,52.6,65.2,53.8,61.3,5,,55,61.8,10,6,7.645,5.208,1.943,-1.486,-4.921,-8.156,40,6,126.5,-7.53,-7.718,20,-7.868,-7.807,-5.15,-4.472,-4.95,-4.965,4.537,7.79,11,-1.441,1.131,4.982,8.328,-8.467,-7.625,-1.418,1.879,50.8,49.3,51.5,39.7,53.2,32.5,52.2,51.5,43.7,62,0,norm,1.713,1.284,-2.051,-1.765,-4.659,-4.889,-1.456,-1.863,-1.286,-1.131,1.464,-1.974,54.6,54.9,-5.199,-7.999,2.08,-1.445,7.828,5.003,-4.355,-7.64,16,4.31,4.806,4.928,4.302,1.548,2.008,1.397,1.193,16,4.677,4.925,80,71.72602085,norm,0,57,57,57,354.885,354.895,354.900869,354.901,354.903,354.905,up,1,0.770491096,9.229508904,1,323,1920_1080,Intel(R) Core(TM) i5-3570 CPU @ 3.40GHz,orientation_search,LEPPC096,Intel(R) HD Graphics 2500,2018_Nov_24_1448,testMonitor
47.8,55.8,42.9,55.3,36,20,62.3,63.5,59.2,53.8,8.136,7.924,7.579,8.23,8.23,7.663,7.985,5.145,-4.787,-8.098,1.712,-1.651,7.625,4.721,-4.734,-7.617,57,45.8,-8.418,59.7,37,46.4,,72.5,36,32.5,5,5,prime,10,0,98,norm,36,-5.006,down,norm,52.52233034,46.8,55,45.9,48.6,2,65.6,64.9,47,10,6,7.706,4.625,1.894,-1.172,-4.922,-7.73,37.5,6,150.5,-8.218,-8.218,20,-8.276,-8.134,-5.187,-5.022,-4.402,-4.818,4.724,8.189,32,-1.119,2.055,4.619,8.384,-8.36,-8.285,-1.959,1.601,50.8,41.2,62.6,56.6,33.9,52.3,35.1,55,66.9,59.3,1,norm,1.777,2.088,-1.825,-1.875,-5.276,-4.434,-1.473,-1.946,-1.931,-1.733,1.908,-1.543,50.5,72.4,-4.98,-8.413,1.518,-1.689,8.094,4.829,-4.893,-8.444,16,5.034,4.671,4.343,5.194,1.923,1.39,1.6,1.757,16,4.609,5.049,80,71.72602085,norm,0,58,58,58,355.709,355.719,355.7266693,355.727,355.729,355.731,down,1,0.673987055,9.326012945,1,323,1920_1080,Intel(R) Core(TM) i5-3570 CPU @ 3.40GHz,orientation_search,LEPPC096,Intel(R) HD Graphics 2500,2018_Nov_24_1448,testMonitor
35.4,59.9,,69.6,36,20,66.5,32.5,56.5,66,7.631,7.683,8.468,7.775,8.225,8.335,8.367,5.269,-4.89,-7.714,1.607,-1.332,7.542,4.906,-4.952,-7.766,45.2,43.2,-8.021,61.7,72.5,44.9,43,54.5,36,40.2,3,5,prime,10,0,68,norm,36,-4.586,down,norm,52.52233034,60.4,53.6,52.7,48.3,2,41,54.1,38.7,10,6,7.812,4.501,1.32,-1.88,-4.877,-8.157,49.6,6,120.5,-8.327,-7.633,20,-7.683,-8.009,-5.141,-4.347,-4.353,-5.04,4.428,7.748,20,-1.297,1.921,4.737,8.056,-8.347,-8.001,-1.379,1.295,48.5,35.4,71.5,38.4,58.4,37.1,54.6,57.8,56.7,54.6,2,norm,1.389,1.969,-1.995,-1.841,-4.665,-4.476,-1.921,-1.293,-1.418,-1.406,1.733,-1.995,39.5,59.2,-5.04,-8.346,1.508,-1.677,8.178,5.193,-4.774,-7.553,16,4.641,4.689,4.32,5.24,1.954,1.343,1.359,1.361,16,5.251,4.485,80,71.72602085,norm,0,59,59,59,356.438,356.447,356.459901,356.46,356.462,356.464,down,1,0.641709069,9.358290931,1,323,1920_1080,Intel(R) Core(TM) i5-3570 CPU @ 3.40GHz,orientation_search,LEPPC096,Intel(R) HD Graphics 2500,2018_Nov_24_1448,testMonitor
46.7,63.1,60.3,41.2,36,20,43,46.3,56.7,63.2,8.375,7.828,7.65,8.267,8.209,8.258,7.547,4.775,-4.381,-7.829,1.696,-1.795,7.804,5.228,-5.122,-7.839,,64.2,-7.994,50.8,68.6,43.8,72.5,65.8,36,34.9,5,5,prime,10,0,111,norm,36,-4.81,up,norm,52.52233034,56.6,57.7,53.6,56,5,50.9,50.8,50.7,10,6,7.727,4.449,1.758,-1.104,-5.021,-7.972,60.3,6,163.5,-7.599,-7.789,20,-7.765,-8.053,-4.327,-5.202,-4.424,-4.678,4.393,7.75,35,-1.131,1.489,4.723,7.621,-8.07,-8.175,-1.883,1.869,70.3,56.2,59.4,34.5,55.9,47.4,52.1,51.9,41.5,39.1,3,norm,1.191,1.71,-1.793,-1.487,-4.943,-4.436,-1.776,-1.325,-1.25,-1.393,1.304,-1.294,32.5,69.7,-4.631,-8.487,1.607,-1.792,7.722,4.401,-4.596,-8.091,16,4.523,4.957,5.041,5.116,1.882,1.714,2.024,1.464,16,4.328,5.084,80,71.72602085,norm,0,60,60,60,357.147,357.156,357.1647827,357.165,357.167,357.169,up,1,0.654510995,9.345489005,1,323,1920_1080,Intel(R) Core(TM) i5-3570 CPU @ 3.40GHz,orientation_search,LEPPC096,Intel(R) HD Graphics 2500,2018_Nov_24_1448,testMonitor
47.1,66.2,41.8,58.1,36,20,49.7,57.9,57.5,,7.846,7.578,8.396,7.672,7.804,7.662,8.423,4.336,-4.904,-7.817,1.583,-1.363,7.543,5.228,-5.107,-7.625,72.5,58.4,-8.063,60.4,54.2,48.6,49.6,44.8,36,47.4,4,5,prime,10,0,67,norm,36,-4.838,up,norm,52.52233034,52.6,50.2,38.7,56.9,5,63.8,54.1,67.3,10,6,8.459,4.662,1.888,-1.28,-4.704,-8.088,32.5,6,119.5,-8.451,-7.956,20,-8.015,-8.494,-4.379,-5.03,-5.137,-4.761,4.975,7.894,29,-1.515,1.844,4.475,7.945,-8.333,-7.958,-1.378,1.799,47.2,54.9,52.7,47.3,60.9,59.9,62.4,52.9,42.6,50.9,4,norm,1.376,2.09,-1.615,-1.541,-4.931,-5.032,-1.694,-1.435,-1.717,-1.414,2.067,-1.601,53.4,43.9,-5.065,-7.906,1.633,-1.522,8.088,4.339,-4.373,-8.417,16,4.391,4.322,4.308,4.938,1.948,1.362,1.798,1.447,16,4.797,5.071,80,71.72602085,norm,0,61,61,61,357.864,357.874,357.8816332,357.882,357.883,357.886,up,1,1.046107097,8.953892903,1,323,1920_1080,Intel(R) Core(TM) i5-3570 CPU @ 3.40GHz,orientation_search,LEPPC096,Intel(R) HD Graphics 2500,2018_Nov_24_1448,testMonitor
32.5,39.4,72.5,47.4,36,20,46.8,51.4,68.4,42.8,7.904,7.772,8.29,8.38,7.868,7.803,8.258,4.576,-4.599,-7.859,2.045,-1.288,7.566,4.984,-4.644,-8.154,64.4,58.9,-8.291,42.3,64.4,51,33,40.3,36,55.1,3,5,prime,10,0,114,norm,36,-4.453,down,norm,52.52233034,55.3,48.1,58.7,55.9,0,48.6,62.6,57.9,10,6,8.449,5.22,1.373,-1.423,-4.977,-7.518,45.7,6,166.5,-8.147,-8.46,20,-7.899,-7.821,-4.709,-4.351,-4.316,-4.899,4.477,8.167,18,-2.072,1.748,4.965,7.907,-7.568,-7.829,-1.282,1.623,67.8,48,48.5,68,64.1,62.4,52.2,55.7,48.8,50.5,5,norm,1.985,1.985,-1.184,-1.416,-4.639,-5.262,-1.708,-1.966,-1.858,-1.29,1.767,-1.633,44.2,,-5.278,-8.417,1.475,-1.927,8.467,4.365,-4.664,-7.693,16,4.57,5.05,4.788,4.606,1.245,1.76,1.55,1.697,16,4.773,4.567,80,71.72602085,norm,0,62,62,62,358.972,358.981,358.987883,358.988,358.99,358.992,down,1,0.942817239,9.057182761,1,323,1920_1080,Intel(R) Core(TM) i5-3570 CPU @ 3.40GHz,orientation_search,LEPPC096,Intel(R) HD Graphics 2500,2018_Nov_24_1448,testMonitor
172.4,165.1,160.8,159.6,36,0,161,158.7,166,169.2,7.972,8.017,8.274,7.824,8.404,8.128,7.797,4.467,-5.17,-7.966,1.493,-2.099,7.821,4.437,-4.993,-7.831,158.8,156.4,-8.292,165.2,169.3,167.8,168,166.6,36,159.6,0,5,probe,5,0,97,norm,36,-4.811,down,norm,164.7908723,163.7,163.5,166.8,168.1,0,158.5,163.8,166.4,10,6,8.469,4.393,1.377,-2.082,-4.656,-8.238,158.8,2,67.8,-8.296,-8.169,20,-8.458,-7.761,-4.49,-4.885,-4.349,-4.971,4.46,8.112,0,-1.399,1.325,4.793,8.248,-7.54,-7.655,-1.288,1.928,154.8,163.1,164.4,171.9,170,,158,165.1,163.6,171.9,0,norm,1.725,2.087,-1.587,-1.978,-4.551,-4.453,-1.216,-1.636,-1.539,-1.973,1.132,-1.306,174.8,164.6,-4.565,-8.287,1.839,-1.245,8.176,4.875,-4.431,-8.306,17,5.223,4.982,4.911,5.168,1.273,1.296,1.346,1.806,17,4.334,4.401,20,52.52233034,norm,0,63,63,63,359.955,359.964,359.9706321,359.971,359.973,359.975,down,1,1.347685846,8.652314154,1,323,1920_1080,Intel(R) Core(TM) i5-3570 CPU @ 3.40GHz,orientation_search,LEPPC096,Intel(R) HD Graphics 2500,2018_Nov_24_1448,testMonitor
150,148.7,153.8,151.4,36,0,158,145.3,150.9,142,7.621,8.46,8.121,7.736,8.266,7.947,8.166,4.835,-4.6,-8.194,1.531,-2.043,8.005,5.215,-5.121,-7.88,144.8,145.5,-7.859,146.5,158.6,155.1,145,158.8,36,151.8,0,5,probe,5,0,81,norm,36,-4.681,down,norm,148.7908723,158.3,144.3,152,151.8,1,138.8,149.4,153.5,10,6,7.972,4.381,1.672,-1.157,-4.46,-8.053,141.9,2,67.8,-7.721,-8.47,20,-8.467,-7.956,-5.232,-4.752,-4.406,-5.135,5.241,7.717,1,-1.691,1.272,4.58,8.309,-8.008,-8.101,-1.292,1.551,152.7,146,145.9,146.1,,147.7,143.9,147.4,150.2,147.4,1,norm,1.784,2.055,-1.676,-1.976,-4.504,-4.395,-1.597,-1.798,-1.57,-1.964,1.159,-1.13,149.8,144.9,-4.893,-7.595,1.386,-2.058,7.55,4.337,-4.635,-8.317,17,5.049,4.961,5.147,5.288,1.315,1.377,1.839,1.193,17,4.637,4.911,20,52.52233034,norm,0,64,64,64,361.343,361.353,361.3590531,361.359,361.361,361.364,down,1,0.62190641,9.37809359,1,323,1920_1080,Intel(R) Core(TM) i5-3570 CPU @ 3.40GHz,orientation_search,LEPPC096,Intel(R) HD Graphics 2500,2018_Nov_24_1448,testMonitor
82.8,70.6,64.9,74.9,36,-80,87.2,61.6,,83.8,7.816,8.227,8.395,7.973,8.172,8.196,8.203,4.701,-5.125,-7.712,1.766,-1.143,8.363,4.775,-4.429,-7.775,76.5,90,-8.306,74.4,74.7,79.5,75.5,77.1,36,87,4,5,prime,10,0,62,norm,36,-4.815,up,norm,76.68624969,68.6,70.8,76.2,87.2,4,78.6,71.9,82.9,10,5,8.385,4.492,1.681,-1.48,-5.05,-8.213,74.7,5,138.7,-8.095,-8.36,-80,-7.626,-7.96,-5.154,-4.928,-4.672,-4.747,4.349,7.603,28,-1.241,1.567,4.855,8.022,-8.075,-8.186,-2,1.212,96.7,94.2,57.9,63.7,66.3,70.7,56.7,71.6,64.1,72.4,0,norm,1.832,1.91,-2.035,-2.048,-5.048,-4.578,-1.888,-1.892,-1.549,-1.668,1.427,-1.567,73.9,59.2,-5.164,-8.242,1.308,-1.927,8.092,5.021,-4.362,-7.72,18,5.057,4.382,5.012,4.406,1.835,1.279,1.237,1.891,18,5.14,4.559,0,52.52233034,norm,0,65,65,65,362.018,374.221,374.2304335,374.231,374.232,374.235,up,1,0.992483411,9.007516589,1,323,1920_1080,Intel(R) Core(TM) i5-3570 CPU @ 3.40GHz,orientation_search,LEPPC096,Intel(R) HD Graphics 2500,2018_Nov_24_1448,testMonitor
84.9,90.2,70.4,83,36,-80,78.1,77.5,76.5,88,7.923,7.631,8.442,8.418,7.854,8.042,8.387,4.946,-5.215,-7.805,1.369,-2.086,7.577,5.241,-4.302,-8.224,75.5,77.8,-8.246,82,56.7,85.6,69.9,69.2,36,73.6,0,5,prime,10,0,112,norm,36,-4.594,down,norm,76.68624969,78.1,64,93.8,77,2,81.2,96.7,94.9,10,5,8.475,5.008,1.501,-1.675,-4.826,-7.713,68,5,188.7,-7.691,-7.646,-80,-7.657,-7.623,-5.271,-5.034,-4.477,-4.72,5.011,7.705,2,-1.466,1.153,4.362,7.631,-8.109,-8.358,-1.922,1.204,79.8,82,64.3,,90.9,76.1,65.5,60.1,86.9,80.3,1,norm,1.658,1.686,-2.056,-1.354,-4.527,-5.011,-1.775,-1.699,-1.121,-1.749,1.928,-1.922,63.5,69,-4.564,-7.677,1.439,-1.342,7.709,4.717,-5.186,-8.386,18,4.666,4.473,4.802,4.532,1.715,1.721,2.055,1.414,18,5.287,4.509,0,52.52233034,norm,0,66,66,66,375.258,375.267,375.2736842,375.274,375.276,375.278,down,1,1.757757085,8.242242915,1,323,1920_1080,Intel(R) Core(TM) i5-3570 CPU @ 3.40GHz,orientation_search,LEPPC096,Intel(R) HD Graphics 2500,2018_Nov_24_1448,testMonitor
69.7,74.5,,90.1,36,-80,90.1,86.6,76.8,88.7,7.575,7.502,7.516,8.154,8.401,8.153,8.467,5.167,-5.124,-7.891,1.416,-1.311,8.35,4.844,-4.662,-7.588,72.8,70.2,-7.622,78.2,96.7,91.8,73.9,82.3,36,67.2,3,5,prime,10,0,70,norm,36,-4.799,down,norm,76.68624969,79.1,67.4,77.5,68.2,2,79.3,60.9,72.5,10,5,7.57,5.059,1.776,-1.563,-4.816,-8.375,79.7,5,146.7,-8.291,-8.296,-80,-8.046,-7.923,-4.791,-4.548,-4.369,-5.061,4.974,8.496,20,-2.016,1.229,4.592,7.693,-7.843,-8.044,-1.334,1.291,91.5,78.7,68,79.8,67.7,93.5,75.6,56.7,74.6,69.8,2,norm,1.104,1.207,-1.353,-1.444,-5.201,-4.709,-1.627,-1.451,-1.917,-2.057,1.363,-1.657,75.2,59.9,-5.084,-8.107,1.358,-1.794,8.098,4.717,-4.636,-7.816,18,4.377,4.43,4.648,4.82,1.166,1.144,1.273,1.351,18,4.467,4.629,0,52.52233034,norm,0,67,67,67,377.053,377.062,377.0821877,377.082,377.084,377.087,down,1,0.923686189,9.076313811,1,323,1920_1080,Intel(R) Core(TM) i5-3570 CPU @ 3.40GHz,orientation_search,LEPPC096,Intel(R) HD Graphics 2500,2018_Nov_24_1448,testMonitor
85.1,72,88.9,70.8,36,-80,67,78.9,72.5,63.9,8.14,7.625,7.642,8.386,8.428,7.849,8.153,4.693,-4.388,-8.432,1.736,-1.585,7.847,4.426,-4.706,-7.519,69.6,84.4,-7.514,66.2,71.1,70.5,96.7,74.6,36,75.2,1,5,prime,10,0,112,norm,36,-4.721,up,norm,76.68624969,71.6,72.8,91.3,56.7,5,,71.2,66.4,10,5,7.951,5.045,1.778,-1.345,-4.616,-8.003,85.4,5,188.7,-8.167,-8.438,-80,-8.443,-7.628,-4.555,-5.059,-5.29,-5.129,4.696,7.524,11,-1.992,1.183,4.704,8.094,-7.753,-7.59,-1.238,1.66,86.4,68.5,80.3,87.4,59.2,84.3,69.3,83.9,59.9,81.2,3,norm,1.865,1.528,-1.219,-1.242,-5.031,-4.424,-1.962,-1.133,-1.425,-1.293,1.319,-1.407,86.2,60.8,-4.502,-8.47,1.783,-1.142,7.538,4.303,-4.788,-8.295,18,5.013,4.303,4.76,5.1,1.75,2.051,1.67,1.425,18,4.737,4.992,0,52.52233034,norm,0,68,68,68,378.05,378.059,378.065933,378.066,378.068,378.07,down,0,2.128157506,-10,1,323,1920_1080,Intel(R) Core(TM) i5-3570 CPU @ 3.40GHz,orientation_search,LEPPC096,Intel(R) HD Graphics 2500,2018_Nov_24_1448,testMonitor
,96.7,86,74.8,36,-80,73.9,62.3,83.5,74.8,7.596,8.024,7.723,8.082,8.115,8.453,8.311,4.478,-5.119,-8.431,1.743,-1.706,7.782,5.154,-4.687,-8.385,88.6,61,-7.664,58.6,74.8,81.3,87.2,89.2,36,88.1,3,5,prime,10,0,110,norm,36,-5.108,up,norm,76.68624969,66.4,81.3,94.5,68.7,4,74.1,74.5,69.2,10,5,8.119,4.727,1.729,-1.233,-4.895,-7.9,66.1,5,186.7,-8.155,-8.206,-80,-7.965,-7.508,-5.131,-5.248,-5.292,-4.801,5.092,8.462,22,-1.176,1.658,4.995,7.598,-8.282,-7.525,-1.487,1.259,75.4,80.5,69.4,90.1,65.4,79.4,56.7,96.3,68.4,86.9,4,norm,1.772,1.726,-1.109,-1.152,-5.084,-4.55,-1.8,-1.491,-1.668,-1.699,1.369,-1.913,57.3,70.8,-4.527,-8.145,1.52,-1.411,8.295,4.391,-4.648,-8.191,18,5.106,4.989,4.54,4.991,1.671,1.252,1.87,1.634,18,4.88,4.995,0,52.52233034,norm,0,69,69,69,381.263,381.273,381.2804102,381.281,381.282,381.285,up,1,2.198439211,7.801560789,1,323,1920_1080,Intel(R) Core(TM) i5-3570 CPU @ 3.40GHz,orientation_search,LEPPC096,Intel(R) HD Graphics 2500,2018_Nov_24_1448,testMonitor
78.7,83.5,89.4,76.1,36,40,78,77.9,81.7,,8.308,8.211,7.682,7.547,7.993,7.92,7.505,4.302,-5.161,-8.345,1.714,-1.246,7.692,4.891,-4.805,-7.986,74.3,83.6,-7.842,87.4,73.6,86.3,88.9,82.8,36,81.3,4,5,probe,5,0,76,norm,36,-4.383,up,norm,80.47671613,74.9,80.9,78.5,72.6,5,79.5,83.8,77.2,10,5,8.366,5.239,1.845,-1.792,-4.669,-8.012,77.5,1,4.5,-7.685,-7.908,-80,-8.104,-8.194,-4.7,-4.915,-4.412,-4.856,5.212,8.297,29,-1.442,1.35,4.699,8.498,-8.064,-7.94,-1.254,2.049,71.9,70.5,77.4,72.9,90.5,86.4,79.9,73.2,80.1,75.3,0,norm,1.663,1.835,-1.767,-1.583,-4.593,-5.019,-1.43,-1.282,-1.765,-2.025,1.698,-1.918,78.5,88.2,-5.014,-7.627,1.793,-1.919,8.343,5.064,-5.036,-7.662,19,4.403,5.133,5.146,4.962,2.083,1.831,1.834,2.004,19,5.211,4.708,-80,76.68624969,norm,0,70,70,70,383.517,383.528,383.5558213,383.556,383.558,383.56,up,1,1.315820786,8.684179214,1,323,1920_1080,Intel(R) Core(TM) i5-3570 CPU @ 3.40GHz,orientation_search,LEPPC096,Intel(R) HD Graphics 2500,2018_Nov_24_1448,testMonitor
172.5,151.6,155.6,157.4,36,-60,,163.1,163.2,150.3,8.147,7.96,7.748,7.514,8.046,7.542,7.98,4.875,-4.451,-7.871,1.998,-1.626,8.082,4.939,-4.997,-7.732,153,161.6,-7.546,163.2,166.4,171.7,159.1,169,36,159.7,4,5,prime,10,0,90,norm,36,-5.153,down,norm,160.820145,176.3,168,163.2,173.3,0,162.9,162.1,156.6,10,5,7.78,5.072,1.224,-1.32,-4.603,-8.445,141.5,5,250.8,-7.564,-7.526,-60,-7.657,-8.385,-5.121,-4.3,-5.16,-4.364,4.896,8.04,24,-2.034,1.34,4.972,7.869,-8.341,-7.849,-2.084,1.928,169,165.3,149.9,140.8,158.7,159.6,159.8,146,154.9,153.2,0,norm,1.67,1.414,-1.67,-1.53,-4.814,-5.258,-1.969,-1.474,-1.419,-1.551,1.621,-1.359,143.5,180.8,-5.046,-7.611,1.736,-1.608,7.546,4.643,-4.941,-8.126,20,4.956,4.683,4.381,4.655,1.376,1.579,1.97,1.216,20,5.129,5.178,40,76.68624969,norm,0,71,71,71,384.909,384.918,384.9285764,384.929,384.93,384.933,down,1,0.893729103,9.106270897,1,323,1920_1080,Intel(R) Core(TM) i5-3570 CPU @ 3.40GHz,orientation_search,LEPPC096,Intel(R) HD Graphics 2500,2018_Nov_24_1448,testMonitor
152.2,142.8,180.8,143.3,36,-60,156.1,158.9,165.2,155.2,7.539,7.806,7.841,8.254,7.671,7.91,8.41,4.452,-4.903,-7.876,1.371,-1.58,7.606,5.284,-4.978,-7.943,169.6,158.8,-8.257,157.4,140.8,159.7,146.3,154.7,36,160.2,1,5,prime,10,0,68,norm,36,-4.551,down,norm,160.820145,157.7,159.3,175.9,164.7,2,154.1,166.5,152.3,10,5,8.181,4.575,2.093,-1.597,-4.87,-8.04,146.1,5,228.8,-7.723,-8.251,-60,-8.387,-7.769,-4.735,-4.32,-5.021,-4.382,4.528,7.696,8,-1.482,1.321,4.798,8.218,-7.74,-7.891,-1.91,1.967,169.6,,178.7,169,154.5,163.6,171.2,154.3,151.8,168.6,1,norm,1.523,1.669,-1.328,-1.161,-4.866,-5.013,-1.512,-1.78,-1.488,-1.401,2.016,-1.94,169.7,158.3,-4.347,-7.628,1.229,-1.247,7.927,4.429,-5.296,-7.606,20,4.679,4.858,5.184,5.055,1.204,1.286,2.015,1.275,20,4.552,4.497,40,76.68624969,norm,0,72,72,72,385.859,385.869,385.8800657,385.88,385.882,385.885,down,1,0.807428993,9.192571007,1,323,1920_1080,Intel(R) Core(TM) i5-3570 CPU @ 3.40GHz,orientation_search,LEPPC096,Intel(R) HD Graphics 2500,2018_Nov_24_1448,testMonitor
142.3,168.2,180.8,154.4,36,-60,157.7,166.3,146.3,171.9,7.895,7.883,8.016,8.498,8.003,8.368,7.56,4.645,-4.608,-7.902,1.395,-1.114,7.597,5.218,-4.681,-7.779,164.4,161.5,-8.288,148.4,166.4,152.5,140.8,164.1,36,152.6,1,5,prime,10,0,81,norm,36,-4.546,down,norm,160.820145,161.4,157.2,168.5,179.4,2,155.1,142.7,173.7,10,5,7.759,4.841,1.148,-1.831,-4.399,-8.197,144.6,5,241.8,-7.917,-8.198,-60,-8.366,-8.375,-4.907,-4.807,-4.534,-5.244,4.596,7.941,8,-1.977,1.352,4.987,7.799,-7.733,-7.82,-1.102,1.793,163.6,,175.5,163.4,142.4,158.9,160.1,154.2,168.2,154,2,norm,1.18,1.833,-1.755,-2.051,-4.342,-5.026,-1.951,-1.311,-1.768,-1.427,1.1,-2.069,158.6,164.8,-5.019,-8.008,1.731,-2.051,7.67,5.03,-5.198,-7.858,20,4.728,4.723,5.011,4.613,1.707,2.087,1.776,1.286,20,4.379,4.912,40,76.68624969,norm,0,73,73,73,386.709,386.719,386.7381352,386.738,386.74,386.743,down,1,1.264690959,8.735309041,1,323,1920_1080,Intel(R) Core(TM) i5-3570 CPU @ 3.40GHz,orientation_search,LEPPC096,Intel(R) HD Graphics 2500,2018_Nov_24_1448,testMonitor
158.1,,148,161.9,36,-60,166.1,141.6,172.9,161.1,8.289,7.868,7.849,8.285,7.823,7.765,8.197,4.594,-5.185,-8.242,1.904,-1.556,7.508,4.731,-4.624,-8.239,174.5,163.9,-8.436,172.4,173,162.3,175.6,140.8,36,166,3,5,prime,10,0,110,norm,36,-4.848,up,norm,160.820145,171.6,158.1,172.5,153,5,145.3,148.9,160.8,10,5,7.575,4.415,1.774,-1.906,-5.191,-8.252,155.9,5,270.8,-8.089,-7.526,-60,-7.668,-8.091,-4.457,-4.496,-4.829,-4.895,4.55,7.895,23,-1.282,1.946,4.538,8.186,-7.662,-8.063,-1.294,1.617,147,177.7,165.1,180.8,172.2,151.2,161.5,158.8,158.7,156.9,3,norm,1.662,2.087,-1.57,-1.515,-5.134,-4.335,-1.988,-2.029,-1.291,-1.757,1.596,-1.763,173.1,163.8,-4.898,-7.904,1.799,-1.652,7.86,5.284,-4.528,-8.401,20,5.049,4.354,5.128,4.77,1.608,2.049,1.364,1.163,20,4.416,4.848,40,76.68624969,norm,0,74,74,74,388.04,388.049,388.063974,388.064,388.066,388.068,up,1,0.636945624,9.363054376,1,323,1920_1080,Intel(R) Core(TM) i5-3570 CPU @ 3.40GHz,orientation_search,LEPPC096,Intel(R) HD Graphics 2500,2018_Nov_24_1448,testMonitor
156.7,167.3,166.9,149.6,36,-60,148.9,163.1,171.5,167.3,8.428,8.138,7.945,7.682,8.271,8.184,8.222,5.048,-4.442,-7.612,1.359,-1.879,7.882,5.266,-5.212,-8.047,177.1,157.7,-7.514,148,165.5,164.9,155.7,168.5,36,175.7,2,5,prime,10,0,95,norm,36,-5.032,up,norm,160.820145,168.1,,179.5,174.1,4,146.8,177.4,160.8,10,5,7.703,4.695,1.267,-1.615,-5.107,-8.234,156.4,5,255.8,-8.286,-7.903,-60,-7.938,-7.57,-5.094,-4.889,-5.143,-4.974,5.094,7.775,16,-1.957,1.869,5.111,8.277,-8.305,-7.825,-1.109,2.001,162.1,158.2,165.8,166.8,166.6,140.8,177.7,168.7,156.4,180.8,4,norm,1.947,1.689,-1.527,-1.83,-5.149,-4.53,-1.411,-1.857,-1.774,-1.235,1.896,-2.084,163.7,169.2,-4.696,-7.641,1.779,-1.323,8.467,4.763,-5.174,-8.161,20,4.849,4.912,4.903,4.696,1.474,1.574,1.66,1.688,20,4.518,5.243,40,76.68624969,norm,0,75,75,75,388.722,388.734,388.7659441,388.766,388.768,388.771,up,1,1.348086699,8.651913301,1,323,1920_1080,Intel(R) Core(TM) i5-3570 CPU @ 3.40GHz,orientation_search,LEPPC096,Intel(R) HD Graphics 2500,2018_Nov_24_1448,testMonitor
178.7,180.3,172.5,177.6,36,-30,162.6,163.8,171.9,171.9,7.942,8.433,7.925,7.936,8.429,8.38,7.63,4.488,-5.185,-7.6,1.925,-1.866,8.083,5.104,-4.611,-7.961,173.7,166.5,-7.8,177.5,168.5,168.4,177.3,177.5,36,,4,5,probe,5,0,60,norm,36,-4.83,up,norm,170.2859727,174.4,160.3,166.2,167.2,3,173,173.1,178.8,10,5,7.544,4.521,1.315,-1.22,-4.943,-8.417,170.2,2,110.3,-8.092,-8.243,-60,-8.469,-7.57,-4.439,-5.238,-4.693,-4.499,4.372,7.938,27,-1.995,1.114,5.245,7.583,-7.592,-7.667,-1.54,1.595,167.8,160.5,173,177.1,174.7,174.5,168.2,167.6,161.8,171.6,0,norm,1.42,1.532,-1.875,-1.971,-4.854,-4.715,-1.28,-1.918,-1.672,-1.35,1.767,-2.086,169.4,169.4,-4.649,-8.266,1.205,-1.755,7.559,4.73,-4.623,-8.329,21,5.056,4.434,4.784,5.122,1.191,2.048,1.573,1.509,21,4.847,4.382,-60,160.820145,norm,0,76,76,76,390.135,390.146,390.1541296,390.154,390.156,390.159,up,1,1.99401951,8.00598049,1,323,1920_1080,Intel(R) Core(TM) i5-3570 CPU @ 3.40GHz,orientation_search,LEPPC096,Intel(R) HD Graphics 2500,2018_Nov_24_1448,testMonitor
200.9,181.3,188.5,186.1,36,-30,182.2,193.7,190.7,197.5,7.808,7.74,7.759,8.174,8.482,7.976,8.154,4.765,-5.14,-8.335,1.112,-1.472,8.009,4.571,-4.567,-8.412,195.5,200.6,-7.709,199.3,197,197.6,197.4,190.4,36,187.6,3,5,probe,5,0,81,norm,36,-4.434,down,norm,191.2859727,189.9,183.5,192.5,192.7,0,189.5,184.9,198.9,10,5,7.815,4.858,1.781,-1.597,-4.402,-8.351,185.2,2,110.3,-8.075,-8.093,-60,-7.653,-7.993,-5.075,-4.865,-4.827,-4.908,4.639,7.885,18,-1.33,1.259,5.036,7.889,-7.638,-8.189,-2.062,1.13,192.9,196.2,201.3,184.1,196.9,196.1,190.2,186.5,191.4,186.8,1,norm,1.395,1.29,-1.788,-1.177,-4.546,-4.993,-1.151,-1.811,-2.067,-1.431,1.228,-1.774,193.7,,-4.6,-8.055,1.189,-1.877,8.41,4.667,-4.381,-7.729,21,4.375,5.165,5.024,5.28,1.486,1.408,1.459,1.442,21,4.382,4.615,-60,160.820145,norm,0,77,77,77,392.169,392.179,392.1979122,392.198,392.2,392.202,down,1,0.956972948,9.043027052,1,323,1920_1080,Intel(R) Core(TM) i5-3570 CPU @ 3.40GHz,orientation_search,LEPPC096,Intel(R) HD Graphics 2500,2018_Nov_24_1448,testMonitor
80.5,75.2,76.6,70.2,36,0,74.5,79.1,55.4,64.7,8.442,7.955,7.821,8.188,7.646,7.925,8.296,5.01,-4.639,-8.422,1.586,-1.234,7.6,4.721,-4.604,-7.729,71.3,63.7,-8.369,69.5,80.8,65.6,,57.7,36,75.4,5,5,prime,10,0,105,norm,36,-5.257,down,norm,75.39920268,69.2,83.8,91,95.4,2,70.3,74.8,74.6,10,6,8.191,5.184,1.29,-1.617,-4.81,-7.827,71.7,6,180.4,-8.352,-7.741,0,-8.156,-8.376,-4.429,-4.869,-4.861,-5.133,5.235,7.654,32,-1.971,1.852,5.141,7.659,-7.826,-8.491,-1.551,1.555,91.2,66.8,79.5,64.4,81.8,80.9,57.4,67.4,91.5,74.3,0,norm,1.225,1.412,-1.882,-1.863,-5.117,-4.7,-1.43,-1.465,-1.168,-2.071,1.942,-1.711,94.6,76.8,-5.096,-8.253,1.34,-1.688,7.762,4.495,-4.993,-8.248,22,4.654,5.077,4.757,4.359,1.858,1.133,1.816,1.172,22,4.426,5.244,-30,160.820145,norm,0,78,78,78,393.197,393.207,393.2131032,393.213,393.215,393.218,down,1,1.229565048,8.770434952,1,323,1920_1080,Intel(R) Core(TM) i5-3570 CPU @ 3.40GHz,orientation_search,LEPPC096,Intel(R) HD Graphics 2500,2018_Nov_24_1448,testMonitor
69.8,88.8,85.5,57.8,36,0,70.9,76.6,75,73.5,7.617,7.988,8.481,7.559,7.568,8.188,8.031,4.798,-4.32,-8.402,1.914,-1.661,7.845,4.812,-4.885,-8.014,65.7,66.8,-7.685,90.8,77,58.4,76,95.4,36,55.4,0,5,prime,10,0,111,norm,36,-5.254,down,norm,75.39920268,68.5,71.4,70.4,67.2,1,58.1,85,60.3,10,6,8.085,4.698,1.634,-1.335,-5.182,-7.575,88.6,6,186.4,-8.15,-7.839,0,-8.247,-8.459,-5.224,-4.821,-4.587,-5.026,4.345,7.829,1,-1.164,1.428,4.722,7.738,-8.108,-8.074,-1.309,1.463,71.9,82.6,84.2,57.1,,64.2,81.2,68.4,69.6,80.7,1,norm,2.018,1.223,-1.427,-1.621,-5.074,-5.236,-1.245,-1.129,-1.436,-1.863,1.369,-1.348,91.3,64.3,-4.66,-7.558,1.894,-1.911,8.499,5.253,-5.13,-7.78,22,5.148,4.837,5.092,5.066,1.256,1.801,1.501,2.021,22,5.067,5.011,-30,160.820145,norm,0,79,79,79,394.464,394.474,394.4798443,394.48,394.482,394.485,down,1,2.550517531,7.449482469,1,323,1920_1080,Intel(R) Core(TM) i5-3570 CPU @ 3.40GHz,orientation_search,LEPPC096,Intel(R) HD Graphics 2500,2018_Nov_24_1448,testMonitor
73.5,70.1,65.8,71.4,36,0,78.8,59.3,87.5,,7.575,8.287,8.147,8.321,8.112,8.044,8.162,5.183,-4.638,-8.439,1.855,-1.771,8.406,4.32,-4.387,-8.274,82,76.7,-7.763,80.5,89.6,79.7,86.6,73.6,36,81,4,5,prime,10,0,97,norm,36,-5.089,up,norm,75.39920268,67,65,76.4,71.6,5,92.5,90.6,63.9,10,6,7.843,4.88,1.3,-1.769,-4.665,-8.122,78,6,172.4,-7.963,-7.979,0,-7.771,-7.592,-4.591,-4.95,-4.577,-5.203,5.038,7.712,29,-1.687,1.53,4.493,7.822,-8.356,-7.726,-1.941,1.178,87.9,81,78.7,80.3,81.8,85.6,87,61.7,65,82,2,norm,1.975,1.438,-1.916,-1.491,-4.669,-4.765,-1.255,-1.218,-1.569,-1.567,1.468,-1.807,76.6,95.4,-4.315,-7.524,1.326,-1.156,7.646,4.388,-4.787,-7.985,22,4.341,4.926,5.085,4.844,1.436,1.128,1.113,1.906,22,4.415,5.138,-30,160.820145,norm,0,80,80,80,397.052,397.061,397.0804977,397.081,397.082,397.085,up,1,0.822923392,9.177076608,1,323,1920_1080,Intel(R) Core(TM) i5-3570 CPU @ 3.40GHz,orientation_search,LEPPC096,Intel(R) HD Graphics 2500,2018_Nov_24_1448,testMonitor
61,88.3,81.1,55.4,36,0,83.5,68,67,85.4,8.386,7.995,7.876,8.115,7.817,8.185,7.512,4.512,-5.024,-7.926,1.801,-1.124,8.458,4.94,-4.688,-7.813,55.9,71.9,-8.032,95.4,79.9,72.9,82.7,,36,78.4,4,5,prime,10,0,104,norm,36,-4.809,down,norm,75.39920268,73.2,74.3,81.7,76.5,2,75.4,60,77.5,10,6,7.923,5.059,2.015,-1.917,-5.242,-7.518,73.9,6,179.4,-8.085,-8.136,0,-7.741,-8.103,-4.43,-4.72,-4.747,-4.873,4.703,8.387,26,-1.422,1.879,4.323,8.329,-7.674,-7.737,-1.194,1.197,77.5,71.2,82.6,69.3,78.4,67.4,69.6,79.1,82.5,77.9,3,norm,1.22,1.238,-1.175,-2.068,-4.61,-4.995,-1.243,-2.04,-1.421,-1.354,1.92,-1.587,86,62.8,-4.586,-8.097,1.614,-1.223,8.476,4.525,-4.972,-8.032,22,4.854,4.419,5.116,5.291,1.538,1.873,2.018,1.748,22,4.944,5.124,-30,160.820145,norm,0,81,81,81,397.924,397.934,397.940506,397.941,397.943,397.945,up,0,1.808379508,-10,1,323,1920_1080,Intel(R) Core(TM) i5-3570 CPU @ 3.40GHz,orientation_search,LEPPC096,Intel(R) HD Graphics 2500,2018_Nov_24_1448,testMonitor
95.4,73.5,78.6,86.5,36,0,93,74.6,82.7,89,8.275,7.533,8.43,8.414,8.489,8.254,8.447,5.216,-5.051,-7.882,1.68,-1.281,7.936,4.331,-5.003,-8.472,86.6,86.7,-8.015,59.3,82.9,73.4,70.8,92.1,36,74,1,5,prime,10,0,63,norm,36,-4.967,down,norm,75.39920268,64.5,67.5,70.3,65.8,0,86.1,88.1,92.1,10,6,8.369,4.436,1.351,-1.613,-5.049,-8.145,86.1,6,138.4,-8.038,-8.092,0,-8.233,-8.186,-5.144,-4.556,-4.567,-4.759,4.354,7.694,6,-1.785,1.956,4.427,8.118,-7.902,-8.133,-1.686,1.664,55.4,65.8,80.5,82.6,69.5,73.1,88.1,,68.5,89.2,4,norm,1.799,1.695,-1.513,-1.963,-5.23,-4.689,-1.17,-1.318,-2.057,-1.454,1.399,-1.752,77.4,84.8,-4.895,-8.064,1.286,-1.489,7.709,5.265,-4.849,-7.622,22,4.621,5.154,4.607,4.759,1.839,1.3,1.154,1.155,22,4.832,4.725,-30,160.820145,norm,0,82,82,82,400.829,400.838,400.8555796,400.856,400.858,400.86,down,1,1.606681862,8.393318138,1,323,1920_1080,Intel(R) Core(TM) i5-3570 CPU @ 3.40GHz,orientation_search,LEPPC096,Intel(R) HD Graphics 2500,2018_Nov_24_1448,testMonitor
68.2,56.6,64.8,70,36,0,80.6,,82.8,69.5,8.283,7.57,8.374,7.861,8.492,8.079,7.923,4.444,-5.001,-7.944,1.832,-1.738,8.173,4.724,-5.124,-8.375,80.4,84.7,-8.176,73,82.7,64.5,71.4,95.4,36,72.2,4,5,prime,10,0,81,norm,36,-4.505,down,norm,75.39920268,75.3,77.8,85.5,71.5,1,55.4,86.8,91.4,10,6,8.145,4.766,1.311,-1.657,-4.413,-7.843,67.9,6,156.4,-8.001,-8.131,0,-7.87,-8.35,-5.122,-5.073,-4.706,-4.399,5.08,7.921,25,-1.734,1.2,4.914,8.279,-7.856,-8.169,-1.999,1.649,73.5,71.4,62.7,72,68.9,78.2,72.3,77,70.6,86.4,5,norm,1.692,1.992,-1.761,-1.69,-4.405,-4.5,-1.8,-1.325,-1.773,-2.088,1.616,-1.419,76.5,67.7,-5.102,-7.893,1.459,-1.557,8.282,4.774,-5.036,-7.893,22,5.142,4.944,4.438,4.764,1.721,1.245,1.655,1.77,22,4.514,5.299,-30,160.820145,norm,0,83,83,83,402.5,402.513,402.5319639,402.532,402.534,402.536,down,1,0.746954592,9.253045408,1,323,1920_1080,Intel(R) Core(TM) i5-3570 CPU @ 3.40GHz,orientation_search,LEPPC096,Intel(R) HD Graphics 2500,2018_Nov_24_1448,testMonitor
186.9,183.2,175.4,,36,-40,191,183.7,180.1,173.6,8.09,8.032,8.212,7.915,8.129,7.978,7.711,4.446,-4.347,-8.234,1.815,-1.32,7.837,5.065,-4.854,-8.388,186.2,186.9,-8.1,191.6,183.9,190.9,183.6,183.8,36,185.2,3,5,probe,5,0,106,norm,36,-4.308,up,norm,183.588216,186.9,184.8,186.3,183.4,3,184,181.4,178.8,10,6,7.9,5.024,1.219,-1.722,-4.342,-8.069,188.7,2,77.6,-8.189,-7.955,0,-8.337,-7.627,-4.474,-4.781,-4.974,-4.928,4.581,8.323,21,-1.467,1.123,4.625,7.805,-8.474,-8.1,-2.021,1.856,182,186,186.1,192.7,180.4,179,178.8,186.4,183.2,186.2,0,norm,1.763,1.676,-1.134,-1.428,-5.014,-4.979,-1.908,-1.94,-1.556,-2.056,1.686,-1.319,177.9,193.6,-4.337,-8.027,1.531,-1.402,7.705,5.252,-5.111,-7.794,23,5.001,4.347,4.817,5.145,1.541,1.14,1.216,1.779,23,4.485,4.735,0,75.39920268,norm,0,84,84,84,403.316,403.326,403.3357723,403.336,403.338,403.34,up,1,1.400110597,8.599889403,1,323,1920_1080,Intel(R) Core(TM) i5-3570 CPU @ 3.40GHz,orientation_search,LEPPC096,Intel(R) HD Graphics 2500,2018_Nov_24_1448,testMonitor
155.4,160.2,148.6,162.6,36,-40,153.6,155.2,156.2,161.1,8.326,7.745,7.958,8.456,8.197,8.263,7.895,5.297,-5.125,-8.46,1.853,-2.083,7.958,5.222,-4.616,-8.204,153.3,153.9,-8.081,163.5,165.2,149.2,154.9,168.6,36,156.8,2,5,probe,5,0,81,norm,36,-5.216,down,norm,158.588216,156.7,152,165.6,151,1,163.3,,154.8,10,6,8.412,4.536,1.779,-2.024,-4.454,-8.01,165.4,2,77.6,-8.331,-8.154,0,-7.626,-8.353,-5.128,-4.728,-5.153,-4.709,5.003,8.327,13,-1.404,1.283,4.429,7.51,-7.505,-8.154,-1.528,1.81,157.6,155.2,159.1,167.5,157.2,158.2,156,156.8,163.5,157.2,1,norm,1.574,1.412,-2.043,-1.475,-4.973,-4.407,-1.679,-1.519,-1.345,-1.715,1.635,-1.332,153.8,158.4,-4.931,-8.41,1.916,-2.086,8.181,5.08,-4.395,-7.958,23,4.43,4.44,4.763,5.029,1.422,1.225,1.567,1.144,23,5.026,4.669,0,75.39920268,norm,0,85,85,85,404.757,404.768,404.7730052,404.773,404.775,404.778,down,1,0.590769404,9.409230596,1,323,1920_1080,Intel(R) Core(TM) i5-3570 CPU @ 3.40GHz,orientation_search,LEPPC096,Intel(R) HD Graphics 2500,2018_Nov_24_1448,testMonitor
107.4,125.3,,129.9,36,20,101.4,102.3,119.2,106.7,8.413,8.483,8.093,7.898,7.742,8.191,7.609,4.315,-4.894,-8.347,1.335,-1.443,7.968,4.668,-4.558,-8.12,117.9,96.9,-8.425,113.3,104.1,100.8,115.9,94.4,36,114.6,3,5,prime,10,0,118,norm,36,-4.847,down,norm,114.4321517,119.5,119.5,96.7,110.7,2,124.9,113.3,134.4,10,5,7.69,4.751,1.98,-1.297,-4.618,-7.7,109.3,5,232.4,-8.058,-7.99,20,-7.899,-7.59,-5.001,-4.629,-4.374,-5.295,4.925,7.948,20,-2.024,1.706,4.487,8.333,-8.298,-7.686,-2.037,1.215,114.7,125.4,131.4,113.6,112.6,121.9,110.8,113.9,103.9,99.2,0,norm,1.49,1.226,-2.022,-1.344,-4.468,-4.465,-1.163,-1.74,-1.814,-1.966,1.567,-1.919,118.1,124.3,-5.097,-8.132,1.571,-1.794,8.416,5.196,-4.331,-8.164,24,4.853,4.648,4.971,5.095,1.254,1.444,1.867,2.047,24,4.924,4.507,-40,75.39920268,norm,0,86,86,86,405.411,405.421,405.4291422,405.429,405.431,405.434,down,1,0.956308281,9.043691719,1,323,1920_1080,Intel(R) Core(TM) i5-3570 CPU @ 3.40GHz,orientation_search,LEPPC096,Intel(R) HD Graphics 2500,2018_Nov_24_1448,testMonitor
107.2,127.4,109.5,,36,20,114.1,110.7,117.2,102.5,7.605,7.617,7.958,7.927,8.181,7.915,8.168,4.597,-5.037,-7.779,1.582,-1.83,7.845,5.277,-4.444,-7.985,114.6,107.9,-7.53,125.3,114.1,104.3,130.1,111.7,36,113.4,3,5,prime,10,0,100,norm,36,-5.087,up,norm,114.4321517,113,101.2,110.4,94.4,3,108.4,128.3,118,10,5,7.554,4.346,1.959,-1.954,-4.414,-8.459,113.6,5,214.4,-8.203,-8.419,20,-7.646,-8.479,-5.183,-4.915,-5.166,-4.648,4.711,8.082,21,-1.459,2.037,5.261,8.205,-7.945,-8.021,-1.185,1.403,125.8,118.1,124.4,110.2,111.3,102.4,134.4,112.8,109.6,119.6,1,norm,1.494,1.577,-1.96,-1.11,-4.56,-4.581,-1.297,-1.747,-1.398,-1.272,1.497,-1.398,126.9,119.8,-4.53,-7.549,1.604,-1.64,7.693,4.713,-5.286,-8.374,24,4.301,4.771,4.73,4.948,1.647,1.532,1.746,1.269,24,4.963,4.972,-40,75.39920268,norm,0,87,87,87,406.409,406.419,406.4252683,406.425,406.427,406.43,up,1,0.568609624,9.431390376,1,323,1920_1080,Intel(R) Core(TM) i5-3570 CPU @ 3.40GHz,orientation_search,LEPPC096,Intel(R) HD Graphics 2500,2018_Nov_24_1448,testMonitor
98.8,110.2,104.8,106,36,20,110.2,128.5,123.2,,8.277,8.259,7.943,8.286,8.29,7.713,8.438,4.393,-4.857,-8.282,1.47,-1.291,7.598,4.958,-5.249,-8.368,109.8,125.1,-8.241,120,134.4,118.9,110.8,122.9,36,106.4,4,5,prime,10,0,105,norm,36,-5.167,up,norm,114.4321517,97.1,102.5,105.7,115,5,123.4,106.2,116.8,10,5,7.641,5.08,1.355,-1.242,-4.957,-7.724,121.3,5,219.4,-7.751,-7.56,20,-8.273,-7.641,-4.843,-4.329,-4.607,-4.301,4.613,7.723,29,-1.982,2.089,4.415,7.928,-8.433,-8.495,-1.699,1.884,110.7,127.6,109.1,114,132.6,122.5,112.7,103.2,108,126.5,2,norm,1.128,1.563,-1.369,-1.855,-4.93,-4.766,-1.522,-1.837,-1.684,-1.897,1.806,-1.169,94.4,105.7,-5.188,-8.314,1.502,-2.009,7.903,5.039,-5.237,-8.155,24,4.36,4.674,4.646,4.525,2.042,1.266,1.571,1.396,24,4.855,5.268,-40,75.39920268,norm,0,88,88,88,407.015,407.024,407.0328575,407.033,407.035,407.037,up,1,0.787023546,9.212976454,1,323,1920_1080,Intel(R) Core(TM) i5-3570 CPU @ 3.40GHz,orientation_search,LEPPC096,Intel(R) HD Graphics 2500,2018_Nov_24_1448,testMonitor
123.5,112.8,109.3,109.8,36,20,130.4,104.6,108.2,107.9,8.409,8.353,8.207,7.681,7.945,8.13,7.784,4.461,-4.607,-7.931,1.491,-1.525,8.283,4.404,-4.656,-8.47,104.2,94.4,-7.804,132.2,110,114.3,112.2,,36,107.6,4,5,prime,10,0,92,norm,36,-4.502,down,norm,114.4321517,129.1,121.6,119.6,107.7,2,109.3,97.4,122.8,10,5,7.566,4.435,1.699,-1.845,-5.242,-8.328,122.4,5,206.4,-8.201,-8.198,20,-8.214,-8.089,-4.83,-4.766,-4.774,-5.093,5.102,8.155,26,-2.07,1.61,4.965,7.781,-7.967,-7.701,-1.915,1.387,117.6,107.7,98.1,101.5,121.4,125.1,120.6,134.4,108.9,118.2,3,norm,2.049,1.441,-1.114,-1.785,-4.923,-4.498,-1.607,-1.248,-1.36,-1.184,2.076,-1.492,126,103.9,-4.862,-8.473,1.448,-2.031,8.217,4.725,-4.646,-7.732,24,4.445,4.586,4.799,4.316,1.133,1.799,1.455,1.181,24,4.598,5.219,-40,75.39920268,norm,0,89,89,89,407.845,407.854,407.8625254,407.863,407.864,407.867,down,1,0.571560177,9.428439823,1,323,1920_1080,Intel(R) Core(TM) i5-3570 CPU @ 3.40GHz,orientation_search,LEPPC096,Intel(R) HD Graphics 2500,2018_Nov_24_1448,testMonitor
102.7,106.9,104,113.2,36,20,118.8,114.1,134.4,,7.65,8.176,7.975,8.271,7.67,7.537,7.724,4.922,-4.662,-7.825,1.448,-1.877,7.748,5.081,-4.799,-7.621,103.2,102.3,-7.723,113.6,102.5,118.7,106.7,108.9,36,107.5,4,5,prime,10,0,78,norm,36,-5.066,up,norm,114.4321517,107.9,105.5,117.1,114.7,5,110.2,94.4,113.9,10,5,7.744,4.923,1.952,-1.58,-5.259,-8.046,114.9,5,192.4,-8.018,-7.916,20,-7.92,-8.447,-4.876,-4.462,-4.385,-4.647,4.413,8.472,29,-1.252,1.773,4.952,7.759,-7.95,-7.595,-2.065,2.076,130.5,109.7,120,113.8,114.2,121.6,114.7,113.1,117.1,108,4,norm,1.727,1.583,-1.399,-1.832,-4.855,-4.936,-1.632,-1.11,-1.949,-2.005,1.707,-1.594,103.7,123.3,-4.874,-7.894,1.43,-1.297,7.658,4.904,-4.433,-7.834,24,4.594,4.665,4.304,4.847,1.608,1.303,1.228,1.653,24,4.594,4.974,-40,75.39920268,norm,0,90,90,90,408.455,408.466,408.4710567,408.471,408.473,408.476,up,1,0.758213779,9.241786221,1,323,1920_1080,Intel(R) Core(TM) i5-3570 CPU @ 3.40GHz,orientation_search,LEPPC096,Intel(R) HD Graphics 2500,2018_Nov_24_1448,testMonitor
190.7,199.1,192.5,190,36,10,197.5,195.1,193.3,189.5,7.985,8.135,7.594,7.897,8.288,8.239,8.123,5.231,-5.217,-8.411,1.438,-1.415,7.714,5.233,-4.389,-7.533,192.9,192.8,-8.153,,192.7,191.5,196.2,191.6,36,186.8,5,5,probe,5,0,63,norm,36,-4.686,down,norm,192.8475273,188.2,190.1,189.3,192.3,1,187.9,195.8,202.8,10,5,7.946,4.696,1.925,-1.802,-5.034,-7.631,189.8,1,129.8,-7.813,-7.877,20,-7.8,-7.74,-5.08,-5.208,-4.394,-4.651,4.655,7.896,31,-1.83,1.166,4.784,8.272,-8.152,-8.201,-1.199,1.926,190.8,198.4,198,186.3,194.4,182.8,189.2,190.6,190.7,190.1,0,norm,1.307,1.223,-1.963,-1.242,-5.05,-4.823,-1.923,-1.333,-1.47,-1.522,1.292,-1.575,192.5,188.2,-5.213,-7.715,1.955,-1.556,7.918,5.143,-4.821,-8.153,25,5.268,4.756,4.796,5.241,1.739,1.216,1.705,1.812,25,4.462,5.042,20,114.4321517,norm,0,91,91,91,409.267,409.277,409.2947519,409.295,409.297,409.299,down,1,0.73968582,9.26031418,1,323,1920_1080,Intel(R) Core(TM) i5-3570 CPU @ 3.40GHz,orientation_search,LEPPC096,Intel(R) HD Graphics 2500,2018_Nov_24_1448,testMonitor
143.3,136.7,134.7,139.4,36,10,131.7,144.6,157.1,149.2,7.768,7.521,8.057,7.612,8.124,7.887,8.378,4.83,-5.184,-8.011,1.181,-1.995,7.871,4.573,-5.225,-8.022,123.3,158.6,-7.549,154,134.4,153.4,134.7,163.3,36,131.5,1,5,prime,10,0,73,norm,36,-5.208,up,norm,143.3462259,159.4,131.9,147.2,145.5,3,153.3,131.6,155.5,10,5,8.122,4.537,1.31,-1.192,-5.129,-7.869,130,5,216.3,-8.049,-8.372,10,-8.297,-7.584,-4.384,-4.59,-4.656,-4.883,4.666,7.661,9,-1.516,1.223,5.233,7.73,-8.043,-7.636,-1.99,1.683,,138.8,142.8,144.6,138.4,131.8,137.2,145.8,138.5,129,0,norm,1.742,1.626,-1.565,-1.565,-4.503,-4.589,-1.486,-1.778,-1.711,-1.169,1.794,-2.06,131.3,158.4,-5.02,-7.597,2.095,-1.598,8.383,4.903,-4.612,-8.201,26,5.248,4.509,4.338,5.232,1.361,1.141,2.02,1.307,26,4.626,4.541,10,114.4321517,norm,0,92,92,92,410.055,410.066,410.0709509,410.071,410.073,410.076,up,1,1.399186644,8.600813356,1,323,1920_1080,Intel(R) Core(TM) i5-3570 CPU @ 3.40GHz,orientation_search,LEPPC096,Intel(R) HD Graphics 2500,2018_Nov_24_1448,testMonitor
138.1,135.5,136.8,154,36,10,154.2,148.8,,128.4,7.939,8.09,8.116,7.624,7.701,7.637,7.789,4.509,-4.621,-7.795,1.693,-1.68,7.958,4.336,-4.745,-7.77,152.5,140.3,-7.531,134.5,144.5,153.4,155.3,123.3,36,129.4,4,5,prime,10,0,117,norm,36,-4.782,up,norm,143.3462259,138.7,141.4,140.5,152.9,4,149.9,141.3,158.3,10,5,7.938,5.018,1.402,-2.061,-4.739,-7.762,147.6,5,260.3,-8.403,-7.949,10,-8.461,-8.485,-4.583,-4.887,-5.239,-4.869,4.945,8.098,28,-1.478,1.486,4.656,8.391,-7.963,-7.892,-1.358,2.098,126.5,147.8,138.3,148.3,163.3,129,153.1,130.6,142.9,141.8,1,norm,2.023,2.069,-1.786,-1.247,-4.406,-5.176,-2.003,-1.584,-1.489,-1.627,1.37,-1.307,154.7,149.2,-4.691,-7.943,1.575,-1.32,7.635,4.596,-4.835,-7.829,26,4.426,4.784,5,4.949,1.297,1.708,1.201,1.997,26,4.808,4.49,10,114.4321517,norm,0,93,93,93,411.495,411.504,411.5120813,411.512,411.514,411.517,up,1,0.620545383,9.379454617,1,323,1920_1080,Intel(R) Core(TM) i5-3570 CPU @ 3.40GHz,orientation_search,LEPPC096,Intel(R) HD Graphics 2500,2018_Nov_24_1448,testMonitor
145.4,142.6,163.3,137.5,36,10,148.1,147.9,123.3,137.3,7.753,8.171,8.481,7.834,8.156,8.405,8.13,5.017,-4.556,-8.333,1.721,-1.708,8.101,4.652,-4.39,-7.585,145.1,124.4,-8.04,148.5,139,153.4,144.1,157.6,36,140.2,1,5,prime,10,0,94,norm,36,-4.497,up,norm,143.3462259,132,145.1,137.1,133.4,3,150.7,123.6,146.7,10,5,7.807,4.977,2.087,-1.486,-4.727,-8.019,138.9,5,237.3,-8.493,-7.592,10,-7.898,-7.562,-4.46,-4.44,-5.093,-5.005,4.369,8.42,9,-1.696,1.991,4.374,7.82,-7.866,-7.778,-1.788,1.38,,147.7,142,140.9,136.2,141.9,146.3,150.2,125.7,149.6,2,norm,1.864,1.92,-1.13,-2.008,-5.086,-5.108,-1.883,-1.772,-1.392,-1.852,1.396,-2.086,141.8,144,-5.187,-7.711,1.891,-1.449,7.568,5.05,-4.678,-7.803,26,4.437,4.463,4.52,4.65,1.669,2.047,1.709,1.327,26,4.795,4.707,10,114.4321517,norm,0,94,94,94,412.17,412.184,412.2025594,412.203,412.204,412.207,up,1,0.632334613,9.367665387,1,323,1920_1080,Intel(R) Core(TM) i5-3570 CPU @ 3.40GHz,orientation_search,LEPPC096,Intel(R) HD Graphics 2500,2018_Nov_24_1448,testMonitor
144.9,125.1,127.4,126.6,36,10,134.2,153.1,135.8,146.7,7.725,8.014,8.034,7.629,8.023,7.685,7.836,4.966,-4.802,-8.368,1.571,-1.373,7.975,4.848,-5.001,-8.106,127.5,138.8,-7.986,156.5,132.9,125.1,146.5,128.3,36,131.7,1,5,prime,10,0,80,norm,36,-4.373,up,norm,143.3462259,131.2,160.4,126.9,123.3,3,158.7,140.6,128.8,10,5,7.512,4.435,1.116,-1.598,-5.087,-7.716,163.3,5,223.3,-7.599,-7.516,10,-7.88,-8.116,-5.292,-4.713,-4.867,-4.666,4.442,8.492,9,-1.591,1.704,4.816,7.807,-7.979,-8.024,-1.303,2.062,,142.9,128.9,157.6,150.6,139.4,147.1,133.8,132.6,128,3,norm,1.471,1.666,-1.971,-1.945,-4.763,-4.749,-2.099,-2.069,-1.215,-1.742,1.237,-1.678,151.3,156.5,-4.603,-7.861,1.222,-1.925,7.79,4.969,-4.86,-8.176,26,4.942,4.655,4.604,5.043,1.525,1.932,1.934,1.574,26,4.456,5.148,10,114.4321517,norm,0,95,95,95,412.872,412.881,412.8981177,412.898,412.9,412.903,up,1,0.485862855,9.514137145,1,323,1920_1080,Intel(R) Core(TM) i5-3570 CPU @ 3.40GHz,orientation_search,LEPPC096,Intel(R) HD Graphics 2500,2018_Nov_24_1448,testMonitor
140.4,139.3,,148,36,10,153,123.3,146.7,141.3,8.059,7.507,7.568,8.029,8.059,7.594,7.689,4.337,-4.868,-8.269,2.073,-1.364,7.665,4.342,-4.376,-8.239,143.6,149.6,-8.055,163.3,141.3,135.1,150,142.1,36,137.6,3,5,prime,10,0,118,norm,36,-5.013,down,norm,143.3462259,127.9,145.5,153.4,131.9,2,146.2,154.5,136.1,10,5,7.885,5.15,1.816,-2.032,-4.598,-8.402,157.6,5,261.3,-8.195,-8.402,10,-8.299,-8.472,-4.628,-5.144,-4.716,-4.386,4.603,8.476,20,-1.782,1.147,4.848,7.925,-7.752,-8.09,-1.387,1.893,155.8,129.9,145.7,131.9,137.7,141.7,145.8,150.8,157.5,145.5,4,norm,1.544,1.882,-1.907,-1.133,-4.499,-4.854,-1.438,-1.51,-1.107,-1.148,2.083,-1.923,146,130.7,-4.473,-8.156,1.195,-1.932,8.057,4.62,-4.682,-8.031,26,4.785,5.287,5.284,4.677,1.971,2.096,1.545,1.633,26,4.455,5.074,10,114.4321517,norm,0,96,96,96,413.43,413.45,413.4618174,413.462,413.464,413.467,down,1,0.773438026,9.226561974,1,323,1920_1080,Intel(R) Core(TM) i5-3570 CPU @ 3.40GHz,orientation_search,LEPPC096,Intel(R) HD Graphics 2500,2018_Nov_24_1448,testMonitor
269.9,259.1,258.6,270.3,36,20,270.1,266.4,274,266.7,8.371,7.676,8.242,8.328,8.005,7.705,7.687,4.301,-4.536,-7.879,1.903,-1.961,7.763,4.81,-5.204,-8.3,273.8,265.1,-7.882,263.7,273.6,265.5,269.6,267.5,36,273.1,1,5,probe,5,0,117,norm,36,-5.152,down,norm,268.602983,266.1,264.4,276,266.6,2,269.8,261.9,265.7,10,5,7.583,4.997,1.839,-2.026,-5.056,-7.699,267.9,1,151.6,-7.752,-8.066,10,-8.33,-7.751,-4.84,-4.794,-4.305,-5.102,4.971,8.273,8,-1.931,1.488,4.829,7.618,-7.882,-7.671,-1.905,1.271,268.9,,263.7,265.5,265.1,270.7,272.1,260.4,268.2,274,0,norm,1.708,1.728,-1.443,-1.877,-4.685,-5.09,-1.436,-2.088,-1.534,-1.308,1.157,-1.858,263.1,278.6,-4.871,-7.689,1.457,-1.247,8.333,4.329,-5.108,-8,27,4.508,4.38,4.585,4.77,1.576,1.254,1.86,1.404,27,4.373,4.422,10,143.3462259,norm,0,97,97,97,414.257,414.267,414.2865703,414.287,414.288,414.291,up,0,1.215686434,-10,1,323,1920_1080,Intel(R) Core(TM) i5-3570 CPU @ 3.40GHz,orientation_search,LEPPC096,Intel(R) HD Graphics 2500,2018_Nov_24_1448,testMonitor
206.7,197.2,214.2,207.9,36,-40,219.2,198.5,201.4,202.9,7.501,8.489,8.098,8.009,7.601,7.631,7.982,4.578,-5.109,-8.481,1.249,-1.644,7.625,4.81,-4.983,-7.719,,205.5,-7.532,203.3,194.3,205,210.1,195.7,36,197.7,5,5,prime,10,0,94,norm,36,-5.209,up,norm,201.5069375,221.5,208.1,200.9,197.7,5,214.3,203.8,203.3,10,5,8.324,4.426,1.303,-1.479,-5.233,-7.765,212.8,5,295.5,-8.416,-8.228,-40,-7.89,-8.188,-5.193,-4.674,-4.403,-4.39,4.539,8.108,35,-1.409,1.486,5.167,8.326,-8.45,-7.971,-1.671,2.033,186.4,206.7,195.4,181.5,205.3,207.4,211,212.7,192.4,203,0,norm,1.949,1.272,-1.475,-1.508,-5.165,-4.82,-1.453,-1.32,-1.853,-1.596,1.776,-1.62,183,191.2,-4.757,-7.672,1.86,-1.457,8.11,4.36,-4.565,-8.435,28,4.301,4.583,4.429,4.821,1.733,1.873,1.32,1.576,28,4.57,4.935,20,143.3462259,norm,0,98,98,98,416.573,416.582,416.5952295,416.595,416.597,416.6,up,1,1.961817287,8.038182713,1,323,1920_1080,Intel(R) Core(TM) i5-3570 CPU @ 3.40GHz,orientation_search,LEPPC096,Intel(R) HD Graphics 2500,2018_Nov_24_1448,testMonitor
