d_ori_22,d_ori_23,d_ori_20,d_ori_21,set_size,ctpd,d_ori_24,d_ori_25,d_ori_28,d_ori_29,stim_pos_x_30,stim_pos_x_31,stim_pos_x_32,stim_pos_x_33,stim_pos_x_34,stim_pos_x_35,stim_pos_y_11,stim_pos_y_10,stim_pos_y_13,stim_pos_y_12,stim_pos_y_15,stim_pos_y_14,stim_pos_y_17,stim_pos_y_16,stim_pos_y_19,stim_pos_y_18,d_ori_35,d_ori_34,stim_pos_x_3,d_ori_31,d_ori_30,d_ori_33,d_ori_32,d_ori_26,test_set_size,d_ori_27,targetCol,dsd_test,seq_type,dsd,blockRepN,targetDist,dtype_test,prime_set_size,stim_pos_y_25,correctResponse,dtype,distrMean,d_ori_17,d_ori_16,d_ori_15,d_ori_14,targetRow,d_ori_11,d_ori_13,d_ori_12,dsd_prime,streak_length_prime,stim_pos_y_35,stim_pos_y_34,stim_pos_y_33,stim_pos_y_32,stim_pos_y_31,stim_pos_y_30,d_ori_10,nextProbe,targetOri,stim_pos_x_1,stim_pos_x_2,ctpd_prime,stim_pos_x_4,stim_pos_x_5,stim_pos_x_6,stim_pos_x_7,stim_pos_x_8,stim_pos_x_9,stim_pos_y_28,stim_pos_y_29,targetPos,stim_pos_y_20,stim_pos_y_21,stim_pos_y_22,stim_pos_y_23,stim_pos_y_24,stim_pos_x_0,stim_pos_y_26,stim_pos_y_27,d_ori_9,d_ori_8,d_ori_3,d_ori_2,d_ori_1,d_ori_0,d_ori_7,d_ori_6,d_ori_5,d_ori_4,trialN,dtype_prime,stim_pos_x_18,stim_pos_x_19,stim_pos_x_12,stim_pos_x_13,stim_pos_x_10,stim_pos_x_11,stim_pos_x_16,stim_pos_x_17,stim_pos_x_14,stim_pos_x_15,stim_pos_y_9,stim_pos_y_8,d_ori_19,d_ori_18,stim_pos_y_1,stim_pos_y_0,stim_pos_y_3,stim_pos_y_2,stim_pos_y_5,stim_pos_y_4,stim_pos_y_7,stim_pos_y_6,totBlockN,stim_pos_x_27,stim_pos_x_26,stim_pos_x_25,stim_pos_x_24,stim_pos_x_23,stim_pos_x_22,stim_pos_x_21,stim_pos_x_20,blockN,stim_pos_x_29,stim_pos_x_28,prevDistrCTPD,prevDistrMean,prevDistrType,trials.thisRepN,trials.thisTrialN,trials.thisN,trials.thisIndex,timeStart,timeBeforeDraw,timeDraw,timeAfterSaving,timeAfterWritingToTemp,timeAfterPreparingNext,answer,correct,rt,trialScore,session,participant,resolution,cpu_info,expName,pc_name,graphic_card,date,monitorName,
309.2,310.8,300.5,316.6,36,20,317.1,333.6,333.7,311.2,8.163,7.54,8.308,8.241,8.075,8.104,7.887,5.295,-4.371,-7.723,1.187,-1.987,7.989,4.758,-5.036,-7.589,310.3,314.0,-8.496,315.4,309.1,336.3,306.9,315.7,36,310.7,0,5,prime,10,0,115,norm,36,-5.296,up,norm,316.322221866,327.6,320.3,308.7,313.7,5,333.7,314.4,313.4,10,5,8.147,4.467,2.033,-1.781,-4.569,-7.702,299.4,5,431.3,-8.308,-7.942,20,-8.219,-8.078,-5.094,-4.845,-4.833,-4.778,4.338,8.414,5,-1.325,1.356,4.811,7.978,-7.506,-8.078,-1.753,2.097,309.6,329.0,306.7,296.3,320.7,305.3,316.3,320.1,,308.2,0,norm,1.802,1.977,-2.009,-1.687,-4.383,-4.747,-1.152,-1.235,-1.205,-2.049,1.382,-1.966,323.0,319.5,-4.884,-7.797,1.305,-1.652,7.633,4.561,-4.405,-8.418,0,4.885,4.536,4.642,5.249,1.553,1.564,1.166,1.448,0,4.588,4.657,,,,0,0,0,0,207.028,207.056,207.077069333,207.077,207.077,207.08,up,1,4.43189717655,5.56810282345,001,007,1920_1080,Intel(R) Core(TM) i5-3570 CPU @ 3.40GHz,orientation_search,LEPPC096,Intel(R) HD Graphics 2500,2018_Oct_18_1222,testMonitor,
315.9,312.4,319.2,322.5,36,20,309.2,301.5,328.0,326.7,7.501,7.868,7.735,7.79,7.829,7.846,7.515,4.367,-5.067,-7.864,1.283,-1.142,8.194,4.418,-4.448,-7.953,313.8,296.3,-8.116,,315.3,312.3,323.7,336.3,36,311.6,5,5,prime,10,0,109,norm,36,-4.436,down,norm,316.322221866,304.1,325.0,317.8,316.2,1,320.4,317.6,323.1,10,5,7.675,5.154,1.737,-1.16,-4.489,-7.892,332.1,5,425.3,-8.481,-7.899,20,-7.614,-7.896,-4.306,-4.323,-4.732,-4.854,4.974,8.07,31,-1.5,1.347,4.615,7.707,-7.993,-7.699,-1.62,2.015,316.2,319.0,335.9,318.9,321.3,323.1,323.5,329.9,329.3,313.8,1,norm,2.077,1.619,-1.42,-1.226,-5.196,-4.951,-1.958,-1.688,-1.283,-1.257,1.716,-1.746,326.1,333.2,-5.262,-8.061,1.487,-1.524,7.882,4.332,-4.912,-8.285,0,5.129,5.251,4.861,4.843,2.024,1.102,1.23,1.725,0,4.837,4.682,,,,0,1,1,1,211.531,211.541,211.546698868,211.547,211.548,211.55,down,1,2.46457209147,7.53542790853,001,007,1920_1080,Intel(R) Core(TM) i5-3570 CPU @ 3.40GHz,orientation_search,LEPPC096,Intel(R) HD Graphics 2500,2018_Oct_18_1222,testMonitor,
321.2,314.4,314.4,325.9,36,20,323.5,316.2,319.3,310.6,8.242,8.054,8.138,7.723,7.603,8.431,7.501,5.042,-4.493,-7.664,1.306,-1.557,7.807,4.782,-5.102,-7.748,307.2,313.8,-8.022,,309.8,325.5,309.0,327.4,36,310.1,5,5,prime,10,0,74,norm,36,-4.766,down,norm,316.322221866,322.2,313.0,310.0,319.6,1,311.9,299.7,312.6,10,5,8.031,4.932,1.53,-1.224,-4.848,-7.558,305.7,5,390.3,-8.329,-7.76,20,-7.99,-7.835,-4.652,-4.477,-4.722,-4.911,5.004,8.405,31,-1.169,1.299,4.566,7.642,-8.23,-8.263,-1.153,1.609,316.0,304.6,325.1,321.6,296.3,313.6,318.9,335.2,336.3,306.4,2,norm,1.5,1.267,-1.906,-1.135,-5.186,-4.343,-1.821,-1.548,-1.341,-1.785,1.587,-1.43,310.2,315.0,-4.505,-8.07,1.932,-2.075,7.716,4.765,-5.007,-8.207,0,5.113,4.519,4.326,5.148,2.011,1.463,1.766,1.41,0,4.352,4.756,,,,0,2,2,2,214.048,214.06,214.080286114,214.08,214.082,214.085,down,1,4.24848389905,5.75151610095,001,007,1920_1080,Intel(R) Core(TM) i5-3570 CPU @ 3.40GHz,orientation_search,LEPPC096,Intel(R) HD Graphics 2500,2018_Oct_18_1222,testMonitor,
331.0,301.0,327.0,314.9,36,20,311.0,316.0,315.1,312.2,8.176,7.627,7.78,8.476,7.828,7.817,8.379,4.437,-4.511,-7.837,1.322,-1.896,7.985,4.598,-4.433,-8.38,320.7,317.5,-8.368,321.9,300.6,336.3,302.2,314.5,36,331.4,2,5,prime,10,0,113,norm,36,-5.231,up,norm,316.322221866,,317.5,322.4,306.3,5,313.5,307.9,327.7,10,5,8.396,4.668,1.265,-1.15,-5.228,-8.142,296.3,5,429.3,-8.412,-8.246,20,-7.871,-8.169,-4.849,-4.384,-4.607,-5.245,4.492,8.128,17,-1.349,1.78,4.817,8.329,-7.842,-8.055,-2.036,1.897,323.2,320.5,306.6,309.2,316.8,307.2,317.9,309.9,331.9,307.7,3,norm,2.019,1.99,-1.744,-1.312,-4.7,-4.524,-1.726,-1.918,-1.607,-2.077,1.841,-1.291,309.6,309.3,-4.811,-7.535,1.938,-1.648,8.482,4.797,-5.293,-7.701,0,4.368,4.871,5.231,4.304,1.262,1.459,1.634,2.025,0,4.454,4.78,,,,0,3,3,3,218.363,218.373,218.379294638,218.379,218.381,218.384,up,1,1.41769437946,8.58230562054,001,007,1920_1080,Intel(R) Core(TM) i5-3570 CPU @ 3.40GHz,orientation_search,LEPPC096,Intel(R) HD Graphics 2500,2018_Oct_18_1222,testMonitor,
,326.3,312.5,336.3,36,20,306.8,313.9,320.7,323.1,8.425,8.475,7.505,8.408,8.04,8.453,8.394,4.91,-4.778,-7.793,1.335,-1.974,7.667,4.783,-5.072,-8.303,313.3,310.7,-8.38,326.7,314.2,308.0,312.3,303.1,36,315.1,3,5,prime,10,0,75,norm,36,-4.481,up,norm,316.322221866,316.3,299.1,330.1,325.9,4,320.8,313.3,328.2,10,5,7.684,4.619,1.761,-1.4,-4.642,-8.25,331.6,5,391.3,-8.494,-8.429,20,-7.565,-8.133,-4.444,-5.265,-4.496,-4.941,4.728,7.805,22,-1.738,1.718,5.131,8.415,-8.055,-8.26,-1.561,1.482,318.0,313.1,313.4,320.4,311.9,329.1,313.6,315.7,296.3,324.0,4,norm,1.966,1.288,-1.797,-2.085,-4.803,-5.23,-1.383,-2.062,-1.999,-1.339,1.519,-1.191,313.4,324.2,-4.857,-7.906,1.403,-1.475,7.893,5.068,-4.672,-8.046,0,4.361,4.438,4.967,4.314,1.156,1.541,1.455,1.657,0,4.98,4.463,,,,0,4,4,4,219.834,219.843,219.860129329,219.86,219.862,219.865,up,1,1.56697663316,8.43302336684,001,007,1920_1080,Intel(R) Core(TM) i5-3570 CPU @ 3.40GHz,orientation_search,LEPPC096,Intel(R) HD Graphics 2500,2018_Oct_18_1222,testMonitor,
429.3,426.1,417.6,432.1,36,-80,431.3,432.6,437.5,421.5,8.022,7.869,8.132,8.398,7.927,7.886,7.733,4.471,-4.746,-7.922,1.378,-1.735,7.849,5.051,-5.067,-7.798,429.6,426.8,-7.951,418.1,433.9,425.7,425.0,427.3,36,420.7,2,5,probe,5,0,89,norm,36,-4.751,down,norm,427.498463021,433.0,432.5,432.5,427.6,0,427.9,428.2,,10,5,8.416,4.708,1.842,-1.757,-5.187,-8.247,423.3,2,338.5,-8.062,-8.38,20,-8.162,-8.036,-4.492,-4.703,-4.879,-4.52,4.488,8.331,12,-1.606,1.952,4.572,7.558,-7.865,-7.876,-1.987,1.142,423.4,422.3,428.6,426.8,429.1,425.8,417.5,427.4,425.9,429.2,0,norm,1.138,1.364,-1.117,-1.633,-4.571,-4.604,-1.372,-1.101,-1.234,-1.202,1.833,-1.435,432.2,422.6,-4.415,-7.705,1.593,-1.434,7.694,4.576,-5.096,-7.954,1,5.177,5.118,4.708,5.135,1.918,1.642,1.635,1.421,1,4.323,4.951,20,316.322221866,norm,0,5,5,5,221.452,221.462,221.46800741,221.468,221.47,221.473,down,1,1.78905497515,8.21094502485,001,007,1920_1080,Intel(R) Core(TM) i5-3570 CPU @ 3.40GHz,orientation_search,LEPPC096,Intel(R) HD Graphics 2500,2018_Oct_18_1222,testMonitor,
431.0,417.7,429.7,425.5,36,-80,427.5,419.0,415.4,422.3,7.562,8.34,7.831,8.16,7.609,7.84,7.723,5.003,-4.787,-8.24,1.812,-1.673,8.007,4.425,-4.694,-8.218,418.9,421.5,-8.029,424.3,427.0,418.6,424.3,427.5,36,418.1,0,5,probe,5,0,85,norm,36,-4.573,up,norm,423.498463021,416.2,416.2,429.3,421.2,5,424.8,428.2,422.3,10,5,7.533,5.015,1.698,-1.882,-4.424,-7.837,413.5,2,338.5,-8.009,-7.717,20,-7.815,-7.967,-4.515,-4.679,-5.086,-4.555,5.079,8.213,5,-1.217,1.736,4.899,7.953,-7.857,-8.416,-2.055,1.407,420.0,421.9,419.9,428.3,433.5,425.8,420.2,425.8,,431.1,1,norm,1.352,1.482,-1.223,-1.975,-4.568,-5.163,-1.41,-1.631,-1.475,-1.224,2.068,-2.058,419.6,424.3,-5.148,-8.457,1.591,-2.1,8.101,4.745,-4.408,-8.074,1,5.167,4.651,5.119,4.734,1.981,1.604,1.14,1.498,1,4.804,4.949,20,316.322221866,norm,0,6,6,6,223.295,223.308,223.327508294,223.328,223.33,223.334,up,1,1.03985071857,8.96014928143,001,007,1920_1080,Intel(R) Core(TM) i5-3570 CPU @ 3.40GHz,orientation_search,LEPPC096,Intel(R) HD Graphics 2500,2018_Oct_18_1222,testMonitor,
183.4,176.7,181.6,177.3,36,-20,166.5,194.4,175.6,178.3,8.482,7.587,8.241,7.773,7.515,8.352,8.212,5.111,-5.158,-8.441,1.646,-1.183,7.976,4.744,-5.288,-7.996,165.9,186.2,-8.459,172.4,190.7,182.7,175.5,178.9,36,177.7,1,5,prime,10,0,87,norm,36,-4.686,up,norm,174.444239631,163.3,178.8,159.3,162.2,3,171.0,187.0,171.9,10,5,7.572,4.467,1.248,-1.502,-5.061,-7.993,184.3,5,261.4,-8.359,-7.877,-20,-8.167,-7.698,-4.578,-4.962,-4.767,-5.004,4.835,8.154,9,-1.99,1.843,5.028,8.199,-7.848,-8.49,-1.822,1.427,,154.4,163.4,188.5,186.0,179.1,170.8,180.6,169.8,169.5,0,norm,1.966,1.209,-1.167,-1.633,-4.375,-4.642,-2.075,-1.357,-1.722,-1.251,1.364,-1.18,173.3,188.2,-4.555,-7.759,1.829,-1.312,7.772,4.583,-5.082,-8.143,2,4.377,4.479,4.795,5.2,1.567,1.786,1.247,2.035,2,4.742,5.091,-80,316.322221866,norm,0,7,7,7,224.407,224.419,224.439287593,224.44,224.441,224.444,down,0,1.21996571624,-10,001,007,1920_1080,Intel(R) Core(TM) i5-3570 CPU @ 3.40GHz,orientation_search,LEPPC096,Intel(R) HD Graphics 2500,2018_Oct_18_1222,testMonitor,
164.8,177.2,178.2,176.6,36,-20,188.6,172.6,154.4,183.8,8.143,8.133,8.356,7.72,7.857,8.231,7.906,4.835,-4.316,-8.387,2.051,-1.212,8.493,4.304,-4.837,-7.717,159.3,178.2,-8.396,167.0,172.8,169.3,190.0,166.8,36,161.4,1,5,prime,10,0,66,norm,36,-4.485,up,norm,174.444239631,163.7,160.2,179.7,176.4,3,169.6,166.8,160.3,10,5,8.15,4.855,1.374,-1.435,-4.447,-8.045,190.2,5,240.4,-7.952,-8.496,-20,-7.521,-7.7,-4.985,-4.6,-5.174,-4.645,4.477,8.274,9,-2.054,1.326,4.644,7.531,-8.306,-7.615,-2.04,1.35,,194.4,171.6,188.3,173.2,163.6,173.7,168.9,179.5,183.1,1,norm,1.904,1.125,-1.797,-1.824,-4.769,-4.638,-1.538,-1.425,-1.459,-1.246,1.518,-1.792,184.2,188.8,-4.582,-8.447,1.982,-1.281,7.681,5.025,-5.1,-7.926,2,5.131,4.665,4.756,5.145,2.045,1.882,1.449,1.352,2,4.372,4.971,-80,316.322221866,norm,0,8,8,8,226.714,226.723,226.739604321,226.74,226.742,226.744,up,1,1.16005486366,8.83994513634,001,007,1920_1080,Intel(R) Core(TM) i5-3570 CPU @ 3.40GHz,orientation_search,LEPPC096,Intel(R) HD Graphics 2500,2018_Oct_18_1222,testMonitor,
170.6,179.3,,175.1,36,-20,177.4,188.2,189.0,185.9,7.523,8.105,8.393,8.283,8.013,8.41,7.51,4.701,-4.847,-7.714,2.014,-1.13,7.712,5.251,-4.49,-7.919,188.8,176.5,-8.348,177.2,160.2,175.5,180.8,174.3,36,185.6,3,5,prime,10,0,107,norm,36,-4.622,down,norm,174.444239631,188.5,176.4,161.7,164.7,2,174.4,180.4,171.6,10,5,8.303,4.348,1.773,-1.117,-4.423,-7.821,189.1,5,281.4,-7.667,-8.208,-20,-7.736,-8.323,-5.044,-4.872,-4.434,-4.395,4.706,8.351,20,-1.398,1.772,5.124,7.864,-8.098,-7.627,-1.599,1.618,194.4,168.6,163.8,154.4,183.9,182.7,171.7,186.8,169.7,170.3,2,norm,1.62,1.656,-1.186,-1.848,-4.323,-4.892,-1.158,-1.874,-1.331,-2.001,1.939,-1.734,181.6,163.7,-4.408,-7.636,1.342,-1.666,7.698,4.906,-5.117,-8.251,2,5.031,5.057,4.972,4.696,1.154,1.841,1.288,1.892,2,4.728,4.318,-80,316.322221866,norm,0,9,9,9,227.937,227.947,227.956315223,227.956,227.958,227.961,up,0,1.12852062774,-10,001,007,1920_1080,Intel(R) Core(TM) i5-3570 CPU @ 3.40GHz,orientation_search,LEPPC096,Intel(R) HD Graphics 2500,2018_Oct_18_1222,testMonitor,
178.1,180.2,176.2,186.5,36,-20,186.7,169.7,179.1,191.6,7.722,8.278,8.425,8.172,8.115,7.66,8.103,4.971,-4.669,-8.113,1.362,-1.322,8.163,4.973,-4.331,-7.834,154.4,181.1,-7.52,172.5,160.1,178.8,181.8,180.2,36,181.9,3,5,prime,10,0,100,norm,36,-4.785,down,norm,174.444239631,173.3,174.6,161.3,158.8,0,167.6,174.1,194.4,10,5,8.039,5.287,1.31,-2.054,-4.686,-7.986,183.6,5,274.4,-7.814,-8.272,-20,-8.209,-7.586,-5.292,-5.202,-4.898,-4.601,4.649,7.88,18,-1.985,1.534,4.621,7.901,-8.391,-8.046,-1.699,1.664,170.9,183.6,168.5,163.6,186.9,184.1,171.8,159.0,187.8,171.9,3,norm,1.357,1.354,-1.942,-1.595,-4.577,-4.768,-1.396,-2.069,-1.612,-1.595,1.118,-1.827,166.6,,-5.136,-8.281,1.338,-1.926,8.11,4.784,-4.544,-8.177,2,4.518,5.136,5.168,5.297,1.139,1.536,1.775,1.743,2,4.837,4.783,-80,316.322221866,norm,0,10,10,10,230.139,230.148,230.155788259,230.156,230.158,230.16,down,1,2.22973951534,7.77026048466,001,007,1920_1080,Intel(R) Core(TM) i5-3570 CPU @ 3.40GHz,orientation_search,LEPPC096,Intel(R) HD Graphics 2500,2018_Oct_18_1222,testMonitor,
160.1,185.5,168.0,181.6,36,-20,172.3,,170.6,171.3,8.245,7.68,8.033,7.668,7.948,8.311,8.155,4.795,-5.024,-8.441,1.461,-1.279,8.176,4.389,-4.532,-7.977,163.9,172.0,-7.618,154.4,163.6,193.7,165.9,162.6,36,175.8,4,5,prime,10,0,118,norm,36,-5.107,down,norm,174.444239631,174.4,168.2,170.3,158.2,1,178.4,179.1,184.5,10,5,8.216,4.766,1.669,-1.857,-4.84,-8.291,183.5,5,292.4,-7.808,-8.108,-20,-7.606,-7.539,-5.189,-5.046,-4.39,-5.175,4.971,8.449,25,-1.585,1.786,4.417,8.098,-7.996,-8.367,-1.222,1.533,192.6,174.0,173.8,171.8,163.7,168.3,181.8,166.0,180.5,169.7,4,norm,1.803,1.569,-1.737,-1.254,-4.683,-4.464,-2.092,-1.377,-1.133,-1.194,1.518,-1.811,185.6,194.4,-4.687,-7.826,1.303,-1.87,8.221,4.663,-5.135,-8.11,2,4.334,5.222,4.906,4.858,1.469,1.544,1.339,2.022,2,4.572,4.876,-80,316.322221866,norm,0,11,11,11,232.422,232.432,232.44876679,232.449,232.451,232.453,down,1,2.14508084813,7.85491915187,001,007,1920_1080,Intel(R) Core(TM) i5-3570 CPU @ 3.40GHz,orientation_search,LEPPC096,Intel(R) HD Graphics 2500,2018_Oct_18_1222,testMonitor,
256.5,265.4,255.8,267.7,36,30,261.8,266.1,261.6,259.6,8.017,7.911,8.477,7.914,7.614,8.197,8.218,5.098,-5.252,-8.162,1.689,-1.938,7.786,5.015,-4.354,-7.715,269.5,261.2,-7.841,259.7,268.3,,263.4,263.2,36,260.6,5,5,probe,5,0,109,norm,36,-4.303,up,norm,262.898975634,265.0,271.1,266.4,267.7,3,252.9,262.3,258.8,10,5,7.502,4.64,1.344,-2.094,-4.556,-7.54,258.1,1,153.9,-8.19,-8.403,-20,-8.085,-7.556,-4.94,-4.766,-4.804,-4.666,4.724,8.363,33,-2.004,1.997,4.921,8.233,-7.593,-8.483,-1.586,1.415,256.6,272.9,261.0,267.6,262.7,264.4,264.2,254.3,259.1,265.2,0,norm,1.368,1.442,-1.7,-1.344,-4.894,-4.957,-1.993,-1.147,-1.885,-1.949,1.965,-1.304,263.8,268.4,-4.525,-7.862,1.123,-1.271,7.703,5.214,-5.205,-8.113,3,5.009,4.426,5.019,5.296,1.666,1.294,1.447,1.483,3,5.04,5.125,-20,174.444239631,norm,0,12,12,12,234.618,234.627,234.633684472,234.634,234.636,234.638,up,1,2.8353890609,7.1646109391,001,007,1920_1080,Intel(R) Core(TM) i5-3570 CPU @ 3.40GHz,orientation_search,LEPPC096,Intel(R) HD Graphics 2500,2018_Oct_18_1222,testMonitor,
109.6,98.8,99.3,92.9,36,10,100.1,88.2,87.9,100.6,7.629,8.168,7.642,8.106,8.276,7.774,8.403,5.003,-4.626,-8.299,1.64,-1.586,8.018,5.15,-5.162,-7.749,97.9,102.8,-8.186,89.2,86.5,107.7,93.1,100.2,36,81.3,1,5,prime,10,0,77,norm,36,-4.363,down,norm,97.3534165556,98.1,112.4,99.3,102.0,1,97.6,94.3,97.3,10,6,7.854,4.958,1.208,-1.58,-4.343,-8.202,104.7,6,174.4,-7.927,-7.65,10,-8.193,-8.31,-4.789,-5.168,-4.602,-4.84,4.521,7.6,7,-1.104,1.135,4.893,8.0,-7.885,-8.125,-1.134,2.049,97.0,102.7,97.9,91.8,83.9,92.8,,106.1,94.0,96.5,0,norm,2.075,1.262,-1.317,-1.439,-5.255,-4.546,-2.093,-1.992,-1.631,-1.918,1.557,-1.655,77.4,109.1,-4.353,-8.409,2.082,-1.592,7.951,4.3,-5.291,-8.187,4,4.991,5.212,5.016,4.643,1.888,1.627,1.473,1.695,4,5.293,4.934,30,174.444239631,norm,0,13,13,13,237.49,237.499,237.518658508,237.519,237.521,237.523,down,1,3.62320706772,6.37679293228,001,007,1920_1080,Intel(R) Core(TM) i5-3570 CPU @ 3.40GHz,orientation_search,LEPPC096,Intel(R) HD Graphics 2500,2018_Oct_18_1222,testMonitor,
86.3,91.0,117.4,87.6,36,10,111.3,91.4,84.4,110.7,7.563,7.964,7.818,7.509,8.164,8.01,8.082,5.191,-4.743,-7.827,1.613,-1.984,7.761,4.354,-4.701,-8.344,,103.5,-8.065,83.3,80.5,97.5,105.7,77.4,36,109.9,5,5,prime,10,0,112,norm,36,-4.443,up,norm,97.3534165556,112.2,103.6,110.5,89.6,5,100.6,94.2,104.5,10,6,8.118,5.294,1.245,-1.223,-5.189,-8.152,87.6,6,209.4,-8.113,-8.21,10,-7.79,-8.463,-4.637,-5.008,-5.176,-4.489,4.961,8.083,35,-1.361,1.7,4.737,8.169,-8.315,-8.24,-1.91,1.291,115.8,93.2,95.5,98.8,98.4,92.6,91.8,113.7,87.3,117.2,1,norm,1.977,1.655,-1.356,-1.391,-5.126,-4.321,-1.667,-1.449,-1.148,-1.357,2.084,-1.222,100.1,94.4,-4.603,-7.748,1.46,-1.889,7.956,5.097,-5.037,-7.545,4,4.786,4.497,5.056,4.313,1.69,1.705,1.711,1.201,4,4.692,4.709,30,174.444239631,norm,0,14,14,14,241.179,241.189,241.199973196,241.2,241.202,241.204,up,1,2.92322858947,7.07677141053,001,007,1920_1080,Intel(R) Core(TM) i5-3570 CPU @ 3.40GHz,orientation_search,LEPPC096,Intel(R) HD Graphics 2500,2018_Oct_18_1222,testMonitor,
102.6,117.4,102.2,113.8,36,10,114.5,108.8,102.5,92.0,8.413,8.288,8.474,8.416,7.872,7.969,7.624,5.199,-5.041,-8.461,1.942,-1.464,7.751,4.713,-4.483,-7.842,96.4,89.4,-8.254,89.2,88.7,106.5,,90.0,36,105.2,5,5,prime,10,0,111,norm,36,-4.37,down,norm,97.3534165556,85.5,98.5,96.6,82.2,2,77.4,96.9,96.0,10,6,8.283,4.737,1.49,-1.803,-4.518,-8.185,106.0,6,208.4,-8.072,-7.613,10,-7.989,-7.589,-4.843,-4.485,-5.144,-5.061,4.382,7.967,32,-1.709,1.924,4.419,8.26,-8.202,-7.557,-1.45,1.829,90.9,101.6,96.2,104.4,101.4,104.1,107.1,97.8,107.1,105.6,2,norm,1.359,1.288,-1.648,-1.589,-4.628,-4.388,-1.528,-2.053,-1.539,-1.753,1.758,-2.069,92.0,107.9,-4.821,-7.779,1.983,-1.668,7.754,4.528,-4.604,-8.416,4,4.579,5.028,4.959,4.757,1.204,1.538,1.448,1.571,4,4.659,4.71,30,174.444239631,norm,0,15,15,15,244.165,244.174,244.180735896,244.181,244.183,244.185,up,0,8.23641002749,-10,001,007,1920_1080,Intel(R) Core(TM) i5-3570 CPU @ 3.40GHz,orientation_search,LEPPC096,Intel(R) HD Graphics 2500,2018_Oct_18_1222,testMonitor,
117.4,94.9,86.0,105.6,36,10,92.9,100.8,88.5,103.4,7.84,7.549,7.997,8.309,7.684,8.056,8.479,5.084,-5.217,-8.089,1.311,-1.198,7.693,4.66,-4.879,-7.573,90.0,93.7,-7.511,80.5,84.6,101.6,109.3,,36,92.0,4,5,prime,10,0,101,norm,36,-5.145,down,norm,97.3534165556,91.1,104.6,103.5,104.0,2,87.7,91.2,108.5,10,6,8.069,5.176,1.556,-1.46,-5.081,-8.272,88.4,6,198.4,-7.824,-8.299,10,-7.55,-7.949,-4.34,-4.398,-5.101,-4.725,5.256,7.773,26,-1.77,1.529,4.433,8.336,-7.612,-7.76,-1.155,1.602,77.4,110.6,93.8,105.8,103.2,97.5,105.6,117.3,96.7,99.1,3,norm,1.74,1.249,-1.643,-1.295,-4.526,-4.673,-1.792,-1.199,-1.834,-1.235,1.796,-1.593,107.1,105.2,-5.288,-8.001,1.231,-1.459,8.348,4.919,-4.883,-7.655,4,4.749,4.99,4.629,5.282,1.493,1.137,2.02,1.984,4,5.082,4.544,30,174.444239631,norm,0,16,16,16,253.488,253.497,253.507965586,253.508,253.51,253.512,down,1,0.453556494787,9.54644350521,001,007,1920_1080,Intel(R) Core(TM) i5-3570 CPU @ 3.40GHz,orientation_search,LEPPC096,Intel(R) HD Graphics 2500,2018_Oct_18_1222,testMonitor,
94.4,93.1,101.7,89.6,36,10,106.4,93.0,99.4,81.2,8.431,8.488,7.962,8.474,8.248,8.471,7.674,4.505,-4.721,-8.209,1.816,-1.113,7.817,5.07,-5.224,-8.36,94.7,107.4,-7.546,97.4,111.9,93.2,101.4,77.4,36,110.1,2,5,prime,10,0,86,norm,36,-5.288,up,norm,97.3534165556,,92.2,104.5,96.9,5,101.2,105.2,87.4,10,6,7.664,4.797,1.282,-1.237,-4.319,-7.682,102.5,6,183.4,-8.196,-7.998,10,-7.729,-7.769,-4.63,-4.996,-5.067,-5.142,4.992,7.674,17,-1.65,1.903,4.351,8.369,-7.736,-7.608,-1.722,1.11,104.4,98.8,103.7,105.9,90.7,100.3,95.7,102.5,111.8,94.6,4,norm,1.488,2.05,-1.424,-1.153,-5.083,-5.293,-1.995,-1.295,-1.329,-1.392,2.039,-1.831,117.4,81.0,-4.765,-8.297,1.847,-1.213,7.798,5.083,-4.624,-7.682,4,5.252,5.183,4.858,4.735,1.385,1.574,1.727,1.626,4,4.335,5.194,30,174.444239631,norm,0,17,17,17,253.998,254.008,254.022642735,254.023,254.025,254.027,up,1,3.80410837627,6.19589162373,001,007,1920_1080,Intel(R) Core(TM) i5-3570 CPU @ 3.40GHz,orientation_search,LEPPC096,Intel(R) HD Graphics 2500,2018_Oct_18_1222,testMonitor,
90.1,,92.0,112.0,36,10,92.0,88.3,86.7,97.7,7.624,8.174,7.784,7.655,7.783,8.408,7.682,4.505,-4.999,-7.888,1.851,-1.203,8.019,5.226,-4.666,-7.562,89.4,99.9,-7.853,104.9,90.9,97.6,103.3,101.3,36,98.8,3,5,prime,10,0,84,norm,36,-4.324,up,norm,97.3534165556,97.3,81.3,91.4,101.1,5,81.8,107.4,105.3,10,6,8.066,4.599,2.002,-1.47,-4.74,-8.005,91.6,6,181.4,-7.572,-7.799,10,-7.74,-7.685,-5.239,-4.743,-5.101,-4.81,4.428,7.553,23,-1.887,1.37,4.455,8.067,-7.644,-8.262,-1.63,1.196,97.4,98.9,117.4,114.9,101.6,98.9,115.2,95.7,110.8,103.0,5,norm,1.391,1.756,-2.066,-1.307,-4.993,-4.39,-1.636,-1.769,-1.311,-1.617,1.126,-1.445,86.8,77.4,-4.64,-8.411,1.983,-1.648,7.941,4.688,-4.746,-7.82,4,5.029,4.683,4.772,4.303,1.846,1.38,1.576,1.512,4,4.939,4.952,30,174.444239631,norm,0,18,18,18,257.864,257.874,257.891089151,257.891,257.893,257.896,up,1,5.12185524695,4.87814475305,001,007,1920_1080,Intel(R) Core(TM) i5-3570 CPU @ 3.40GHz,orientation_search,LEPPC096,Intel(R) HD Graphics 2500,2018_Oct_18_1222,testMonitor,
201.0,197.3,191.3,204.2,36,60,198.4,206.3,209.4,196.5,7.671,8.247,7.893,8.489,7.939,7.577,8.339,4.503,-5.285,-8.134,2.022,-1.605,8.328,4.454,-5.18,-8.313,198.3,203.9,-8.419,,207.7,199.0,200.8,197.1,36,205.6,5,5,probe,5,0,95,norm,36,-4.986,down,norm,201.347290606,199.0,203.1,194.8,199.8,1,198.4,200.0,209.5,10,6,8.26,4.477,1.531,-1.998,-4.472,-8.467,197.5,2,106.3,-7.534,-8.461,10,-7.881,-8.366,-5.008,-4.729,-5.122,-4.39,5.276,8.075,31,-1.843,1.799,4.829,7.814,-8.311,-8.487,-1.635,1.115,203.2,203.2,207.1,199.4,199.3,210.9,211.3,193.8,210.7,204.8,0,norm,1.286,1.361,-1.322,-1.352,-4.636,-4.92,-1.734,-2.038,-1.254,-1.886,1.111,-1.808,208.1,201.5,-4.534,-7.562,1.136,-1.316,7.833,4.607,-4.598,-8.421,5,4.333,4.419,4.499,4.558,1.157,1.982,1.957,1.237,5,4.785,5.091,10,97.3534165556,norm,0,19,19,19,263.05,263.06,263.070442589,263.071,263.073,263.075,down,1,4.46323732496,5.53676267504,001,007,1920_1080,Intel(R) Core(TM) i5-3570 CPU @ 3.40GHz,orientation_search,LEPPC096,Intel(R) HD Graphics 2500,2018_Oct_18_1222,testMonitor,
173.4,167.2,179.3,171.8,36,60,177.2,176.2,179.4,169.1,7.743,7.8,7.611,7.75,8.487,7.75,7.636,4.604,-4.531,-8.089,1.413,-2.032,8.423,5.227,-4.746,-7.685,179.3,179.5,-8.406,174.4,165.7,166.3,168.6,176.5,36,174.8,2,5,probe,5,0,68,norm,36,-4.732,down,norm,174.347290606,164.3,165.4,174.9,176.1,0,166.7,172.4,,10,6,8.283,4.396,1.787,-1.703,-4.885,-7.935,171.7,2,106.3,-7.58,-7.756,10,-7.507,-7.653,-4.316,-4.35,-4.374,-4.588,4.97,8.055,12,-1.889,1.824,5.094,7.567,-7.78,-7.618,-1.539,1.417,184.3,170.0,177.9,177.6,180.8,166.1,176.6,169.7,181.3,174.4,1,norm,1.164,1.603,-2.041,-1.896,-5.13,-4.73,-1.699,-1.544,-1.414,-1.63,1.869,-2.065,180.4,183.3,-4.648,-8.124,1.427,-1.64,8.319,5.168,-4.511,-8.173,5,5.223,5.024,5.092,4.939,2.072,1.405,1.452,1.942,5,5.146,5.104,10,97.3534165556,norm,0,20,20,20,267.571,267.583,267.609722062,267.61,267.612,267.614,down,1,2.65314423235,7.34685576765,001,007,1920_1080,Intel(R) Core(TM) i5-3570 CPU @ 3.40GHz,orientation_search,LEPPC096,Intel(R) HD Graphics 2500,2018_Oct_18_1222,testMonitor,
23.4,25.7,38.2,27.6,36,-20,18.3,20.3,26.0,15.3,7.724,7.569,8.011,8.087,8.015,7.58,7.607,4.766,-5.213,-7.998,1.583,-1.394,8.291,5.214,-4.6,-7.658,16.6,8.7,-7.806,2.7,22.7,9.0,12.6,22.2,36,41.0,2,5,prime,10,0,68,norm,36,-4.396,down,norm,20.9719479293,30.8,24.5,5.6,,2,20.2,18.5,19.6,10,6,8.038,4.776,1.195,-1.287,-4.447,-8.47,11.6,6,89.0,-8.355,-7.908,-20,-7.674,-8.46,-4.693,-4.88,-5.004,-4.397,4.52,7.695,14,-1.102,1.794,4.522,8.272,-8.347,-8.415,-1.903,1.754,11.3,14.6,1.0,30.1,16.2,31.1,23.3,31.2,1.5,19.5,0,norm,1.26,1.268,-1.235,-1.427,-4.447,-4.56,-1.261,-1.231,-1.927,-1.546,1.442,-1.765,13.7,31.4,-4.573,-7.897,1.279,-1.174,8.17,4.441,-4.577,-8.166,6,5.135,5.116,4.488,5.226,1.116,1.203,1.664,1.442,6,4.595,5.09,60,97.3534165556,norm,0,21,21,21,270.31,270.33,270.341697206,270.342,270.344,270.347,down,1,4.39595235535,5.60404764465,001,007,1920_1080,Intel(R) Core(TM) i5-3570 CPU @ 3.40GHz,orientation_search,LEPPC096,Intel(R) HD Graphics 2500,2018_Oct_18_1222,testMonitor,
39.8,30.0,28.9,15.3,36,-20,2.9,5.0,19.0,35.9,7.629,7.812,7.704,8.054,8.298,7.537,8.387,5.072,-5.14,-8.045,1.417,-1.541,8.417,4.535,-5.112,-8.174,16.4,17.6,-7.573,19.2,28.2,19.8,14.7,39.9,36,29.2,2,5,prime,10,0,70,norm,36,-4.789,up,norm,20.9719479293,,8.8,12.0,1.0,5,16.5,17.2,14.1,10,6,7.69,4.688,1.453,-1.361,-5.199,-7.654,27.1,6,91.0,-8.376,-8.154,-20,-7.624,-8.127,-5.176,-5.187,-5.203,-4.984,4.977,8.212,17,-2.019,1.848,4.412,7.992,-8.329,-8.289,-1.957,1.584,9.5,21.2,24.3,15.7,23.0,41.0,16.3,27.7,22.7,22.7,1,norm,1.949,1.648,-1.793,-1.318,-4.94,-4.572,-2.08,-1.906,-1.354,-1.375,2.077,-2.082,12.7,16.9,-4.506,-8.354,1.55,-1.455,8.414,4.961,-4.565,-7.902,6,4.572,5.152,4.389,4.947,1.918,1.449,1.299,1.858,6,4.683,4.842,60,97.3534165556,norm,0,22,22,22,274.775,274.789,274.807365001,274.808,274.809,274.812,up,1,1.48350422387,8.51649577613,001,007,1920_1080,Intel(R) Core(TM) i5-3570 CPU @ 3.40GHz,orientation_search,LEPPC096,Intel(R) HD Graphics 2500,2018_Oct_18_1222,testMonitor,
24.2,30.8,11.0,23.9,36,-20,26.6,1.0,26.2,24.2,7.598,7.975,7.76,7.84,7.933,7.966,7.555,4.436,-5.004,-8.355,2.069,-1.367,7.5,4.829,-4.878,-8.155,35.8,26.5,-8.4,14.4,17.6,9.0,10.4,12.7,36,21.4,2,5,prime,10,0,117,norm,36,-4.413,down,norm,20.9719479293,13.5,31.2,22.7,22.8,0,25.4,12.0,,10,6,8.19,4.376,1.878,-2.085,-5.262,-8.174,15.2,6,138.0,-8.413,-8.192,-20,-8.172,-7.781,-5.112,-4.779,-5.256,-4.327,5.227,7.537,12,-1.402,1.363,5.23,7.702,-7.571,-7.583,-1.313,1.824,27.7,20.9,41.0,23.4,38.0,27.4,3.5,29.8,24.7,24.5,2,norm,2.025,1.737,-1.338,-2.012,-5.281,-4.357,-1.955,-1.432,-1.288,-1.587,1.209,-1.83,24.7,23.1,-4.714,-8.295,1.547,-1.476,7.844,5.085,-5.27,-7.632,6,4.3,5.06,4.919,4.943,1.801,1.962,1.904,1.466,6,4.552,4.804,60,97.3534165556,norm,0,23,23,23,276.312,276.322,276.329595866,276.33,276.331,276.334,down,1,0.943044227432,9.05695577257,001,007,1920_1080,Intel(R) Core(TM) i5-3570 CPU @ 3.40GHz,orientation_search,LEPPC096,Intel(R) HD Graphics 2500,2018_Oct_18_1222,testMonitor,
27.6,8.6,26.9,20.2,36,-20,21.5,12.5,,9.2,8.239,7.993,7.529,7.894,8.31,8.36,7.528,4.65,-4.524,-7.857,1.293,-1.602,8.142,4.932,-5.149,-7.978,12.6,26.6,-7.992,27.7,15.5,41.0,5.1,9.2,36,36.1,4,5,prime,10,0,98,norm,36,-5.149,up,norm,20.9719479293,16.2,10.1,25.7,13.2,4,19.5,21.9,11.9,10,6,7.67,5.172,1.933,-1.163,-4.587,-8.44,16.1,6,119.0,-7.549,-8.365,-20,-7.647,-8.267,-5.291,-4.817,-4.308,-5.171,4.673,7.635,28,-1.494,1.227,5.013,7.688,-7.817,-7.883,-1.852,1.548,24.1,22.2,1.0,25.0,15.0,32.5,13.0,17.2,23.8,20.1,3,norm,1.273,1.441,-1.409,-1.614,-4.623,-5.014,-1.889,-1.573,-1.646,-1.58,1.592,-2.082,24.8,15.8,-4.314,-8.285,1.98,-1.177,7.937,5.038,-4.549,-8.276,6,4.4,5.218,5.25,4.881,1.443,2.022,2.061,1.275,6,4.346,4.921,60,97.3534165556,norm,0,24,24,24,277.31,277.32,277.328022339,277.328,277.33,277.332,up,1,1.06309654366,8.93690345634,001,007,1920_1080,Intel(R) Core(TM) i5-3570 CPU @ 3.40GHz,orientation_search,LEPPC096,Intel(R) HD Graphics 2500,2018_Oct_18_1222,testMonitor,
30.1,4.1,,14.6,36,-20,19.7,1.4,16.2,10.7,8.26,7.613,8.332,8.181,7.855,7.796,8.424,5.079,-4.466,-7.998,1.218,-1.315,8.354,5.023,-4.478,-7.82,18.5,41.0,-7.956,1.0,11.0,24.4,37.0,6.8,36,11.0,3,5,prime,10,0,68,norm,36,-4.799,down,norm,20.9719479293,28.1,27.7,12.5,29.4,2,30.6,13.0,29.3,10,6,7.798,5.182,1.8,-1.845,-4.905,-7.569,8.4,6,89.0,-7.862,-8.38,-20,-7.962,-7.557,-5.126,-4.94,-4.63,-4.891,4.747,8.369,20,-1.218,2.018,4.997,7.519,-8.21,-8.038,-1.712,1.903,29.6,21.5,2.7,11.8,11.8,28.0,12.9,16.1,19.7,20.3,4,norm,1.187,1.261,-1.812,-1.783,-5.198,-4.586,-1.845,-1.783,-1.629,-1.633,1.372,-1.483,23.5,19.0,-4.742,-8.025,2.088,-1.271,8.478,4.936,-4.794,-8.374,6,5.297,4.672,4.98,4.698,1.134,1.145,1.617,1.883,6,4.735,4.594,60,97.3534165556,norm,0,25,25,25,278.437,278.457,278.468941927,278.469,278.471,278.474,down,1,2.07775844948,7.92224155052,001,007,1920_1080,Intel(R) Core(TM) i5-3570 CPU @ 3.40GHz,orientation_search,LEPPC096,Intel(R) HD Graphics 2500,2018_Oct_18_1222,testMonitor,
1.0,39.7,35.1,29.4,36,-20,9.6,12.0,20.9,29.6,7.972,8.364,7.847,7.572,7.62,8.307,7.888,4.914,-4.754,-8.09,1.637,-1.7,7.816,4.695,-5.219,-7.707,26.7,29.2,-8.165,16.5,16.1,,15.4,33.2,36,24.6,5,5,prime,10,0,105,norm,36,-4.908,up,norm,20.9719479293,14.4,5.5,20.1,23.1,3,3.3,20.0,17.5,10,6,8.307,4.796,1.24,-1.376,-5.056,-7.729,6.1,6,126.0,-8.28,-7.92,-20,-8.229,-8.398,-4.378,-5.086,-4.579,-4.354,5.137,8.404,33,-1.539,1.218,4.442,7.701,-7.515,-7.805,-1.411,1.131,25.8,29.0,37.6,20.5,41.0,34.9,21.1,22.0,30.2,30.3,5,norm,2.023,1.836,-1.69,-1.149,-4.34,-4.477,-1.403,-1.867,-1.535,-1.672,1.534,-2.061,28.9,30.4,-4.803,-7.922,1.357,-1.868,7.994,5.026,-5.266,-8.102,6,4.919,4.416,4.309,4.807,1.529,1.145,1.826,1.132,6,4.38,5.03,60,97.3534165556,norm,0,26,26,26,280.585,280.595,280.603956789,280.604,280.606,280.608,up,1,1.53394402971,8.46605597029,001,007,1920_1080,Intel(R) Core(TM) i5-3570 CPU @ 3.40GHz,orientation_search,LEPPC096,Intel(R) HD Graphics 2500,2018_Oct_18_1222,testMonitor,
117.7,109.3,125.9,118.2,36,-40,124.0,122.1,116.3,122.9,8.367,8.272,7.803,7.714,7.928,7.721,7.944,5.056,-4.96,-7.934,1.237,-1.18,8.403,5.075,-4.608,-7.605,123.3,119.9,-8.111,120.9,121.1,118.6,119.0,118.7,36,125.6,0,5,probe,5,0,114,norm,36,-4.63,up,norm,119.302584032,124.6,115.9,116.2,118.1,5,120.6,121.3,119.9,10,6,7.536,4.496,1.933,-2.065,-4.885,-7.849,123.7,2,5.3,-8.054,-7.511,-20,-8.22,-7.99,-4.727,-5.051,-4.434,-4.487,5.056,7.566,5,-1.588,1.589,4.309,8.326,-8.424,-8.073,-1.678,1.533,120.8,122.5,117.5,115.5,113.9,123.3,116.6,110.7,,116.7,0,norm,1.152,1.492,-1.52,-1.291,-4.472,-4.547,-2.075,-1.618,-2.031,-1.849,1.212,-1.926,129.3,118.4,-4.696,-7.586,1.877,-1.228,7.511,5.259,-4.353,-8.072,7,4.8,4.594,4.327,4.624,1.819,1.801,1.574,1.763,7,5.1,5.0,-20,20.9719479293,norm,0,27,27,27,282.18,282.19,282.195984291,282.196,282.198,282.2,up,1,1.84181779379,8.15818220621,001,007,1920_1080,Intel(R) Core(TM) i5-3570 CPU @ 3.40GHz,orientation_search,LEPPC096,Intel(R) HD Graphics 2500,2018_Oct_18_1222,testMonitor,
81.1,89.5,87.0,89.1,36,-40,73.6,81.2,73.0,92.3,8.354,8.324,7.704,8.401,8.323,8.038,8.061,5.102,-4.916,-8.346,1.142,-1.999,7.861,5.277,-4.4,-7.703,,85.0,-7.596,83.7,86.8,85.8,77.8,72.3,36,92.0,5,5,probe,5,0,77,norm,36,-4.441,up,norm,82.3025840318,79.8,88.0,86.7,80.6,5,89.0,82.9,82.1,10,6,8.035,5.263,1.23,-1.875,-4.368,-7.627,77.5,2,5.3,-7.643,-7.725,-20,-8.36,-8.384,-5.204,-4.956,-4.881,-4.731,4.473,8.496,35,-1.825,1.313,5.237,8.136,-8.323,-8.178,-1.861,1.828,84.2,85.4,88.4,78.4,78.9,78.1,86.9,84.1,80.4,79.1,1,norm,1.752,1.6,-2.096,-1.642,-4.326,-4.562,-1.519,-1.454,-1.369,-2.024,1.409,-1.841,82.1,75.9,-4.472,-7.83,1.29,-1.474,7.638,5.252,-5.085,-8.413,7,4.971,4.847,4.638,5.129,1.15,1.862,1.861,1.282,7,5.012,4.442,-20,20.9719479293,norm,0,28,28,28,284.084,284.104,284.11581982,284.116,284.118,284.121,up,1,1.65736767265,8.34263232735,001,007,1920_1080,Intel(R) Core(TM) i5-3570 CPU @ 3.40GHz,orientation_search,LEPPC096,Intel(R) HD Graphics 2500,2018_Oct_18_1222,testMonitor,
290.0,288.7,267.0,301.5,36,80,282.1,,287.3,307.0,8.364,8.268,7.844,8.058,7.893,8.107,7.973,5.199,-5.219,-8.354,1.938,-1.631,8.492,5.264,-4.678,-7.581,281.9,298.9,-8.447,292.0,269.0,286.0,284.7,296.8,36,283.1,4,5,prime,10,0,82,norm,36,-4.802,down,norm,287.021069942,295.6,278.8,275.0,281.0,1,296.3,289.5,293.6,10,6,8.438,4.998,1.238,-1.613,-4.537,-8.261,292.4,6,369.0,-7.939,-7.832,80,-8.159,-7.585,-4.955,-5.134,-4.323,-4.336,4.638,7.592,25,-1.752,1.473,5.138,8.052,-8.075,-7.912,-2.072,1.985,290.5,287.4,286.5,272.5,284.7,297.0,297.8,290.4,287.0,282.5,0,norm,1.85,1.379,-1.75,-1.536,-4.71,-4.79,-1.614,-1.136,-1.114,-1.85,1.838,-1.442,295.5,284.9,-4.989,-7.78,1.496,-1.729,7.676,4.41,-4.901,-8.354,8,4.633,5.233,4.468,4.953,1.442,1.458,1.14,1.387,8,4.393,4.552,-40,20.9719479293,norm,0,29,29,29,285.811,285.82,285.829615939,285.83,285.832,285.834,down,1,1.12657733809,8.87342266191,001,007,1920_1080,Intel(R) Core(TM) i5-3570 CPU @ 3.40GHz,orientation_search,LEPPC096,Intel(R) HD Graphics 2500,2018_Oct_18_1222,testMonitor,
302.3,290.8,281.9,,36,80,274.4,293.6,291.2,289.3,8.398,7.918,8.012,8.343,8.16,8.345,8.331,4.816,-4.686,-7.53,1.595,-1.318,7.574,4.314,-5.218,-7.861,278.7,292.3,-8.124,280.0,278.8,274.9,289.5,275.3,36,294.5,3,5,prime,10,0,94,norm,36,-4.644,up,norm,287.021069942,294.2,284.0,285.7,273.2,3,295.0,307.0,293.2,10,6,7.509,5.062,1.9,-1.113,-4.803,-7.719,278.5,6,381.0,-8.331,-8.046,80,-8.11,-8.029,-5.048,-4.609,-4.442,-5.204,4.457,8.439,21,-1.446,1.826,4.81,8.281,-7.7,-8.458,-1.551,1.577,267.0,284.6,282.1,271.8,291.3,295.4,282.0,290.7,298.1,288.4,1,norm,1.608,1.417,-1.68,-1.221,-5.275,-4.819,-1.635,-1.904,-1.195,-1.203,1.975,-2.075,269.1,281.7,-4.381,-8.477,1.495,-1.685,8.05,5.282,-5.215,-7.612,8,4.984,4.832,4.881,4.593,1.609,1.486,1.701,1.815,8,4.995,5.059,-40,20.9719479293,norm,0,30,30,30,287.0,287.01,287.016267429,287.016,287.018,287.021,up,1,0.926325839362,9.07367416064,001,007,1920_1080,Intel(R) Core(TM) i5-3570 CPU @ 3.40GHz,orientation_search,LEPPC096,Intel(R) HD Graphics 2500,2018_Oct_18_1222,testMonitor,
302.9,299.7,285.8,285.5,36,80,298.7,287.1,298.1,301.1,8.054,8.21,7.698,7.692,8.059,7.719,7.942,4.575,-4.319,-8.497,1.398,-1.808,8.03,4.541,-4.355,-7.583,277.6,281.1,-8.308,307.0,280.1,286.0,302.2,292.8,36,298.5,3,5,prime,10,0,97,norm,36,-4.436,down,norm,287.021069942,294.7,295.5,297.4,302.7,1,283.9,279.4,293.8,10,6,7.681,4.629,1.249,-1.74,-5.072,-7.728,302.2,6,384.0,-7.844,-7.876,80,-8.252,-7.949,-5.148,-4.942,-5.009,-4.499,4.923,7.69,19,-1.227,1.493,4.44,8.476,-8.091,-7.601,-1.111,1.798,300.5,297.6,301.3,300.5,285.4,292.9,304.1,294.4,267.0,277.0,2,norm,1.925,1.312,-1.165,-1.394,-4.777,-5.215,-1.34,-1.512,-1.619,-1.269,1.706,-1.296,,281.8,-5.133,-7.875,1.789,-1.263,7.545,4.875,-4.737,-7.648,8,4.674,4.735,4.438,4.552,2.077,1.993,2.008,1.918,8,4.882,4.578,-40,20.9719479293,norm,0,31,31,31,287.967,287.977,287.98340386,287.984,287.985,287.988,down,1,1.02732769912,8.97267230088,001,007,1920_1080,Intel(R) Core(TM) i5-3570 CPU @ 3.40GHz,orientation_search,LEPPC096,Intel(R) HD Graphics 2500,2018_Oct_18_1222,testMonitor,
267.0,285.1,303.6,279.4,36,80,297.0,295.2,285.9,298.7,7.772,8.183,8.16,7.723,7.942,8.452,7.66,4.673,-5.031,-8.27,1.422,-1.911,8.111,5.186,-5.194,-8.463,279.4,274.6,-7.747,269.8,,296.8,292.7,285.0,36,274.3,5,5,prime,10,0,82,norm,36,-4.806,down,norm,287.021069942,288.8,296.8,292.8,289.7,0,273.8,286.3,303.9,10,6,7.705,4.558,1.251,-1.564,-4.65,-8.086,304.9,6,369.0,-8.315,-7.633,80,-7.523,-8.195,-5.003,-4.37,-4.369,-4.689,4.526,8.057,30,-2.075,1.529,4.645,7.912,-7.817,-7.762,-1.583,1.826,299.1,287.8,307.0,306.9,290.5,292.3,267.4,275.6,277.8,289.8,3,norm,1.836,1.232,-1.563,-1.572,-4.512,-5.226,-1.725,-1.545,-1.933,-1.468,1.428,-1.925,286.4,283.5,-4.65,-7.803,1.409,-1.545,8.149,4.779,-4.854,-7.596,8,5.289,5.131,4.903,5.203,1.823,1.839,1.4,2.017,8,4.617,4.694,-40,20.9719479293,norm,0,32,32,32,289.048,289.061,289.080675497,289.081,289.083,289.085,up,0,2.46601371164,-10,001,007,1920_1080,Intel(R) Core(TM) i5-3570 CPU @ 3.40GHz,orientation_search,LEPPC096,Intel(R) HD Graphics 2500,2018_Oct_18_1222,testMonitor,
288.6,286.3,277.5,285.5,36,80,285.7,306.4,280.8,291.5,7.69,7.562,7.81,8.201,8.086,7.747,8.104,4.908,-4.483,-8.314,1.313,-1.71,8.416,4.973,-4.586,-8.061,,271.0,-7.833,286.4,298.5,302.3,291.0,286.8,36,293.1,5,5,prime,10,0,105,norm,36,-4.945,up,norm,287.021069942,300.2,278.7,282.2,289.8,5,286.9,277.5,290.7,10,6,7.671,4.32,1.907,-1.846,-5.166,-7.746,307.0,6,392.0,-8.431,-7.69,80,-8.159,-7.931,-5.069,-5.086,-4.993,-4.99,4.471,8.295,35,-1.846,1.408,4.869,7.782,-8.032,-8.416,-1.283,1.792,287.7,287.9,296.2,275.5,289.4,283.4,285.0,267.0,284.9,281.2,4,norm,1.218,1.526,-1.454,-1.321,-4.365,-4.662,-1.667,-1.153,-1.798,-1.678,1.737,-1.537,282.4,277.5,-5.024,-8.142,1.599,-1.557,8.026,4.844,-4.861,-7.596,8,4.802,4.311,4.651,5.021,1.573,1.929,1.247,1.252,8,4.681,4.871,-40,20.9719479293,norm,0,33,33,33,292.62,292.629,292.646622833,292.647,292.649,292.651,down,0,0.365777637227,-10,001,007,1920_1080,Intel(R) Core(TM) i5-3570 CPU @ 3.40GHz,orientation_search,LEPPC096,Intel(R) HD Graphics 2500,2018_Oct_18_1222,testMonitor,
290.6,267.0,,283.8,36,80,297.6,276.6,278.7,298.0,8.412,8.322,7.922,8.387,8.019,8.457,7.765,4.671,-4.721,-7.653,1.814,-1.421,8.241,4.691,-4.717,-7.968,279.7,298.9,-7.638,278.6,282.8,282.3,277.8,297.3,36,299.3,3,5,prime,10,0,100,norm,36,-4.912,down,norm,287.021069942,282.5,296.2,302.0,268.8,2,288.6,278.0,307.0,10,6,8.479,4.328,1.735,-1.146,-4.761,-8.095,272.9,6,387.0,-8.024,-8.035,80,-7.678,-8.249,-4.505,-5.149,-4.629,-5.292,5.25,8.23,20,-1.671,1.765,4.504,8.351,-7.504,-7.69,-1.153,1.898,283.6,291.2,284.3,276.7,277.6,296.2,288.5,286.3,274.9,287.5,5,norm,1.403,1.635,-1.226,-1.152,-4.648,-4.934,-1.119,-2.099,-1.922,-1.208,1.936,-1.873,286.9,284.8,-4.446,-7.777,1.316,-1.886,8.188,4.613,-5.152,-8.426,8,5.238,4.898,4.427,5.16,1.164,1.125,1.583,1.559,8,5.151,4.85,-40,20.9719479293,norm,0,34,34,34,294.071,294.08,294.097477195,294.098,294.099,294.102,down,1,0.417432074668,9.58256792533,001,007,1920_1080,Intel(R) Core(TM) i5-3570 CPU @ 3.40GHz,orientation_search,LEPPC096,Intel(R) HD Graphics 2500,2018_Oct_18_1222,testMonitor,
493.0,494.0,487.9,489.1,36,0,496.7,494.6,493.6,493.2,8.205,7.898,8.235,7.918,7.704,8.426,7.769,5.166,-4.526,-7.746,2.085,-1.522,8.463,5.057,-4.768,-8.039,,479.8,-8.158,490.6,487.1,484.4,492.6,489.5,36,493.4,5,5,probe,5,0,116,norm,36,-4.402,up,norm,489.828378583,497.1,493.2,490.4,480.2,5,492.1,498.5,486.2,10,6,8.116,5.114,1.169,-1.306,-4.579,-7.736,494.6,2,373.8,-7.989,-7.595,80,-8.158,-7.651,-4.825,-4.943,-5.089,-4.958,5.208,7.979,35,-1.803,1.556,5.23,7.982,-8.466,-8.158,-1.93,1.457,481.9,485.5,488.0,493.8,499.8,491.7,491.7,490.7,499.0,499.7,0,norm,2.039,1.764,-1.31,-1.628,-4.998,-4.915,-1.929,-1.23,-1.57,-1.66,1.628,-1.512,486.8,486.6,-4.881,-7.903,1.844,-1.525,8.408,4.473,-4.793,-7.618,9,4.464,5.165,4.793,4.797,1.191,1.146,1.441,2.078,9,4.36,5.22,80,287.021069942,norm,0,35,35,35,294.536,294.545,294.551769894,294.552,294.554,294.556,up,1,2.04587829718,7.95412170282,001,007,1920_1080,Intel(R) Core(TM) i5-3570 CPU @ 3.40GHz,orientation_search,LEPPC096,Intel(R) HD Graphics 2500,2018_Oct_18_1222,testMonitor,
,488.6,492.1,498.4,36,0,491.4,486.6,495.4,490.1,7.97,8.11,7.641,7.678,7.687,8.007,7.565,4.557,-4.985,-7.673,1.367,-1.717,8.345,5.277,-4.816,-8.478,484.9,495.0,-7.75,489.5,488.6,497.0,495.0,484.2,36,499.2,3,5,probe,5,0,117,norm,36,-4.816,up,norm,490.828378583,480.8,490.6,498.0,494.3,4,492.8,492.9,494.5,10,6,7.986,5.014,1.647,-1.883,-4.357,-8.197,485.0,2,373.8,-7.976,-7.502,80,-8.244,-7.561,-4.89,-4.575,-4.965,-4.833,4.992,8.213,22,-1.205,1.804,4.471,8.074,-8.215,-7.934,-1.489,1.384,493.1,494.4,485.7,485.6,496.9,496.5,487.3,488.7,496.1,493.4,1,norm,1.429,1.224,-1.198,-1.9,-5.066,-4.773,-1.819,-1.61,-1.967,-1.271,1.74,-2.022,493.4,486.5,-4.406,-8.087,1.886,-1.126,8.409,5.279,-4.706,-7.559,9,4.594,4.343,5.187,5.114,1.851,1.711,1.73,2.072,9,5.105,5.257,80,287.021069942,norm,0,36,36,36,296.641,296.663,296.67333084,296.674,296.675,296.678,up,1,1.68813370843,8.31186629157,001,007,1920_1080,Intel(R) Core(TM) i5-3570 CPU @ 3.40GHz,orientation_search,LEPPC096,Intel(R) HD Graphics 2500,2018_Oct_18_1222,testMonitor,
254.4,237.9,241.0,264.7,36,40,235.7,246.8,226.8,239.6,8.038,8.177,7.989,8.193,7.519,7.952,7.621,4.35,-4.931,-7.643,1.162,-1.434,7.546,5.061,-4.412,-7.931,251.6,239.2,-8.257,230.6,246.1,244.4,256.9,266.8,36,260.2,0,5,prime,10,0,95,norm,36,-4.891,down,norm,246.791191449,257.0,231.0,237.0,237.5,1,235.0,233.2,245.6,10,5,7.679,4.408,1.738,-1.92,-4.409,-7.68,238.4,5,341.8,-7.535,-8.404,40,-8.064,-7.629,-4.949,-4.869,-4.914,-4.633,5.209,7.883,1,-1.103,1.209,4.538,7.569,-8.178,-7.827,-1.549,1.285,230.3,258.9,248.3,243.2,,238.0,236.1,250.9,242.8,238.2,0,norm,1.815,2.074,-1.555,-1.86,-4.963,-5.178,-1.644,-1.79,-1.139,-1.539,1.363,-1.474,250.9,255.7,-5.144,-7.56,1.971,-2.082,7.624,4.328,-5.255,-8.274,10,4.555,4.383,4.642,4.544,1.53,1.676,1.541,1.802,10,4.725,5.108,0,287.021069942,norm,0,37,37,37,298.403,298.413,298.419276359,298.419,298.421,298.424,down,1,2.96978815494,7.03021184506,001,007,1920_1080,Intel(R) Core(TM) i5-3570 CPU @ 3.40GHz,orientation_search,LEPPC096,Intel(R) HD Graphics 2500,2018_Oct_18_1222,testMonitor,
226.8,239.1,247.1,257.9,36,40,228.8,253.9,258.3,266.8,7.897,7.518,7.501,8.149,8.126,8.105,7.795,4.377,-4.583,-8.111,1.369,-1.602,7.814,5.178,-5.188,-7.779,241.3,249.8,-7.729,243.9,243.3,232.8,247.5,242.1,36,253.8,1,5,prime,10,0,109,norm,36,-4.7,up,norm,246.791191449,239.2,257.4,250.6,249.6,3,245.6,250.9,248.7,10,5,8.106,4.796,2.093,-1.9,-5.241,-8.333,248.2,5,355.8,-8.476,-8.496,40,-8.389,-8.018,-4.345,-5.275,-5.06,-5.076,4.808,8.408,9,-1.102,1.952,5.136,7.63,-8.046,-7.756,-1.967,1.201,,250.4,244.0,247.3,262.5,239.5,264.8,246.0,236.3,232.5,1,norm,1.158,1.224,-1.684,-1.677,-4.76,-4.728,-1.633,-1.539,-1.151,-1.339,1.724,-1.734,250.5,239.4,-4.485,-8.094,1.731,-1.783,8.453,4.542,-4.819,-8.029,10,4.708,5.28,4.669,4.426,1.924,1.4,1.424,1.414,10,4.377,4.461,0,287.021069942,norm,0,38,38,38,301.427,301.436,301.4445352,301.445,301.446,301.449,up,1,1.28254489449,8.71745510551,001,007,1920_1080,Intel(R) Core(TM) i5-3570 CPU @ 3.40GHz,orientation_search,LEPPC096,Intel(R) HD Graphics 2500,2018_Oct_18_1222,testMonitor,
250.8,260.0,260.3,233.8,36,40,233.8,247.6,255.1,,7.905,8.205,7.868,8.021,7.773,8.065,8.37,4.999,-4.613,-8.426,1.292,-1.106,8.327,4.544,-5.112,-7.624,244.3,244.4,-8.157,255.1,244.2,251.1,257.8,245.0,36,243.7,4,5,prime,10,0,90,norm,36,-4.644,up,norm,246.791191449,243.2,240.5,249.4,237.9,5,258.8,248.8,248.7,10,5,8.125,4.942,1.408,-1.836,-4.382,-8.265,239.2,5,336.8,-8.169,-7.981,40,-7.579,-7.908,-4.638,-4.817,-5.061,-4.52,4.377,7.705,29,-1.328,1.268,4.45,8.154,-7.881,-8.427,-1.733,1.191,241.5,236.9,259.2,226.8,242.6,258.4,266.8,235.1,245.4,262.8,2,norm,1.769,2.093,-1.806,-1.678,-4.371,-5.286,-1.687,-1.475,-1.281,-1.817,1.54,-1.192,253.1,240.0,-4.683,-7.797,1.931,-1.22,8.301,4.609,-5.285,-8.028,10,4.881,4.807,4.522,4.514,1.455,1.99,1.302,1.827,10,4.337,4.309,0,287.021069942,norm,0,39,39,39,302.764,302.774,302.786167811,302.786,302.788,302.791,up,1,1.07765159581,8.92234840419,001,007,1920_1080,Intel(R) Core(TM) i5-3570 CPU @ 3.40GHz,orientation_search,LEPPC096,Intel(R) HD Graphics 2500,2018_Oct_18_1222,testMonitor,
244.3,248.8,247.1,249.9,36,40,266.8,235.4,241.4,256.1,8.322,7.937,7.704,8.072,7.942,7.587,7.758,5.208,-4.674,-7.724,1.171,-1.895,8.297,4.342,-5.174,-8.001,250.3,248.5,-7.7,244.0,241.0,,248.1,239.2,36,233.1,5,5,prime,10,0,108,norm,36,-4.528,up,norm,246.791191449,238.4,226.8,244.8,246.0,3,257.2,227.4,240.0,10,5,8.045,4.875,2.04,-1.607,-4.845,-7.966,249.1,5,354.8,-8.215,-8.064,40,-8.106,-8.38,-4.766,-4.466,-4.567,-4.992,4.938,8.279,33,-1.857,1.292,4.544,8.101,-8.002,-7.619,-1.798,2.086,229.6,227.4,252.6,226.8,257.7,238.5,241.4,239.7,244.5,252.1,3,norm,2.086,1.906,-1.641,-2.041,-4.701,-4.886,-1.483,-1.122,-1.533,-1.28,1.134,-1.608,227.9,256.7,-5.261,-7.964,1.679,-1.795,8.257,5.292,-5.158,-8.115,10,4.922,5.26,5.198,5.248,1.637,2.064,2.042,1.802,10,4.804,5.297,0,287.021069942,norm,0,40,40,40,303.901,303.914,303.933434935,303.934,303.935,303.938,up,1,1.25595913478,8.74404086522,001,007,1920_1080,Intel(R) Core(TM) i5-3570 CPU @ 3.40GHz,orientation_search,LEPPC096,Intel(R) HD Graphics 2500,2018_Oct_18_1222,testMonitor,
240.7,250.4,241.8,232.6,36,40,234.2,250.3,241.6,264.7,7.93,8.298,7.678,7.588,7.665,8.051,7.964,4.977,-5.035,-7.775,1.243,-1.631,8.41,4.638,-4.342,-7.572,239.6,234.7,-8.319,247.8,248.6,257.0,,248.5,36,232.0,5,5,prime,10,0,66,norm,36,-4.912,down,norm,246.791191449,245.6,237.8,235.1,245.2,2,236.5,249.7,266.8,10,5,8.189,4.696,1.128,-1.57,-4.637,-7.999,229.9,5,312.8,-7.872,-7.989,40,-8.254,-8.229,-4.997,-4.323,-4.302,-4.832,5.045,7.549,32,-2.093,1.835,4.979,7.828,-8.028,-8.387,-1.465,1.406,251.6,226.8,241.2,236.4,257.7,228.4,255.5,241.9,238.9,261.5,4,norm,1.621,1.777,-1.439,-2.064,-4.737,-5.19,-2.085,-1.186,-1.827,-1.536,1.992,-2.099,248.5,248.9,-5.149,-7.766,1.822,-1.467,8.216,5.24,-4.933,-7.531,10,4.918,4.589,4.49,4.66,1.895,1.312,1.181,1.462,10,4.903,4.764,0,287.021069942,norm,0,41,41,41,305.236,305.246,305.251832889,305.252,305.254,305.256,down,1,1.99584719178,8.00415280822,001,007,1920_1080,Intel(R) Core(TM) i5-3570 CPU @ 3.40GHz,orientation_search,LEPPC096,Intel(R) HD Graphics 2500,2018_Oct_18_1222,testMonitor,
358.4,364.4,359.9,359.9,36,-80,354.3,360.0,357.0,359.5,7.782,7.773,7.887,8.145,7.503,8.441,8.402,4.979,-4.54,-7.961,1.274,-2.018,7.762,4.754,-4.94,-7.787,361.7,357.1,-7.921,352.2,357.8,356.8,362.8,366.8,36,357.4,2,5,probe,5,0,63,norm,36,-5.021,up,norm,359.104993852,361.7,354.1,,358.7,3,369.1,362.8,358.4,10,5,8.376,4.934,1.457,-1.194,-4.661,-7.525,364.7,2,296.1,-7.657,-8.148,40,-7.695,-8.351,-4.901,-5.156,-5.088,-4.697,5.057,7.824,15,-1.396,1.439,5.205,7.557,-7.851,-8.109,-1.41,1.119,349.8,356.9,353.9,355.7,360.6,356.1,358.4,356.4,356.6,353.8,0,norm,1.421,1.554,-1.341,-1.963,-4.949,-4.639,-1.165,-1.404,-2.041,-1.854,2.042,-1.892,349.1,356.2,-4.522,-7.812,1.252,-1.412,7.906,4.748,-4.505,-8.052,11,4.754,4.445,4.575,4.38,1.144,1.633,1.765,1.309,11,4.412,4.968,40,246.791191449,norm,0,42,42,42,307.285,307.298,307.317429328,307.318,307.319,307.322,up,1,3.8445178133,6.1554821867,001,007,1920_1080,Intel(R) Core(TM) i5-3570 CPU @ 3.40GHz,orientation_search,LEPPC096,Intel(R) HD Graphics 2500,2018_Oct_18_1222,testMonitor,
376.1,389.4,383.3,380.7,36,-80,,389.7,389.3,382.4,8.001,7.751,8.117,8.261,8.054,8.149,8.264,5.22,-5.134,-7.788,1.656,-1.747,7.543,4.849,-4.928,-7.931,387.9,391.0,-8.475,382.0,379.4,381.9,387.7,389.3,36,381.0,4,5,probe,5,0,90,norm,36,-4.62,down,norm,386.104993852,384.1,387.0,386.4,392.0,0,393.8,388.7,395.4,10,5,8.143,4.943,1.613,-1.44,-5.047,-7.882,378.5,2,296.1,-7.928,-7.9,40,-8.495,-7.832,-4.653,-4.313,-4.362,-5.013,4.323,8.024,24,-1.549,1.197,4.63,8.314,-8.016,-8.279,-1.59,1.7,387.1,386.5,383.1,394.5,387.8,381.3,390.6,391.9,389.6,396.1,1,norm,1.8,1.516,-2.067,-2.012,-5.289,-5.236,-2.042,-1.507,-1.516,-1.283,1.898,-2.005,380.8,386.7,-4.323,-7.939,1.991,-1.834,8.155,4.655,-5.286,-8.055,11,4.66,4.45,5.013,5.131,1.121,1.765,1.406,1.206,11,4.609,4.456,40,246.791191449,norm,0,43,43,43,311.199,311.209,311.225368472,311.226,311.227,311.23,down,1,1.16090999555,8.83909000445,001,007,1920_1080,Intel(R) Core(TM) i5-3570 CPU @ 3.40GHz,orientation_search,LEPPC096,Intel(R) HD Graphics 2500,2018_Oct_18_1222,testMonitor,
263.8,267.8,252.9,245.9,36,0,248.8,241.8,264.1,253.6,8.47,7.685,7.734,7.779,8.49,7.875,8.237,5.183,-4.613,-7.835,2.091,-1.585,7.662,4.622,-5.226,-8.379,273.7,253.4,-8.26,273.0,267.7,262.9,262.8,264.4,36,242.6,1,5,prime,10,0,89,norm,36,-4.674,down,norm,258.258192248,259.3,263.4,264.9,259.9,2,262.4,244.1,268.6,10,6,7.691,4.782,1.904,-1.523,-5.112,-7.538,247.6,6,347.3,-8.155,-7.587,0,-7.752,-8.178,-4.364,-4.869,-4.771,-4.804,5.028,7.702,8,-2.026,2.004,4.472,8.341,-7.826,-7.881,-1.103,1.182,264.2,,278.3,253.6,239.7,259.4,269.6,254.0,258.7,248.4,0,norm,2.016,1.191,-1.139,-1.258,-4.302,-4.509,-1.492,-1.575,-1.984,-1.432,1.572,-2.049,271.6,238.3,-5.246,-7.637,1.349,-1.672,7.945,5.262,-4.993,-8.094,12,4.558,5.085,5.084,4.478,1.99,2.035,1.8,1.35,12,4.336,4.414,-80,246.791191449,norm,0,44,44,44,312.423,312.433,312.442175965,312.442,312.444,312.447,up,0,1.11064526089,-10,001,007,1920_1080,Intel(R) Core(TM) i5-3570 CPU @ 3.40GHz,orientation_search,LEPPC096,Intel(R) HD Graphics 2500,2018_Oct_18_1222,testMonitor,
260.5,256.0,246.1,241.9,36,0,263.8,252.6,268.7,271.3,7.823,8.278,7.526,8.05,7.744,7.685,8.233,5.254,-5.164,-8.229,1.832,-1.789,7.6,4.931,-5.04,-7.563,253.1,274.1,-8.096,271.2,271.0,238.3,246.6,253.7,36,261.9,1,5,prime,10,0,60,norm,36,-5.047,up,norm,258.258192248,268.3,267.2,261.2,265.3,3,278.3,264.7,269.7,10,6,8.288,4.813,1.166,-1.628,-4.417,-7.77,273.3,6,318.3,-7.838,-7.528,0,-8.152,-7.919,-4.529,-4.818,-4.722,-4.714,5.115,8.169,9,-1.112,1.353,4.956,7.523,-8.33,-7.843,-1.137,2.066,,258.6,265.4,250.1,242.5,268.5,251.1,263.6,271.0,267.1,1,norm,1.894,1.926,-1.943,-1.245,-5.241,-4.705,-1.184,-1.757,-1.354,-1.219,1.863,-1.81,261.7,263.8,-5.152,-7.891,2.062,-1.494,8.173,5.164,-4.315,-8.342,12,5.189,4.832,4.949,4.491,1.643,1.245,1.998,1.21,12,4.923,4.318,-80,246.791191449,norm,0,45,45,45,314.623,314.633,314.641629985,314.642,314.644,314.646,up,1,2.21417931328,7.78582068672,001,007,1920_1080,Intel(R) Core(TM) i5-3570 CPU @ 3.40GHz,orientation_search,LEPPC096,Intel(R) HD Graphics 2500,2018_Oct_18_1222,testMonitor,
267.6,258.9,266.9,268.8,36,0,245.4,252.9,253.8,254.9,7.964,8.411,8.082,8.492,8.265,7.776,7.575,4.629,-4.472,-7.75,1.279,-1.699,8.0,4.56,-4.339,-8.274,275.5,254.4,-7.553,263.4,264.4,268.4,253.8,278.3,36,,4,5,prime,10,0,99,norm,36,-4.592,up,norm,258.258192248,266.1,257.6,250.1,260.6,3,260.2,259.9,266.2,10,6,7.659,4.37,1.291,-1.867,-4.795,-8.404,270.8,6,357.3,-7.991,-7.888,0,-7.74,-8.211,-5.1,-4.712,-4.899,-4.467,4.946,7.881,27,-2.056,2.033,4.799,7.949,-7.523,-8.341,-1.647,1.594,263.6,273.5,272.2,245.8,238.3,270.3,261.4,255.7,254.2,248.1,2,norm,1.882,1.221,-1.588,-1.962,-4.968,-4.842,-1.594,-1.523,-1.105,-1.3,1.65,-1.486,252.0,261.3,-5.225,-7.636,1.87,-1.887,8.055,4.906,-5.171,-8.216,12,4.997,4.362,4.6,4.607,1.677,1.967,1.523,1.739,12,4.409,4.427,-80,246.791191449,norm,0,46,46,46,316.893,316.907,316.925455313,316.926,316.927,316.93,up,1,3.16372320766,6.83627679234,001,007,1920_1080,Intel(R) Core(TM) i5-3570 CPU @ 3.40GHz,orientation_search,LEPPC096,Intel(R) HD Graphics 2500,2018_Oct_18_1222,testMonitor,
248.0,248.8,261.8,240.9,36,0,261.7,271.1,269.1,244.4,7.615,7.714,7.817,8.286,7.92,7.859,8.471,4.951,-4.887,-8.181,1.708,-1.373,7.69,4.66,-4.334,-7.776,256.5,266.4,-7.859,254.1,246.5,247.1,253.6,251.4,36,260.2,2,5,prime,10,0,65,norm,36,-5.162,down,norm,258.258192248,259.8,268.8,265.7,261.5,0,259.7,250.9,,10,6,8.315,4.939,1.178,-1.358,-4.373,-7.655,254.2,6,323.3,-8.297,-8.416,0,-8.124,-7.585,-4.57,-4.846,-4.487,-4.386,4.978,8.473,12,-1.331,1.723,4.858,8.207,-7.657,-7.6,-2.056,2.064,254.0,254.5,258.6,273.2,264.2,276.2,268.1,258.4,264.7,278.3,3,norm,1.695,1.496,-1.837,-1.176,-5.113,-5.244,-1.624,-1.414,-1.605,-2.015,1.848,-1.421,238.3,270.1,-5.124,-8.339,1.168,-1.994,7.564,4.312,-4.575,-7.528,12,4.908,5.0,4.724,4.945,1.267,1.968,2.057,2.084,12,4.831,4.984,-80,246.791191449,norm,0,47,47,47,320.134,320.156,320.165880808,320.166,320.168,320.171,down,1,1.18178300303,8.81821699697,001,007,1920_1080,Intel(R) Core(TM) i5-3570 CPU @ 3.40GHz,orientation_search,LEPPC096,Intel(R) HD Graphics 2500,2018_Oct_18_1222,testMonitor,
250.3,260.0,240.1,251.7,36,0,263.4,244.1,254.2,256.7,8.221,7.864,7.796,7.69,8.023,8.014,8.113,4.451,-5.066,-8.261,1.208,-1.455,8.491,4.416,-5.263,-8.473,264.2,257.1,-7.922,,269.6,251.1,278.3,267.1,36,262.1,5,5,prime,10,0,88,norm,36,-5.232,down,norm,258.258192248,247.1,249.3,261.8,247.3,1,260.4,254.9,254.6,10,6,7.819,4.556,1.113,-1.604,-4.452,-8.057,277.8,6,346.3,-8.019,-8.413,0,-8.487,-7.924,-5.119,-4.334,-4.531,-5.166,4.737,8.225,31,-1.153,1.138,4.862,7.693,-8.126,-7.577,-1.123,1.415,271.4,238.6,241.4,238.3,273.7,262.5,275.1,251.2,258.8,261.5,4,norm,1.224,1.486,-1.976,-1.125,-5.052,-4.418,-1.431,-1.194,-1.708,-2.096,2.063,-2.017,258.9,267.5,-4.837,-8.427,1.817,-1.505,8.305,4.371,-4.492,-8.349,12,4.38,4.997,4.863,5.022,1.23,1.962,1.496,1.333,12,4.508,4.373,-80,246.791191449,norm,0,48,48,48,321.386,321.399,321.418074405,321.418,321.42,321.423,down,1,6.53625708167,3.46374291833,001,007,1920_1080,Intel(R) Core(TM) i5-3570 CPU @ 3.40GHz,orientation_search,LEPPC096,Intel(R) HD Graphics 2500,2018_Oct_18_1222,testMonitor,
263.7,253.6,257.8,251.1,36,0,253.4,258.9,,248.6,7.903,8.165,8.141,7.968,8.137,7.963,7.615,4.675,-5.214,-8.067,1.122,-2.017,8.137,4.597,-4.57,-8.155,252.9,252.8,-8.194,255.3,270.4,262.5,269.2,268.7,36,241.0,4,5,prime,10,0,77,norm,36,-5.046,up,norm,258.258192248,268.1,266.9,261.9,247.7,4,262.8,243.2,268.0,10,6,8.066,5.248,1.313,-1.568,-5.287,-7.887,250.7,6,335.3,-7.985,-8.275,0,-8.016,-7.902,-5.295,-5.089,-4.848,-4.901,4.873,8.038,28,-1.674,2.057,4.957,8.02,-8.488,-7.912,-1.107,2.094,278.0,278.3,254.0,253.2,238.3,268.2,252.7,262.0,255.9,248.4,5,norm,1.112,1.444,-1.613,-1.711,-4.917,-5.087,-1.551,-1.233,-1.208,-1.934,1.748,-1.869,255.5,253.3,-5.035,-7.801,1.894,-1.38,8.096,4.822,-4.545,-7.594,12,4.956,4.847,4.55,5.15,1.711,1.728,1.514,1.319,12,5.034,4.375,-80,246.791191449,norm,0,49,49,49,327.991,328.001,328.010155937,328.01,328.012,328.015,up,1,1.76980318676,8.23019681324,001,007,1920_1080,Intel(R) Core(TM) i5-3570 CPU @ 3.40GHz,orientation_search,LEPPC096,Intel(R) HD Graphics 2500,2018_Oct_18_1222,testMonitor,
355.9,360.3,366.6,359.6,36,80,370.5,363.7,366.9,360.8,8.196,8.206,7.514,7.571,8.493,7.798,8.455,5.067,-4.855,-7.778,1.523,-2.011,8.207,5.098,-5.089,-7.729,357.5,359.0,-7.611,350.5,363.5,,359.1,357.7,36,351.6,5,5,probe,5,0,100,norm,36,-4.602,up,norm,360.531357822,357.5,368.0,355.1,363.9,3,369.8,357.1,359.6,10,6,8.294,4.419,2.057,-1.168,-4.473,-7.856,353.1,2,260.5,-7.712,-7.912,0,-8.231,-7.87,-4.708,-4.706,-4.561,-5.245,4.51,7.677,33,-1.872,1.542,5.092,7.913,-8.236,-7.963,-1.873,1.977,358.6,364.4,360.3,360.0,360.1,355.9,361.6,357.2,360.2,353.8,0,norm,1.191,1.165,-1.575,-1.875,-5.063,-4.983,-1.767,-1.264,-1.167,-1.889,2.097,-2.001,362.9,361.6,-4.739,-8.2,1.756,-1.584,7.807,5.284,-5.112,-7.879,13,4.903,4.664,4.479,4.893,1.591,1.437,1.941,1.174,13,4.871,4.56,0,258.258192248,norm,0,50,50,50,329.805,329.814,329.821716005,329.822,329.824,329.826,up,1,1.58035750128,8.41964249872,001,007,1920_1080,Intel(R) Core(TM) i5-3570 CPU @ 3.40GHz,orientation_search,LEPPC096,Intel(R) HD Graphics 2500,2018_Oct_18_1222,testMonitor,
355.5,363.3,360.8,371.1,36,80,360.8,365.4,356.7,361.7,7.926,8.145,8.2,7.838,7.703,8.379,8.021,4.694,-5.013,-7.543,1.924,-2.083,8.057,4.895,-5.235,-7.749,356.6,359.0,-7.875,366.0,364.6,364.1,365.5,371.5,36,363.9,1,5,probe,5,0,105,norm,36,-5.194,up,norm,365.531357822,363.7,359.3,369.8,361.4,4,365.6,365.9,363.4,10,6,7.919,5.084,2.037,-1.865,-5.235,-7.581,,2,260.5,-7.519,-7.861,0,-7.8,-8.075,-5.034,-4.426,-4.647,-4.34,5.13,8.201,10,-1.51,1.792,5.12,8.138,-8.49,-7.926,-1.441,1.416,371.6,374.8,370.4,375.5,365.2,373.7,364.2,371.1,366.9,363.2,1,norm,2.073,2.024,-1.47,-1.824,-4.601,-4.821,-1.522,-1.226,-1.658,-1.121,1.446,-1.576,370.8,363.3,-5.113,-7.723,2.045,-1.226,8.316,4.882,-5.156,-8.052,13,4.553,4.425,4.855,5.212,1.561,1.616,1.94,1.724,13,4.363,4.82,0,258.258192248,norm,0,51,51,51,331.439,331.448,331.457611806,331.458,331.46,331.462,up,1,1.38459718099,8.61540281901,001,007,1920_1080,Intel(R) Core(TM) i5-3570 CPU @ 3.40GHz,orientation_search,LEPPC096,Intel(R) HD Graphics 2500,2018_Oct_18_1222,testMonitor,
67.7,53.3,78.5,87.3,36,10,65.6,59.1,,53.6,7.938,7.552,8.369,7.59,8.327,7.882,8.405,4.887,-5.041,-8.008,1.541,-1.186,7.891,4.646,-4.672,-8.146,69.8,58.3,-8.445,66.6,79.8,70.8,91.9,66.4,36,90.4,4,5,prime,10,0,88,norm,36,-5.207,up,norm,71.8714995217,51.9,64.9,71.6,63.9,4,82.1,77.6,60.4,10,5,8.05,4.655,1.87,-1.999,-4.762,-7.777,64.8,5,159.9,-8.158,-7.867,10,-7.522,-7.846,-5.214,-4.68,-4.708,-4.743,4.902,7.891,28,-1.88,1.684,5.052,7.563,-8.253,-7.82,-1.649,1.607,71.3,70.8,78.4,58.5,57.2,78.3,58.2,72.6,71.2,84.6,0,norm,1.159,1.288,-1.323,-1.131,-4.504,-5.004,-2.011,-2.077,-1.98,-2.027,1.737,-1.947,69.2,75.6,-5.282,-8.404,1.498,-1.792,8.498,4.477,-4.885,-7.732,14,4.563,5.053,4.537,4.335,1.519,1.63,1.746,2.04,14,5.115,4.622,80,258.258192248,norm,0,52,52,52,332.863,332.873,332.879311693,332.879,332.881,332.884,up,1,1.95521408634,8.04478591366,001,007,1920_1080,Intel(R) Core(TM) i5-3570 CPU @ 3.40GHz,orientation_search,LEPPC096,Intel(R) HD Graphics 2500,2018_Oct_18_1222,testMonitor,
75.2,80.6,79.8,91.9,36,10,69.7,57.6,66.2,83.8,8.203,8.11,7.572,7.995,7.822,7.508,7.669,4.377,-4.589,-8.364,1.998,-2.081,7.727,4.737,-4.387,-8.031,60.3,79.5,-8.187,86.7,64.9,59.0,63.2,84.2,36,,4,5,prime,10,0,92,norm,36,-4.52,up,norm,71.8714995217,74.6,79.0,62.6,74.5,3,68.7,69.3,71.8,10,5,7.806,5.275,1.908,-1.584,-4.965,-7.603,86.5,5,163.9,-8.148,-7.501,10,-8.1,-8.118,-5.226,-5.147,-4.887,-4.941,5.102,7.826,27,-1.725,1.681,5.157,8.085,-8.245,-8.158,-2.058,1.31,59.1,61.9,62.3,71.3,71.2,77.9,69.1,69.7,79.9,77.5,1,norm,1.905,1.725,-1.65,-2.056,-4.821,-5.256,-1.36,-1.337,-2.062,-1.594,1.349,-1.626,81.6,80.7,-4.702,-7.94,1.205,-1.125,7.988,4.43,-4.589,-7.77,14,4.911,5.182,5.273,5.075,1.758,1.638,1.171,1.201,14,5.102,4.332,80,258.258192248,norm,0,53,53,53,334.859,334.869,334.874990756,334.875,334.877,334.879,up,1,1.11256983597,8.88743016403,001,007,1920_1080,Intel(R) Core(TM) i5-3570 CPU @ 3.40GHz,orientation_search,LEPPC096,Intel(R) HD Graphics 2500,2018_Oct_18_1222,testMonitor,
69.2,91.9,79.5,62.1,36,10,64.3,75.1,65.6,77.8,7.869,7.547,7.911,8.239,8.323,8.055,7.921,4.565,-4.893,-8.283,1.587,-1.855,8.265,4.715,-4.842,-7.938,,62.8,-8.418,80.2,60.2,59.3,80.2,52.0,36,73.7,5,5,prime,10,0,66,norm,36,-4.531,up,norm,71.8714995217,71.3,80.4,76.0,68.8,5,84.2,77.2,83.8,10,5,7.685,5.119,1.643,-1.305,-4.338,-8.348,60.7,5,137.9,-7.866,-8.419,10,-8.055,-8.13,-4.726,-4.83,-4.766,-5.279,4.867,7.633,35,-1.119,1.437,4.418,8.184,-7.803,-7.72,-2.097,1.493,51.9,70.6,58.8,71.3,90.9,68.2,77.3,65.4,80.9,71.5,2,norm,2.07,2.051,-2.089,-1.358,-4.57,-4.877,-1.634,-1.351,-1.818,-1.237,1.854,-1.513,72.7,79.2,-4.747,-7.682,1.712,-1.367,8.168,4.788,-4.311,-8.317,14,4.457,4.74,4.721,5.19,1.917,1.466,1.766,2.077,14,4.934,4.484,80,258.258192248,norm,0,54,54,54,336.025,336.034,336.043932895,336.044,336.046,336.048,up,1,0.534776824992,9.46522317501,001,007,1920_1080,Intel(R) Core(TM) i5-3570 CPU @ 3.40GHz,orientation_search,LEPPC096,Intel(R) HD Graphics 2500,2018_Oct_18_1222,testMonitor,
75.6,61.3,68.2,64.3,36,10,63.8,75.1,71.5,65.6,7.616,7.95,7.544,7.821,7.905,7.633,8.349,4.34,-4.371,-7.866,1.255,-1.343,7.589,4.592,-5.218,-8.013,87.6,78.0,-8.379,76.4,77.1,51.9,75.5,67.1,36,84.1,1,5,prime,10,0,112,norm,36,-4.588,up,norm,71.8714995217,68.8,80.3,82.8,91.9,3,84.0,77.1,68.4,10,5,7.689,4.311,1.259,-1.703,-4.9,-8.303,86.8,5,183.9,-8.34,-7.778,10,-8.139,-7.78,-4.55,-4.631,-5.285,-5.005,4.751,8.194,9,-1.575,1.792,4.347,8.274,-8.451,-8.356,-2.005,1.229,,68.2,70.1,52.7,63.3,67.1,63.8,59.8,80.6,71.2,3,norm,1.996,2.079,-1.721,-1.348,-5.177,-4.549,-2.029,-1.478,-2.019,-1.345,1.86,-1.409,74.4,71.1,-4.346,-8.321,1.721,-1.255,8.069,5.256,-4.931,-7.558,14,4.718,5.188,4.486,5.186,1.484,1.305,2.07,1.29,14,4.821,4.603,80,258.258192248,norm,0,55,55,55,336.621,336.631,336.637755781,336.638,336.64,336.642,up,1,1.48324705043,8.51675294957,001,007,1920_1080,Intel(R) Core(TM) i5-3570 CPU @ 3.40GHz,orientation_search,LEPPC096,Intel(R) HD Graphics 2500,2018_Oct_18_1222,testMonitor,
62.5,75.8,64.0,68.2,36,10,72.9,87.1,63.8,63.7,8.208,8.381,7.959,7.625,7.89,7.821,8.469,4.993,-4.509,-8.402,1.891,-1.518,8.04,4.657,-4.952,-7.771,71.8,83.4,-8.439,73.9,81.0,81.2,66.7,91.9,36,,4,5,prime,10,0,73,norm,36,-4.677,up,norm,71.8714995217,61.6,64.8,69.8,61.8,3,85.2,51.9,67.1,10,5,8.015,4.944,2.018,-2.032,-4.316,-8.123,84.2,5,144.9,-8.188,-7.729,10,-8.021,-7.563,-5.078,-4.526,-5.067,-5.3,5.151,7.671,27,-1.426,1.209,4.429,7.79,-8.094,-8.008,-1.615,1.414,69.0,55.2,69.4,65.6,58.1,72.7,72.2,77.4,65.8,67.7,4,norm,1.849,1.782,-1.206,-1.824,-4.89,-4.32,-1.674,-2.1,-1.75,-1.945,1.67,-1.901,65.6,57.0,-4.437,-7.883,1.734,-2.096,8.416,4.314,-5.002,-7.849,14,4.475,4.635,4.88,5.281,1.213,1.113,1.674,1.67,14,4.845,5.184,80,258.258192248,norm,0,56,56,56,338.158,338.17,338.196589493,338.197,338.199,338.201,up,1,0.740981647978,9.25901835202,001,007,1920_1080,Intel(R) Core(TM) i5-3570 CPU @ 3.40GHz,orientation_search,LEPPC096,Intel(R) HD Graphics 2500,2018_Oct_18_1222,testMonitor,
187.9,194.0,197.2,189.8,36,60,195.5,188.7,191.9,189.9,8.449,8.002,7.673,8.476,7.548,7.638,8.481,5.276,-4.361,-7.52,1.692,-1.496,8.462,4.944,-4.565,-7.52,188.3,189.2,-8.223,201.2,189.8,186.1,191.1,193.2,36,191.1,0,5,probe,5,0,113,norm,36,-4.719,down,norm,191.228040339,192.8,193.1,201.1,188.9,1,188.9,186.3,192.9,10,5,8.061,4.348,1.327,-1.659,-4.499,-7.811,183.0,2,78.2,-7.847,-8.259,10,-7.68,-8.001,-4.65,-4.502,-5.208,-5.081,4.678,7.617,1,-1.53,1.432,4.672,8.435,-7.515,-8.364,-1.829,1.618,185.8,186.5,192.5,196.8,,191.6,197.2,197.3,198.7,182.0,0,norm,1.624,1.173,-1.914,-1.27,-4.88,-4.366,-1.667,-2.044,-1.125,-1.746,1.297,-1.698,181.2,192.6,-5.188,-8.251,1.693,-1.288,8.217,4.885,-5.025,-8.248,15,5.253,4.858,4.616,5.126,1.284,1.252,1.721,1.264,15,4.767,4.409,10,71.8714995217,norm,0,57,57,57,338.962,338.971,338.977491889,338.978,338.979,338.982,up,0,0.92656097794,-10,001,007,1920_1080,Intel(R) Core(TM) i5-3570 CPU @ 3.40GHz,orientation_search,LEPPC096,Intel(R) HD Graphics 2500,2018_Oct_18_1222,testMonitor,
160.6,153.7,150.0,158.2,36,60,158.2,158.2,160.1,160.7,8.178,7.632,8.321,7.755,7.504,8.474,8.422,4.847,-4.378,-8.364,1.879,-1.955,8.48,4.8,-4.437,-8.196,158.2,166.2,-7.881,155.2,148.4,152.3,155.0,154.6,36,152.2,1,5,probe,5,0,78,norm,36,-5.127,up,norm,156.228040339,163.3,162.3,159.8,155.5,3,160.8,158.3,165.4,10,5,8.331,4.712,1.518,-1.393,-4.498,-8.493,146.2,2,78.2,-8.43,-8.47,10,-8.216,-8.243,-4.986,-4.916,-4.463,-5.063,5.206,8.062,9,-1.884,1.227,4.593,7.591,-7.648,-7.653,-1.324,2.068,,161.4,156.5,154.0,157.9,148.8,146.7,153.9,153.8,155.3,1,norm,1.753,1.845,-1.556,-1.317,-4.908,-5.129,-1.808,-1.117,-2.087,-2.058,1.804,-1.103,153.8,154.2,-4.468,-7.573,1.319,-1.184,7.778,4.485,-4.815,-7.605,15,5.261,4.401,4.732,4.457,1.474,1.843,1.816,2.028,15,4.582,4.338,10,71.8714995217,norm,0,58,58,58,340.962,340.972,340.98890713,340.989,340.991,340.993,up,1,0.364615527098,9.6353844729,001,007,1920_1080,Intel(R) Core(TM) i5-3570 CPU @ 3.40GHz,orientation_search,LEPPC096,Intel(R) HD Graphics 2500,2018_Oct_18_1222,testMonitor,
56.5,59.6,72.2,63.5,36,-40,62.1,62.6,58.3,54.8,7.755,7.557,8.161,8.399,7.692,8.428,7.587,4.473,-5.244,-8.28,1.311,-1.352,7.949,5.043,-4.894,-8.219,65.9,44.7,-8.342,65.6,50.6,65.7,77.5,62.5,36,45.8,0,5,prime,10,0,107,norm,36,-4.527,down,norm,61.9452678716,81.2,59.4,52.2,41.9,2,47.0,59.8,54.2,10,6,7.526,4.616,1.962,-1.212,-4.704,-7.732,63.2,6,168.9,-8.316,-7.689,-40,-8.305,-7.998,-4.378,-5.276,-4.352,-5.204,4.939,7.584,2,-1.88,1.394,4.842,7.879,-7.933,-7.974,-1.665,1.8,54.9,62.0,57.2,,53.9,51.2,60.5,55.0,61.2,54.1,0,norm,1.823,1.705,-1.297,-1.288,-4.423,-4.547,-1.861,-1.611,-1.627,-2.045,1.11,-1.726,61.4,81.9,-4.621,-7.574,2.006,-1.347,8.044,4.365,-4.853,-7.676,16,4.665,4.892,4.349,4.557,1.461,1.715,2.099,1.188,16,4.974,4.524,60,71.8714995217,norm,0,59,59,59,341.391,341.401,341.410102329,341.41,341.412,341.414,down,1,4.22839358042,5.77160641958,001,007,1920_1080,Intel(R) Core(TM) i5-3570 CPU @ 3.40GHz,orientation_search,LEPPC096,Intel(R) HD Graphics 2500,2018_Oct_18_1222,testMonitor,
54.0,72.0,66.8,59.5,36,-40,75.9,55.8,69.3,52.4,7.71,7.527,8.001,8.42,8.159,7.522,7.795,5.242,-4.51,-7.809,1.529,-1.121,7.74,4.743,-5.27,-8.021,80.6,53.4,-8.248,69.3,53.2,51.9,69.2,66.5,36,43.7,1,5,prime,10,0,94,norm,36,-4.507,down,norm,61.9452678716,55.8,63.1,66.5,46.4,0,59.1,59.6,41.9,10,6,7.956,4.407,2.032,-2.045,-5.2,-7.815,81.9,6,155.9,-8.36,-8.267,-40,-8.442,-7.596,-4.567,-4.801,-5.106,-4.534,4.944,8.381,6,-1.766,1.232,5.156,8.283,-7.87,-8.471,-1.993,1.442,71.2,55.6,58.9,67.2,49.2,58.8,56.1,,56.9,62.3,1,norm,1.764,1.634,-1.272,-1.798,-4.877,-4.975,-2.091,-2.029,-1.25,-1.25,1.763,-1.692,67.2,64.3,-4.694,-8.391,1.149,-1.466,7.965,5.286,-4.549,-8.378,16,5.106,4.999,5.013,4.889,1.546,1.733,1.966,1.378,16,4.575,5.006,60,71.8714995217,norm,0,60,60,60,345.685,345.694,345.70254327,345.703,345.704,345.707,up,0,2.80427439208,-10,001,007,1920_1080,Intel(R) Core(TM) i5-3570 CPU @ 3.40GHz,orientation_search,LEPPC096,Intel(R) HD Graphics 2500,2018_Oct_18_1222,testMonitor,
69.9,81.9,72.0,61.9,36,-40,79.1,50.0,67.0,57.0,8.096,8.317,8.397,8.198,7.957,8.19,7.595,4.955,-4.896,-7.953,1.184,-1.637,7.756,4.306,-5.036,-7.708,74.3,41.9,-8.326,58.7,49.6,53.7,47.7,79.4,36,53.7,3,5,prime,10,0,77,norm,36,-4.904,down,norm,61.9452678716,49.3,63.3,47.5,52.8,0,53.4,71.4,79.0,10,6,7.839,4.546,1.265,-1.568,-4.903,-8.097,57.3,6,138.9,-8.368,-8.138,-40,-8.143,-8.238,-5.055,-5.037,-4.926,-5.195,5.299,8.426,18,-1.213,1.48,5.016,7.918,-7.587,-7.71,-1.453,1.579,60.8,65.9,62.3,74.9,61.1,61.2,52.9,63.1,45.3,47.5,2,norm,1.716,1.655,-1.589,-1.592,-5.217,-5.146,-1.912,-1.408,-1.516,-1.193,1.479,-1.666,60.0,,-5.108,-8.348,1.283,-1.348,7.564,4.778,-5.019,-7.886,16,4.581,4.418,4.644,4.551,1.493,1.795,1.101,1.543,16,4.365,5.04,60,71.8714995217,norm,0,61,61,61,349.577,349.587,349.599726708,349.6,349.602,349.604,up,0,0.350482456735,-10,001,007,1920_1080,Intel(R) Core(TM) i5-3570 CPU @ 3.40GHz,orientation_search,LEPPC096,Intel(R) HD Graphics 2500,2018_Oct_18_1222,testMonitor,
59.0,59.3,80.9,80.6,36,-40,70.5,64.7,41.9,71.1,8.356,7.647,7.79,8.456,7.9,8.288,7.948,5.242,-4.467,-8.142,1.945,-1.486,7.733,5.204,-4.42,-8.452,66.7,68.2,-8.272,61.7,,59.2,58.3,63.7,36,69.0,5,5,prime,10,0,74,norm,36,-4.955,down,norm,61.9452678716,64.7,71.4,44.7,53.2,0,74.5,67.7,70.3,10,6,7.839,4.528,1.165,-1.555,-4.459,-8.324,81.9,6,135.9,-8.224,-7.741,-40,-8.104,-7.801,-5.288,-4.432,-5.155,-5.164,4.474,8.389,30,-1.931,1.136,4.334,7.569,-7.61,-7.813,-1.909,1.895,65.6,68.0,55.6,72.0,47.8,59.6,62.4,55.3,50.7,54.4,3,norm,1.633,1.715,-1.418,-1.64,-4.384,-4.869,-1.802,-1.754,-1.27,-1.664,1.193,-1.738,64.0,60.6,-4.529,-8.215,1.522,-2.034,7.921,4.528,-4.594,-7.837,16,5.192,5.239,4.413,5.024,1.932,1.787,1.514,2.034,16,4.537,4.473,60,71.8714995217,norm,0,62,62,62,351.008,351.018,351.035006681,351.035,351.037,351.039,up,0,0.351057173102,-10,001,007,1920_1080,Intel(R) Core(TM) i5-3570 CPU @ 3.40GHz,orientation_search,LEPPC096,Intel(R) HD Graphics 2500,2018_Oct_18_1222,testMonitor,
59.8,68.2,70.4,69.9,36,-40,41.9,69.3,64.9,62.7,8.336,8.116,8.274,8.428,7.783,7.693,7.705,5.091,-4.41,-7.836,1.646,-1.763,8.064,5.058,-4.994,-8.406,81.9,47.5,-8.471,56.3,56.6,80.6,65.3,81.1,36,53.8,2,5,prime,10,0,90,norm,36,-4.605,down,norm,61.9452678716,65.5,59.3,63.6,65.6,1,44.0,,68.2,10,6,7.797,4.934,1.408,-1.143,-5.006,-7.777,58.3,6,151.9,-8.459,-8.072,-40,-7.841,-8.286,-5.053,-4.73,-5.125,-4.384,4.652,8.149,13,-1.609,1.551,4.922,8.476,-7.766,-8.318,-2.021,1.241,57.0,58.7,60.8,52.0,50.2,69.3,74.6,68.7,43.9,64.5,4,norm,1.913,1.316,-1.573,-1.655,-4.901,-4.493,-1.314,-1.645,-1.324,-1.636,1.784,-1.709,60.6,60.1,-4.325,-7.599,1.331,-1.673,8.018,4.951,-5.04,-8.085,16,5.173,4.401,4.502,4.99,1.966,1.871,2.031,1.815,16,4.37,4.372,60,71.8714995217,norm,0,63,63,63,352.443,352.453,352.47000473,352.47,352.472,352.474,up,0,0.688582252827,-10,001,007,1920_1080,Intel(R) Core(TM) i5-3570 CPU @ 3.40GHz,orientation_search,LEPPC096,Intel(R) HD Graphics 2500,2018_Oct_18_1222,testMonitor,
52.4,55.7,66.1,62.3,36,-40,56.2,59.7,41.9,43.2,7.637,8.332,8.019,7.933,7.642,8.469,8.024,5.215,-5.283,-8.169,1.712,-1.312,7.517,4.307,-5.213,-7.981,65.0,54.3,-8.031,71.8,69.0,64.0,66.2,,36,66.4,4,5,prime,10,0,87,norm,36,-4.656,down,norm,61.9452678716,60.6,60.9,47.8,70.7,2,81.9,63.9,76.1,10,6,8.174,4.773,1.758,-1.88,-4.584,-8.001,61.2,6,148.9,-7.543,-8.375,-40,-7.534,-8.335,-4.436,-4.418,-4.643,-5.037,5.031,8.406,26,-1.397,1.614,4.719,8.381,-7.63,-8.401,-1.516,2.054,59.2,78.5,63.3,77.8,58.9,59.8,72.9,59.2,66.5,51.0,5,norm,1.35,1.37,-1.885,-1.212,-4.384,-4.593,-1.514,-1.999,-1.424,-1.358,1.563,-1.92,73.6,54.9,-4.474,-7.664,1.847,-1.767,7.78,4.82,-4.923,-7.657,16,4.846,4.906,5.203,5.074,1.335,1.785,1.895,1.66,16,5.177,5.12,60,71.8714995217,norm,0,64,64,64,354.229,354.239,354.248445866,354.249,354.25,354.253,down,1,0.334609541576,9.66539045842,001,007,1920_1080,Intel(R) Core(TM) i5-3570 CPU @ 3.40GHz,orientation_search,LEPPC096,Intel(R) HD Graphics 2500,2018_Oct_18_1222,testMonitor,
117.0,110.8,122.6,120.1,36,-10,110.5,105.1,110.1,108.0,8.045,8.409,8.024,7.75,7.626,8.252,7.836,4.985,-5.085,-8.008,1.551,-1.447,7.723,4.44,-4.553,-8.485,102.6,111.1,-7.626,120.0,107.9,113.2,120.1,109.1,36,106.8,2,5,probe,5,0,99,norm,36,-4.918,up,norm,112.551907616,,112.6,108.6,107.9,5,112.3,112.7,111.8,10,6,8.433,4.302,1.58,-1.846,-4.501,-7.819,112.6,1,13.6,-7.849,-8.471,-40,-7.916,-8.305,-5.085,-4.351,-4.41,-4.304,5.259,8.25,17,-1.435,1.644,4.338,8.183,-8.389,-8.354,-1.645,1.614,104.1,111.1,116.0,116.3,111.9,105.2,110.8,118.9,102.6,108.9,0,norm,2.028,1.437,-1.773,-1.775,-4.718,-4.778,-1.924,-1.572,-1.441,-1.979,1.156,-1.204,113.3,118.0,-4.866,-7.965,1.307,-1.935,7.704,5.205,-4.849,-7.661,17,5.161,5.101,4.311,5.159,1.278,1.2,1.47,1.522,17,5.064,5.117,-40,61.9452678716,norm,0,65,65,65,354.623,354.633,354.639176574,354.639,354.641,354.644,down,0,1.26599463506,-10,001,007,1920_1080,Intel(R) Core(TM) i5-3570 CPU @ 3.40GHz,orientation_search,LEPPC096,Intel(R) HD Graphics 2500,2018_Oct_18_1222,testMonitor,
65.9,60.7,49.9,37.6,36,-30,54.5,43.1,62.2,50.4,7.752,7.99,7.909,8.17,8.309,7.62,8.372,4.806,-4.765,-8.241,2.066,-1.729,7.507,4.632,-4.999,-7.72,57.7,65.1,-7.988,66.8,67.1,53.4,67.8,54.5,36,51.9,0,5,prime,10,0,86,norm,36,-4.335,up,norm,57.5877736037,49.2,64.3,77.6,71.0,5,51.5,62.5,60.9,10,6,8.069,5.059,1.745,-1.621,-4.316,-7.834,58.2,6,143.6,-7.836,-7.659,-30,-7.99,-7.519,-4.308,-5.153,-4.604,-4.838,4.516,7.88,5,-1.192,1.457,5.253,8.152,-7.745,-8.369,-1.298,1.155,56.4,44.5,54.3,54.7,51.1,48.7,64.2,74.0,,56.6,0,norm,1.328,1.864,-1.676,-1.789,-4.369,-4.905,-2.004,-1.968,-1.364,-1.828,1.324,-1.532,39.1,49.5,-4.74,-8.488,1.392,-1.553,7.527,4.815,-4.763,-8.36,18,4.924,4.854,4.776,4.439,1.448,1.449,1.601,1.603,18,4.438,4.548,-10,61.9452678716,norm,0,66,66,66,356.976,385.394,385.402192736,385.402,385.404,385.407,up,1,1.60481071332,8.39518928668,001,007,1920_1080,Intel(R) Core(TM) i5-3570 CPU @ 3.40GHz,orientation_search,LEPPC096,Intel(R) HD Graphics 2500,2018_Oct_18_1222,testMonitor,
57.6,52.9,75.5,37.6,36,-30,68.1,47.8,57.7,63.3,7.564,8.418,7.643,8.305,8.016,8.08,7.924,4.836,-4.543,-7.911,1.69,-1.233,8.084,4.874,-4.742,-8.22,58.4,54.9,-7.852,,62.4,59.5,77.6,50.0,36,50.9,5,5,prime,10,0,64,norm,36,-5.239,down,norm,57.5877736037,48.0,55.5,67.3,48.4,1,56.6,50.4,52.4,10,6,8.209,5.117,1.172,-1.885,-4.838,-7.854,50.9,6,121.6,-8.23,-8.142,-30,-8.258,-7.664,-4.659,-4.427,-4.775,-4.528,5.236,7.971,31,-1.622,1.764,4.497,8.177,-7.951,-8.318,-1.563,2.076,63.5,70.3,57.5,47.1,69.7,55.7,64.3,62.7,57.8,61.1,1,norm,1.658,1.828,-1.529,-1.279,-4.903,-5.289,-1.217,-1.914,-2.088,-1.835,1.787,-1.31,67.2,66.6,-4.872,-7.978,1.817,-1.116,8.302,4.864,-4.472,-8.267,18,5.008,4.33,5.176,5.257,1.345,1.593,1.703,1.459,18,5.212,5.269,-10,61.9452678716,norm,0,67,67,67,387.054,387.063,387.070160362,387.07,387.072,387.075,down,1,1.1446479999,8.8553520001,001,007,1920_1080,Intel(R) Core(TM) i5-3570 CPU @ 3.40GHz,orientation_search,LEPPC096,Intel(R) HD Graphics 2500,2018_Oct_18_1222,testMonitor,
64.8,64.8,65.3,42.1,36,-30,55.1,70.4,57.9,56.5,7.525,7.829,7.948,7.515,7.828,8.446,7.582,4.64,-4.979,-8.124,2.06,-1.172,8.407,5.034,-4.554,-7.862,62.4,49.3,-8.147,64.8,55.3,37.6,66.4,41.5,36,59.8,1,5,prime,10,0,71,norm,36,-4.989,down,norm,57.5877736037,55.0,45.6,67.5,51.0,1,51.7,60.6,53.5,10,6,8.373,4.826,1.415,-1.187,-4.529,-7.76,49.4,6,128.6,-8.454,-8.374,-30,-8.3,-7.672,-5.111,-5.052,-5.195,-4.403,4.853,7.641,7,-2.014,1.776,4.496,7.888,-8.473,-8.09,-1.818,1.189,54.7,56.6,63.5,70.7,57.6,69.0,,47.9,68.6,75.7,2,norm,1.258,1.387,-1.663,-1.154,-4.838,-5.024,-1.944,-1.451,-1.376,-1.7,1.149,-2.085,59.9,55.3,-4.799,-7.986,1.434,-1.551,8.2,4.787,-5.016,-8.175,18,5.009,4.55,5.236,4.97,1.758,1.865,1.527,1.597,18,4.771,4.53,-10,61.9452678716,norm,0,68,68,68,388.255,388.264,388.271434216,388.272,388.273,388.276,down,1,1.27936131635,8.72063868365,001,007,1920_1080,Intel(R) Core(TM) i5-3570 CPU @ 3.40GHz,orientation_search,LEPPC096,Intel(R) HD Graphics 2500,2018_Oct_18_1222,testMonitor,
49.9,50.2,47.2,50.9,36,-30,45.5,54.0,59.2,73.3,7.99,8.09,7.684,7.928,8.073,7.657,8.35,5.235,-5.264,-7.939,1.433,-1.701,7.616,4.346,-4.671,-8.129,66.8,51.5,-7.891,57.0,58.9,77.1,50.4,52.1,36,70.7,3,5,prime,10,0,66,norm,36,-4.639,down,norm,57.5877736037,77.6,64.3,47.6,41.2,1,54.2,40.4,57.3,10,6,7.665,4.635,1.606,-1.309,-4.92,-8.061,72.0,6,123.6,-8.077,-8.389,-30,-7.67,-7.57,-4.562,-5.289,-4.613,-4.915,4.999,7.523,19,-2.051,1.668,4.504,8.201,-7.87,-7.708,-1.543,1.7,67.7,60.9,63.7,63.4,37.6,57.9,74.0,53.3,47.7,54.5,3,norm,1.496,1.123,-1.482,-1.658,-4.314,-4.899,-1.571,-1.648,-1.888,-1.199,1.497,-1.485,,49.0,-4.313,-7.621,1.248,-1.229,7.864,5.033,-4.682,-8.292,18,4.859,5.247,5.105,4.557,1.896,1.81,1.82,1.11,18,4.429,5.054,-10,61.9452678716,norm,0,69,69,69,389.597,389.606,389.612845875,389.613,389.615,389.617,down,1,0.942787657725,9.05721234228,001,007,1920_1080,Intel(R) Core(TM) i5-3570 CPU @ 3.40GHz,orientation_search,LEPPC096,Intel(R) HD Graphics 2500,2018_Oct_18_1222,testMonitor,
66.1,53.3,55.3,49.0,36,-30,66.1,47.5,51.8,58.6,7.958,8.09,8.035,8.102,7.972,8.481,7.91,4.466,-4.683,-8.445,1.347,-1.195,7.767,5.088,-5.082,-8.398,37.6,61.6,-8.2,66.4,60.9,64.9,71.5,77.6,36,75.2,1,5,prime,10,0,67,norm,36,-4.447,up,norm,57.5877736037,55.1,43.4,48.4,41.0,3,60.6,59.9,65.1,10,6,8.463,5.147,1.932,-1.339,-4.936,-8.083,63.5,6,124.6,-8.201,-8.396,-30,-7.599,-8.029,-5.137,-4.997,-5.203,-4.582,4.898,8.11,9,-1.945,1.822,4.748,7.942,-8.491,-8.004,-1.928,2.034,,52.7,60.3,49.9,63.7,43.2,51.0,47.1,66.6,60.1,4,norm,1.651,1.675,-1.647,-1.239,-5.261,-4.634,-1.526,-1.391,-1.952,-2.083,1.251,-1.982,70.7,58.2,-5.265,-8.389,1.327,-1.621,8.175,4.853,-4.86,-8.358,18,5.064,4.595,5.293,4.602,1.88,1.261,1.273,1.82,18,4.49,4.952,-10,61.9452678716,norm,0,70,70,70,390.58,390.589,390.595583257,390.596,390.598,390.6,up,1,1.04427458521,8.95572541479,001,007,1920_1080,Intel(R) Core(TM) i5-3570 CPU @ 3.40GHz,orientation_search,LEPPC096,Intel(R) HD Graphics 2500,2018_Oct_18_1222,testMonitor,
54.1,50.0,52.1,52.9,36,-30,71.5,,46.7,55.1,7.98,7.865,8.215,7.827,8.347,7.728,8.39,4.817,-4.429,-7.757,1.714,-1.821,7.778,4.947,-5.171,-7.829,42.2,52.7,-7.722,60.4,55.5,59.0,48.1,61.1,36,52.5,4,5,prime,10,0,107,norm,36,-4.985,down,norm,57.5877736037,67.3,53.2,61.5,62.8,1,53.9,47.9,51.6,10,6,8.246,4.935,1.307,-1.52,-4.668,-8.143,37.6,6,164.6,-7.507,-7.764,-30,-8.454,-8.355,-4.596,-5.228,-5.096,-4.928,4.9,7.749,25,-1.918,1.543,4.901,7.815,-7.908,-7.968,-1.164,1.688,63.2,56.8,68.7,64.4,49.5,57.9,48.4,55.0,60.1,58.7,5,norm,1.141,2.032,-1.826,-1.55,-5.249,-4.447,-1.331,-1.455,-2.071,-1.502,1.542,-1.909,77.6,50.9,-4.428,-7.789,1.663,-1.381,8.284,4.942,-4.793,-8.244,18,4.625,4.629,5.271,5.172,1.953,1.26,1.773,1.395,18,4.677,4.509,-10,61.9452678716,norm,0,71,71,71,391.678,391.69,391.709677118,391.71,391.712,391.714,down,1,1.1706641746,8.8293358254,001,007,1920_1080,Intel(R) Core(TM) i5-3570 CPU @ 3.40GHz,orientation_search,LEPPC096,Intel(R) HD Graphics 2500,2018_Oct_18_1222,testMonitor,
92.7,104.3,92.7,101.7,36,40,99.5,105.9,105.0,97.3,7.683,7.647,7.676,8.227,8.484,8.421,8.138,5.254,-5.061,-8.232,1.23,-1.645,8.151,4.819,-4.668,-8.333,101.7,98.4,-8.155,101.3,104.5,104.9,99.3,98.9,36,101.0,2,5,probe,5,0,77,norm,36,-4.916,up,norm,100.722827719,103.6,,103.7,101.3,4,109.4,110.7,95.1,10,6,7.808,4.566,1.336,-1.948,-4.976,-8.218,97.3,1,23.7,-7.958,-8.179,-30,-7.526,-7.865,-4.784,-5.19,-4.587,-4.914,4.643,8.093,16,-1.607,1.204,5.2,8.468,-7.767,-7.704,-2.044,1.18,104.3,91.6,90.7,97.6,99.3,98.0,100.3,97.9,109.1,98.9,0,norm,1.409,1.946,-1.634,-1.592,-5.068,-4.744,-1.285,-1.595,-1.732,-1.789,1.173,-2.067,103.3,107.1,-4.46,-7.684,1.281,-1.618,7.656,4.412,-4.834,-8.284,19,4.52,4.575,4.795,4.361,1.739,1.917,2.014,1.934,19,5.137,4.579,-30,57.5877736037,norm,0,72,72,72,392.916,392.926,392.935005746,392.935,392.937,392.939,up,1,1.3841317331,8.6158682669,001,007,1920_1080,Intel(R) Core(TM) i5-3570 CPU @ 3.40GHz,orientation_search,LEPPC096,Intel(R) HD Graphics 2500,2018_Oct_18_1222,testMonitor,
205.0,212.6,211.2,192.9,36,-30,200.9,208.0,180.6,189.9,8.277,8.265,7.84,8.343,7.84,8.388,7.849,4.529,-5.04,-8.151,1.217,-1.745,8.42,5.155,-4.888,-8.124,206.5,220.6,-7.9,210.8,200.8,,200.9,198.5,36,196.6,5,5,prime,10,0,93,norm,36,-4.525,up,norm,200.565646043,190.0,185.3,207.9,197.5,3,200.2,202.7,192.2,10,5,7.652,5.236,1.91,-2.069,-4.878,-7.965,212.6,5,293.6,-8.212,-7.986,-30,-8.148,-7.969,-4.443,-4.819,-4.768,-4.766,4.674,7.66,33,-1.498,1.723,4.914,7.843,-8.469,-8.255,-1.231,1.793,213.4,197.9,215.1,194.9,193.7,198.2,199.1,189.6,204.9,207.9,0,norm,1.344,1.26,-1.202,-1.811,-4.881,-4.599,-1.664,-1.459,-2.017,-1.461,1.396,-1.562,209.1,195.7,-5.222,-8.434,1.67,-1.423,8.072,4.631,-4.605,-8.393,20,4.97,4.429,5.242,4.42,1.43,1.506,1.173,1.625,20,4.533,4.619,40,57.5877736037,norm,0,73,73,73,394.34,394.349,394.356231733,394.356,394.358,394.361,up,1,4.3104358397,5.6895641603,001,007,1920_1080,Intel(R) Core(TM) i5-3570 CPU @ 3.40GHz,orientation_search,LEPPC096,Intel(R) HD Graphics 2500,2018_Oct_18_1222,testMonitor,
180.6,198.6,195.7,216.4,36,-30,195.7,205.0,199.6,199.5,8.303,7.716,7.875,8.169,8.082,7.568,8.11,4.864,-4.493,-7.968,1.398,-1.145,7.892,4.904,-5.238,-8.006,203.8,208.9,-8.266,202.1,196.8,210.5,193.5,195.8,36,190.9,3,5,prime,10,0,81,norm,36,-4.752,down,norm,200.565646043,204.8,200.3,200.7,207.7,1,184.8,211.6,200.8,10,5,7.763,5.066,1.125,-1.367,-4.535,-7.618,199.8,5,281.6,-7.65,-7.598,-30,-8.481,-8.271,-4.479,-4.904,-4.317,-5.224,5.188,8.294,19,-1.903,1.355,5.164,7.62,-8.156,-8.081,-1.891,1.757,215.0,220.6,205.7,198.6,199.1,200.8,180.6,200.0,207.3,187.9,1,norm,1.256,1.856,-1.602,-1.432,-5.073,-4.598,-1.708,-1.586,-1.564,-1.961,1.814,-1.798,,183.2,-5.13,-8.319,1.262,-1.718,8.295,4.534,-4.904,-8.23,20,5.056,4.452,4.585,5.282,1.173,1.43,1.218,1.272,20,4.869,5.109,40,57.5877736037,norm,0,74,74,74,398.704,398.714,398.721857541,398.722,398.724,398.726,down,1,1.12922876037,8.87077123963,001,007,1920_1080,Intel(R) Core(TM) i5-3570 CPU @ 3.40GHz,orientation_search,LEPPC096,Intel(R) HD Graphics 2500,2018_Oct_18_1222,testMonitor,
197.7,180.6,201.9,198.6,36,-30,196.5,204.2,197.2,193.4,8.269,8.363,7.84,8.154,8.144,7.641,8.423,4.63,-4.337,-7.883,1.846,-1.746,7.646,4.806,-4.683,-7.89,199.7,201.0,-8.3,186.3,,205.1,208.5,206.0,36,209.5,5,5,prime,10,0,94,norm,36,-4.962,down,norm,200.565646043,200.5,212.5,197.4,199.3,0,197.6,188.2,211.0,10,5,7.678,5.137,1.448,-2.069,-4.771,-7.906,196.0,5,294.6,-7.959,-7.938,-30,-7.761,-7.723,-5.269,-4.741,-4.511,-5.008,4.935,8.09,30,-1.563,1.816,4.775,8.055,-8.236,-8.408,-1.898,1.356,202.7,191.1,197.6,202.4,220.6,202.4,192.6,218.0,201.7,188.3,2,norm,1.39,1.883,-1.503,-1.717,-4.812,-5.167,-1.959,-2.095,-2.062,-1.387,1.712,-1.149,195.6,189.3,-4.926,-7.55,1.36,-1.732,7.934,4.72,-4.566,-8.158,20,4.332,4.792,4.616,4.547,1.831,1.973,1.791,1.615,20,5.162,4.973,40,57.5877736037,norm,0,75,75,75,399.889,399.898,399.907359598,399.908,399.909,399.912,down,1,2.96211883158,7.03788116842,001,007,1920_1080,Intel(R) Core(TM) i5-3570 CPU @ 3.40GHz,orientation_search,LEPPC096,Intel(R) HD Graphics 2500,2018_Oct_18_1222,testMonitor,
199.5,204.6,201.3,202.3,36,-30,201.1,198.9,191.4,189.4,8.052,7.894,8.278,8.465,7.834,8.371,7.841,4.665,-5.026,-8.127,1.602,-1.783,8.155,5.069,-4.374,-8.11,202.6,220.6,-7.913,206.2,200.6,203.4,209.9,195.2,36,198.4,3,5,prime,10,0,71,norm,36,-5.181,down,norm,200.565646043,215.5,194.5,180.6,207.1,0,217.7,208.1,217.0,10,5,7.878,4.317,1.633,-1.762,-4.403,-7.535,207.1,5,271.6,-7.879,-8.436,-30,-8.433,-8.172,-4.428,-4.357,-4.86,-4.374,5.252,8.032,18,-1.314,1.901,4.33,8.357,-7.61,-8.002,-1.905,1.478,202.6,204.0,194.6,215.2,204.3,194.0,201.4,212.2,201.7,193.3,3,norm,2.07,1.391,-1.458,-1.428,-5.0,-4.659,-1.638,-1.259,-1.151,-2.011,1.67,-1.79,201.2,,-4.549,-7.668,1.164,-1.375,7.777,5.017,-4.844,-7.921,20,4.878,4.415,4.989,4.855,1.555,1.684,1.798,2.037,20,4.375,4.785,40,57.5877736037,norm,0,76,76,76,402.906,402.917,402.933592197,402.934,402.936,402.938,down,1,1.56742306461,8.43257693539,001,007,1920_1080,Intel(R) Core(TM) i5-3570 CPU @ 3.40GHz,orientation_search,LEPPC096,Intel(R) HD Graphics 2500,2018_Oct_18_1222,testMonitor,
207.0,183.2,182.1,,36,-30,193.3,201.1,209.6,197.1,8.135,7.953,7.606,8.062,7.859,8.483,8.127,4.832,-4.598,-8.247,1.233,-1.685,7.717,5.182,-4.3,-8.413,202.5,199.3,-7.929,196.3,202.7,201.3,180.6,202.3,36,184.6,3,5,prime,10,0,65,norm,36,-4.539,up,norm,200.565646043,196.0,209.3,200.2,203.5,3,200.5,201.9,193.7,10,5,8.355,4.709,1.82,-1.945,-4.317,-8.229,209.6,5,265.6,-8.352,-7.733,-30,-8.071,-7.954,-4.325,-4.491,-4.749,-5.143,4.591,8.029,21,-1.184,1.172,4.435,8.006,-8.153,-7.935,-1.591,1.359,211.3,203.8,220.6,189.4,211.0,183.6,199.9,203.3,209.6,192.9,4,norm,1.573,1.346,-2.014,-1.845,-4.32,-4.629,-2.017,-1.782,-1.777,-1.702,1.661,-1.975,215.1,211.1,-5.104,-8.238,1.587,-1.246,8.163,5.245,-4.977,-8.101,20,5.297,5.026,4.824,4.679,1.39,1.554,1.436,2.094,20,4.902,4.402,40,57.5877736037,norm,0,77,77,77,404.525,404.535,404.541399645,404.542,404.543,404.546,up,1,4.48049149115,5.51950850885,001,007,1920_1080,Intel(R) Core(TM) i5-3570 CPU @ 3.40GHz,orientation_search,LEPPC096,Intel(R) HD Graphics 2500,2018_Oct_18_1222,testMonitor,
232.7,225.2,232.6,228.4,36,-60,229.8,234.9,228.5,234.7,8.298,8.07,8.136,7.922,7.883,8.493,8.252,4.904,-4.994,-7.711,1.898,-1.434,8.232,5.218,-4.392,-7.573,238.8,227.5,-8.335,230.7,236.6,228.0,231.7,231.0,36,225.5,1,5,probe,5,0,60,norm,36,-4.61,down,norm,228.75254216,231.3,226.1,225.6,232.4,2,218.8,237.5,225.9,10,5,8.086,4.777,1.48,-1.593,-4.351,-7.69,227.2,1,168.8,-7.672,-8.218,-30,-7.532,-8.292,-5.222,-5.259,-4.621,-4.724,5.224,7.667,8,-1.73,1.432,4.378,8.128,-7.522,-7.603,-1.709,1.195,232.0,,226.5,233.3,230.6,233.8,231.8,220.9,228.8,226.4,0,norm,1.888,1.267,-1.294,-1.793,-4.865,-4.571,-1.567,-1.999,-1.977,-1.641,1.364,-1.104,231.5,228.6,-4.58,-8.451,1.52,-1.341,7.67,4.6,-4.601,-8.37,21,4.495,5.18,4.689,5.005,1.116,1.888,1.363,1.396,21,4.343,4.54,-30,200.565646043,norm,0,78,78,78,409.065,409.074,409.082731375,409.083,409.085,409.089,down,1,1.31306462327,8.68693537673,001,007,1920_1080,Intel(R) Core(TM) i5-3570 CPU @ 3.40GHz,orientation_search,LEPPC096,Intel(R) HD Graphics 2500,2018_Oct_18_1222,testMonitor,
223.6,203.7,211.2,227.2,36,30,,222.1,194.8,216.6,8.243,8.412,8.291,7.972,7.535,8.381,8.013,4.632,-4.675,-8.108,2.049,-1.132,7.971,5.058,-4.823,-7.954,213.5,217.5,-7.642,217.8,213.4,222.3,209.0,225.5,36,203.4,4,5,prime,10,0,98,norm,36,-4.328,down,norm,210.212756857,230.2,214.1,201.4,209.5,0,212.9,223.1,220.1,10,5,7.831,5.205,1.3,-1.491,-4.68,-8.262,229.0,5,308.2,-8.353,-7.593,30,-8.145,-7.786,-4.657,-5.1,-4.439,-5.2,5.199,8.131,24,-2.016,1.102,4.504,7.694,-7.805,-8.033,-1.606,1.434,202.0,205.0,214.9,206.7,221.9,217.7,217.7,194.3,193.8,218.7,0,norm,1.346,1.549,-1.302,-1.113,-5.288,-4.859,-1.316,-1.797,-1.658,-1.451,1.907,-1.253,190.2,209.0,-4.734,-8.13,1.121,-1.527,7.91,4.761,-5.203,-8.378,22,5.151,5.091,4.558,4.567,1.853,1.579,2.065,2.001,22,5.068,4.4,-60,200.565646043,norm,0,79,79,79,410.434,410.443,410.452554967,410.453,410.454,410.457,down,1,1.82117811404,8.17882188596,001,007,1920_1080,Intel(R) Core(TM) i5-3570 CPU @ 3.40GHz,orientation_search,LEPPC096,Intel(R) HD Graphics 2500,2018_Oct_18_1222,testMonitor,
218.1,,204.4,214.1,36,30,205.1,218.1,221.2,194.3,7.755,7.635,7.99,7.853,8.054,7.779,8.012,5.257,-5.139,-8.483,1.654,-1.63,7.641,4.539,-4.706,-7.849,210.0,204.1,-7.584,215.1,190.2,208.0,217.2,209.8,36,209.0,3,5,prime,10,0,61,norm,36,-4.99,up,norm,210.212756857,217.3,218.6,220.1,214.0,5,216.9,202.3,193.7,10,5,8.324,4.918,2.071,-1.851,-4.639,-7.677,215.8,5,271.2,-7.571,-7.761,30,-7.65,-8.208,-4.477,-4.798,-4.909,-4.78,4.436,8.282,23,-1.893,1.163,4.993,7.607,-7.954,-8.009,-1.157,1.901,191.0,219.8,212.5,204.4,205.3,215.3,221.2,214.4,191.1,209.5,1,norm,1.715,1.566,-1.943,-1.721,-5.009,-4.614,-1.826,-1.744,-1.927,-1.629,1.189,-1.663,201.9,230.2,-5.225,-8.23,1.648,-1.484,7.719,5.133,-4.327,-7.792,22,4.379,4.735,5.258,5.196,1.704,1.225,1.895,2.095,22,4.627,4.802,-60,200.565646043,norm,0,80,80,80,412.295,412.304,412.310826429,412.311,412.313,412.315,up,1,3.60311795655,6.39688204345,001,007,1920_1080,Intel(R) Core(TM) i5-3570 CPU @ 3.40GHz,orientation_search,LEPPC096,Intel(R) HD Graphics 2500,2018_Oct_18_1222,testMonitor,
215.3,222.9,222.4,206.7,36,30,218.7,206.2,213.8,219.8,7.602,7.703,8.221,7.728,8.49,7.851,8.297,4.718,-5.157,-7.577,1.168,-2.023,8.128,4.487,-5.259,-7.781,199.0,196.0,-8.254,207.4,194.9,211.6,213.4,221.4,36,190.4,3,5,prime,10,0,77,norm,36,-4.317,down,norm,210.212756857,203.6,226.8,205.9,200.8,1,205.9,227.5,222.0,10,5,8.1,4.515,1.458,-1.289,-5.066,-7.967,218.1,5,287.2,-7.917,-7.555,30,-7.527,-8.458,-4.524,-4.865,-5.17,-4.542,5.014,7.944,19,-1.426,1.601,5.195,8.336,-7.59,-8.149,-1.517,1.422,230.2,207.8,221.1,220.5,217.2,196.5,217.9,214.4,190.2,220.4,2,norm,1.702,1.916,-1.923,-1.364,-4.59,-4.626,-1.289,-2.024,-1.468,-1.586,2.082,-1.702,,215.5,-4.766,-8.003,1.698,-1.417,8.184,4.447,-4.652,-8.339,22,4.781,4.615,5.108,4.83,2.012,1.333,1.646,1.513,22,4.799,5.007,-60,200.565646043,norm,0,81,81,81,415.96,415.976,415.992460471,415.993,415.994,415.997,down,1,1.01303887577,8.98696112423,001,007,1920_1080,Intel(R) Core(TM) i5-3570 CPU @ 3.40GHz,orientation_search,LEPPC096,Intel(R) HD Graphics 2500,2018_Oct_18_1222,testMonitor,
200.8,208.0,204.7,213.2,36,30,230.2,221.4,219.8,210.7,8.357,7.998,8.405,8.118,7.748,8.257,8.433,4.754,-5.211,-8.023,1.802,-1.688,7.968,4.814,-4.755,-8.176,207.7,203.3,-7.569,193.3,205.7,203.5,201.4,229.1,36,209.8,1,5,prime,10,0,80,norm,36,-4.615,down,norm,210.212756857,216.2,221.5,192.4,195.8,0,218.8,214.9,208.3,10,5,8.061,4.493,2.081,-1.641,-4.602,-7.884,212.9,5,290.2,-7.64,-7.641,30,-8.251,-7.79,-4.98,-5.29,-4.412,-4.317,4.598,7.838,6,-1.978,1.944,4.62,7.852,-7.583,-8.145,-1.949,1.208,200.6,228.5,209.0,226.6,205.2,218.2,210.5,,219.1,209.2,3,norm,1.164,1.552,-1.135,-1.466,-4.395,-4.749,-1.692,-2.093,-1.897,-1.31,1.665,-1.427,210.3,203.6,-4.382,-7.752,1.77,-1.772,7.624,4.526,-4.468,-7.925,22,4.476,4.376,4.497,5.0,1.997,1.838,1.176,1.162,22,4.833,4.911,-60,200.565646043,norm,0,82,82,82,417.052,417.061,417.067689746,417.068,417.07,417.072,down,1,0.940481548198,9.0595184518,001,007,1920_1080,Intel(R) Core(TM) i5-3570 CPU @ 3.40GHz,orientation_search,LEPPC096,Intel(R) HD Graphics 2500,2018_Oct_18_1222,testMonitor,
202.7,224.2,212.1,214.8,36,30,217.5,217.4,202.2,208.7,7.936,8.001,7.506,8.197,8.405,7.851,8.394,4.745,-5.071,-7.507,1.106,-1.628,8.474,4.532,-4.784,-7.556,202.4,201.6,-7.926,190.2,209.0,221.4,217.1,216.9,36,202.7,3,5,prime,10,0,73,norm,36,-4.853,down,norm,210.212756857,197.2,196.4,223.9,201.4,1,199.6,205.2,230.2,10,5,7.915,5.151,1.753,-1.489,-5.194,-7.833,205.3,5,283.2,-7.678,-7.849,30,-7.726,-8.213,-4.867,-4.663,-4.703,-5.23,4.767,7.534,19,-1.647,1.729,4.402,8.456,-7.745,-8.49,-1.486,1.947,193.9,211.5,200.0,209.7,207.7,202.3,213.5,217.0,229.7,205.4,4,norm,1.602,1.416,-1.284,-1.768,-4.719,-4.947,-1.292,-1.423,-1.701,-1.801,1.61,-1.386,,221.2,-4.957,-7.653,1.946,-1.676,8.414,4.823,-4.425,-7.575,22,5.135,4.681,4.489,4.9,1.807,1.13,1.152,1.527,22,5.048,4.899,-60,200.565646043,norm,0,83,83,83,418.045,418.055,418.065009649,418.065,418.067,418.069,down,1,0.84377828869,9.15622171131,001,007,1920_1080,Intel(R) Core(TM) i5-3570 CPU @ 3.40GHz,orientation_search,LEPPC096,Intel(R) HD Graphics 2500,2018_Oct_18_1222,testMonitor,
356.1,347.1,359.9,344.2,36,20,355.8,346.5,360.6,359.9,8.277,7.518,8.43,7.991,8.29,8.42,7.601,4.732,-4.83,-8.082,1.412,-1.873,8.255,5.27,-4.986,-7.95,359.2,349.6,-7.817,346.3,357.6,354.5,354.2,362.0,36,357.3,2,5,probe,5,0,112,norm,36,-4.592,down,norm,354.171562376,348.9,362.0,351.6,,2,354.9,350.8,361.8,10,5,7.754,4.372,1.967,-1.138,-4.911,-8.059,364.2,1,242.2,-7.71,-7.754,30,-8.037,-7.504,-5.142,-4.777,-4.498,-4.626,4.832,8.419,14,-1.268,1.676,5.117,7.722,-7.604,-8.482,-1.585,1.576,353.9,359.8,351.5,356.3,361.3,352.7,357.3,358.0,348.9,359.3,0,norm,1.442,1.839,-2.099,-1.491,-4.437,-5.271,-1.902,-1.522,-2.009,-1.566,1.55,-1.275,350.3,353.6,-5.288,-8.383,1.138,-1.91,7.978,4.544,-5.066,-7.955,23,4.321,5.035,4.378,5.257,1.571,1.337,1.126,1.572,23,4.402,5.148,30,210.212756857,norm,0,84,84,84,418.955,418.976,418.987534935,418.988,418.99,418.993,down,1,1.70180585887,8.29819414113,001,007,1920_1080,Intel(R) Core(TM) i5-3570 CPU @ 3.40GHz,orientation_search,LEPPC096,Intel(R) HD Graphics 2500,2018_Oct_18_1222,testMonitor,
187.7,193.2,179.7,194.4,36,-60,186.5,183.3,182.7,192.6,8.338,8.136,8.139,8.302,7.504,8.197,8.211,4.866,-5.077,-8.109,1.52,-2.004,8.113,5.016,-5.062,-8.034,201.0,189.5,-8.135,185.6,185.6,176.8,206.4,178.0,36,166.4,1,5,prime,10,0,92,norm,36,-4.505,down,norm,186.352548736,188.6,203.8,187.8,198.0,1,189.5,198.4,175.2,10,5,8.414,4.962,2.012,-1.51,-5.062,-8.099,178.3,5,278.4,-7.815,-7.919,-60,-7.858,-8.398,-5.291,-5.06,-4.772,-5.158,5.002,8.015,7,-2.03,1.641,4.85,8.469,-8.382,-7.946,-1.837,2.008,188.5,191.5,197.1,184.8,175.9,187.0,,193.5,176.0,176.3,0,norm,2.049,1.376,-1.486,-2.039,-4.49,-4.922,-1.656,-2.097,-1.304,-1.345,1.34,-1.264,193.0,178.3,-4.563,-8.446,1.307,-1.558,8.421,4.531,-4.845,-7.51,24,4.479,5.182,5.157,4.797,1.81,1.159,1.689,2.04,24,4.74,4.371,20,210.212756857,norm,0,85,85,85,420.733,420.742,420.750086856,420.75,420.752,420.755,down,1,3.23040418199,6.76959581801,001,007,1920_1080,Intel(R) Core(TM) i5-3570 CPU @ 3.40GHz,orientation_search,LEPPC096,Intel(R) HD Graphics 2500,2018_Oct_18_1222,testMonitor,
204.2,183.3,192.9,182.1,36,-60,178.6,181.3,197.0,167.0,8.273,7.876,7.713,7.734,7.835,8.173,7.843,5.296,-4.602,-8.061,1.86,-2.016,8.014,4.607,-4.592,-7.582,166.4,189.2,-8.286,191.8,189.5,179.8,206.4,178.3,36,190.5,2,5,prime,10,0,66,norm,36,-4.688,up,norm,186.352548736,195.6,189.0,,193.1,3,180.4,195.1,183.9,10,5,7.678,4.776,1.883,-1.806,-4.897,-7.843,197.3,5,252.4,-8.383,-8.234,-60,-7.869,-7.771,-4.541,-5.219,-4.577,-4.865,5.094,7.734,15,-1.146,1.82,4.925,8.421,-7.953,-8.194,-1.566,1.7,182.8,171.6,193.6,167.8,186.5,197.1,191.0,182.3,195.4,186.1,1,norm,2.026,1.875,-1.225,-1.204,-5.004,-4.319,-1.226,-1.498,-1.833,-1.951,2.094,-1.681,197.0,175.6,-4.447,-7.64,1.487,-1.786,8.125,5.217,-4.778,-8.057,24,5.114,4.855,4.754,4.549,1.205,1.832,1.464,1.58,24,4.367,4.647,20,210.212756857,norm,0,86,86,86,424.018,424.028,424.050213421,424.05,424.052,424.055,up,1,6.25942463777,3.74057536223,001,007,1920_1080,Intel(R) Core(TM) i5-3570 CPU @ 3.40GHz,orientation_search,LEPPC096,Intel(R) HD Graphics 2500,2018_Oct_18_1222,testMonitor,
187.5,198.3,174.0,181.4,36,-60,189.6,201.3,193.3,187.9,7.943,8.151,8.25,7.945,7.605,8.489,7.834,4.669,-4.588,-8.166,1.396,-1.568,7.931,4.71,-4.38,-7.869,177.9,187.5,-8.046,181.1,173.8,181.6,184.8,166.4,36,191.6,0,5,prime,10,0,108,norm,36,-5.086,up,norm,186.352548736,202.7,193.8,195.0,177.2,5,189.4,190.9,196.5,10,5,7.987,5.112,1.277,-1.315,-4.474,-7.68,200.6,5,294.4,-8.108,-8.42,-60,-8.297,-8.42,-4.534,-4.972,-4.511,-4.83,5.011,7.987,5,-1.633,1.145,5.226,7.959,-8.013,-7.825,-2.057,1.904,182.8,177.2,188.2,180.6,188.1,206.4,198.9,194.8,,179.5,2,norm,1.349,1.14,-1.1,-1.167,-4.543,-4.491,-1.917,-1.791,-1.39,-1.791,1.39,-1.673,182.8,194.5,-4.341,-8.355,1.441,-1.561,7.718,4.996,-4.431,-8.061,24,4.796,5.091,4.809,4.843,1.942,1.949,2.009,1.722,24,5.148,4.733,20,210.212756857,norm,0,87,87,87,430.347,430.36,430.379370704,430.38,430.381,430.384,up,1,8.42241707433,1.57758292567,001,007,1920_1080,Intel(R) Core(TM) i5-3570 CPU @ 3.40GHz,orientation_search,LEPPC096,Intel(R) HD Graphics 2500,2018_Oct_18_1222,testMonitor,
187.5,179.4,195.9,190.6,36,-60,179.1,200.9,190.6,183.6,7.814,7.781,8.28,7.538,8.335,8.484,8.414,5.011,-4.332,-7.751,1.284,-1.331,8.471,5.022,-5.059,-8.362,192.9,174.2,-7.975,186.0,183.4,193.8,,174.2,36,183.8,5,5,prime,10,0,83,norm,36,-5.221,down,norm,186.352548736,186.7,177.0,172.1,192.7,2,184.6,190.0,193.2,10,5,7.97,4.471,1.365,-1.574,-4.69,-7.685,187.4,5,269.4,-7.798,-8.102,-60,-7.74,-7.564,-4.773,-4.338,-5.059,-4.481,4.323,7.575,32,-1.519,1.952,4.693,8.379,-7.959,-7.824,-1.781,1.892,184.9,196.3,175.1,189.1,194.4,166.4,189.2,175.7,192.3,184.8,3,norm,1.677,1.893,-1.241,-1.81,-4.318,-4.507,-1.609,-1.688,-1.822,-1.932,1.766,-1.691,186.5,206.4,-4.436,-7.681,1.382,-1.569,8.289,5.196,-4.728,-8.462,24,4.892,4.646,5.026,5.138,1.601,1.835,1.405,1.165,24,5.265,5.061,20,210.212756857,norm,0,88,88,88,438.844,438.863,438.876596883,438.877,438.879,438.882,down,1,1.12673520402,8.87326479598,001,007,1920_1080,Intel(R) Core(TM) i5-3570 CPU @ 3.40GHz,orientation_search,LEPPC096,Intel(R) HD Graphics 2500,2018_Oct_18_1222,testMonitor,
181.1,,166.4,179.7,36,-60,194.9,206.4,194.5,191.4,8.412,8.349,7.826,7.958,8.211,7.736,8.16,4.365,-4.393,-8.471,1.18,-1.837,7.628,4.449,-4.918,-8.429,186.7,190.7,-8.188,181.7,194.2,194.3,192.2,178.7,36,180.3,3,5,prime,10,0,60,norm,36,-4.955,up,norm,186.352548736,168.8,206.0,188.7,181.1,5,174.4,186.3,182.7,10,5,7.863,4.928,1.984,-1.563,-4.807,-7.605,187.0,5,246.4,-7.512,-8.475,-60,-7.982,-7.75,-5.286,-5.042,-4.436,-4.743,4.996,7.82,23,-1.277,1.795,4.788,7.852,-8.167,-8.067,-1.281,2.004,181.8,170.1,179.5,180.8,205.5,187.5,178.9,176.1,182.1,174.6,4,norm,1.92,2.018,-1.466,-1.721,-4.913,-4.604,-1.214,-1.407,-1.39,-1.902,1.684,-1.412,195.0,197.1,-4.619,-8.033,2.054,-2.034,7.829,4.647,-4.49,-7.612,24,4.917,4.568,5.093,5.298,1.29,1.701,1.557,1.278,24,4.905,4.545,20,210.212756857,norm,0,89,89,89,440.041,440.051,440.059985711,440.06,440.062,440.064,up,1,1.87722985551,8.12277014449,001,007,1920_1080,Intel(R) Core(TM) i5-3570 CPU @ 3.40GHz,orientation_search,LEPPC096,Intel(R) HD Graphics 2500,2018_Oct_18_1222,testMonitor,
186.9,195.3,196.7,195.3,36,-10,190.1,190.9,185.6,197.3,8.401,7.87,8.151,7.67,7.844,8.452,7.641,4.55,-4.903,-8.078,1.864,-1.534,7.709,4.427,-5.215,-8.302,197.1,198.0,-8.016,196.4,205.5,195.7,201.5,203.0,36,197.3,2,5,probe,5,0,74,norm,36,-4.581,down,norm,195.450935631,195.4,202.5,196.0,185.5,1,188.0,,198.7,10,5,8.472,5.112,1.242,-1.464,-4.584,-8.451,194.3,1,121.5,-8.08,-7.863,-60,-8.306,-8.459,-4.938,-4.402,-4.731,-4.513,4.48,8.196,13,-1.731,1.321,4.443,8.188,-8.043,-8.188,-1.741,1.355,201.4,195.8,189.2,195.9,203.2,200.9,194.2,197.5,194.8,198.6,0,norm,1.554,2.027,-1.326,-1.868,-4.849,-4.449,-2.088,-2.027,-1.224,-1.775,2.006,-1.458,196.9,199.7,-5.017,-7.926,1.392,-1.629,8.316,4.802,-4.539,-7.675,25,5.128,5.073,4.363,4.496,1.322,1.711,1.947,1.887,25,5.128,4.563,-60,186.352548736,norm,0,90,90,90,441.979,441.989,441.99518977,441.995,441.997,442.0,down,1,0.942157401703,9.0578425983,001,007,1920_1080,Intel(R) Core(TM) i5-3570 CPU @ 3.40GHz,orientation_search,LEPPC096,Intel(R) HD Graphics 2500,2018_Oct_18_1222,testMonitor,
212.4,221.9,205.5,216.2,36,-10,209.5,218.1,210.0,203.1,8.052,8.284,8.198,7.961,7.709,7.985,7.975,4.566,-4.412,-7.641,1.649,-1.827,8.185,4.697,-4.655,-7.667,221.3,228.7,-8.34,234.4,203.6,230.8,214.1,217.3,36,223.3,3,5,prime,10,0,94,norm,36,-4.997,down,norm,218.448861445,200.5,224.1,211.8,218.0,1,204.8,209.3,204.8,10,6,7.599,5.184,1.814,-1.895,-5.078,-7.745,234.9,6,312.4,-8.484,-7.654,-10,-8.266,-8.2,-4.883,-5.229,-4.91,-4.968,4.883,7.958,19,-1.943,1.749,4.895,7.643,-8.266,-8.41,-1.942,1.955,217.4,233.3,238.4,217.1,211.4,215.9,198.4,225.7,219.7,213.3,0,norm,1.92,1.512,-1.768,-1.95,-4.953,-4.311,-1.559,-1.534,-1.758,-1.317,1.502,-1.181,,219.7,-5.168,-8.255,1.944,-1.861,8.48,4.716,-4.778,-8.245,26,5.272,5.074,4.874,5.187,1.383,1.692,1.835,1.535,26,5.03,4.736,-10,186.352548736,norm,0,91,91,91,442.962,442.972,442.97821451,442.978,442.98,442.983,down,1,1.09526465775,8.90473534225,001,007,1920_1080,Intel(R) Core(TM) i5-3570 CPU @ 3.40GHz,orientation_search,LEPPC096,Intel(R) HD Graphics 2500,2018_Oct_18_1222,testMonitor,
226.2,217.5,218.0,219.0,36,-10,214.8,228.6,229.5,230.5,8.035,7.844,7.591,8.483,8.114,7.82,7.987,5.245,-4.974,-8.024,1.669,-1.236,8.087,5.249,-4.782,-8.419,221.1,206.7,-7.745,216.7,238.4,212.6,213.0,209.4,36,218.5,1,5,prime,10,0,62,norm,36,-5.182,up,norm,218.448861445,227.3,223.7,231.5,225.4,5,,208.7,210.6,10,6,8.109,4.682,1.21,-1.11,-4.678,-8.466,230.9,6,280.4,-8.059,-8.273,-10,-8.33,-8.287,-4.964,-4.605,-4.892,-4.33,4.719,8.046,11,-1.397,1.24,5.219,7.888,-7.621,-8.461,-1.371,1.411,224.5,214.6,210.8,222.2,222.0,208.9,215.6,198.4,208.0,217.7,1,norm,1.342,1.706,-1.494,-1.231,-5.022,-4.804,-1.198,-1.761,-1.956,-2.039,1.466,-2.083,200.5,220.3,-5.052,-7.526,1.516,-1.218,7.561,4.471,-5.153,-7.682,26,4.351,4.58,4.649,4.927,1.254,1.216,1.582,1.799,26,4.851,4.333,-10,186.352548736,norm,0,92,92,92,444.111,444.121,444.126509121,444.127,444.129,444.131,up,1,0.930436690804,9.0695633092,001,007,1920_1080,Intel(R) Core(TM) i5-3570 CPU @ 3.40GHz,orientation_search,LEPPC096,Intel(R) HD Graphics 2500,2018_Oct_18_1222,testMonitor,
220.7,213.5,226.2,234.4,36,-10,219.9,220.5,232.8,214.8,7.705,7.577,7.628,8.144,7.96,7.754,7.926,4.502,-4.503,-8.329,1.986,-1.692,8.293,5.127,-5.264,-8.405,232.7,,-8.486,214.0,209.1,217.1,219.8,205.1,36,198.4,5,5,prime,10,0,60,norm,36,-4.994,up,norm,218.448861445,230.7,215.4,212.5,235.2,4,220.5,227.3,215.5,10,6,8.356,4.773,2.053,-2.011,-4.844,-8.057,199.0,6,278.4,-7.562,-8.413,-10,-7.625,-7.698,-4.916,-5.1,-5.048,-4.904,5.147,7.78,34,-1.927,1.673,4.89,8.279,-7.635,-7.555,-1.725,1.276,216.7,223.6,218.5,238.4,216.4,218.5,199.8,200.3,230.6,234.7,2,norm,1.136,1.997,-1.816,-1.451,-4.354,-4.728,-1.49,-1.541,-2.015,-1.338,1.872,-1.896,217.2,215.1,-5.254,-7.96,1.223,-1.281,8.366,4.94,-4.875,-8.393,26,4.308,4.356,4.886,4.648,1.476,1.817,1.217,1.359,26,5.297,4.638,-10,186.352548736,norm,0,93,93,93,445.099,445.109,445.116256895,445.116,445.118,445.121,down,0,1.0422971868,-10,001,007,1920_1080,Intel(R) Core(TM) i5-3570 CPU @ 3.40GHz,orientation_search,LEPPC096,Intel(R) HD Graphics 2500,2018_Oct_18_1222,testMonitor,
219.0,209.2,217.2,223.2,36,-10,208.2,218.7,235.2,229.1,7.853,8.028,8.367,7.705,7.666,8.374,8.288,5.184,-4.604,-8.292,2.093,-1.451,7.906,5.124,-4.903,-8.102,211.7,220.1,-8.247,220.0,225.8,235.8,222.1,198.4,36,213.9,1,5,prime,10,0,60,norm,36,-5.099,down,norm,218.448861445,228.4,231.3,222.9,226.0,1,214.1,212.0,204.9,10,6,7.751,5.268,1.768,-2.079,-4.442,-8.367,216.8,6,278.4,-7.879,-8.422,-10,-8.446,-7.643,-5.131,-4.646,-4.555,-4.951,5.014,7.96,7,-1.356,1.138,4.583,7.995,-7.658,-8.266,-2.058,1.193,223.0,211.8,208.6,214.4,202.3,218.5,,227.7,238.4,222.5,3,norm,1.433,1.402,-1.413,-2.073,-4.883,-4.518,-1.747,-1.449,-1.248,-1.408,1.349,-1.524,232.1,224.7,-4.347,-8.236,1.788,-1.145,7.726,5.202,-4.568,-7.868,26,4.446,4.494,5.196,5.034,1.255,1.607,1.262,1.372,26,4.868,4.411,-10,186.352548736,norm,0,94,94,94,447.229,447.238,447.251403663,447.252,447.253,447.256,down,1,0.943781941081,9.05621805892,001,007,1920_1080,Intel(R) Core(TM) i5-3570 CPU @ 3.40GHz,orientation_search,LEPPC096,Intel(R) HD Graphics 2500,2018_Oct_18_1222,testMonitor,
222.1,198.4,219.7,216.8,36,-10,,202.8,203.3,238.4,7.989,7.71,8.082,7.974,7.574,8.382,7.855,4.909,-4.952,-7.798,1.707,-1.663,7.791,4.754,-5.175,-8.335,222.3,206.1,-7.664,227.3,211.8,222.0,228.2,235.2,36,223.9,4,5,prime,10,0,82,norm,36,-5.037,down,norm,218.448861445,227.4,227.4,219.9,212.7,0,223.5,222.5,222.5,10,6,7.84,4.425,1.13,-1.846,-4.724,-7.626,213.0,6,300.4,-8.187,-7.897,-10,-8.153,-7.856,-5.156,-4.383,-4.854,-4.352,5.253,8.193,24,-1.665,1.672,4.773,7.966,-7.84,-8.107,-1.283,1.92,214.4,217.4,216.4,208.7,216.1,211.0,219.0,218.8,219.8,234.8,4,norm,1.626,1.59,-1.373,-1.383,-4.731,-4.583,-1.754,-1.38,-1.751,-1.457,1.948,-1.788,225.5,229.1,-5.132,-8.284,1.909,-1.942,8.432,5.115,-5.014,-8.055,26,4.415,4.914,4.755,4.581,1.606,1.805,1.797,1.715,26,4.557,4.391,-10,186.352548736,norm,0,95,95,95,448.219,448.229,448.235183624,448.235,448.237,448.24,down,1,0.842317953939,9.15768204606,001,007,1920_1080,Intel(R) Core(TM) i5-3570 CPU @ 3.40GHz,orientation_search,LEPPC096,Intel(R) HD Graphics 2500,2018_Oct_18_1222,testMonitor,
