d_ori_22,d_ori_23,d_ori_20,d_ori_21,set_size,ctpd,d_ori_24,d_ori_25,d_ori_28,d_ori_29,stim_pos_x_30,stim_pos_x_31,stim_pos_x_32,stim_pos_x_33,stim_pos_x_34,stim_pos_x_35,stim_pos_y_11,stim_pos_y_10,stim_pos_y_13,stim_pos_y_12,stim_pos_y_15,stim_pos_y_14,stim_pos_y_17,stim_pos_y_16,stim_pos_y_19,stim_pos_y_18,d_ori_35,d_ori_34,stim_pos_x_3,d_ori_31,d_ori_30,d_ori_33,d_ori_32,d_ori_26,test_set_size,d_ori_27,targetCol,dsd_test,seq_type,dsd,blockRepN,targetDist,dtype_test,prime_set_size,stim_pos_y_25,correctResponse,dtype,distrMean,d_ori_17,d_ori_16,d_ori_15,d_ori_14,targetRow,d_ori_11,d_ori_13,d_ori_12,dsd_prime,streak_length_prime,stim_pos_y_35,stim_pos_y_34,stim_pos_y_33,stim_pos_y_32,stim_pos_y_31,stim_pos_y_30,d_ori_10,nextProbe,targetOri,stim_pos_x_1,stim_pos_x_2,ctpd_prime,stim_pos_x_4,stim_pos_x_5,stim_pos_x_6,stim_pos_x_7,stim_pos_x_8,stim_pos_x_9,stim_pos_y_28,stim_pos_y_29,targetPos,stim_pos_y_20,stim_pos_y_21,stim_pos_y_22,stim_pos_y_23,stim_pos_y_24,stim_pos_x_0,stim_pos_y_26,stim_pos_y_27,d_ori_9,d_ori_8,d_ori_3,d_ori_2,d_ori_1,d_ori_0,d_ori_7,d_ori_6,d_ori_5,d_ori_4,trialN,dtype_prime,stim_pos_x_18,stim_pos_x_19,stim_pos_x_12,stim_pos_x_13,stim_pos_x_10,stim_pos_x_11,stim_pos_x_16,stim_pos_x_17,stim_pos_x_14,stim_pos_x_15,stim_pos_y_9,stim_pos_y_8,d_ori_19,d_ori_18,stim_pos_y_1,stim_pos_y_0,stim_pos_y_3,stim_pos_y_2,stim_pos_y_5,stim_pos_y_4,stim_pos_y_7,stim_pos_y_6,totBlockN,stim_pos_x_27,stim_pos_x_26,stim_pos_x_25,stim_pos_x_24,stim_pos_x_23,stim_pos_x_22,stim_pos_x_21,stim_pos_x_20,blockN,stim_pos_x_29,stim_pos_x_28,prevDistrCTPD,prevDistrMean,prevDistrType,trials.thisRepN,trials.thisTrialN,trials.thisN,trials.thisIndex,timeStart,timeBeforeDraw,timeDraw,timeAfterSaving,timeAfterWritingToTemp,timeAfterPreparingNext,answer,correct,rt,trialScore,session,participant,resolution,cpu_info,expName,pc_name,graphic_card,date,monitorName,
246.7,260.4,244.7,232.2,36,10,246.4,234.5,239.3,,7.586,7.912,7.761,7.569,8.175,8.071,8.125,4.664,-4.329,-8.156,1.486,-1.486,8.424,4.344,-4.356,-7.901,239.8,254.9,-8.3,235.6,250.3,244.5,257.6,247.2,36,242.1,4,5,prime,10,0,94,norm,36,-4.499,up,norm,244.590984899,234.7,250.2,254.0,248.8,5,235.6,224.6,237.6,10,6,8.378,4.971,1.481,-1.789,-4.317,-7.525,241.7,6,338.6,-7.858,-7.833,10,-8.381,-8.42,-5.114,-4.437,-4.476,-4.582,5.084,8.048,29,-1.458,2.031,5.192,7.995,-8.424,-7.554,-1.106,1.709,253.7,239.5,253.1,255.7,254.0,235.3,264.6,252.4,256.2,241.2,0,norm,1.959,1.952,-1.947,-1.915,-5.257,-4.738,-1.112,-2.093,-1.836,-1.389,1.268,-1.519,253.1,243.7,-4.978,-7.9,1.777,-1.116,7.766,5.058,-4.921,-7.877,0,4.722,4.888,4.374,5.005,1.804,1.872,1.806,1.442,0,4.808,5.267,,,,0,0,0,0,175.665,175.689,175.7086979,175.709,175.709,175.712,up,1,0.695060503496,9.3049394965,001,021,1920_1200,Intel(R) Core(TM) i5-3570 CPU @ 3.40GHz,orientation_search,LEPPC096,Intel(R) HD Graphics 2500,2018_Dec_21_1246,testMonitor,
264.2,252.3,235.5,253.7,36,10,254.3,,225.5,228.2,8.292,8.082,8.238,7.831,7.622,8.306,7.715,4.509,-4.382,-7.916,1.987,-1.865,7.735,5.17,-5.06,-7.568,244.5,243.2,-8.441,241.3,259.8,244.2,246.5,264.6,36,243.3,4,5,prime,10,0,98,norm,36,-5.088,down,norm,244.590984899,235.9,246.5,264.1,245.4,1,231.1,239.5,238.7,10,6,7.601,5.159,1.144,-1.778,-4.497,-8.373,260.4,6,342.6,-8.327,-7.808,10,-8.353,-7.963,-5.236,-4.59,-5.086,-5.242,5.227,7.791,25,-1.904,1.279,5.13,8.347,-8.484,-7.888,-1.523,1.515,245.6,249.0,245.6,242.0,260.4,247.8,237.4,224.6,235.3,255.1,1,norm,1.561,2.021,-2.063,-1.634,-4.747,-4.865,-1.402,-1.724,-1.336,-2.026,1.464,-1.722,257.1,257.2,-5.291,-7.733,1.609,-1.878,8.004,5.113,-4.625,-8.342,0,4.761,5.024,5.153,4.691,1.77,1.643,1.356,2.003,0,4.344,4.69,,,,0,1,1,1,176.439,176.449,176.466435191,176.467,176.468,176.47,down,1,0.844335967744,9.15566403226,001,021,1920_1200,Intel(R) Core(TM) i5-3570 CPU @ 3.40GHz,orientation_search,LEPPC096,Intel(R) HD Graphics 2500,2018_Dec_21_1246,testMonitor,
232.5,237.8,251.1,249.9,36,10,233.1,247.9,252.7,253.1,7.787,8.305,7.807,8.164,8.261,7.821,8.336,5.295,-4.411,-7.657,1.817,-1.903,8.097,4.944,-5.215,-7.87,239.2,263.1,-8.248,244.5,240.7,243.5,254.9,224.9,36,224.6,1,5,prime,10,0,74,norm,36,-5.012,down,norm,244.590984899,228.1,247.4,244.3,242.4,2,241.4,250.5,235.7,10,6,8.332,4.798,2.047,-1.445,-4.682,-8.226,241.7,6,318.6,-7.992,-7.798,10,-8.198,-8.037,-4.774,-4.338,-4.82,-4.307,4.966,8.181,8,-1.314,1.269,4.625,8.454,-8.42,-8.186,-1.746,1.712,259.4,,240.2,231.0,240.4,245.6,261.7,264.6,261.8,254.2,2,norm,2.034,1.378,-1.195,-1.413,-4.858,-5.17,-1.345,-2.032,-1.712,-1.731,1.456,-1.402,249.1,248.2,-4.934,-8.3,1.988,-1.793,7.8,4.332,-4.639,-7.912,0,4.553,5.019,4.393,4.384,1.289,1.84,1.453,1.447,0,5.283,5.044,,,,0,2,2,2,177.357,177.378,177.38900961,177.389,177.391,177.394,down,1,0.742558065336,9.25744193466,001,021,1920_1200,Intel(R) Core(TM) i5-3570 CPU @ 3.40GHz,orientation_search,LEPPC096,Intel(R) HD Graphics 2500,2018_Dec_21_1246,testMonitor,
246.2,239.3,264.6,250.9,36,10,244.8,243.8,245.4,257.6,7.786,8.448,8.411,8.275,8.302,8.107,7.506,5.099,-5.089,-7.871,1.268,-2.056,8.344,4.393,-4.794,-8.056,232.2,260.2,-7.573,243.1,257.4,239.2,232.6,232.0,36,235.3,0,5,prime,10,0,87,norm,36,-4.625,down,norm,244.590984899,232.6,253.1,246.6,244.8,2,232.4,243.3,241.0,10,6,8.424,4.77,1.935,-1.498,-5.208,-7.68,242.0,6,331.6,-8.271,-7.567,10,-8.238,-7.768,-5.255,-4.874,-4.856,-4.837,4.995,7.581,2,-1.346,1.348,5.295,7.658,-7.989,-7.898,-1.818,1.862,237.1,246.2,224.6,,240.6,254.2,251.9,227.1,233.8,242.6,3,norm,1.103,1.805,-1.737,-1.133,-4.669,-4.398,-1.263,-1.208,-1.103,-1.619,1.323,-1.525,255.7,225.1,-4.558,-8.225,1.688,-1.334,8.063,4.981,-4.78,-8.404,0,5.207,4.942,4.856,4.581,1.115,1.867,1.829,1.558,0,4.699,4.478,,,,0,3,3,3,178.17,178.185,178.202330914,178.203,178.204,178.207,down,1,2.99479979921,7.00520020079,001,021,1920_1200,Intel(R) Core(TM) i5-3570 CPU @ 3.40GHz,orientation_search,LEPPC096,Intel(R) HD Graphics 2500,2018_Dec_21_1246,testMonitor,
239.7,245.1,262.2,263.1,36,10,229.2,250.0,244.3,246.0,8.195,8.087,8.294,8.394,8.186,7.65,7.925,4.404,-4.372,-7.934,1.769,-1.926,8.318,4.58,-4.892,-7.565,234.7,245.4,-8.089,250.3,224.6,256.0,238.0,229.7,36,241.5,2,5,prime,10,0,72,norm,36,-4.789,down,norm,244.590984899,247.6,255.4,260.0,251.1,1,240.9,,248.9,10,6,8.011,4.719,2.007,-1.175,-4.783,-7.968,239.9,6,316.6,-8.135,-8.322,10,-7.636,-8.407,-5.245,-4.41,-5.134,-5.154,4.885,8.176,13,-1.949,1.3,4.515,7.562,-8.433,-8.4,-1.157,1.693,246.6,224.6,235.4,256.3,245.3,252.8,251.0,264.1,264.6,238.6,4,norm,1.55,1.53,-1.567,-1.171,-5.123,-4.59,-1.83,-1.256,-1.432,-1.469,1.513,-1.249,243.7,235.4,-4.661,-8.428,1.36,-1.178,8.331,5.132,-4.941,-8.293,0,5.221,5.136,4.692,4.526,1.119,1.732,1.435,1.884,0,4.857,4.837,,,,0,4,4,4,181.24,181.25,181.256599785,181.257,181.259,181.261,down,1,0.842363103084,9.15763689692,001,021,1920_1200,Intel(R) Core(TM) i5-3570 CPU @ 3.40GHz,orientation_search,LEPPC096,Intel(R) HD Graphics 2500,2018_Dec_21_1246,testMonitor,
264.2,245.1,247.4,255.5,36,10,242.9,250.6,256.6,257.4,8.445,8.304,7.726,7.861,7.809,8.256,7.544,4.641,-4.578,-8.047,1.953,-1.809,7.912,4.601,-4.546,-8.289,236.3,235.6,-7.981,247.5,250.0,244.8,240.5,230.0,36,247.9,2,5,prime,10,0,93,norm,36,-5.087,down,norm,244.590984899,224.6,231.8,246.5,227.3,1,243.4,,264.6,10,6,7.908,5.018,1.223,-1.37,-4.919,-8.105,242.8,6,337.6,-7.886,-8.48,10,-8.449,-8.23,-5.208,-5.082,-4.91,-4.432,5.144,8.445,13,-1.349,1.485,5.119,7.982,-8.276,-7.814,-2.048,1.568,235.6,256.9,234.5,239.2,233.6,233.9,233.6,228.7,235.5,248.6,5,norm,1.929,1.978,-1.636,-1.209,-4.328,-4.848,-1.977,-1.677,-1.854,-1.28,1.892,-1.262,229.3,246.8,-4.466,-7.914,1.638,-1.649,7.777,4.915,-5.002,-7.727,0,4.64,4.404,4.348,5.234,1.522,1.787,2.008,1.105,0,5.068,4.322,,,,0,5,5,5,182.136,182.145,182.160193532,182.16,182.162,182.165,down,1,0.721939878942,9.27806012106,001,021,1920_1200,Intel(R) Core(TM) i5-3570 CPU @ 3.40GHz,orientation_search,LEPPC096,Intel(R) HD Graphics 2500,2018_Dec_21_1246,testMonitor,
364.5,360.7,359.4,352.5,36,-10,366.3,361.7,366.5,363.2,7.729,7.813,8.354,7.585,7.884,8.085,8.115,4.66,-5.209,-7.664,1.41,-1.127,7.801,4.381,-4.488,-7.814,360.3,357.4,-7.852,363.1,356.4,362.5,361.7,366.2,36,370.0,3,5,probe,5,0,105,norm,36,-5.188,down,norm,362.523186645,362.4,372.5,359.7,356.4,1,361.9,371.2,363.6,10,6,8.299,5.27,1.392,-1.729,-4.335,-7.829,356.9,1,257.5,-7.507,-7.55,10,-8.458,-8.317,-4.629,-4.805,-4.75,-5.081,4.508,8.034,19,-1.792,1.84,5.097,7.529,-8.066,-7.986,-1.89,1.306,359.0,363.5,356.5,363.7,362.5,363.8,363.3,364.4,369.9,368.2,0,norm,1.552,1.267,-1.365,-1.194,-4.333,-5.16,-1.288,-1.645,-1.439,-1.7,1.934,-1.982,,360.2,-4.534,-8.041,1.503,-1.926,7.616,5.034,-4.678,-8.427,1,5.258,4.826,4.497,4.395,1.285,1.518,1.984,1.772,1,4.406,5.275,10,244.590984899,norm,0,6,6,6,182.925,182.934,182.941188047,182.941,182.943,182.946,up,0,1.41573806298,-10,001,021,1920_1200,Intel(R) Core(TM) i5-3570 CPU @ 3.40GHz,orientation_search,LEPPC096,Intel(R) HD Graphics 2500,2018_Dec_21_1246,testMonitor,
305.8,333.6,335.9,337.3,36,-40,336.8,306.3,315.0,342.5,7.656,8.369,7.772,8.17,7.52,7.734,7.674,5.272,-5.116,-7.877,1.751,-2.042,8.4,4.453,-5.176,-8.39,337.7,306.0,-7.788,320.3,339.8,322.7,312.1,315.4,36,327.4,0,5,prime,10,0,68,norm,36,-4.961,up,norm,325.751673918,335.6,326.1,345.8,322.6,3,334.1,324.7,331.6,10,6,7.799,5.164,1.937,-1.87,-4.925,-8.078,308.8,6,393.8,-8.457,-8.274,-40,-8.22,-8.475,-4.629,-4.662,-5.042,-4.834,4.302,7.84,3,-1.306,2.089,5.1,8.043,-8.484,-8.32,-1.797,2.059,313.7,314.4,,338.1,322.9,334.7,323.2,323.4,327.4,320.2,0,norm,1.4,1.543,-2.018,-1.695,-5.212,-4.795,-1.815,-1.562,-1.509,-2.095,1.351,-1.119,311.6,330.3,-5.062,-7.943,1.427,-1.899,8.444,4.645,-4.922,-8.302,2,4.383,4.681,4.487,4.913,2.018,1.328,2.09,1.727,2,4.367,4.525,-10,244.590984899,norm,0,7,7,7,185.411,185.421,185.436116584,185.436,185.438,185.441,up,1,1.75264152874,8.24735847126,001,021,1920_1200,Intel(R) Core(TM) i5-3570 CPU @ 3.40GHz,orientation_search,LEPPC096,Intel(R) HD Graphics 2500,2018_Dec_21_1246,testMonitor,
320.5,329.8,330.9,330.0,36,-40,307.9,315.3,345.8,305.8,8.083,8.458,8.159,8.024,7.86,7.635,8.312,5.183,-4.907,-8.331,1.975,-1.497,8.402,4.535,-4.4,-8.431,315.8,335.1,-7.639,314.1,339.9,333.4,319.3,332.5,36,342.1,1,5,prime,10,0,100,norm,36,-4.95,up,norm,325.751673918,340.0,330.8,317.4,308.2,3,310.8,320.9,338.0,10,6,7.926,4.921,1.537,-1.287,-4.568,-7.702,331.9,6,425.8,-7.561,-8.365,-40,-8.07,-7.899,-4.753,-5.1,-5.101,-5.259,4.475,8.215,9,-1.682,1.73,4.873,8.04,-7.976,-7.736,-1.694,1.434,,317.0,307.1,333.1,334.0,327.3,333.1,319.1,317.1,326.0,1,norm,1.851,1.58,-1.216,-1.348,-4.569,-4.39,-1.949,-1.67,-1.297,-2.066,1.994,-1.495,345.2,309.4,-5.093,-7.957,1.806,-2.048,8.368,4.677,-4.707,-8.12,2,4.787,4.87,5.244,5.236,1.216,1.227,1.312,1.594,2,4.489,5.02,-10,244.590984899,norm,0,8,8,8,187.226,187.235,187.245691376,187.246,187.248,187.25,up,1,0.755679003812,9.24432099619,001,021,1920_1200,Intel(R) Core(TM) i5-3570 CPU @ 3.40GHz,orientation_search,LEPPC096,Intel(R) HD Graphics 2500,2018_Dec_21_1246,testMonitor,
326.1,328.9,322.2,329.0,36,-40,331.3,314.2,320.8,316.6,8.048,7.824,7.683,7.741,7.712,7.866,7.642,5.247,-4.426,-7.825,1.41,-1.106,8.38,4.377,-4.7,-7.602,,321.3,-8.326,345.8,322.0,324.8,336.9,326.1,36,325.1,5,5,prime,10,0,69,norm,36,-4.834,up,norm,325.751673918,313.0,314.1,305.8,333.0,5,342.1,314.7,313.6,10,6,7.866,4.347,2.089,-1.387,-5.119,-8.092,330.3,6,394.8,-8.015,-7.632,-40,-8.406,-7.729,-4.895,-4.505,-5.085,-4.83,4.658,7.608,35,-1.684,1.479,5.024,8.434,-8.106,-8.123,-1.438,1.14,324.6,313.7,332.5,317.8,311.0,324.1,329.2,325.3,332.0,327.3,2,norm,1.572,1.891,-1.392,-1.562,-4.674,-4.966,-1.358,-1.28,-1.899,-2.099,1.81,-1.737,343.0,309.3,-4.729,-8.072,1.461,-1.826,7.925,4.965,-5.044,-7.526,2,4.832,4.662,5.29,4.978,1.136,1.604,1.566,1.159,2,5.295,4.918,-10,244.590984899,norm,0,9,9,9,188.026,188.036,188.042257819,188.042,188.044,188.047,up,1,0.706319052904,9.2936809471,001,021,1920_1200,Intel(R) Core(TM) i5-3570 CPU @ 3.40GHz,orientation_search,LEPPC096,Intel(R) HD Graphics 2500,2018_Dec_21_1246,testMonitor,
313.2,307.8,345.3,333.7,36,-40,316.4,305.8,,345.8,8.103,7.563,7.515,8.197,8.236,8.188,8.17,4.859,-4.766,-7.572,1.693,-1.948,7.825,5.233,-4.443,-8.454,325.5,343.6,-7.935,309.8,312.7,331.7,315.9,342.4,36,338.4,4,5,prime,10,0,88,norm,36,-5.025,up,norm,325.751673918,325.3,320.4,345.1,311.3,4,318.9,324.8,326.3,10,6,7.591,4.799,1.36,-2.028,-4.385,-8.236,338.2,6,413.8,-8.204,-8.343,-40,-7.872,-7.954,-4.482,-4.352,-5.241,-4.505,4.884,8.028,28,-1.706,1.343,4.914,8.084,-7.581,-8.249,-1.64,1.486,332.9,311.3,337.2,321.3,340.5,320.4,334.8,327.0,332.6,321.6,3,norm,1.26,1.548,-1.735,-1.803,-5.259,-4.768,-1.159,-1.494,-1.421,-1.497,1.845,-1.18,325.4,335.4,-4.805,-8.356,2.055,-1.878,7.632,4.607,-4.692,-8.468,2,5.25,4.745,4.49,4.876,1.652,2.084,1.15,1.784,2,5.15,4.728,-10,244.590984899,norm,0,10,10,10,188.786,188.796,188.805552696,188.806,188.808,188.81,up,1,0.740503400444,9.25949659956,001,021,1920_1200,Intel(R) Core(TM) i5-3570 CPU @ 3.40GHz,orientation_search,LEPPC096,Intel(R) HD Graphics 2500,2018_Dec_21_1246,testMonitor,
335.3,328.9,305.8,326.2,36,-40,322.9,,326.3,320.7,7.587,8.451,7.675,8.32,8.417,8.241,8.134,4.841,-4.379,-8.367,1.49,-1.975,7.963,4.871,-4.892,-7.654,327.1,325.0,-7.577,311.2,324.1,310.8,326.9,332.6,36,335.1,4,5,prime,10,0,85,norm,36,-4.949,down,norm,325.751673918,320.3,339.8,329.4,312.5,1,329.1,331.5,345.8,10,6,8.222,5.033,1.893,-2.079,-4.434,-7.871,328.4,6,410.8,-8.128,-8.138,-40,-7.874,-8.2,-4.877,-4.562,-4.997,-4.874,5.276,8.01,25,-1.935,2.022,5.249,7.915,-7.857,-7.716,-1.573,1.423,325.4,333.0,326.4,325.5,325.1,320.7,334.0,328.4,338.1,315.2,4,norm,1.456,1.839,-1.986,-2.054,-4.849,-5.133,-1.471,-1.998,-1.678,-1.405,1.354,-1.176,331.7,328.7,-4.485,-8.483,1.985,-1.652,8.338,4.416,-4.405,-7.612,2,4.908,4.697,5.102,4.491,1.126,1.787,1.619,1.909,2,4.305,4.656,-10,244.590984899,norm,0,11,11,11,189.582,189.592,189.601148403,189.601,189.603,189.606,down,1,0.81889911375,9.18110088625,001,021,1920_1200,Intel(R) Core(TM) i5-3570 CPU @ 3.40GHz,orientation_search,LEPPC096,Intel(R) HD Graphics 2500,2018_Dec_21_1246,testMonitor,
321.3,332.7,330.8,345.8,36,-40,318.5,312.6,321.2,327.7,7.597,7.728,8.158,7.767,8.018,7.818,8.399,4.852,-4.828,-7.921,1.941,-1.816,7.625,5.154,-4.605,-8.376,343.2,316.9,-7.564,342.7,333.9,336.4,325.6,332.4,36,333.4,0,5,prime,10,0,102,norm,36,-5.139,up,norm,325.751673918,321.0,325.7,337.8,315.7,3,342.3,310.5,343.6,10,6,7.546,4.315,1.224,-1.205,-4.799,-7.929,323.9,6,427.8,-8.19,-8.49,-40,-8.381,-8.086,-4.638,-4.41,-4.703,-4.544,4.766,7.833,3,-1.137,1.141,5.059,7.654,-7.864,-8.179,-1.502,1.113,323.9,335.0,,323.5,325.0,329.9,340.1,319.9,339.3,324.7,5,norm,1.538,1.554,-1.81,-2.051,-5.074,-4.726,-1.611,-1.577,-1.103,-1.347,1.843,-2.016,307.9,305.8,-4.7,-7.574,1.353,-2.052,7.911,4.497,-5.197,-8.337,2,5.215,4.477,4.441,4.364,1.535,1.33,1.21,1.452,2,5.295,4.475,-10,244.590984899,norm,0,12,12,12,190.444,190.453,190.460074695,190.46,190.462,190.465,up,1,0.85808655672,9.14191344328,001,021,1920_1200,Intel(R) Core(TM) i5-3570 CPU @ 3.40GHz,orientation_search,LEPPC096,Intel(R) HD Graphics 2500,2018_Dec_21_1246,testMonitor,
346.1,333.1,339.7,351.6,36,-40,333.6,,343.0,339.6,7.645,8.404,8.243,7.531,7.763,8.309,7.671,4.466,-4.532,-7.997,2.086,-1.933,7.557,4.615,-4.838,-7.776,348.6,335.9,-7.763,334.4,340.0,344.5,344.1,338.3,36,350.4,4,5,probe,5,0,61,norm,36,-4.852,down,norm,341.616096159,341.9,350.7,335.9,331.6,1,339.9,336.7,342.2,10,6,8.293,5.119,1.985,-1.815,-5.0,-8.346,341.5,2,280.6,-8.368,-7.677,-40,-8.161,-8.023,-4.686,-4.428,-4.772,-5.282,5.159,7.823,25,-2.014,1.692,4.563,7.52,-8.003,-8.341,-1.741,1.63,343.7,339.3,336.4,346.0,333.2,342.1,342.8,346.3,343.9,346.1,0,norm,1.671,1.698,-1.102,-1.951,-4.937,-5.013,-1.232,-1.449,-1.665,-1.655,1.164,-2.021,334.4,347.2,-5.032,-8.16,1.219,-1.371,7.538,4.358,-4.801,-7.543,3,4.864,4.75,5.031,4.704,1.726,1.305,1.782,1.36,3,4.957,4.483,-40,325.751673918,norm,0,13,13,13,191.356,191.368,191.387947113,191.388,191.39,191.392,down,1,0.798957363968,9.20104263603,001,021,1920_1200,Intel(R) Core(TM) i5-3570 CPU @ 3.40GHz,orientation_search,LEPPC096,Intel(R) HD Graphics 2500,2018_Dec_21_1246,testMonitor,
356.3,353.6,356.3,363.1,36,-40,344.6,350.8,352.7,355.5,8.002,7.62,7.868,8.21,8.375,8.153,7.703,5.093,-5.213,-8.225,1.417,-1.279,8.237,5.251,-4.679,-7.512,352.4,352.4,-7.859,360.7,360.2,364.0,357.9,350.8,36,364.6,2,5,probe,5,0,74,norm,36,-4.844,up,norm,354.616096159,349.4,360.5,,352.3,3,348.7,360.5,352.1,10,6,7.762,4.918,1.495,-1.555,-4.584,-7.649,363.7,2,280.6,-8.043,-7.843,-40,-8.367,-7.952,-4.982,-4.583,-4.619,-4.985,4.391,8.436,15,-1.881,2.0,5.247,8.443,-8.243,-7.688,-1.615,1.274,362.7,354.5,354.2,358.0,355.1,356.3,346.8,352.4,351.5,357.6,1,norm,2.078,1.868,-1.91,-1.391,-4.866,-4.632,-1.69,-1.259,-1.853,-1.823,1.563,-1.118,362.7,353.9,-5.236,-7.648,1.913,-1.363,7.973,5.201,-5.073,-7.544,3,4.481,4.904,4.954,4.623,1.325,1.429,1.66,1.304,3,5.213,4.3,-40,325.751673918,norm,0,14,14,14,192.208,192.218,192.237429553,192.238,192.239,192.242,up,1,2.02694789446,7.97305210554,001,021,1920_1200,Intel(R) Core(TM) i5-3570 CPU @ 3.40GHz,orientation_search,LEPPC096,Intel(R) HD Graphics 2500,2018_Dec_21_1246,testMonitor,
77.9,77.4,65.6,62.9,36,40,84.9,78.8,67.8,75.3,8.17,8.482,7.976,7.643,8.088,8.225,8.065,4.906,-4.987,-7.989,1.246,-1.89,8.114,4.337,-5.191,-8.414,64.2,58.9,-7.777,64.3,49.7,67.3,,87.5,36,57.0,5,5,prime,10,0,96,norm,36,-5.173,down,norm,69.7108949898,75.3,82.4,76.0,69.7,2,81.5,89.7,85.4,10,6,7.886,5.278,1.612,-1.452,-4.829,-8.36,69.5,6,165.7,-8.45,-8.342,40,-8.456,-7.956,-4.95,-4.993,-4.938,-5.255,5.227,7.692,32,-1.11,1.391,4.658,8.383,-8.009,-8.22,-1.967,1.341,72.4,57.1,76.1,71.2,74.1,70.0,75.9,65.4,84.4,53.2,0,norm,1.277,1.274,-1.838,-1.979,-4.883,-4.426,-1.703,-1.204,-1.775,-1.461,1.677,-1.252,53.3,69.1,-4.326,-7.96,1.715,-2.013,8.499,4.393,-5.015,-8.298,4,4.405,4.354,4.684,4.929,1.872,1.621,1.431,1.416,4,4.836,5.196,-40,325.751673918,norm,0,15,15,15,194.302,194.315,194.334048306,194.334,194.336,194.338,down,1,1.0617250673,8.9382749327,001,021,1920_1200,Intel(R) Core(TM) i5-3570 CPU @ 3.40GHz,orientation_search,LEPPC096,Intel(R) HD Graphics 2500,2018_Dec_21_1246,testMonitor,
71.3,68.1,88.5,71.8,36,40,57.5,60.0,51.5,66.4,7.573,7.709,8.157,8.433,8.321,7.971,8.381,4.468,-4.462,-8.023,1.416,-1.566,7.835,5.157,-4.484,-7.946,74.3,75.7,-8.121,74.6,68.4,74.4,80.4,70.1,36,,4,5,prime,10,0,76,norm,36,-4.409,up,norm,69.7108949898,56.1,88.4,63.1,84.5,3,74.8,58.8,69.9,10,6,7.686,4.832,1.191,-2.032,-5.18,-7.517,68.0,6,145.7,-7.524,-8.385,40,-7.999,-7.661,-4.51,-5.268,-4.351,-4.936,5.141,7.515,27,-1.96,1.148,5.144,7.584,-7.896,-7.927,-1.165,1.288,85.0,65.3,58.1,49.7,72.3,67.3,75.3,56.0,61.5,89.7,1,norm,1.797,1.757,-1.301,-1.867,-4.649,-4.396,-1.264,-1.794,-2.065,-1.334,1.317,-1.221,80.4,57.6,-4.692,-8.093,1.908,-1.926,8.348,4.408,-4.649,-8.334,4,5.202,4.609,5.231,4.965,1.118,1.503,1.818,1.873,4,4.956,4.559,-40,325.751673918,norm,0,16,16,16,195.432,195.441,195.450849077,195.451,195.453,195.455,up,1,2.87007285654,7.12992714346,001,021,1920_1200,Intel(R) Core(TM) i5-3570 CPU @ 3.40GHz,orientation_search,LEPPC096,Intel(R) HD Graphics 2500,2018_Dec_21_1246,testMonitor,
73.1,67.9,74.6,71.7,36,40,69.2,79.6,69.8,71.2,7.952,8.425,7.509,7.991,8.266,7.571,8.033,4.859,-4.972,-8.423,1.856,-1.368,8.16,4.574,-4.354,-8.449,62.9,70.3,-8.335,59.8,89.7,77.8,70.9,,36,69.3,4,5,prime,10,0,93,norm,36,-4.709,down,norm,69.7108949898,70.5,71.9,85.5,72.7,2,58.3,71.2,72.3,10,6,7.689,4.598,1.518,-1.219,-4.842,-8.222,64.2,6,162.7,-7.617,-7.863,40,-8.205,-7.842,-4.839,-4.593,-5.074,-4.612,5.266,8.323,26,-1.677,2.023,4.418,8.454,-8.349,-8.064,-1.863,1.879,69.8,65.4,49.7,69.9,75.3,52.0,80.2,81.7,85.9,62.5,2,norm,1.809,1.568,-1.425,-1.932,-5.127,-4.61,-1.113,-1.279,-1.957,-1.319,1.994,-1.976,85.5,63.0,-5.148,-7.952,1.862,-1.938,8.434,4.45,-4.356,-8.364,4,4.659,4.971,5.249,4.421,1.504,1.325,1.945,1.507,4,4.412,5.101,-40,325.751673918,norm,0,17,17,17,198.358,198.368,198.383516619,198.384,198.385,198.388,down,1,0.807322418788,9.19267758121,001,021,1920_1200,Intel(R) Core(TM) i5-3570 CPU @ 3.40GHz,orientation_search,LEPPC096,Intel(R) HD Graphics 2500,2018_Dec_21_1246,testMonitor,
71.8,70.6,53.5,62.2,36,40,62.5,62.1,71.8,65.4,8.191,7.542,7.57,8.053,8.162,7.807,8.073,5.141,-5.247,-8.283,1.682,-1.636,7.943,4.566,-4.501,-7.97,63.3,89.7,-7.685,75.8,64.9,,68.2,71.2,36,70.7,5,5,prime,10,0,118,norm,36,-4.607,up,norm,69.7108949898,69.8,59.3,69.0,62.2,3,67.4,80.8,69.1,10,6,8.364,4.426,2.099,-1.368,-4.594,-7.674,77.5,6,187.7,-7.779,-8.349,40,-8.347,-8.476,-5.224,-4.328,-4.613,-4.335,4.495,8.273,33,-1.922,1.667,5.081,7.822,-8.207,-7.594,-1.436,1.798,66.9,58.3,68.3,69.1,66.6,67.2,67.5,49.7,80.3,65.0,3,norm,1.196,1.209,-1.807,-2.083,-4.472,-4.381,-1.333,-1.171,-2.0,-1.642,1.109,-1.245,71.9,74.5,-5.285,-8.143,2.077,-1.171,8.47,4.766,-4.343,-8.13,4,4.552,4.441,4.76,4.993,1.146,1.304,1.983,2.001,4,4.638,5.244,-40,325.751673918,norm,0,18,18,18,199.212,199.221,199.227906014,199.228,199.23,199.232,up,1,2.40128236203,7.59871763797,001,021,1920_1200,Intel(R) Core(TM) i5-3570 CPU @ 3.40GHz,orientation_search,LEPPC096,Intel(R) HD Graphics 2500,2018_Dec_21_1246,testMonitor,
64.4,66.2,52.5,65.8,36,40,63.6,81.9,67.1,70.3,7.99,7.789,8.419,8.179,8.078,8.295,8.356,4.782,-4.402,-8.417,1.493,-1.946,8.376,5.116,-4.883,-7.984,70.6,56.5,-8.33,76.3,60.0,50.7,84.0,65.0,36,84.3,1,5,prime,10,0,96,norm,36,-4.326,down,norm,69.7108949898,71.4,49.7,82.5,84.0,0,84.8,72.1,74.3,10,6,7.798,4.88,1.843,-1.299,-4.575,-8.056,63.4,6,165.7,-7.958,-8.119,40,-7.736,-7.909,-4.818,-5.148,-4.323,-5.267,5.176,8.323,6,-1.463,1.849,4.826,7.872,-8.323,-8.467,-1.336,1.685,62.9,75.5,69.5,87.8,66.8,68.2,71.2,,89.7,70.9,4,norm,1.85,1.301,-1.804,-1.913,-5.192,-4.753,-1.79,-1.555,-1.424,-1.295,1.62,-1.371,70.8,66.0,-5.21,-8.229,1.644,-2.057,7.789,5.017,-5.128,-7.732,4,5.05,4.475,5.229,4.309,1.217,1.855,1.712,1.216,4,4.598,4.743,-40,325.751673918,norm,0,19,19,19,201.676,201.686,201.691617046,201.692,201.693,201.696,down,1,0.859127623155,9.14087237685,001,021,1920_1200,Intel(R) Core(TM) i5-3570 CPU @ 3.40GHz,orientation_search,LEPPC096,Intel(R) HD Graphics 2500,2018_Dec_21_1246,testMonitor,
72.8,66.0,52.6,78.0,36,40,74.4,82.4,61.9,69.8,8.017,8.044,8.08,7.992,8.391,7.708,8.498,4.482,-4.54,-7.92,1.527,-1.828,8.352,4.671,-5.206,-8.366,78.6,67.9,-8.042,76.1,49.7,84.4,88.8,53.7,36,63.9,2,5,prime,10,0,71,norm,36,-4.963,down,norm,69.7108949898,75.6,80.9,61.5,,2,70.8,58.7,89.7,10,6,7.957,4.454,1.132,-2.034,-4.764,-8.197,67.9,6,140.7,-7.837,-8.31,40,-7.905,-8.437,-4.387,-4.83,-5.001,-4.483,5.136,8.293,14,-1.858,1.376,4.656,8.455,-7.838,-7.971,-2.058,1.562,76.7,65.1,88.5,72.6,57.3,74.7,65.3,72.7,64.5,68.2,5,norm,1.179,1.44,-1.781,-1.53,-4.971,-4.528,-2.055,-1.433,-1.688,-1.547,1.104,-2.009,68.5,73.8,-4.626,-8.203,1.77,-1.214,7.71,4.674,-4.819,-8.246,4,4.691,4.446,5.063,4.782,1.552,1.444,1.632,1.353,4,4.329,4.522,-40,325.751673918,norm,0,20,20,20,202.588,202.597,202.610880216,202.611,202.613,202.615,down,1,0.994428528782,9.00557147122,001,021,1920_1200,Intel(R) Core(TM) i5-3570 CPU @ 3.40GHz,orientation_search,LEPPC096,Intel(R) HD Graphics 2500,2018_Dec_21_1246,testMonitor,
218.6,211.4,220.8,219.6,36,-30,208.0,220.2,214.5,205.5,8.216,8.075,8.068,8.411,7.894,8.207,8.021,4.486,-4.406,-8.11,1.406,-1.974,7.523,4.704,-4.633,-8.493,213.4,211.4,-8.49,209.3,218.5,216.8,216.4,213.7,36,209.9,1,5,probe,5,0,105,norm,36,-4.317,up,norm,215.535704984,211.2,209.6,207.5,225.5,4,212.2,214.4,215.1,10,6,8.325,4.627,1.439,-1.174,-4.638,-8.2,,1,110.5,-7.647,-8.206,40,-8.105,-8.445,-4.886,-4.901,-4.944,-5.163,4.534,7.703,10,-1.566,1.182,4.941,8.143,-8.332,-8.178,-1.674,2.002,218.3,206.3,219.2,216.9,210.9,209.9,210.8,220.9,215.8,208.2,0,norm,2.017,1.402,-1.69,-1.178,-4.786,-4.649,-1.263,-1.473,-2.083,-1.817,1.807,-1.975,212.5,217.6,-5.003,-7.507,1.601,-1.67,8.349,5.239,-5.161,-8.216,5,4.545,5.01,4.738,4.688,1.517,1.619,1.244,1.845,5,5.211,4.82,40,69.7108949898,norm,0,21,21,21,203.626,203.636,203.642633798,203.643,203.645,203.647,up,1,0.790341173379,9.20965882662,001,021,1920_1200,Intel(R) Core(TM) i5-3570 CPU @ 3.40GHz,orientation_search,LEPPC096,Intel(R) HD Graphics 2500,2018_Dec_21_1246,testMonitor,
295.6,288.3,289.7,300.5,36,0,277.1,277.6,294.0,300.1,8.07,8.107,8.336,8.26,8.451,8.117,7.643,4.36,-4.354,-8.127,1.129,-1.192,7.793,4.917,-4.666,-7.59,295.8,290.0,-8.488,283.1,289.5,303.4,287.2,295.7,36,300.5,2,5,prime,10,0,69,norm,36,-4.684,up,norm,289.725119484,309.7,297.2,,269.7,3,288.5,300.5,298.1,10,6,8.365,4.455,1.747,-1.556,-4.743,-7.804,289.6,6,358.7,-7.814,-8.245,0,-8.413,-7.581,-4.46,-4.814,-4.439,-4.868,4.482,7.678,15,-1.259,1.151,4.306,8.188,-7.648,-7.881,-1.856,1.6,281.0,279.4,292.6,291.0,292.9,301.5,288.6,281.7,301.0,291.1,0,norm,1.952,1.851,-1.565,-1.251,-4.399,-4.786,-1.652,-1.21,-1.235,-1.345,1.552,-1.66,295.6,306.0,-5.133,-7.577,1.274,-1.706,8.039,4.515,-4.835,-7.955,6,4.602,4.755,4.684,5.072,2.059,1.952,2.04,1.349,6,4.448,5.193,-30,69.7108949898,norm,0,22,22,22,204.468,204.478,204.483840832,204.484,204.486,204.489,up,1,2.78215571686,7.21784428314,001,021,1920_1200,Intel(R) Core(TM) i5-3570 CPU @ 3.40GHz,orientation_search,LEPPC096,Intel(R) HD Graphics 2500,2018_Dec_21_1246,testMonitor,
,304.2,286.5,272.1,36,0,293.6,297.5,274.3,295.6,7.534,8.017,8.451,7.688,7.983,8.273,8.076,4.865,-5.219,-7.973,2.082,-1.169,7.716,5.272,-4.847,-7.72,295.8,290.7,-8.494,309.2,295.4,288.4,269.7,289.6,36,307.9,3,5,prime,10,0,76,norm,36,-4.413,up,norm,289.725119484,289.0,286.1,276.7,289.0,4,283.0,288.5,274.7,10,6,7.747,4.57,1.282,-1.317,-4.784,-7.527,286.8,6,365.7,-7.506,-8.311,0,-8.083,-7.803,-4.571,-4.784,-4.837,-4.848,4.792,7.928,22,-1.152,1.566,5.112,8.081,-7.838,-7.666,-2.029,1.35,290.0,284.9,279.0,278.3,289.4,301.5,284.9,299.1,309.7,294.6,1,norm,1.117,1.531,-1.511,-1.841,-4.933,-4.638,-1.114,-2.086,-1.71,-1.218,2.048,-1.479,301.5,306.1,-4.752,-8.109,1.688,-1.302,8.152,4.345,-4.778,-7.618,6,4.573,4.349,4.537,5.143,1.536,1.139,2.037,1.881,6,5.137,5.116,-30,69.7108949898,norm,0,23,23,23,207.287,207.297,207.30621389,207.306,207.308,207.311,up,1,1.12912664819,8.87087335181,001,021,1920_1200,Intel(R) Core(TM) i5-3570 CPU @ 3.40GHz,orientation_search,LEPPC096,Intel(R) HD Graphics 2500,2018_Dec_21_1246,testMonitor,
284.3,300.3,301.8,290.0,36,0,298.5,293.4,286.9,294.3,7.593,8.139,8.089,7.56,7.845,7.543,8.385,5.205,-4.917,-7.906,1.362,-1.24,7.665,4.551,-5.037,-8.345,298.8,288.9,-7.511,282.6,291.3,283.3,269.7,301.4,36,273.9,0,5,prime,10,0,65,norm,36,-4.539,down,norm,289.725119484,283.6,278.6,294.7,292.7,2,288.0,291.4,290.3,10,6,8.455,4.767,1.876,-1.815,-5.265,-7.686,289.7,6,354.7,-8.355,-7.562,0,-7.665,-8.37,-4.672,-4.532,-4.462,-4.499,5.043,7.61,2,-1.307,1.2,4.965,7.785,-7.791,-8.184,-1.447,1.471,275.1,284.4,309.7,,291.8,280.8,274.1,282.5,280.2,301.2,2,norm,1.313,1.949,-2.002,-1.872,-5.143,-5.134,-1.592,-1.24,-2.002,-1.196,1.684,-1.506,302.1,294.6,-5.116,-7.795,1.731,-1.488,8.359,4.446,-4.707,-7.593,6,4.537,4.568,4.919,4.482,1.595,2.088,1.583,2.066,6,4.559,4.904,-30,69.7108949898,norm,0,24,24,24,208.473,208.482,208.491897098,208.492,208.494,208.496,down,1,0.991504245916,9.00849575408,001,021,1920_1200,Intel(R) Core(TM) i5-3570 CPU @ 3.40GHz,orientation_search,LEPPC096,Intel(R) HD Graphics 2500,2018_Dec_21_1246,testMonitor,
299.1,,273.1,308.6,36,0,291.9,294.8,301.2,283.1,8.17,7.884,7.997,7.872,7.877,7.869,7.893,4.682,-5.02,-8.489,1.997,-1.773,8.469,4.543,-4.541,-8.025,283.3,285.4,-8.484,282.6,277.6,291.1,290.6,288.4,36,269.7,3,5,prime,10,0,103,norm,36,-4.507,up,norm,289.725119484,278.4,291.2,294.3,290.1,5,309.7,297.7,299.1,10,6,7.969,4.984,2.052,-1.649,-4.362,-7.893,303.7,6,392.7,-7.691,-8.389,0,-8.167,-8.397,-5.26,-5.027,-4.697,-4.33,4.421,8.31,23,-1.54,1.825,4.932,7.599,-7.795,-8.379,-1.674,1.886,290.9,280.3,284.0,289.3,273.8,293.0,298.5,285.1,293.1,287.8,3,norm,1.171,1.94,-1.769,-1.283,-4.673,-4.847,-1.625,-1.778,-1.696,-1.738,1.315,-1.848,295.8,285.3,-5.044,-7.76,1.268,-1.787,8.33,4.665,-5.001,-8.193,6,5.11,4.88,4.669,4.95,1.931,1.318,1.59,1.315,6,4.485,4.407,-30,69.7108949898,norm,0,25,25,25,209.506,209.516,209.522168014,209.522,209.524,209.527,up,1,0.706639009535,9.29336099046,001,021,1920_1200,Intel(R) Core(TM) i5-3570 CPU @ 3.40GHz,orientation_search,LEPPC096,Intel(R) HD Graphics 2500,2018_Dec_21_1246,testMonitor,
278.1,285.2,289.2,284.0,36,0,281.9,291.4,305.1,285.8,8.343,7.81,8.17,7.504,7.922,8.255,7.853,5.08,-4.472,-7.565,1.951,-1.974,8.479,4.788,-5.196,-8.082,269.7,295.5,-7.83,296.9,302.0,283.4,285.5,,36,293.2,4,5,prime,10,0,97,norm,36,-5.207,down,norm,289.725119484,284.1,291.1,295.0,277.3,2,271.9,299.0,283.7,10,6,8.178,5.281,1.47,-2.075,-4.512,-7.613,290.3,6,386.7,-7.911,-7.8,0,-7.811,-8.083,-4.987,-4.809,-4.687,-4.399,4.962,8.011,26,-1.764,2.079,4.503,8.05,-8.354,-7.87,-1.645,1.197,288.8,301.8,288.9,309.7,290.3,305.7,308.4,294.1,287.0,280.0,4,norm,1.671,1.928,-1.541,-2.004,-4.416,-5.234,-1.403,-1.696,-2.016,-1.488,1.14,-1.181,303.1,300.5,-4.888,-7.987,1.581,-2.042,7.643,5.104,-4.322,-8.199,6,4.418,4.918,5.284,4.997,1.377,1.535,1.692,1.66,6,5.021,5.252,-30,69.7108949898,norm,0,26,26,26,210.266,210.276,210.285671165,210.286,210.288,210.29,down,1,0.859749123818,9.14025087618,001,021,1920_1200,Intel(R) Core(TM) i5-3570 CPU @ 3.40GHz,orientation_search,LEPPC096,Intel(R) HD Graphics 2500,2018_Dec_21_1246,testMonitor,
275.5,288.2,291.2,293.8,36,0,286.3,286.5,297.1,277.8,7.885,7.979,8.078,7.87,7.694,8.146,8.434,4.503,-4.496,-7.981,1.468,-2.073,8.201,4.469,-4.493,-7.6,298.0,278.8,-8.224,,281.8,281.6,280.0,289.7,36,301.4,5,5,prime,10,0,65,norm,36,-4.717,down,norm,289.725119484,294.2,296.6,283.2,298.7,1,291.0,280.3,293.9,10,6,8.013,4.339,1.727,-1.51,-4.667,-7.748,287.4,6,354.7,-8.428,-7.76,0,-7.954,-7.521,-5.18,-4.678,-5.273,-4.308,5.056,8.384,31,-1.632,1.884,4.47,7.832,-7.91,-7.993,-1.492,1.331,269.7,295.9,275.0,295.1,284.4,295.4,302.3,296.0,309.7,297.1,5,norm,1.885,2.035,-1.556,-1.748,-4.307,-4.319,-1.394,-1.552,-1.278,-1.602,1.999,-1.512,289.1,281.0,-4.705,-8.22,1.561,-1.844,7.668,4.873,-5.251,-7.775,6,4.941,4.614,4.986,4.833,1.429,1.968,1.926,1.889,6,4.364,5.281,-30,69.7108949898,norm,0,27,27,27,211.182,211.191,211.206141417,211.206,211.208,211.211,up,0,1.31363658179,-10,001,021,1920_1200,Intel(R) Core(TM) i5-3570 CPU @ 3.40GHz,orientation_search,LEPPC096,Intel(R) HD Graphics 2500,2018_Dec_21_1246,testMonitor,
408.4,410.9,418.4,409.4,36,30,406.4,405.9,398.4,409.1,8.052,8.286,7.588,7.884,7.938,7.582,7.681,4.337,-4.73,-8.101,1.224,-1.965,7.841,5.209,-4.569,-8.088,409.6,403.7,-8.193,410.1,404.7,401.7,409.9,403.9,36,,4,5,probe,5,0,117,norm,36,-4.429,up,norm,408.437656709,405.6,411.4,407.5,404.4,3,412.3,416.2,402.9,10,6,8.063,4.669,1.417,-1.396,-4.618,-8.133,401.7,2,291.4,-8.031,-7.767,0,-8.279,-8.316,-4.319,-4.857,-5.289,-5.116,4.858,7.847,27,-1.266,1.105,4.891,8.316,-7.957,-8.209,-1.227,1.737,409.9,407.9,407.7,402.0,413.4,402.1,409.8,404.3,404.9,401.5,0,norm,2.02,1.682,-1.93,-1.422,-4.686,-4.312,-1.59,-1.69,-1.44,-1.488,1.56,-1.223,413.4,415.0,-5.019,-8.174,1.499,-1.409,8.262,4.882,-4.683,-7.698,7,4.336,5.016,4.72,4.816,1.434,1.824,1.339,1.344,7,4.857,5.002,0,289.725119484,norm,0,28,28,28,213.597,213.607,213.62416234,213.624,213.626,213.629,up,1,0.740023767345,9.25997623266,001,021,1920_1200,Intel(R) Core(TM) i5-3570 CPU @ 3.40GHz,orientation_search,LEPPC096,Intel(R) HD Graphics 2500,2018_Dec_21_1246,testMonitor,
397.3,380.4,394.2,383.4,36,30,386.2,389.8,392.1,389.1,8.071,7.821,8.228,8.347,7.513,7.653,7.548,4.701,-4.866,-8.235,1.892,-1.515,7.656,4.849,-5.118,-8.339,391.1,392.9,-7.907,385.1,385.1,384.4,394.7,391.1,36,396.9,2,5,probe,5,0,99,norm,36,-4.74,up,norm,390.437656709,385.6,,390.4,397.4,4,393.0,388.7,397.6,10,6,8.064,4.795,1.682,-1.487,-4.796,-8.048,391.4,2,291.4,-8.258,-7.844,0,-7.954,-8.184,-4.425,-5.13,-5.26,-4.801,4.342,8.311,16,-1.417,1.936,4.37,8.475,-7.519,-7.65,-1.391,1.516,386.8,393.8,396.4,384.7,395.5,392.3,390.7,395.9,390.7,387.1,1,norm,1.361,1.193,-1.855,-1.892,-5.138,-4.54,-1.568,-1.597,-1.678,-1.457,1.342,-1.868,389.9,395.5,-4.564,-7.911,1.895,-1.175,7.639,4.36,-5.246,-7.808,7,4.897,5.019,5.234,5.192,1.698,1.199,1.298,1.898,7,4.573,4.748,0,289.725119484,norm,0,29,29,29,214.389,214.399,214.404863763,214.405,214.407,214.409,up,1,0.623688140082,9.37631185992,001,021,1920_1200,Intel(R) Core(TM) i5-3570 CPU @ 3.40GHz,orientation_search,LEPPC096,Intel(R) HD Graphics 2500,2018_Dec_21_1246,testMonitor,
192.3,165.0,164.6,174.2,36,40,175.6,157.5,161.6,185.0,7.667,7.572,8.267,8.252,7.84,8.17,8.048,4.431,-4.326,-7.526,1.998,-2.093,8.026,4.753,-4.562,-8.193,176.9,180.1,-7.759,183.6,188.2,161.5,185.7,,36,152.3,4,5,prime,10,0,69,norm,36,-5.235,down,norm,172.329482655,169.0,189.9,177.9,178.9,2,181.9,164.9,180.8,10,5,8.259,4.576,1.403,-1.98,-5.015,-7.53,183.8,5,241.3,-7.649,-7.699,40,-7.887,-8.457,-5.016,-5.071,-4.797,-4.336,5.079,7.859,26,-2.065,1.656,5.253,8.083,-7.737,-8.023,-1.678,1.125,172.8,166.3,163.9,176.5,160.7,171.5,177.5,178.1,158.1,170.9,0,norm,1.587,1.492,-2.094,-1.432,-5.242,-4.404,-1.972,-1.741,-1.993,-1.668,1.153,-1.435,182.1,185.4,-4.849,-7.624,1.237,-1.261,7.981,4.916,-4.35,-8.116,8,4.448,4.813,4.313,4.575,1.165,1.542,1.125,1.782,8,5.248,4.895,30,289.725119484,norm,0,30,30,30,215.065,215.074,215.090280593,215.09,215.092,215.095,down,1,1.31366797376,8.68633202624,001,021,1920_1200,Intel(R) Core(TM) i5-3570 CPU @ 3.40GHz,orientation_search,LEPPC096,Intel(R) HD Graphics 2500,2018_Dec_21_1246,testMonitor,
164.5,179.6,174.4,159.2,36,40,161.4,165.5,177.8,166.6,8.038,7.719,8.427,8.144,7.586,8.162,8.362,5.001,-4.557,-8.37,1.308,-1.604,7.681,5.097,-4.687,-8.303,177.1,172.6,-7.789,162.4,186.1,185.0,157.7,177.8,36,182.9,3,5,prime,10,0,103,norm,36,-4.82,down,norm,172.329482655,165.1,165.4,191.8,183.6,1,178.7,167.0,173.9,10,5,8.188,4.663,1.358,-1.816,-5.058,-7.602,162.5,5,275.3,-8.076,-7.865,40,-8.425,-7.757,-4.932,-5.02,-4.809,-4.336,4.493,8.067,19,-1.511,1.907,4.491,8.052,-8.264,-8.389,-2.034,1.532,158.3,180.2,177.3,152.3,181.6,192.3,162.3,159.6,182.8,175.1,1,norm,1.987,2.082,-1.152,-1.467,-5.236,-5.211,-1.784,-1.746,-1.629,-1.926,2.09,-1.923,,173.7,-4.938,-7.904,1.297,-2.1,8.335,4.998,-4.759,-7.852,8,4.865,4.319,4.781,4.91,1.743,1.632,1.252,1.735,8,4.45,4.303,30,289.725119484,norm,0,31,31,31,216.441,216.452,216.463133601,216.463,216.465,216.468,down,1,0.623001742555,9.37699825744,001,021,1920_1200,Intel(R) Core(TM) i5-3570 CPU @ 3.40GHz,orientation_search,LEPPC096,Intel(R) HD Graphics 2500,2018_Dec_21_1246,testMonitor,
163.0,176.1,172.4,181.7,36,40,180.1,166.9,157.5,169.7,7.508,8.457,7.644,7.888,8.211,8.405,8.067,5.04,-4.929,-8.387,1.971,-1.175,8.011,4.471,-4.802,-7.971,173.8,160.4,-7.808,157.2,171.8,168.2,178.0,184.0,36,163.2,2,5,prime,10,0,105,norm,36,-4.778,down,norm,172.329482655,170.6,159.0,173.3,,2,159.9,172.9,175.7,10,5,7.864,4.325,1.737,-1.31,-4.792,-8.407,152.3,5,277.3,-8.464,-8.119,40,-8.141,-7.729,-5.041,-5.058,-4.783,-4.921,4.4,7.964,14,-2.058,1.857,5.122,8.192,-8.004,-8.235,-1.201,1.792,182.4,181.5,192.3,178.9,168.2,184.6,164.6,177.4,184.7,169.9,2,norm,1.745,1.362,-1.758,-1.642,-5.01,-4.887,-1.759,-1.31,-1.409,-1.757,1.422,-1.506,180.6,167.4,-5.061,-7.739,2.014,-1.402,8.341,5.226,-4.474,-8.088,8,4.66,4.836,4.825,5.067,1.144,2.042,1.668,1.473,8,4.615,4.805,30,289.725119484,norm,0,32,32,32,217.124,217.138,217.155812842,217.156,217.158,217.16,down,1,0.646795951281,9.35320404872,001,021,1920_1200,Intel(R) Core(TM) i5-3570 CPU @ 3.40GHz,orientation_search,LEPPC096,Intel(R) HD Graphics 2500,2018_Dec_21_1246,testMonitor,
180.8,192.3,172.5,177.3,36,40,160.5,171.4,179.5,164.0,8.2,8.166,7.791,8.034,7.683,8.456,8.211,4.978,-4.933,-7.874,1.407,-1.39,7.665,4.99,-4.786,-7.981,171.5,174.0,-7.662,152.3,164.5,180.4,171.6,179.9,36,167.8,1,5,prime,10,0,98,norm,36,-4.721,down,norm,172.329482655,167.2,179.1,167.1,173.1,1,178.6,169.3,165.0,10,5,7.555,4.337,1.832,-1.366,-5.101,-8.342,180.4,5,270.3,-8.154,-8.281,40,-8.161,-8.158,-4.432,-4.871,-5.068,-5.193,4.91,7.66,7,-1.644,1.371,4.931,8.068,-8.156,-7.631,-1.859,1.667,160.0,165.4,170.4,186.6,169.5,180.2,,167.4,181.3,173.5,3,norm,1.99,1.555,-1.978,-1.294,-4.912,-4.512,-1.997,-1.438,-1.167,-1.414,1.485,-1.832,188.0,161.6,-4.622,-8.407,1.592,-1.301,7.667,4.78,-4.685,-7.851,8,4.737,4.653,4.667,4.846,1.941,1.963,1.731,1.301,8,4.47,4.831,30,289.725119484,norm,0,33,33,33,217.84,217.855,217.87220902,217.872,217.874,217.877,down,1,0.960431929378,9.03956807062,001,021,1920_1200,Intel(R) Core(TM) i5-3570 CPU @ 3.40GHz,orientation_search,LEPPC096,Intel(R) HD Graphics 2500,2018_Dec_21_1246,testMonitor,
172.4,174.6,159.4,159.1,36,40,152.3,187.9,170.4,186.4,7.65,7.747,8.408,8.127,7.711,7.749,7.996,5.001,-5.049,-7.551,2.0,-1.557,8.395,4.572,-4.994,-7.87,184.0,185.8,-7.551,159.7,180.7,,179.2,179.0,36,179.0,5,5,prime,10,0,114,norm,36,-4.655,up,norm,172.329482655,159.8,160.8,185.8,186.8,3,168.2,176.4,179.2,10,5,7.58,5.158,1.881,-2.098,-5.184,-7.834,190.1,5,286.3,-7.868,-7.605,40,-8.4,-7.54,-4.483,-4.699,-4.54,-4.604,4.673,8.31,33,-2.097,1.831,4.742,7.916,-8.135,-8.382,-1.84,1.471,157.7,172.0,192.3,168.1,167.6,152.9,176.5,174.3,191.6,187.9,4,norm,1.336,1.3,-1.803,-1.625,-5.116,-4.894,-1.108,-1.811,-1.687,-1.5,1.975,-1.828,163.6,162.8,-4.879,-7.916,2.025,-1.438,7.773,4.594,-5.17,-7.657,8,5.269,4.786,4.571,5.189,1.623,2.056,1.998,1.867,8,5.17,5.184,30,289.725119484,norm,0,34,34,34,218.871,218.884,218.902856036,218.903,218.905,218.907,down,0,1.33153966451,-10,001,021,1920_1200,Intel(R) Core(TM) i5-3570 CPU @ 3.40GHz,orientation_search,LEPPC096,Intel(R) HD Graphics 2500,2018_Dec_21_1246,testMonitor,
316.0,307.9,320.4,311.7,36,60,,311.3,314.8,313.7,8.019,7.623,8.391,8.456,8.253,8.493,7.971,4.979,-5.252,-7.94,1.923,-1.806,8.259,4.609,-5.282,-8.416,311.5,311.8,-8.375,312.7,306.5,314.4,301.1,321.1,36,315.1,4,5,probe,5,0,103,norm,36,-5.063,down,norm,311.104761365,308.9,301.1,313.2,308.0,0,310.8,317.6,315.7,10,5,7.767,4.319,1.724,-1.754,-4.471,-7.893,309.5,2,208.1,-8.205,-7.936,40,-8.352,-7.987,-4.99,-4.755,-4.562,-4.776,5.091,8.05,24,-1.909,1.686,4.525,8.196,-8.004,-7.71,-1.835,1.794,308.1,303.8,313.7,307.2,321.0,307.6,312.2,317.5,307.8,303.2,0,norm,1.506,1.207,-1.872,-1.846,-4.348,-5.295,-1.522,-1.464,-1.484,-1.929,1.169,-2.025,304.3,308.7,-4.716,-7.667,1.618,-1.266,8.112,5.238,-5.164,-8.013,9,4.844,4.913,5.285,4.493,1.924,1.473,1.532,1.912,9,4.792,4.522,40,172.329482655,norm,0,35,35,35,221.289,221.298,221.314497748,221.315,221.316,221.319,down,1,0.705041037456,9.29495896254,001,021,1920_1200,Intel(R) Core(TM) i5-3570 CPU @ 3.40GHz,orientation_search,LEPPC096,Intel(R) HD Graphics 2500,2018_Dec_21_1246,testMonitor,
266.1,270.7,271.1,271.9,36,60,271.6,279.1,276.5,279.6,8.32,7.752,8.457,8.418,8.414,7.9,8.229,4.817,-4.302,-8.472,1.941,-1.555,8.336,4.949,-5.287,-8.172,275.1,276.8,-7.624,276.9,273.1,281.3,277.0,286.0,36,279.0,1,5,probe,5,0,68,norm,36,-5.025,down,norm,276.104761365,269.9,281.7,274.3,271.2,1,279.2,276.0,273.3,10,5,7.746,5.132,1.667,-1.244,-4.453,-7.791,273.3,2,208.1,-8.101,-7.58,40,-7.579,-8.032,-4.389,-5.009,-5.092,-4.811,5.295,7.731,7,-1.671,1.138,5.046,8.177,-7.695,-7.746,-2.002,1.33,268.9,270.1,286.1,274.8,269.4,280.0,,277.8,280.6,282.7,1,norm,1.578,1.583,-1.458,-1.947,-4.401,-4.748,-1.819,-2.075,-1.867,-1.401,1.454,-1.387,276.3,285.6,-4.72,-8.466,1.999,-1.733,7.677,5.111,-5.268,-7.861,9,4.858,4.993,4.545,4.823,2.089,2.072,1.687,1.372,9,5.058,4.512,40,172.329482655,norm,0,36,36,36,222.057,222.068,222.072711654,222.073,222.075,222.077,down,1,1.27201626104,8.72798373896,001,021,1920_1200,Intel(R) Core(TM) i5-3570 CPU @ 3.40GHz,orientation_search,LEPPC096,Intel(R) HD Graphics 2500,2018_Dec_21_1246,testMonitor,
276.1,287.9,258.3,261.6,36,-80,274.1,266.8,249.4,260.6,8.341,8.28,8.114,7.786,8.159,8.371,7.579,4.816,-4.832,-8.206,1.365,-1.171,8.172,4.536,-4.371,-7.574,274.8,280.9,-7.647,263.3,,274.4,262.3,269.6,36,275.2,5,5,prime,10,0,60,norm,36,-4.479,down,norm,269.387811406,266.8,268.8,250.4,266.9,0,279.3,274.5,269.2,10,6,7.565,4.663,1.108,-1.869,-4.861,-7.843,279.5,6,329.4,-8.031,-7.918,-80,-8.099,-7.747,-4.546,-4.876,-5.053,-4.391,4.6,8.493,30,-1.861,1.751,5.105,7.813,-7.627,-7.602,-1.868,1.469,283.5,283.1,259.7,268.9,274.1,252.8,268.1,258.5,274.6,262.5,0,norm,1.878,1.466,-1.47,-1.317,-4.818,-4.925,-1.185,-1.155,-1.449,-2.047,1.727,-1.35,289.4,255.3,-4.97,-8.302,1.453,-1.961,7.896,4.392,-4.553,-7.714,10,5.277,4.317,4.84,4.496,1.849,1.667,1.249,1.541,10,4.564,4.524,60,172.329482655,norm,0,37,37,37,223.39,223.399,223.405772923,223.406,223.408,223.41,down,1,4.00791349339,5.99208650661,001,021,1920_1200,Intel(R) Core(TM) i5-3570 CPU @ 3.40GHz,orientation_search,LEPPC096,Intel(R) HD Graphics 2500,2018_Dec_21_1246,testMonitor,
263.5,256.5,,275.0,36,-80,261.2,287.7,268.2,279.6,8.219,7.66,7.797,7.85,8.324,7.844,8.464,4.934,-4.58,-8.212,1.91,-1.348,8.221,5.023,-5.25,-8.449,261.8,276.4,-7.662,268.9,263.0,281.7,286.5,282.3,36,273.0,3,5,prime,10,0,69,norm,36,-4.952,down,norm,269.387811406,249.4,274.1,268.8,280.6,2,289.4,263.2,255.6,10,6,8.098,5.206,2.01,-1.675,-4.576,-8.466,266.4,6,338.4,-7.906,-7.715,-80,-7.852,-7.535,-4.829,-4.582,-4.389,-4.343,4.638,7.792,20,-1.181,1.597,4.746,8.148,-7.586,-8.371,-1.432,1.862,268.2,282.8,280.3,273.2,258.9,265.5,255.1,257.5,266.9,277.0,1,norm,2.034,1.67,-2.072,-1.69,-5.111,-4.556,-2.044,-1.238,-1.432,-1.878,1.552,-1.282,271.4,271.1,-4.592,-8.246,2.061,-2.022,8.283,4.911,-4.456,-7.819,10,5.023,4.757,4.512,4.578,1.516,2.093,1.579,1.538,10,4.677,4.784,60,172.329482655,norm,0,38,38,38,227.451,227.464,227.483573396,227.484,227.485,227.488,down,1,1.25526351296,8.74473648704,001,021,1920_1200,Intel(R) Core(TM) i5-3570 CPU @ 3.40GHz,orientation_search,LEPPC096,Intel(R) HD Graphics 2500,2018_Dec_21_1246,testMonitor,
260.9,276.9,273.4,267.9,36,-80,269.2,262.9,253.4,251.4,7.718,8.292,7.965,8.058,7.606,7.838,7.671,4.585,-4.516,-7.696,1.497,-1.739,8.494,4.695,-4.557,-8.286,272.1,283.1,-8.09,285.4,249.4,274.1,259.8,282.3,36,251.0,2,5,prime,10,0,118,norm,36,-4.601,up,norm,269.387811406,,262.2,273.2,259.1,5,264.4,255.8,272.3,10,6,7.563,4.523,1.489,-1.143,-5.21,-8.366,267.2,6,387.4,-8.058,-7.913,-80,-8.155,-7.952,-5.099,-4.967,-4.435,-4.86,5.078,8.094,17,-1.907,1.449,4.464,7.847,-8.151,-7.913,-1.563,1.982,261.5,262.3,267.5,260.1,257.1,272.4,260.7,286.7,269.4,289.4,2,norm,1.461,1.397,-1.401,-1.315,-5.226,-4.553,-1.363,-1.987,-1.524,-1.423,1.596,-1.376,268.4,267.2,-5.059,-8.032,1.267,-2.074,8.172,4.475,-5.135,-8.485,10,4.923,4.687,5.09,4.865,1.183,1.897,1.79,1.272,10,4.99,4.788,60,172.329482655,norm,0,39,39,39,228.776,228.785,228.802133084,228.802,228.804,228.807,down,0,1.37978338936,-10,001,021,1920_1200,Intel(R) Core(TM) i5-3570 CPU @ 3.40GHz,orientation_search,LEPPC096,Intel(R) HD Graphics 2500,2018_Dec_21_1246,testMonitor,
262.1,266.9,,284.5,36,-80,249.4,277.6,287.4,279.6,7.693,7.545,7.576,7.55,8.461,7.562,7.713,4.612,-4.869,-7.967,1.644,-1.145,7.9,4.304,-5.287,-7.887,283.9,278.0,-8.085,275.9,266.1,269.4,267.7,269.4,36,260.6,3,5,prime,10,0,100,norm,36,-4.303,down,norm,269.387811406,269.1,260.9,251.3,273.7,2,254.3,271.0,276.9,10,6,8.037,4.805,1.856,-1.266,-4.6,-8.109,267.9,6,369.4,-8.134,-7.99,-80,-7.647,-8.258,-4.495,-5.245,-4.37,-4.492,5.065,8.314,20,-1.646,1.113,4.53,7.991,-7.707,-8.023,-1.615,2.014,261.8,280.3,263.1,278.8,289.4,268.8,259.2,285.9,253.8,275.6,3,norm,1.599,1.589,-1.406,-1.381,-4.905,-4.422,-1.137,-1.293,-1.473,-1.296,1.681,-2.096,269.8,283.5,-4.532,-8.454,1.353,-1.273,7.698,4.634,-4.419,-7.543,10,4.947,4.884,4.515,4.889,1.143,1.803,1.785,1.502,10,4.649,4.669,60,172.329482655,norm,0,40,40,40,231.24,231.25,231.266834171,231.267,231.269,231.271,down,1,2.85258662298,7.14741337702,001,021,1920_1200,Intel(R) Core(TM) i5-3570 CPU @ 3.40GHz,orientation_search,LEPPC096,Intel(R) HD Graphics 2500,2018_Dec_21_1246,testMonitor,
259.9,269.1,273.5,273.2,36,-80,280.0,278.1,256.7,259.7,7.739,8.168,7.958,7.674,8.024,8.046,7.608,5.088,-4.743,-7.695,1.453,-1.762,8.155,5.173,-4.514,-7.782,278.3,269.4,-7.717,273.3,272.3,274.2,271.0,275.6,36,276.0,0,5,prime,10,0,65,norm,36,-4.82,down,norm,269.387811406,280.4,272.4,261.7,258.5,0,289.4,266.8,270.4,10,6,8.133,4.778,1.846,-1.183,-4.85,-7.695,273.8,6,334.4,-8.254,-7.559,-80,-8.257,-8.336,-4.529,-4.928,-4.309,-5.116,4.706,7.62,0,-1.706,1.411,4.422,8.345,-8.184,-8.337,-2.07,1.306,272.7,268.4,276.4,278.8,275.0,,276.9,272.1,271.4,264.4,4,norm,1.411,1.94,-1.363,-1.504,-5.046,-4.581,-1.734,-1.508,-1.806,-1.309,1.893,-1.148,249.4,261.3,-4.38,-8.48,2.093,-1.219,8.062,4.988,-4.949,-7.787,10,4.748,4.991,4.774,4.427,1.169,1.304,1.928,1.526,10,5.209,4.992,60,172.329482655,norm,0,41,41,41,234.156,234.166,234.183781278,234.184,234.186,234.188,down,1,1.72150914487,8.27849085513,001,021,1920_1200,Intel(R) Core(TM) i5-3570 CPU @ 3.40GHz,orientation_search,LEPPC096,Intel(R) HD Graphics 2500,2018_Dec_21_1246,testMonitor,
276.3,251.5,,254.0,36,-80,264.3,258.4,274.9,265.2,7.81,7.847,7.544,7.681,7.679,7.94,7.688,4.499,-4.771,-7.839,1.475,-1.432,8.233,4.639,-4.796,-8.342,284.1,274.9,-7.633,249.4,289.4,277.5,274.9,255.8,36,273.0,3,5,prime,10,0,75,norm,36,-4.914,down,norm,269.387811406,254.2,269.5,270.0,253.6,2,259.5,258.6,273.9,10,6,7.575,4.873,1.804,-1.889,-4.408,-8.476,273.8,6,344.4,-7.926,-8.191,-80,-8.283,-8.461,-4.808,-5.109,-5.059,-4.399,5.134,7.939,20,-1.279,1.445,4.446,7.603,-8.21,-8.342,-1.413,1.887,270.4,266.8,269.5,272.9,275.4,275.6,281.1,283.2,276.6,274.9,5,norm,1.923,1.247,-1.693,-1.992,-5.106,-5.002,-1.718,-1.697,-1.384,-1.594,1.191,-1.677,257.9,278.9,-4.833,-8.258,1.852,-1.425,7.892,4.57,-4.733,-8.016,10,5.179,5.156,4.596,4.978,1.152,1.799,1.638,1.386,10,4.705,4.396,60,172.329482655,norm,0,42,42,42,235.942,235.952,235.96222097,235.962,235.964,235.967,down,1,1.50394950239,8.49605049761,001,021,1920_1200,Intel(R) Core(TM) i5-3570 CPU @ 3.40GHz,orientation_search,LEPPC096,Intel(R) HD Graphics 2500,2018_Dec_21_1246,testMonitor,
264.0,260.8,258.6,263.0,36,20,260.0,260.8,259.6,263.4,7.582,8.012,8.007,7.655,8.33,8.105,8.29,4.343,-4.553,-8.279,1.87,-1.632,7.82,4.839,-4.482,-8.021,271.9,264.0,-8.419,258.9,255.8,267.8,266.7,258.0,36,260.7,1,5,probe,5,0,63,norm,36,-5.114,down,norm,261.87266361,266.0,255.3,258.2,265.9,1,262.8,254.9,261.9,10,6,8.076,5.188,1.731,-1.608,-4.31,-7.696,261.2,1,198.9,-7.907,-8.17,-80,-8.037,-8.22,-4.996,-4.808,-4.763,-4.375,4.386,7.87,7,-1.33,1.535,5.169,7.62,-7.567,-8.452,-1.654,1.454,270.4,257.8,251.9,260.4,269.6,269.7,,265.9,266.0,258.6,0,norm,1.991,1.617,-1.952,-1.438,-4.373,-4.557,-1.574,-1.784,-1.969,-1.382,1.947,-1.77,259.6,258.6,-4.947,-7.916,1.59,-2.006,8.311,4.658,-4.861,-7.672,11,5.047,4.862,4.905,4.947,1.701,1.661,1.565,1.78,11,4.684,4.686,-80,269.387811406,norm,0,43,43,43,237.503,237.513,237.522014073,237.522,237.524,237.526,down,1,0.843607009949,9.15639299005,001,021,1920_1200,Intel(R) Core(TM) i5-3570 CPU @ 3.40GHz,orientation_search,LEPPC096,Intel(R) HD Graphics 2500,2018_Dec_21_1246,testMonitor,
298.1,307.6,297.5,296.5,36,-60,312.1,307.0,297.6,293.4,7.944,7.503,8.22,7.899,8.002,8.431,8.23,5.06,-5.144,-8.371,1.806,-2.092,7.849,4.39,-4.996,-7.642,302.8,297.4,-8.013,289.3,306.3,311.5,280.7,295.6,36,294.9,2,5,prime,10,0,86,norm,36,-4.323,up,norm,300.745590836,308.7,316.3,,287.9,3,318.6,292.2,320.7,10,5,8.168,4.545,1.623,-1.725,-5.232,-8.454,286.1,5,386.7,-8.03,-7.559,-60,-8.017,-8.305,-4.57,-4.671,-4.404,-4.368,4.625,7.851,15,-1.112,1.682,4.406,8.182,-7.752,-7.799,-1.676,1.311,308.0,297.1,304.3,316.1,300.5,299.9,295.1,310.4,296.3,295.9,0,norm,1.775,1.672,-1.242,-1.592,-5.234,-4.474,-1.359,-1.831,-1.105,-1.883,1.85,-1.754,301.3,296.2,-4.619,-7.808,1.526,-1.601,8.006,5.175,-4.499,-8.173,12,4.784,5.249,5.091,4.588,1.783,1.42,1.852,1.809,12,4.887,4.527,20,269.387811406,norm,0,44,44,44,238.412,238.433,238.44451786,238.445,238.447,238.45,up,1,0.973182804806,9.02681719519,001,021,1920_1200,Intel(R) Core(TM) i5-3570 CPU @ 3.40GHz,orientation_search,LEPPC096,Intel(R) HD Graphics 2500,2018_Dec_21_1246,testMonitor,
302.2,307.4,306.9,308.2,36,-60,292.8,313.1,293.0,286.9,8.239,7.536,8.139,7.685,8.246,8.204,7.546,4.924,-4.321,-7.619,1.335,-1.791,8.386,4.566,-4.945,-7.73,301.0,311.2,-7.889,296.5,280.7,287.7,300.5,302.6,36,298.3,3,5,prime,10,0,61,norm,36,-4.39,down,norm,300.745590836,314.7,296.1,290.3,300.3,0,311.8,320.7,297.1,10,5,8.247,5.062,2.094,-1.493,-4.839,-8.418,302.9,5,361.7,-7.846,-7.851,-60,-7.936,-8.398,-5.003,-4.734,-4.606,-5.074,4.863,7.89,18,-1.784,1.33,5.282,8.179,-8.254,-8.142,-1.569,1.838,292.3,307.9,307.7,301.1,281.6,308.4,294.5,309.4,299.8,291.7,1,norm,1.991,1.766,-1.2,-1.244,-4.564,-4.652,-1.652,-1.786,-1.341,-1.264,1.238,-2.041,307.1,,-4.963,-8.315,1.512,-1.903,7.637,5.268,-4.564,-7.851,12,4.81,5.13,5.131,4.836,1.201,1.695,1.718,2.03,12,5.108,4.626,20,269.387811406,norm,0,45,45,45,239.441,239.451,239.457185124,239.457,239.459,239.462,down,1,1.01087007376,8.98912992624,001,021,1920_1200,Intel(R) Core(TM) i5-3570 CPU @ 3.40GHz,orientation_search,LEPPC096,Intel(R) HD Graphics 2500,2018_Dec_21_1246,testMonitor,
291.0,314.6,288.6,298.3,36,-60,,294.5,280.7,303.1,8.196,7.854,7.796,8.207,8.453,7.657,8.341,4.986,-5.186,-8.325,1.872,-2.038,8.327,4.669,-4.428,-7.732,296.6,292.1,-8.43,312.7,311.3,285.0,298.5,300.1,36,300.8,4,5,prime,10,0,71,norm,36,-5.246,down,norm,300.745590836,298.4,306.2,293.3,320.7,0,285.6,312.3,311.9,10,5,8.229,4.313,1.148,-1.839,-5.104,-8.218,300.7,5,371.7,-7.694,-7.729,-60,-7.804,-8.084,-4.512,-4.654,-4.896,-4.959,4.795,8.289,24,-1.807,2.019,4.994,8.382,-8.388,-8.091,-1.924,1.647,302.7,308.4,313.2,297.8,319.5,301.1,298.6,292.2,282.1,303.9,2,norm,1.681,1.633,-1.162,-1.459,-4.348,-4.688,-1.196,-2.085,-1.684,-1.53,2.013,-1.285,307.5,301.5,-4.352,-7.892,1.877,-1.494,8.443,4.86,-4.356,-7.606,12,4.385,4.698,4.833,4.713,1.886,1.232,1.173,1.93,12,4.758,4.903,20,269.387811406,norm,0,46,46,46,240.505,240.515,240.532640859,240.533,240.535,240.537,down,1,0.670810809343,9.32918919066,001,021,1920_1200,Intel(R) Core(TM) i5-3570 CPU @ 3.40GHz,orientation_search,LEPPC096,Intel(R) HD Graphics 2500,2018_Dec_21_1246,testMonitor,
303.1,292.6,313.4,300.3,36,-60,298.0,314.1,300.2,307.4,8.133,8.386,8.491,7.65,7.514,8.302,8.191,4.634,-4.804,-8.403,2.088,-1.967,7.741,4.863,-5.079,-7.868,280.7,294.1,-8.026,320.7,317.3,304.3,299.0,291.6,36,307.4,0,5,prime,10,0,87,norm,36,-5.276,up,norm,300.745590836,310.7,310.5,288.2,307.9,5,300.6,295.2,307.8,10,5,8.16,5.178,1.213,-1.25,-4.339,-8.136,299.9,5,387.7,-8.372,-7.523,-60,-8.245,-8.141,-4.478,-5.173,-4.837,-4.806,4.629,7.557,5,-2.01,1.619,4.467,7.736,-7.899,-8.495,-2.034,1.926,288.7,301.2,308.2,295.5,298.1,293.4,299.4,284.7,,295.4,3,norm,1.102,1.658,-1.65,-1.195,-5.092,-5.086,-1.318,-1.826,-2.008,-1.31,1.67,-1.389,307.6,290.1,-4.466,-7.713,1.432,-1.344,7.996,4.715,-4.719,-8.348,12,4.374,4.468,5.12,5.24,1.932,2.072,1.913,1.228,12,5.01,4.408,20,269.387811406,norm,0,47,47,47,241.241,241.254,241.273163879,241.273,241.275,241.278,up,1,0.729138601288,9.27086139871,001,021,1920_1200,Intel(R) Core(TM) i5-3570 CPU @ 3.40GHz,orientation_search,LEPPC096,Intel(R) HD Graphics 2500,2018_Dec_21_1246,testMonitor,
312.7,306.6,314.7,303.4,36,-60,288.1,302.9,297.8,320.7,7.624,8.351,7.6,7.713,7.844,8.203,7.702,4.571,-5.175,-7.868,1.947,-1.872,7.779,4.863,-4.792,-8.028,281.3,299.5,-8.138,318.4,318.2,317.9,314.9,280.7,36,299.6,3,5,prime,10,0,107,norm,36,-4.968,down,norm,300.745590836,298.8,285.2,317.5,293.0,1,298.0,314.9,284.6,10,5,8.124,4.949,1.848,-2.055,-4.81,-8.11,305.7,5,407.7,-8.421,-7.804,-60,-7.916,-8.159,-4.443,-4.429,-4.534,-4.74,4.825,7.599,19,-1.281,1.721,4.987,8.302,-7.604,-7.933,-1.654,1.892,307.6,303.9,303.8,290.7,312.9,306.6,319.5,299.0,314.5,314.4,4,norm,1.892,1.171,-1.449,-1.993,-4.708,-5.174,-1.622,-1.284,-1.998,-1.25,1.477,-1.192,,293.1,-4.645,-7.622,1.386,-1.504,7.849,4.393,-5.067,-7.817,12,5.024,4.967,4.488,4.435,1.552,1.432,1.721,1.399,12,4.623,4.406,20,269.387811406,norm,0,48,48,48,242.046,242.056,242.063257237,242.063,242.065,242.068,down,1,1.40132612968,8.59867387032,001,021,1920_1200,Intel(R) Core(TM) i5-3570 CPU @ 3.40GHz,orientation_search,LEPPC096,Intel(R) HD Graphics 2500,2018_Dec_21_1246,testMonitor,
361.0,347.9,367.9,367.7,36,-30,360.4,359.7,358.2,365.4,7.573,7.906,8.429,7.77,8.465,8.45,8.157,4.996,-5.241,-7.667,1.482,-1.156,7.98,4.716,-5.045,-8.348,360.0,359.8,-8.163,357.6,355.3,357.1,363.2,358.7,36,352.5,1,5,probe,5,0,115,norm,36,-5.142,up,norm,357.865599569,361.4,354.9,360.3,361.0,4,364.9,353.1,359.7,10,5,7.94,4.824,1.224,-1.882,-5.274,-8.352,,1,242.9,-8.066,-7.596,-60,-7.678,-7.663,-4.911,-4.336,-5.14,-4.629,4.988,7.938,10,-1.234,1.695,5.217,7.922,-7.813,-8.311,-1.722,1.8,359.1,362.7,356.0,353.7,361.1,362.0,364.2,356.0,361.6,360.3,0,norm,1.858,1.822,-1.174,-1.298,-5.268,-4.619,-1.188,-1.712,-1.84,-1.216,1.645,-1.861,356.6,360.9,-4.961,-7.701,2.0,-1.338,8.301,4.916,-4.98,-8.223,13,4.371,4.495,5.093,4.946,1.793,1.924,1.249,1.709,13,4.906,4.344,-60,300.745590836,norm,0,49,49,49,243.502,243.515,243.534157634,243.534,243.536,243.539,up,1,1.24871889063,8.75128110937,001,021,1920_1200,Intel(R) Core(TM) i5-3570 CPU @ 3.40GHz,orientation_search,LEPPC096,Intel(R) HD Graphics 2500,2018_Dec_21_1246,testMonitor,
183.9,181.0,182.9,188.1,36,20,183.2,176.3,179.6,183.2,8.441,7.724,7.73,8.343,8.41,8.386,8.052,5.084,-4.778,-7.772,1.574,-1.912,8.41,4.647,-4.685,-8.209,193.9,177.5,-7.788,179.4,181.8,170.0,195.8,186.6,36,202.5,0,5,prime,10,0,112,norm,36,-5.102,up,norm,182.478237512,174.3,175.9,175.6,187.7,4,191.9,167.9,178.5,10,6,8.178,4.891,1.927,-1.879,-4.783,-7.812,183.1,6,294.5,-7.941,-8.493,20,-7.686,-8.231,-4.959,-4.963,-4.61,-4.923,5.251,7.77,4,-1.201,1.355,4.835,8.166,-8.1,-7.808,-1.589,1.418,187.0,177.6,200.4,191.4,185.5,181.9,177.1,181.8,162.5,,0,norm,1.69,1.334,-1.808,-1.264,-4.73,-4.891,-1.783,-1.344,-1.449,-1.789,1.128,-1.288,174.9,189.7,-5.27,-8.066,1.878,-1.913,7.997,4.441,-5.266,-7.755,14,5.068,4.535,4.714,4.763,2.0,1.306,1.758,1.468,14,5.159,4.801,-30,300.745590836,norm,0,50,50,50,244.82,244.83,244.838163823,244.838,244.84,244.843,up,1,0.755276341411,9.24472365859,001,021,1920_1200,Intel(R) Core(TM) i5-3570 CPU @ 3.40GHz,orientation_search,LEPPC096,Intel(R) HD Graphics 2500,2018_Dec_21_1246,testMonitor,
184.3,196.7,182.1,188.8,36,20,171.4,185.4,189.3,197.1,8.015,8.228,8.156,8.443,8.071,7.931,7.961,4.914,-4.618,-8.213,1.632,-1.891,8.088,5.196,-4.58,-7.959,,185.0,-7.649,197.1,181.4,176.6,162.5,182.2,36,194.1,5,5,prime,10,0,69,norm,36,-4.32,up,norm,182.478237512,190.3,182.8,193.3,169.9,5,172.8,187.9,164.9,10,6,7.777,4.591,1.293,-1.175,-4.997,-8.409,181.4,6,251.5,-7.684,-7.799,20,-8.113,-8.074,-4.418,-5.042,-4.691,-4.769,4.632,7.938,35,-1.983,1.331,5.242,8.193,-7.607,-7.638,-2.075,1.305,198.1,187.5,189.2,180.2,184.2,179.8,202.5,196.5,176.8,182.2,1,norm,1.528,1.753,-1.832,-1.278,-5.283,-4.707,-1.647,-1.289,-1.653,-1.964,1.334,-1.494,187.7,185.3,-4.94,-8.312,1.507,-1.937,7.528,4.752,-4.859,-7.628,14,5.071,4.932,4.359,5.084,1.251,1.964,1.653,1.695,14,4.353,5.217,-30,300.745590836,norm,0,51,51,51,245.629,245.639,245.649196833,245.649,245.651,245.654,down,0,3.6007698881,-10,001,021,1920_1200,Intel(R) Core(TM) i5-3570 CPU @ 3.40GHz,orientation_search,LEPPC096,Intel(R) HD Graphics 2500,2018_Dec_21_1246,testMonitor,
169.4,180.6,190.5,185.9,36,20,176.8,188.8,187.0,190.4,7.606,7.563,7.669,7.727,8.087,7.882,8.18,5.219,-4.637,-8.143,1.795,-1.253,7.633,5.26,-4.319,-8.271,194.8,169.9,-8.287,183.1,162.5,191.6,181.8,194.8,36,192.1,2,5,prime,10,0,71,norm,36,-4.523,down,norm,182.478237512,202.5,184.3,186.4,182.1,1,177.3,,192.4,10,6,8.435,4.352,2.048,-1.179,-5.299,-8.375,185.9,6,253.5,-7.663,-8.359,20,-7.508,-7.646,-5.294,-4.666,-5.205,-4.88,4.97,7.876,13,-1.804,1.933,4.649,7.7,-8.327,-8.019,-1.824,1.29,191.8,182.3,169.0,184.3,164.3,176.4,176.3,186.2,169.9,170.3,2,norm,1.264,1.593,-1.781,-1.22,-4.589,-4.56,-1.894,-1.411,-1.425,-1.433,1.311,-1.256,191.6,173.9,-4.599,-7.714,1.295,-1.155,7.776,5.218,-5.275,-8.483,14,4.66,5.16,4.606,4.653,1.615,1.702,1.403,1.418,14,4.639,5.163,-30,300.745590836,norm,0,52,52,52,250.318,250.328,250.344636455,250.345,250.347,250.349,down,1,0.85928971439,9.14071028561,001,021,1920_1200,Intel(R) Core(TM) i5-3570 CPU @ 3.40GHz,orientation_search,LEPPC096,Intel(R) HD Graphics 2500,2018_Dec_21_1246,testMonitor,
177.2,179.3,198.4,202.5,36,20,193.1,167.7,189.8,186.5,8.041,8.368,7.832,7.629,8.411,7.665,7.501,4.334,-4.395,-8.002,1.815,-1.727,7.666,4.767,-5.245,-8.216,187.8,162.5,-7.984,195.1,190.1,170.3,184.4,191.6,36,184.3,2,5,prime,10,0,69,norm,36,-4.714,down,norm,182.478237512,188.4,172.7,183.5,187.1,1,184.5,,190.3,10,6,8.415,4.464,1.589,-1.503,-5.228,-8.237,177.1,6,251.5,-8.043,-7.731,20,-8.157,-7.513,-4.827,-4.669,-5.293,-5.042,5.051,7.579,13,-2.09,1.321,5.116,7.57,-8.282,-7.549,-1.333,1.798,194.9,169.5,185.1,192.4,186.4,186.3,184.8,179.8,196.7,180.7,3,norm,1.557,1.691,-1.397,-1.366,-4.856,-5.085,-2.05,-1.692,-1.434,-1.605,1.39,-1.668,177.2,188.8,-4.366,-7.856,1.948,-1.813,8.007,4.852,-4.924,-7.842,14,4.447,4.478,4.684,5.007,1.412,1.675,2.029,1.843,14,4.435,5.161,-30,300.745590836,norm,0,53,53,53,251.251,251.271,251.282857961,251.283,251.285,251.288,down,1,2.24571974999,7.75428025001,001,021,1920_1200,Intel(R) Core(TM) i5-3570 CPU @ 3.40GHz,orientation_search,LEPPC096,Intel(R) HD Graphics 2500,2018_Dec_21_1246,testMonitor,
,180.7,162.6,190.1,36,20,181.2,175.1,189.6,175.3,7.586,7.55,7.681,7.644,7.696,8.406,7.831,4.987,-4.658,-8.325,1.724,-1.635,8.491,4.853,-4.971,-8.014,184.4,177.5,-7.783,183.5,192.3,171.6,180.1,166.9,36,173.2,3,5,prime,10,0,113,norm,36,-4.569,up,norm,182.478237512,186.1,174.8,192.8,201.3,4,168.6,186.9,189.2,10,6,7.926,4.428,2.063,-2.004,-4.545,-7.892,187.8,6,295.5,-7.925,-7.798,20,-7.602,-8.176,-5.289,-4.603,-5.159,-4.698,4.692,8.471,22,-1.366,1.422,4.791,8.066,-8.142,-7.583,-1.445,2.064,175.5,172.7,187.1,194.1,169.8,187.6,192.5,202.5,193.9,179.0,4,norm,1.938,1.138,-1.572,-1.364,-4.908,-4.515,-2.085,-1.118,-1.956,-1.401,1.52,-2.045,179.7,162.5,-5.187,-7.699,1.729,-1.988,8.297,4.415,-4.617,-8.31,14,5.049,4.965,4.399,5.112,1.407,1.182,2.047,1.447,14,5.036,5.256,-30,300.745590836,norm,0,54,54,54,253.574,253.584,253.590266859,253.59,253.592,253.595,up,1,2.39361758965,7.60638241035,001,021,1920_1200,Intel(R) Core(TM) i5-3570 CPU @ 3.40GHz,orientation_search,LEPPC096,Intel(R) HD Graphics 2500,2018_Dec_21_1246,testMonitor,
186.7,177.1,164.7,193.9,36,20,193.4,174.3,165.3,181.9,7.67,8.402,7.882,7.586,7.705,7.941,8.124,4.796,-4.971,-7.945,1.958,-1.802,7.746,4.521,-4.575,-8.158,178.1,185.7,-7.772,193.1,185.7,183.4,168.3,190.9,36,175.1,1,5,prime,10,0,68,norm,36,-4.484,up,norm,182.478237512,176.7,194.1,179.6,183.7,3,181.8,194.6,176.0,10,6,8.0,4.874,1.408,-2.052,-5.193,-7.854,202.5,6,250.5,-8.157,-7.999,20,-7.98,-7.78,-5.19,-4.964,-5.037,-5.061,4.76,7.573,9,-1.324,1.905,4.375,8.105,-7.516,-8.359,-1.693,1.526,,184.8,184.1,168.6,171.7,162.5,184.3,177.3,183.4,168.1,5,norm,1.448,1.6,-1.224,-2.077,-4.317,-4.519,-2.013,-1.928,-1.279,-2.098,1.21,-1.763,195.8,188.5,-5.219,-7.605,1.62,-2.085,8.453,4.875,-4.368,-7.996,14,4.666,5.201,5.145,5.281,1.36,2.014,1.357,1.548,14,4.699,4.432,-30,300.745590836,norm,0,55,55,55,256.008,256.017,256.023718747,256.024,256.026,256.028,up,1,4.66880866563,5.33119133437,001,021,1920_1200,Intel(R) Core(TM) i5-3570 CPU @ 3.40GHz,orientation_search,LEPPC096,Intel(R) HD Graphics 2500,2018_Dec_21_1246,testMonitor,
278.9,278.5,289.2,285.9,36,80,282.9,276.5,276.6,276.1,7.678,8.04,7.924,7.59,8.355,8.471,7.524,5.109,-4.66,-7.506,1.797,-1.998,7.503,4.418,-5.256,-7.95,279.5,276.0,-8.121,279.4,279.3,,277.4,281.2,36,281.7,5,5,probe,5,0,81,norm,36,-4.655,up,norm,279.237848949,274.4,283.5,281.1,274.1,3,275.0,275.3,275.2,10,6,7.566,5.239,1.189,-1.854,-4.667,-7.678,280.4,1,198.2,-8.328,-7.968,20,-8.298,-8.424,-4.896,-5.154,-4.979,-5.031,4.981,8.224,33,-1.492,1.152,4.446,7.782,-8.327,-8.117,-1.143,1.413,273.8,273.2,281.7,279.8,286.0,281.8,278.9,272.9,285.4,269.2,0,norm,1.529,1.987,-1.989,-1.693,-4.787,-5.264,-1.25,-2.089,-2.001,-1.316,1.262,-1.736,278.8,281.3,-5.098,-7.518,1.223,-2.017,7.827,4.607,-4.947,-8.144,15,4.473,5.262,4.954,4.95,2.011,1.417,1.256,1.913,15,5.131,4.864,20,182.478237512,norm,0,56,56,56,260.734,260.744,260.750391268,260.751,260.752,260.755,up,1,0.770314001211,9.22968599879,001,021,1920_1200,Intel(R) Core(TM) i5-3570 CPU @ 3.40GHz,orientation_search,LEPPC096,Intel(R) HD Graphics 2500,2018_Dec_21_1246,testMonitor,
85.5,78.0,73.2,88.1,36,-20,70.6,77.9,100.8,100.1,7.997,7.942,7.577,8.191,7.781,8.054,7.739,5.238,-5.116,-7.597,1.112,-1.82,8.143,4.796,-5.245,-8.15,100.1,81.3,-8.422,86.4,83.1,101.5,87.8,103.7,36,89.2,2,5,prime,10,0,91,norm,36,-4.414,up,norm,83.7378783528,92.8,82.7,,97.0,3,76.7,89.1,76.9,10,5,7.743,4.363,1.56,-2.059,-4.438,-8.472,73.0,5,174.7,-8.475,-8.353,-20,-7.521,-7.671,-4.576,-4.752,-4.986,-5.271,4.91,7.837,15,-1.154,1.435,4.602,7.975,-7.76,-7.934,-1.202,1.52,96.7,99.0,63.7,100.9,83.5,83.7,95.8,77.3,91.8,96.4,0,norm,1.587,1.905,-1.731,-1.507,-5.207,-5.154,-1.448,-2.099,-2.022,-1.833,2.049,-1.159,91.8,81.0,-5.029,-7.637,1.122,-1.453,8.051,4.724,-5.26,-8.458,16,4.307,5.2,4.802,5.048,1.743,1.525,1.446,2.081,16,5.292,4.891,80,182.478237512,norm,0,57,57,57,261.545,261.555,261.562251034,261.562,261.564,261.567,up,1,1.17505249855,8.82494750145,001,021,1920_1200,Intel(R) Core(TM) i5-3570 CPU @ 3.40GHz,orientation_search,LEPPC096,Intel(R) HD Graphics 2500,2018_Dec_21_1246,testMonitor,
68.6,80.9,90.5,79.2,36,-20,89.9,67.1,93.9,82.0,8.405,7.656,8.115,8.269,7.677,7.698,8.079,4.463,-5.146,-8.293,1.319,-1.969,8.478,4.334,-4.345,-7.734,63.7,84.6,-7.592,,78.6,77.6,68.6,78.8,36,103.7,5,5,prime,10,0,111,norm,36,-5.176,down,norm,83.7378783528,85.9,75.2,76.9,81.3,1,87.6,71.7,75.9,10,5,7.907,5.067,1.438,-2.0,-4.522,-7.554,94.8,5,194.7,-8.356,-7.943,-20,-7.758,-7.562,-5.048,-5.288,-5.252,-4.838,5.104,8.457,31,-1.242,1.914,4.779,8.014,-8.271,-7.975,-1.954,1.368,97.1,81.2,88.0,70.6,75.5,84.7,82.4,94.1,92.4,72.1,1,norm,1.386,1.85,-1.431,-1.817,-4.658,-4.352,-1.619,-2.091,-1.764,-1.173,1.7,-1.507,93.7,84.7,-4.68,-7.875,1.383,-1.895,7.889,4.549,-4.889,-7.532,16,5.171,5.178,4.823,4.931,2.028,2.041,2.035,1.334,16,4.833,4.463,80,182.478237512,norm,0,58,58,58,262.758,262.768,262.777134209,262.777,262.779,262.782,down,1,1.68821494083,8.31178505917,001,021,1920_1200,Intel(R) Core(TM) i5-3570 CPU @ 3.40GHz,orientation_search,LEPPC096,Intel(R) HD Graphics 2500,2018_Dec_21_1246,testMonitor,
73.9,78.5,90.9,92.3,36,-20,85.0,75.2,76.1,77.2,8.289,8.193,8.13,8.201,8.09,7.939,8.482,4.327,-4.52,-7.925,1.983,-1.85,7.843,5.171,-4.437,-8.359,73.0,85.4,-8.325,69.7,85.4,90.9,84.6,,36,88.7,4,5,prime,10,0,113,norm,36,-4.315,down,norm,83.7378783528,86.5,63.7,66.6,88.9,2,102.6,83.4,96.8,10,5,8.209,4.747,1.34,-1.587,-4.431,-7.802,74.8,5,196.7,-7.587,-7.965,-20,-8.357,-8.004,-4.614,-5.004,-4.776,-4.404,4.77,7.88,26,-1.953,1.938,4.836,8.159,-7.594,-7.576,-1.727,1.509,92.9,103.7,98.1,72.1,87.2,89.6,73.8,84.8,73.9,90.9,2,norm,1.763,1.522,-1.69,-2.022,-4.348,-4.876,-1.649,-1.758,-1.429,-1.886,1.835,-1.958,89.3,75.2,-5.16,-7.998,1.243,-1.956,7.818,4.458,-5.095,-7.798,16,4.91,4.819,4.875,5.265,1.569,1.306,1.549,1.779,16,5.149,5.103,80,182.478237512,norm,0,59,59,59,264.502,264.513,264.524464156,264.525,264.526,264.529,up,0,6.31987996193,-10,001,021,1920_1200,Intel(R) Core(TM) i5-3570 CPU @ 3.40GHz,orientation_search,LEPPC096,Intel(R) HD Graphics 2500,2018_Dec_21_1246,testMonitor,
76.6,95.5,86.4,63.7,36,-20,79.9,102.1,90.7,91.9,8.146,7.526,7.835,7.961,7.963,8.203,7.974,4.835,-4.892,-7.757,1.365,-1.841,8.168,5.033,-4.529,-8.013,81.5,83.2,-7.554,99.2,83.7,75.5,98.9,90.1,36,87.9,1,5,prime,10,0,64,norm,36,-5.27,down,norm,83.7378783528,73.3,96.0,83.7,85.8,2,77.3,76.9,80.6,10,5,7.691,4.895,1.447,-1.283,-4.818,-8.411,90.6,5,147.7,-8.047,-8.051,-20,-7.716,-8.116,-4.681,-5.184,-5.233,-5.268,5.06,8.37,8,-1.777,1.537,4.742,7.658,-8.403,-7.951,-1.906,1.754,94.4,,89.1,77.1,103.7,71.4,78.8,68.5,87.6,80.2,3,norm,1.299,1.124,-2.079,-1.181,-4.49,-4.442,-1.11,-1.788,-1.636,-1.102,1.179,-1.587,97.5,85.5,-4.716,-7.599,1.954,-1.689,7.959,4.97,-4.353,-8.383,16,4.605,4.978,5.253,4.468,1.717,2.07,2.009,1.64,16,4.504,5.277,80,182.478237512,norm,0,60,60,60,271.923,271.933,271.949735417,271.95,271.952,271.954,down,1,3.18021466675,6.81978533325,001,021,1920_1200,Intel(R) Core(TM) i5-3570 CPU @ 3.40GHz,orientation_search,LEPPC096,Intel(R) HD Graphics 2500,2018_Dec_21_1246,testMonitor,
77.0,85.3,94.3,71.8,36,-20,89.6,95.5,90.3,85.0,8.405,7.789,7.929,8.103,7.954,7.667,8.071,5.199,-4.708,-8.228,1.538,-1.489,8.055,4.551,-4.688,-8.156,87.9,67.9,-7.791,95.0,95.6,93.1,93.8,95.0,36,85.0,0,5,prime,10,0,92,norm,36,-4.766,down,norm,83.7378783528,81.9,91.0,76.1,80.9,2,90.6,103.7,84.9,10,5,8.379,5.223,1.969,-2.007,-4.935,-7.528,85.8,5,175.7,-7.868,-7.649,-20,-8.21,-8.364,-4.929,-4.76,-4.537,-4.827,4.93,8.414,2,-1.498,1.655,4.371,8.259,-7.52,-7.729,-1.428,1.914,63.7,77.4,94.0,,89.1,100.2,82.2,84.1,83.9,78.6,4,norm,2.092,1.532,-1.599,-1.795,-4.747,-4.976,-1.169,-1.676,-1.891,-1.751,2.026,-2.057,90.5,94.3,-5.142,-8.115,1.943,-2.015,7.977,4.391,-4.624,-7.517,16,5.104,4.739,5.247,4.722,1.643,1.338,1.912,2.095,16,4.668,5.295,80,182.478237512,norm,0,61,61,61,275.168,275.182,275.199618829,275.2,275.201,275.204,down,1,1.39984859411,8.60015140589,001,021,1920_1200,Intel(R) Core(TM) i5-3570 CPU @ 3.40GHz,orientation_search,LEPPC096,Intel(R) HD Graphics 2500,2018_Dec_21_1246,testMonitor,
152.1,156.0,149.5,153.4,36,-20,,151.4,160.8,150.6,8.159,8.485,7.665,8.121,8.179,8.089,8.363,4.719,-4.955,-7.545,1.318,-1.466,7.531,5.269,-4.569,-8.414,152.3,152.9,-8.323,152.5,145.8,164.4,164.0,152.8,36,160.8,4,5,probe,5,0,96,norm,36,-4.478,down,norm,155.836627832,162.9,163.4,152.7,151.0,0,156.4,152.8,154.7,10,5,7.812,4.396,1.849,-1.62,-4.313,-8.45,162.5,1,59.8,-7.97,-7.872,-20,-7.836,-7.561,-5.119,-4.794,-5.236,-5.119,4.873,7.777,24,-1.504,1.29,4.556,7.884,-7.882,-8.161,-1.791,1.57,155.1,146.0,153.6,154.4,160.7,162.9,148.6,150.4,152.3,158.2,0,norm,1.754,1.461,-1.53,-1.397,-5.057,-5.172,-1.877,-2.069,-1.218,-1.773,1.196,-1.133,156.5,161.2,-4.728,-7.686,2.044,-1.9,8.224,5.029,-4.743,-7.809,17,4.96,5.167,4.943,4.469,1.145,1.54,1.439,1.215,17,4.379,4.807,-20,83.7378783528,norm,0,62,62,62,276.646,276.655,276.661613264,276.662,276.664,276.666,down,1,0.874939517633,9.12506048237,001,021,1920_1200,Intel(R) Core(TM) i5-3570 CPU @ 3.40GHz,orientation_search,LEPPC096,Intel(R) HD Graphics 2500,2018_Dec_21_1246,testMonitor,
155.6,154.2,157.2,148.6,36,60,150.8,158.6,157.4,164.0,7.948,8.276,7.621,7.986,8.212,8.447,8.112,4.361,-4.884,-8.091,1.765,-1.227,8.044,4.662,-5.113,-8.015,161.2,160.1,-7.954,148.1,174.1,154.5,152.2,155.5,36,161.3,0,5,prime,10,0,82,norm,36,-4.665,up,norm,154.103453924,164.0,163.6,157.9,136.6,4,146.1,154.3,134.1,10,5,8.202,5.042,1.211,-1.419,-4.842,-8.123,149.8,5,236.1,-8.489,-7.536,60,-8.274,-8.399,-4.903,-5.024,-5.107,-5.044,4.769,8.472,4,-1.284,1.114,4.707,7.582,-7.884,-8.211,-1.885,1.227,140.3,149.4,143.7,142.7,149.9,149.3,172.2,140.6,169.4,,0,norm,1.949,1.629,-1.767,-1.705,-4.591,-4.906,-2.091,-1.678,-1.223,-1.532,1.956,-1.447,162.9,161.9,-4.978,-7.79,2.032,-1.676,8.12,5.001,-4.831,-7.572,18,5.238,4.834,4.964,5.119,1.137,1.296,1.504,1.307,18,4.868,5.142,-20,83.7378783528,norm,0,63,63,63,277.582,291.42,291.433248746,291.433,291.435,291.438,up,1,0.640935009866,9.35906499013,001,021,1920_1200,Intel(R) Core(TM) i5-3570 CPU @ 3.40GHz,orientation_search,LEPPC096,Intel(R) HD Graphics 2500,2018_Dec_21_1246,testMonitor,
143.1,146.6,159.9,154.5,36,60,155.6,162.3,134.1,162.2,8.057,7.611,8.243,8.021,7.938,8.489,8.23,4.732,-4.401,-7.884,1.747,-1.204,7.601,4.406,-5.238,-8.141,150.2,144.5,-7.765,,159.9,166.9,145.4,160.3,36,143.3,5,5,prime,10,0,110,norm,36,-5.222,down,norm,154.103453924,151.4,145.6,151.3,144.3,1,153.1,170.4,147.5,10,5,7.909,5.202,1.883,-1.147,-4.908,-8.175,149.3,5,264.1,-7.68,-8.437,60,-7.739,-8.054,-4.946,-4.423,-5.248,-4.651,5.048,7.931,31,-1.228,2.059,4.847,7.865,-7.762,-7.562,-1.205,1.137,152.4,173.2,148.3,149.2,160.2,139.9,154.6,162.9,174.1,161.9,1,norm,1.314,1.586,-1.735,-1.933,-5.139,-4.332,-1.992,-2.057,-1.32,-1.583,1.318,-1.629,150.9,152.8,-4.41,-8.075,1.679,-1.265,8.401,5.06,-4.302,-8.035,18,5.152,4.712,4.741,4.997,1.266,2.082,1.471,2.011,18,5.12,4.593,-20,83.7378783528,norm,0,64,64,64,292.12,292.129,292.136067594,292.136,292.138,292.141,down,1,0.589894682955,9.41010531705,001,021,1920_1200,Intel(R) Core(TM) i5-3570 CPU @ 3.40GHz,orientation_search,LEPPC096,Intel(R) HD Graphics 2500,2018_Dec_21_1246,testMonitor,
147.7,157.4,158.6,150.4,36,60,151.5,146.1,168.3,158.0,7.54,7.885,8.058,8.258,8.255,7.586,7.787,4.99,-4.872,-8.195,1.357,-1.481,8.293,4.824,-4.922,-8.217,143.8,159.4,-8.393,151.4,152.3,153.3,159.0,159.6,36,154.0,0,5,prime,10,0,95,norm,36,-4.394,down,norm,154.103453924,174.1,168.6,151.5,170.4,2,151.2,147.1,170.5,10,5,7.836,4.868,2.018,-1.468,-4.993,-8.48,159.4,5,249.1,-8.046,-7.654,60,-8.454,-8.281,-4.662,-4.393,-5.122,-4.827,4.844,7.851,2,-1.415,1.949,4.36,7.949,-7.658,-7.521,-2.052,1.654,163.9,158.9,152.0,,162.7,158.3,156.1,134.1,147.1,159.5,2,norm,2.063,1.489,-1.473,-2.019,-4.395,-5.139,-1.485,-2.085,-1.248,-1.305,2.071,-1.728,166.7,154.2,-5.087,-8.299,1.305,-1.976,8.004,4.535,-4.995,-7.915,18,5.044,5.243,4.938,4.601,1.801,1.895,1.329,1.606,18,4.43,4.47,-20,83.7378783528,norm,0,65,65,65,292.763,292.773,292.790276578,292.79,292.792,292.795,down,1,0.755147755066,9.24485224493,001,021,1920_1200,Intel(R) Core(TM) i5-3570 CPU @ 3.40GHz,orientation_search,LEPPC096,Intel(R) HD Graphics 2500,2018_Dec_21_1246,testMonitor,
148.4,152.9,139.7,140.0,36,60,155.0,144.8,158.0,159.1,8.332,7.946,7.716,7.98,8.094,8.0,8.127,4.337,-5.095,-7.709,2.087,-1.711,8.227,4.719,-5.154,-8.082,141.7,134.9,-8.459,153.7,150.4,170.2,157.3,134.1,36,138.3,2,5,prime,10,0,70,norm,36,-4.985,up,norm,154.103453924,165.3,,169.9,146.1,4,148.8,144.4,168.1,10,5,7.959,4.74,1.566,-1.579,-4.4,-8.462,147.3,5,224.1,-8.374,-8.105,60,-8.117,-8.238,-4.555,-5.243,-4.969,-4.939,4.817,7.742,16,-1.946,1.692,4.785,8.449,-8.366,-7.53,-1.419,1.623,135.0,159.9,144.9,158.0,142.5,154.2,174.1,163.8,169.4,152.1,3,norm,1.982,1.209,-2.054,-1.132,-4.834,-4.326,-1.674,-1.651,-1.436,-1.908,1.973,-1.371,150.7,166.7,-5.255,-8.296,1.135,-1.635,8.398,4.743,-4.746,-8.478,18,4.759,4.572,5.269,4.431,1.358,1.992,1.465,1.514,18,5.274,4.855,-20,83.7378783528,norm,0,66,66,66,293.584,293.593,293.601319851,293.602,293.603,293.606,up,1,0.550516171543,9.44948382846,001,021,1920_1200,Intel(R) Core(TM) i5-3570 CPU @ 3.40GHz,orientation_search,LEPPC096,Intel(R) HD Graphics 2500,2018_Dec_21_1246,testMonitor,
148.7,151.7,142.9,153.0,36,60,146.7,159.7,148.5,148.9,8.213,8.012,8.206,7.837,7.69,7.546,7.978,4.795,-4.572,-8.145,1.343,-2.007,8.021,4.412,-4.887,-8.102,143.4,147.0,-7.962,160.3,168.7,168.2,155.3,156.3,36,134.1,1,5,prime,10,0,101,norm,36,-5.284,up,norm,154.103453924,158.9,156.7,156.2,144.4,3,156.5,151.9,153.2,10,5,7.682,4.434,1.566,-1.415,-4.996,-7.903,166.2,5,255.1,-8.349,-8.212,60,-8.378,-8.16,-5.285,-4.922,-5.266,-5.188,4.9,7.808,9,-1.74,1.714,4.824,7.751,-7.855,-8.375,-1.879,1.353,,156.4,146.6,162.1,152.0,157.2,158.5,174.1,155.0,156.8,4,norm,1.527,2.053,-1.75,-1.627,-4.646,-5.123,-1.864,-1.178,-1.685,-1.476,2.056,-1.683,164.6,161.4,-4.527,-8.246,1.967,-1.761,8.288,4.585,-5.139,-7.768,18,4.595,4.881,4.39,4.796,1.489,1.76,1.476,1.812,18,4.814,4.933,-20,83.7378783528,norm,0,67,67,67,294.195,294.204,294.210730078,294.211,294.213,294.215,up,1,0.753181531016,9.24681846898,001,021,1920_1200,Intel(R) Core(TM) i5-3570 CPU @ 3.40GHz,orientation_search,LEPPC096,Intel(R) HD Graphics 2500,2018_Dec_21_1246,testMonitor,
313.6,315.8,317.6,324.4,36,-80,311.2,323.8,320.6,316.9,7.639,7.887,8.417,8.431,7.801,8.112,8.372,4.871,-4.831,-7.89,2.065,-1.5,7.905,5.03,-4.959,-8.325,317.1,327.0,-8.314,322.8,330.0,312.4,320.4,323.8,36,315.0,2,5,probe,5,0,98,norm,36,-4.803,up,norm,320.002834051,,322.4,320.9,313.1,5,310.0,314.3,314.7,10,5,8.294,4.674,1.407,-1.109,-4.602,-7.889,320.8,2,222.0,-7.757,-7.745,60,-7.986,-7.886,-4.757,-4.411,-4.349,-4.956,4.857,8.135,17,-1.698,1.388,4.416,8.012,-7.812,-8.193,-1.719,1.991,321.2,323.9,316.4,311.0,318.6,321.5,323.7,322.8,321.2,312.7,0,norm,1.487,1.425,-1.789,-1.246,-4.617,-4.815,-1.224,-1.619,-1.403,-1.515,1.89,-1.359,326.1,321.9,-4.493,-8.29,1.919,-1.94,7.958,4.729,-5.117,-7.614,19,5.118,5.008,4.981,5.149,1.786,1.165,1.943,1.166,19,4.79,4.567,60,154.103453924,norm,0,68,68,68,295.007,295.031,295.052107352,295.052,295.054,295.057,up,1,0.520990211438,9.47900978856,001,021,1920_1200,Intel(R) Core(TM) i5-3570 CPU @ 3.40GHz,orientation_search,LEPPC096,Intel(R) HD Graphics 2500,2018_Dec_21_1246,testMonitor,
300.2,303.0,296.0,293.7,36,-80,290.3,,293.7,291.0,8.056,8.369,7.711,7.979,8.211,8.029,8.176,4.997,-4.502,-7.525,1.966,-1.529,7.955,5.166,-4.885,-8.311,294.9,289.2,-7.911,296.6,298.4,290.6,291.0,298.6,36,284.6,4,5,probe,5,0,71,norm,36,-5.134,down,norm,293.002834051,288.0,289.3,298.0,294.5,1,294.7,283.0,292.1,10,5,8.33,4.683,1.915,-2.089,-4.763,-7.745,290.8,2,222.0,-7.646,-7.718,60,-8.073,-8.03,-4.613,-4.829,-4.606,-4.454,4.869,8.142,25,-1.712,1.901,4.335,8.277,-8.066,-7.862,-1.496,1.171,287.2,285.4,295.5,294.7,293.0,294.6,286.7,287.1,294.3,297.5,1,norm,1.96,1.309,-1.478,-1.674,-5.272,-4.344,-1.215,-1.341,-1.469,-1.153,1.705,-2.097,291.5,291.3,-5.011,-7.727,2.054,-1.133,8.004,4.869,-4.852,-7.874,19,4.813,4.615,5.213,5.05,1.37,1.37,1.686,2.008,19,4.325,4.39,60,154.103453924,norm,0,69,69,69,295.609,295.619,295.629306397,295.63,295.631,295.634,down,1,0.585010816647,9.41498918335,001,021,1920_1200,Intel(R) Core(TM) i5-3570 CPU @ 3.40GHz,orientation_search,LEPPC096,Intel(R) HD Graphics 2500,2018_Dec_21_1246,testMonitor,
226.6,216.6,221.1,204.8,36,10,212.3,214.8,200.2,195.7,7.611,7.936,8.137,8.122,7.874,8.362,7.841,4.365,-4.42,-8.126,1.616,-1.775,8.01,5.074,-5.232,-7.862,219.7,206.5,-8.38,210.7,208.7,198.1,220.6,204.8,36,203.0,3,5,prime,10,0,77,norm,36,-5.185,down,norm,213.495161468,205.8,216.9,201.6,224.1,0,194.4,233.5,221.4,10,5,8.41,4.845,1.763,-1.283,-4.671,-8.383,222.7,5,290.5,-7.584,-7.862,10,-8.429,-8.052,-5.208,-5.191,-5.199,-4.582,4.403,7.59,18,-2.071,1.409,4.886,8.006,-7.594,-8.239,-1.416,1.556,215.8,229.4,209.9,209.6,212.1,221.4,207.0,220.6,193.5,222.6,0,norm,1.772,1.321,-1.901,-1.933,-4.501,-4.726,-1.467,-2.039,-1.672,-1.954,1.608,-1.569,202.0,,-5.28,-7.801,1.923,-1.319,7.605,5.165,-4.428,-7.644,20,5.052,4.541,4.729,4.544,1.963,1.549,1.9,1.347,20,4.747,4.992,-80,154.103453924,norm,0,70,70,70,296.238,296.248,296.25422305,296.254,296.256,296.259,down,1,0.738163793045,9.26183620696,001,021,1920_1200,Intel(R) Core(TM) i5-3570 CPU @ 3.40GHz,orientation_search,LEPPC096,Intel(R) HD Graphics 2500,2018_Dec_21_1246,testMonitor,
222.4,206.0,206.2,207.1,36,10,231.8,219.7,219.8,204.0,7.721,7.848,7.989,8.359,8.09,8.209,7.563,4.45,-4.616,-7.908,1.644,-1.181,8.011,4.984,-4.457,-8.468,225.4,219.5,-8.003,227.8,212.2,223.9,211.7,229.0,36,225.1,2,5,prime,10,0,72,norm,36,-4.866,down,norm,213.495161468,194.4,219.4,233.5,,2,218.8,210.0,200.2,10,5,7.786,4.834,1.628,-1.309,-4.667,-8.191,218.4,5,285.5,-7.772,-7.503,10,-7.787,-8.16,-4.413,-4.317,-4.844,-4.833,4.583,8.369,14,-1.664,1.265,4.813,7.804,-7.79,-8.062,-1.617,1.382,222.7,210.4,214.2,193.5,210.5,231.9,223.0,215.0,221.5,219.0,1,norm,1.6,1.522,-1.954,-1.108,-4.902,-5.184,-1.316,-1.893,-2.091,-1.522,1.489,-1.4,214.5,205.1,-5.284,-8.432,1.808,-1.118,7.529,4.306,-4.942,-8.35,20,5.028,4.746,4.565,4.394,1.457,1.386,2.099,1.455,20,5.243,4.854,-80,154.103453924,norm,0,71,71,71,297.03,297.039,297.048777388,297.049,297.051,297.053,down,1,1.45092967021,8.54907032979,001,021,1920_1200,Intel(R) Core(TM) i5-3570 CPU @ 3.40GHz,orientation_search,LEPPC096,Intel(R) HD Graphics 2500,2018_Dec_21_1246,testMonitor,
212.9,220.0,,225.3,36,10,217.9,203.1,213.9,216.3,8.032,7.568,7.936,8.0,7.996,7.604,8.354,4.624,-5.147,-8.302,1.366,-1.492,7.966,4.539,-4.623,-8.335,194.0,208.1,-7.918,210.9,204.3,207.7,221.1,215.4,36,226.6,3,5,prime,10,0,68,norm,36,-4.58,down,norm,213.495161468,216.6,214.6,210.4,218.3,2,212.2,211.8,214.7,10,5,7.677,5.174,1.996,-1.897,-4.851,-7.765,224.9,5,281.5,-8.368,-7.681,10,-8.089,-7.51,-5.128,-5.192,-4.561,-4.902,4.726,8.029,20,-1.598,1.294,4.332,7.543,-8.468,-7.724,-1.102,1.776,219.3,215.6,233.5,221.3,228.3,209.7,193.5,219.1,205.3,211.7,2,norm,1.456,1.645,-1.509,-1.96,-4.441,-4.594,-2.031,-1.255,-1.272,-1.802,1.478,-1.801,208.8,219.0,-5.207,-8.098,1.237,-1.548,7.618,5.018,-5.005,-8.413,20,4.406,4.818,4.792,4.901,1.754,1.918,1.316,2.09,20,5.214,4.576,-80,154.103453924,norm,0,72,72,72,298.537,298.546,298.562017707,298.562,298.564,298.566,down,1,0.535659015579,9.46434098442,001,021,1920_1200,Intel(R) Core(TM) i5-3570 CPU @ 3.40GHz,orientation_search,LEPPC096,Intel(R) HD Graphics 2500,2018_Dec_21_1246,testMonitor,
215.3,209.8,204.5,217.9,36,10,197.6,219.7,204.2,233.5,8.317,7.993,7.918,8.195,8.244,7.588,7.68,5.287,-5.282,-7.699,1.957,-1.879,7.975,4.93,-5.195,-8.145,218.0,222.2,-7.89,208.9,214.4,202.4,207.3,217.9,36,208.8,1,5,prime,10,0,101,norm,36,-4.727,up,norm,213.495161468,203.6,200.2,225.4,207.6,5,,214.8,205.4,10,5,7.701,4.921,1.471,-1.103,-4.586,-7.606,209.7,5,314.5,-8.484,-8.07,10,-8.193,-8.099,-5.157,-5.207,-4.599,-4.315,4.404,8.332,11,-1.547,2.07,4.572,8.41,-7.776,-8.111,-1.658,1.509,210.1,199.4,193.5,212.0,220.6,199.0,197.6,206.9,228.6,198.7,3,norm,2.014,1.639,-1.242,-1.914,-4.77,-4.771,-1.728,-1.824,-1.176,-1.191,1.669,-1.844,211.6,216.0,-4.883,-7.944,1.709,-1.469,8.357,4.847,-5.046,-7.553,20,4.309,4.392,4.564,5.233,1.665,1.822,1.74,1.976,20,4.809,5.167,-80,154.103453924,norm,0,73,73,73,299.14,299.149,299.155692406,299.156,299.158,299.16,up,1,0.53623735228,9.46376264772,001,021,1920_1200,Intel(R) Core(TM) i5-3570 CPU @ 3.40GHz,orientation_search,LEPPC096,Intel(R) HD Graphics 2500,2018_Dec_21_1246,testMonitor,
211.6,229.6,200.5,,36,10,233.0,211.3,223.0,208.5,8.092,8.141,7.522,7.518,8.202,7.814,7.619,4.822,-4.78,-8.181,1.365,-1.781,7.876,4.517,-4.836,-8.293,217.1,214.2,-8.125,226.0,212.8,223.0,231.4,211.9,36,213.5,3,5,prime,10,0,70,norm,36,-4.965,up,norm,213.495161468,221.2,212.5,210.1,207.8,3,212.4,193.5,212.0,10,5,8.216,4.699,1.599,-1.108,-5.151,-8.431,219.4,5,283.5,-7.611,-7.922,10,-7.698,-7.963,-4.344,-4.627,-4.367,-4.96,4.307,8.296,21,-1.579,1.433,5.118,8.188,-7.715,-8.133,-1.274,1.165,223.9,210.9,206.1,217.4,216.0,225.4,213.8,233.5,212.1,201.8,4,norm,1.764,2.024,-1.682,-1.161,-4.9,-4.488,-1.316,-2.026,-1.344,-1.448,1.103,-1.267,226.0,207.8,-4.951,-7.788,2.021,-2.026,7.506,4.407,-4.342,-7.586,20,4.779,5.177,4.704,5.236,2.06,1.503,1.847,1.9,20,5.057,5.073,-80,154.103453924,norm,0,74,74,74,299.713,299.722,299.731919809,299.732,299.734,299.736,up,1,0.753171871949,9.24682812805,001,021,1920_1200,Intel(R) Core(TM) i5-3570 CPU @ 3.40GHz,orientation_search,LEPPC096,Intel(R) HD Graphics 2500,2018_Dec_21_1246,testMonitor,
333.5,,324.9,325.6,36,80,332.9,333.9,336.5,325.9,8.113,7.53,8.27,8.019,8.309,7.695,8.0,5.217,-5.141,-8.203,1.943,-1.619,7.518,5.138,-4.922,-7.86,335.2,323.1,-8.367,329.8,334.6,333.7,334.2,329.0,36,330.5,3,5,probe,5,0,114,norm,36,-4.684,up,norm,333.067867574,327.6,329.5,328.5,336.2,5,326.5,334.3,326.2,10,5,7.717,4.728,1.489,-1.969,-4.917,-7.526,333.3,1,219.1,-8.223,-7.562,10,-7.62,-8.028,-4.528,-4.46,-4.769,-4.955,4.952,7.759,23,-1.345,1.682,4.61,7.654,-7.697,-7.551,-1.118,1.661,325.9,331.0,333.7,329.9,328.4,323.3,336.8,331.1,336.2,333.2,0,norm,2.061,1.705,-1.852,-1.402,-4.86,-4.777,-1.707,-1.112,-1.539,-1.331,1.272,-1.706,337.3,343.1,-4.718,-8.333,1.721,-1.926,8.23,5.217,-5.279,-7.564,21,4.712,5.251,4.547,4.809,1.546,1.62,1.796,1.451,21,5.039,5.167,10,213.495161468,norm,0,75,75,75,300.522,300.532,300.543061484,300.543,300.545,300.547,down,0,0.604633817182,-10,001,021,1920_1200,Intel(R) Core(TM) i5-3570 CPU @ 3.40GHz,orientation_search,LEPPC096,Intel(R) HD Graphics 2500,2018_Dec_21_1246,testMonitor,
244.2,258.6,248.9,244.7,36,0,,248.0,253.2,257.9,7.975,7.701,8.35,7.8,7.967,7.836,8.336,4.307,-4.862,-8.45,1.836,-1.299,7.567,4.864,-4.439,-7.995,243.5,261.1,-7.51,246.9,262.9,242.2,251.4,240.2,36,251.5,4,5,prime,10,0,86,norm,36,-4.898,down,norm,247.337875164,231.2,258.6,227.3,253.5,0,254.6,248.8,262.6,10,5,8.266,4.782,1.817,-1.67,-4.808,-7.83,236.7,5,333.3,-7.518,-8.182,0,-7.53,-8.082,-5.231,-5.211,-4.648,-4.47,4.809,7.682,24,-1.925,1.723,4.817,7.751,-7.799,-7.83,-1.628,1.983,234.3,249.9,267.3,231.0,241.9,266.3,263.0,251.6,252.0,260.5,0,norm,1.419,1.728,-1.718,-2.036,-4.974,-5.247,-1.673,-1.902,-1.868,-1.7,1.923,-1.395,235.2,234.7,-4.77,-8.458,1.93,-1.384,8.459,4.807,-5.17,-8.085,22,4.976,5.172,4.333,4.537,1.472,1.304,1.308,1.4,22,5.243,4.548,80,213.495161468,norm,0,76,76,76,302.202,302.212,302.227879149,302.228,302.23,302.232,down,1,1.73705813159,8.26294186841,001,021,1920_1200,Intel(R) Core(TM) i5-3570 CPU @ 3.40GHz,orientation_search,LEPPC096,Intel(R) HD Graphics 2500,2018_Dec_21_1246,testMonitor,
250.7,264.4,234.9,238.5,36,0,227.3,249.3,267.3,237.2,7.955,8.066,7.936,7.5,7.561,7.861,7.93,5.057,-4.829,-8.142,1.637,-1.423,7.909,4.895,-5.016,-8.243,250.7,247.1,-7.926,244.3,256.2,234.8,262.2,242.2,36,252.7,1,5,prime,10,0,96,norm,36,-4.619,up,norm,247.337875164,246.5,254.2,246.5,244.2,4,242.7,245.7,262.1,10,5,7.689,4.402,1.597,-1.562,-4.414,-8.256,,5,343.3,-8.376,-7.824,0,-7.711,-8.151,-5.104,-4.834,-4.832,-4.94,5.191,7.994,10,-1.223,1.599,5.238,8.131,-7.944,-8.172,-1.717,1.672,257.1,229.0,243.0,248.2,257.6,258.6,262.1,246.2,253.0,241.0,1,norm,1.54,2.061,-1.64,-1.239,-4.495,-4.832,-1.942,-1.495,-1.82,-1.482,1.623,-1.931,255.3,253.9,-4.548,-8.06,1.196,-1.472,8.476,4.723,-4.948,-8.21,22,4.882,4.329,4.474,4.924,1.639,1.151,2.002,1.256,22,4.355,5.164,80,213.495161468,norm,0,77,77,77,303.985,303.995,304.006216214,304.006,304.008,304.011,up,1,0.671684955005,9.328315045,001,021,1920_1200,Intel(R) Core(TM) i5-3570 CPU @ 3.40GHz,orientation_search,LEPPC096,Intel(R) HD Graphics 2500,2018_Dec_21_1246,testMonitor,
237.1,243.2,240.3,231.1,36,0,235.1,251.5,252.3,255.6,7.501,7.773,7.508,7.859,7.913,7.969,7.636,4.484,-5.233,-8.468,1.972,-1.319,7.61,4.792,-4.78,-7.649,249.4,246.6,-8.428,245.0,249.2,245.6,239.0,255.2,36,254.0,1,5,prime,10,0,62,norm,36,-4.92,down,norm,247.337875164,240.5,250.7,247.4,229.5,1,252.7,245.0,266.0,10,5,8.111,4.323,1.448,-1.345,-4.509,-7.724,236.6,5,309.3,-8.404,-8.312,0,-7.925,-7.733,-5.028,-5.05,-4.382,-4.939,4.737,7.919,7,-2.005,1.873,4.935,7.518,-7.691,-8.262,-1.646,1.122,251.6,267.3,251.8,237.1,257.7,253.7,,253.1,249.1,246.5,2,norm,1.875,2.071,-2.096,-1.21,-4.845,-5.291,-2.032,-1.901,-1.355,-2.045,1.799,-1.408,230.4,248.5,-4.59,-7.53,1.779,-1.356,7.791,4.492,-4.766,-7.936,22,4.539,4.317,5.179,4.43,1.253,1.522,1.841,1.157,22,5.207,4.81,80,213.495161468,norm,0,78,78,78,304.724,304.734,304.742172306,304.742,304.744,304.747,down,1,0.841862038928,9.15813796107,001,021,1920_1200,Intel(R) Core(TM) i5-3570 CPU @ 3.40GHz,orientation_search,LEPPC096,Intel(R) HD Graphics 2500,2018_Dec_21_1246,testMonitor,
252.7,234.8,235.6,233.9,36,0,252.6,241.5,254.9,249.6,7.983,7.914,7.875,7.828,7.725,8.346,7.751,4.447,-4.357,-7.593,1.452,-1.192,8.334,4.799,-4.977,-8.12,237.2,259.9,-7.839,242.4,254.7,246.2,257.0,251.2,36,248.7,1,5,prime,10,0,108,norm,36,-4.887,down,norm,247.337875164,248.2,243.9,243.7,256.5,1,267.3,263.0,239.8,10,5,8.418,4.457,1.768,-1.194,-4.364,-7.646,252.3,5,355.3,-8.06,-8.487,0,-7.823,-8.155,-5.209,-4.94,-4.394,-4.669,4.462,8.258,7,-1.317,1.432,5.21,7.872,-8.317,-8.082,-1.166,1.291,227.3,241.1,248.4,250.2,254.6,258.9,,255.2,241.9,242.9,3,norm,1.113,1.3,-1.228,-1.522,-4.456,-4.3,-1.511,-1.218,-1.308,-1.891,2.065,-2.048,250.8,261.9,-4.978,-7.686,1.116,-1.964,8.392,4.33,-4.477,-8.462,22,4.621,4.832,4.737,4.905,1.549,1.759,1.289,1.185,22,4.677,5.249,80,213.495161468,norm,0,79,79,79,305.63,305.65,305.661770525,305.662,305.664,305.667,down,1,0.753857967629,9.24614203237,001,021,1920_1200,Intel(R) Core(TM) i5-3570 CPU @ 3.40GHz,orientation_search,LEPPC096,Intel(R) HD Graphics 2500,2018_Dec_21_1246,testMonitor,
267.3,242.3,246.7,254.2,36,0,237.6,241.0,243.4,255.3,8.436,7.694,7.533,7.721,7.644,7.927,7.956,4.547,-4.853,-8.101,1.524,-1.851,7.955,4.442,-4.902,-8.234,251.8,241.4,-8.445,227.3,250.5,252.5,252.2,258.3,36,251.7,0,5,prime,10,0,96,norm,36,-4.307,up,norm,247.337875164,241.9,256.2,255.3,246.4,5,245.1,248.0,256.1,10,5,7.721,4.68,1.978,-1.122,-5.192,-7.535,236.8,5,343.3,-7.976,-7.645,0,-8.265,-8.335,-4.743,-5.124,-5.198,-5.215,5.163,7.925,5,-1.77,1.631,4.628,8.277,-7.725,-8.446,-1.713,2.048,248.6,231.9,235.4,261.4,254.8,240.8,259.0,257.6,,246.3,4,norm,1.788,1.138,-1.704,-1.212,-4.383,-5.177,-1.736,-1.424,-1.725,-1.875,1.936,-1.305,235.7,264.0,-5.241,-7.513,1.605,-1.659,8.383,4.533,-4.699,-8.485,22,4.861,4.364,5.242,4.829,1.864,1.248,1.236,1.951,22,5.039,4.319,80,213.495161468,norm,0,80,80,80,306.44,306.45,306.458110885,306.458,306.46,306.463,up,1,0.637908401246,9.36209159875,001,021,1920_1200,Intel(R) Core(TM) i5-3570 CPU @ 3.40GHz,orientation_search,LEPPC096,Intel(R) HD Graphics 2500,2018_Dec_21_1246,testMonitor,
342.0,342.4,339.5,351.6,36,-60,346.8,337.6,341.3,346.0,8.018,7.598,7.584,8.036,8.205,8.291,8.034,5.08,-4.788,-8.231,1.383,-1.676,7.709,4.629,-4.423,-7.922,346.8,340.9,-7.762,334.3,331.6,339.0,337.9,346.3,36,343.2,2,5,probe,5,0,93,norm,36,-4.523,up,norm,341.552951431,,344.7,332.9,350.1,5,336.1,349.5,343.0,10,5,8.396,4.439,1.123,-1.557,-5.274,-8.41,337.0,1,248.6,-8.425,-8.185,0,-7.697,-8.227,-4.849,-5.001,-5.268,-4.356,4.635,7.643,17,-1.551,1.735,4.368,7.7,-7.66,-8.042,-1.162,1.687,349.2,343.2,343.9,336.2,340.2,349.5,341.6,341.1,341.7,341.2,0,norm,1.187,1.182,-1.529,-1.115,-5.136,-4.797,-1.331,-1.144,-1.356,-1.264,1.238,-1.567,347.2,342.8,-5.151,-7.52,1.363,-1.315,8.43,4.607,-4.669,-8.288,23,4.589,4.663,5.22,5.061,1.888,1.345,1.703,2.028,23,5.163,4.885,0,247.337875164,norm,0,81,81,81,307.142,307.152,307.159779097,307.16,307.162,307.164,up,1,1.26530200133,8.73469799867,001,021,1920_1200,Intel(R) Core(TM) i5-3570 CPU @ 3.40GHz,orientation_search,LEPPC096,Intel(R) HD Graphics 2500,2018_Dec_21_1246,testMonitor,
,107.4,105.5,67.8,36,30,76.2,77.7,79.0,71.8,8.17,8.161,7.935,8.209,8.472,7.606,8.173,5.289,-4.98,-7.646,1.817,-1.308,7.518,4.675,-5.138,-7.993,89.6,86.3,-8.102,87.9,82.0,97.3,99.2,91.6,36,93.9,3,5,prime,10,0,102,norm,36,-5.191,up,norm,87.4468387557,80.2,93.0,81.3,97.0,4,99.1,87.3,86.8,10,5,8.457,4.857,1.158,-1.907,-4.723,-7.775,82.3,5,189.4,-7.701,-7.859,30,-7.803,-7.955,-4.746,-4.936,-4.813,-4.512,5.209,7.659,22,-1.787,1.725,5.066,7.723,-7.876,-7.889,-1.325,1.57,77.0,80.5,91.6,81.7,84.2,96.2,75.9,100.1,95.4,67.4,0,norm,1.339,1.332,-1.171,-1.311,-4.525,-5.174,-1.445,-1.917,-1.384,-2.094,1.382,-2.035,70.5,86.8,-4.684,-8.197,1.984,-1.306,8.048,4.835,-4.697,-7.533,24,4.648,4.503,4.499,4.829,1.987,1.986,2.003,1.321,24,4.88,4.708,-60,247.337875164,norm,0,82,82,82,308.468,308.478,308.484206065,308.484,308.486,308.489,up,1,4.35710661408,5.64289338592,001,021,1920_1200,Intel(R) Core(TM) i5-3570 CPU @ 3.40GHz,orientation_search,LEPPC096,Intel(R) HD Graphics 2500,2018_Dec_21_1246,testMonitor,
102.2,97.2,93.8,97.8,36,30,97.7,99.6,107.4,,7.616,8.338,7.58,8.146,7.782,7.717,8.267,4.526,-4.8,-8.465,2.081,-1.258,8.227,5.18,-4.617,-7.915,97.0,102.8,-7.873,103.1,96.4,98.1,99.5,77.3,36,94.3,4,5,prime,10,0,111,norm,36,-4.737,up,norm,87.4468387557,87.6,77.3,98.6,80.3,5,70.7,91.7,67.7,10,5,7.687,4.941,1.515,-1.901,-5.168,-8.362,96.8,5,198.4,-8.041,-7.806,30,-7.907,-7.802,-5.03,-4.417,-4.638,-5.273,4.517,8.381,29,-1.862,2.012,5.1,8.367,-7.551,-7.744,-2.025,1.522,102.1,93.4,67.4,99.3,76.8,101.6,106.8,93.1,83.4,83.0,1,norm,1.636,1.594,-1.765,-1.253,-4.722,-4.367,-1.274,-1.822,-2.057,-2.045,1.862,-1.29,85.2,94.8,-4.649,-8.481,1.249,-1.925,7.546,4.973,-5.272,-7.906,24,4.32,4.844,4.397,4.67,2.085,2.033,1.155,1.22,24,5.096,4.494,-60,247.337875164,norm,0,83,83,83,312.879,312.888,312.897644365,312.898,312.9,312.902,up,1,4.46449643505,5.53550356495,001,021,1920_1200,Intel(R) Core(TM) i5-3570 CPU @ 3.40GHz,orientation_search,LEPPC096,Intel(R) HD Graphics 2500,2018_Dec_21_1246,testMonitor,
97.1,107.4,88.0,80.1,36,30,,100.3,90.2,99.5,7.726,7.939,7.565,8.153,8.019,7.508,8.011,5.272,-4.571,-7.582,1.587,-1.73,7.755,4.465,-5.132,-7.934,77.8,95.7,-7.864,74.2,96.9,92.6,79.0,91.8,36,92.7,4,5,prime,10,0,67,norm,36,-5.17,down,norm,87.4468387557,92.5,67.4,92.8,106.2,0,101.1,78.3,103.1,10,5,7.631,5.241,1.188,-1.223,-4.947,-7.954,82.2,5,154.4,-7.851,-8.289,30,-8.145,-7.891,-4.524,-5.157,-4.578,-4.708,5.093,7.746,24,-1.529,1.132,5.238,7.643,-8.12,-8.358,-1.967,1.331,105.5,96.7,80.5,88.5,74.5,86.8,93.8,72.2,90.8,71.6,2,norm,1.665,1.732,-1.388,-1.669,-4.513,-5.095,-1.429,-1.316,-2.074,-1.368,1.585,-1.398,95.0,84.6,-4.472,-8.43,1.209,-1.222,7.962,5.287,-4.924,-7.918,24,5.001,4.98,4.578,5.226,2.052,1.501,1.151,1.597,24,4.357,4.715,-60,247.337875164,norm,0,84,84,84,317.399,317.409,317.421533202,317.422,317.424,317.426,down,1,3.44620065084,6.55379934916,001,021,1920_1200,Intel(R) Core(TM) i5-3570 CPU @ 3.40GHz,orientation_search,LEPPC096,Intel(R) HD Graphics 2500,2018_Dec_21_1246,testMonitor,
107.4,104.5,74.4,105.1,36,30,78.8,85.8,83.5,70.8,7.913,8.194,8.367,8.409,8.026,7.797,7.797,4.948,-4.935,-8.454,1.495,-1.765,8.406,4.815,-4.932,-8.445,100.7,103.5,-8.374,77.4,67.9,79.3,94.8,76.5,36,73.1,2,5,prime,10,0,104,norm,36,-4.716,down,norm,87.4468387557,79.3,92.2,93.4,87.7,0,87.0,70.4,,10,5,7.868,4.625,1.748,-1.994,-4.976,-8.404,91.7,5,191.4,-8.426,-8.32,30,-7.812,-8.369,-4.52,-5.164,-4.964,-5.21,4.334,8.468,12,-1.292,1.577,4.851,8.393,-8.061,-7.943,-1.521,1.915,76.2,83.0,91.0,89.0,87.9,96.5,93.7,67.4,71.4,94.0,3,norm,1.886,1.59,-2.047,-1.318,-5.254,-4.408,-1.617,-1.481,-1.451,-1.134,1.938,-1.277,90.4,78.9,-5.084,-7.585,1.834,-1.666,8.026,4.73,-5.224,-8.249,24,4.54,5.023,5.139,5.128,1.314,1.703,1.832,1.195,24,4.669,4.699,-60,247.337875164,norm,0,85,85,85,320.905,320.915,320.93134274,320.932,320.933,320.936,down,1,2.51274197097,7.48725802903,001,021,1920_1200,Intel(R) Core(TM) i5-3570 CPU @ 3.40GHz,orientation_search,LEPPC096,Intel(R) HD Graphics 2500,2018_Dec_21_1246,testMonitor,
95.3,90.2,101.1,95.4,36,30,,97.1,84.0,91.6,8.401,8.032,8.255,7.753,7.889,8.427,8.335,4.811,-4.717,-8.118,1.758,-1.694,7.855,4.91,-5.114,-8.32,83.6,85.8,-8.245,77.7,95.8,89.8,77.3,88.9,36,101.8,4,5,prime,10,0,96,norm,36,-4.823,down,norm,87.4468387557,86.9,100.8,99.8,88.5,0,94.0,85.7,85.3,10,5,7.651,5.13,1.833,-1.587,-4.923,-7.527,87.0,5,183.4,-7.572,-8.382,30,-7.68,-8.092,-5.181,-5.278,-5.148,-4.566,4.744,7.699,24,-1.17,2.063,4.323,7.722,-8.224,-7.919,-1.321,1.367,107.4,72.5,67.4,70.5,83.5,93.5,74.2,77.6,80.2,90.1,4,norm,1.281,1.366,-1.725,-1.918,-5.051,-5.182,-1.277,-1.129,-1.528,-1.735,1.178,-1.926,79.5,86.5,-5.254,-8.231,1.902,-1.127,8.195,5.023,-4.586,-8.053,24,4.833,4.483,5.12,4.607,2.049,1.534,1.185,1.889,24,4.42,5.248,-60,247.337875164,norm,0,86,86,86,323.49,323.499,323.508191041,323.508,323.51,323.513,down,1,2.63353103232,7.36646896768,001,021,1920_1200,Intel(R) Core(TM) i5-3570 CPU @ 3.40GHz,orientation_search,LEPPC096,Intel(R) HD Graphics 2500,2018_Dec_21_1246,testMonitor,
189.0,197.2,199.7,185.3,36,-10,198.2,191.9,188.2,201.4,8.441,7.783,8.392,8.096,7.716,8.088,7.646,4.993,-5.071,-7.93,1.805,-1.73,7.844,4.983,-4.473,-8.468,202.5,192.6,-8.25,195.9,190.2,204.2,184.2,197.4,36,197.1,0,5,probe,5,0,73,norm,36,-5.125,up,norm,194.166695108,187.4,200.8,189.8,189.3,5,190.4,193.3,193.5,10,5,7.789,4.503,1.763,-1.798,-4.802,-7.522,197.7,1,121.2,-7.583,-8.249,30,-8.185,-8.329,-4.606,-4.799,-4.397,-4.333,4.947,7.563,5,-1.397,1.255,4.437,8.46,-8.475,-7.833,-1.368,2.045,192.3,192.4,197.7,197.1,193.1,199.7,194.4,193.4,,200.7,0,norm,1.909,1.729,-1.119,-1.645,-5.015,-5.299,-1.34,-1.239,-1.321,-1.19,1.101,-1.2,200.9,191.5,-4.516,-7.741,1.136,-1.375,8.253,4.328,-4.378,-7.905,25,4.775,5.195,4.326,4.95,1.259,1.788,1.768,1.503,25,5.161,5.157,30,87.4468387557,norm,0,87,87,87,326.179,326.192,326.211274004,326.211,326.213,326.216,up,1,1.56023289221,8.43976710779,001,021,1920_1200,Intel(R) Core(TM) i5-3570 CPU @ 3.40GHz,orientation_search,LEPPC096,Intel(R) HD Graphics 2500,2018_Dec_21_1246,testMonitor,
103.0,117.1,126.3,112.1,36,-10,131.6,112.5,107.7,102.6,7.655,8.169,7.603,7.68,7.688,8.207,7.526,4.832,-5.244,-8.221,1.254,-1.787,8.007,4.675,-4.94,-8.496,126.0,99.4,-8.346,119.0,118.2,,125.1,115.8,36,128.8,5,5,prime,10,0,106,norm,36,-4.486,up,norm,116.791171338,129.0,113.3,111.6,123.3,3,136.8,123.6,116.7,10,6,8.355,5.278,1.735,-1.454,-5.285,-8.065,117.1,6,222.8,-7.5,-7.992,-10,-8.358,-7.774,-4.482,-5.201,-4.314,-5.174,4.972,8.368,33,-1.488,1.959,4.682,7.824,-8.033,-7.787,-1.577,1.228,107.0,109.8,110.7,112.7,123.8,130.4,120.6,126.5,96.8,116.0,0,norm,1.579,2.035,-1.683,-2.076,-5.251,-4.896,-1.8,-1.152,-1.814,-1.998,1.334,-1.741,113.1,123.0,-4.455,-8.185,1.263,-1.185,8.411,4.419,-4.626,-8.31,26,4.43,5.153,4.658,4.468,1.796,1.252,1.58,1.997,26,4.531,4.336,-10,87.4468387557,norm,0,88,88,88,327.808,327.818,327.826123493,327.826,327.828,327.831,up,1,0.958003277441,9.04199672256,001,021,1920_1200,Intel(R) Core(TM) i5-3570 CPU @ 3.40GHz,orientation_search,LEPPC096,Intel(R) HD Graphics 2500,2018_Dec_21_1246,testMonitor,
111.5,136.4,98.5,117.9,36,-10,122.1,116.7,131.6,136.8,8.095,7.704,7.78,8.231,8.288,8.39,8.196,4.345,-4.725,-7.793,1.919,-1.358,7.869,5.236,-4.741,-7.514,130.0,129.4,-8.346,121.4,109.1,111.6,124.6,114.2,36,101.0,2,5,prime,10,0,110,norm,36,-4.958,up,norm,116.791171338,114.5,,133.1,96.8,4,109.9,110.0,116.3,10,6,7.533,4.482,1.805,-1.585,-5.206,-7.828,125.9,6,226.8,-8.33,-7.566,-10,-7.597,-7.636,-4.571,-4.924,-5.05,-4.474,4.499,7.551,16,-1.666,2.077,4.917,8.193,-7.657,-7.777,-1.321,1.965,116.7,114.9,123.3,118.9,130.6,112.1,110.5,120.0,133.0,109.3,1,norm,2.009,1.3,-1.883,-1.504,-4.675,-4.563,-1.888,-2.069,-1.8,-1.372,1.825,-1.379,107.0,112.5,-5.213,-7.914,1.394,-1.855,7.736,5.077,-4.949,-8.018,26,4.62,4.599,4.725,4.471,1.287,1.839,1.441,1.356,26,5.228,4.722,-10,87.4468387557,norm,0,89,89,89,328.805,328.814,328.824489903,328.825,328.826,328.829,up,1,1.58738151417,8.41261848583,001,021,1920_1200,Intel(R) Core(TM) i5-3570 CPU @ 3.40GHz,orientation_search,LEPPC096,Intel(R) HD Graphics 2500,2018_Dec_21_1246,testMonitor,
104.9,110.8,134.8,113.9,36,-10,120.2,108.8,120.8,,7.544,8.465,7.619,8.354,7.739,8.211,7.681,4.784,-4.499,-8.024,1.112,-1.648,8.323,4.65,-4.868,-7.599,104.6,122.8,-8.467,136.8,113.5,120.3,134.4,115.3,36,111.6,4,5,prime,10,0,84,norm,36,-4.494,up,norm,116.791171338,123.1,109.2,116.2,119.9,5,120.1,121.9,102.1,10,6,8.252,4.836,1.783,-2.05,-5.186,-8.46,122.5,6,200.8,-8.344,-8.286,-10,-7.955,-8.159,-4.338,-5.109,-4.685,-4.453,4.549,7.909,29,-1.455,1.909,5.223,7.793,-7.675,-8.473,-1.831,1.75,117.4,103.1,103.0,100.3,122.5,120.5,109.6,96.8,120.8,118.4,2,norm,1.951,1.481,-1.891,-1.232,-5.204,-4.861,-2.033,-2.005,-1.715,-1.396,1.99,-1.733,114.2,114.6,-4.724,-7.96,1.802,-2.017,7.984,5.3,-4.489,-8.022,26,4.411,4.387,4.675,5.233,1.878,1.639,1.664,1.65,26,4.877,4.747,-10,87.4468387557,norm,0,90,90,90,330.433,330.443,330.462544398,330.463,330.464,330.467,up,1,3.43299428998,6.56700571002,001,021,1920_1200,Intel(R) Core(TM) i5-3570 CPU @ 3.40GHz,orientation_search,LEPPC096,Intel(R) HD Graphics 2500,2018_Dec_21_1246,testMonitor,
122.4,,125.3,122.0,36,-10,103.1,102.6,119.0,97.5,8.067,7.707,8.024,7.708,8.214,8.477,7.511,4.46,-5.176,-7.586,1.288,-1.584,8.249,5.281,-4.393,-7.534,117.9,134.6,-7.937,103.1,112.1,134.0,127.0,124.9,36,116.5,3,5,prime,10,0,88,norm,36,-4.938,up,norm,116.791171338,136.8,100.2,129.8,96.8,5,103.4,112.2,107.1,10,6,8.02,4.862,1.555,-1.773,-4.656,-7.508,103.3,6,204.8,-7.999,-7.916,-10,-7.6,-8.197,-5.129,-5.159,-4.879,-4.395,5.218,7.942,23,-1.232,1.278,5.244,7.745,-7.925,-8.393,-1.963,2.061,111.4,107.4,110.6,115.1,105.9,122.3,104.8,97.0,127.3,111.7,3,norm,1.716,1.361,-1.229,-1.496,-5.082,-4.772,-1.26,-1.439,-1.723,-1.73,1.91,-1.41,108.5,124.0,-4.381,-7.941,1.459,-2.005,8.211,4.678,-4.529,-8.407,26,4.588,4.654,5.288,5.126,2.031,1.182,1.304,1.484,26,4.541,4.489,-10,87.4468387557,norm,0,91,91,91,333.942,333.951,333.958385414,333.959,333.96,333.963,up,1,0.92405406784,9.07594593216,001,021,1920_1200,Intel(R) Core(TM) i5-3570 CPU @ 3.40GHz,orientation_search,LEPPC096,Intel(R) HD Graphics 2500,2018_Dec_21_1246,testMonitor,
127.9,136.2,96.8,108.6,36,-10,115.4,136.6,128.7,108.0,7.78,8.248,8.262,8.197,7.964,7.714,7.653,4.909,-5.255,-8.485,1.898,-1.396,8.305,4.383,-4.435,-8.165,119.1,109.5,-8.251,117.8,,108.8,136.4,117.3,36,100.4,5,5,prime,10,0,64,norm,36,-4.414,down,norm,116.791171338,114.9,121.7,117.5,110.2,0,126.5,97.7,126.3,10,6,7.632,4.392,1.163,-1.474,-4.754,-7.772,121.4,6,180.8,-7.703,-8.432,-10,-8.401,-7.662,-5.299,-4.969,-4.524,-5.013,5.214,7.99,30,-1.414,1.548,4.876,7.519,-8.345,-8.348,-1.14,1.115,120.3,136.8,123.8,119.6,111.3,99.9,123.7,119.6,97.6,109.9,4,norm,1.743,1.524,-1.458,-1.645,-5.129,-4.676,-1.704,-2.056,-1.41,-2.053,1.697,-1.785,120.7,123.0,-5.176,-8.09,1.38,-1.144,8.47,5.218,-4.821,-8.092,26,5.203,4.709,5.224,5.259,1.213,1.497,1.386,1.485,26,4.649,5.219,-10,87.4468387557,norm,0,92,92,92,334.924,334.934,334.941429826,334.942,334.943,334.946,down,1,0.841728924894,9.15827107511,001,021,1920_1200,Intel(R) Core(TM) i5-3570 CPU @ 3.40GHz,orientation_search,LEPPC096,Intel(R) HD Graphics 2500,2018_Dec_21_1246,testMonitor,
107.4,108.1,105.8,110.5,36,-10,118.6,115.4,120.6,116.2,7.609,8.355,7.998,7.812,8.022,7.696,7.689,4.874,-4.752,-7.501,1.967,-1.297,7.861,4.663,-4.603,-8.435,118.5,125.7,-8.301,119.9,128.2,111.3,124.6,96.8,36,124.4,2,5,prime,10,0,115,norm,36,-4.739,up,norm,116.791171338,116.9,115.4,,119.6,3,120.4,120.0,118.7,10,6,8.104,4.622,1.367,-1.355,-4.52,-7.718,113.5,6,231.8,-7.655,-7.929,-10,-7.676,-7.687,-4.758,-4.788,-5.125,-4.472,4.478,7.615,15,-1.779,1.127,4.395,7.722,-7.937,-8.191,-1.755,1.798,116.3,136.8,111.3,103.9,106.7,118.9,122.2,119.9,105.1,105.5,5,norm,1.167,1.479,-1.472,-1.577,-5.067,-5.205,-2.003,-2.089,-1.515,-1.247,2.089,-1.4,121.8,129.0,-4.531,-7.749,1.227,-1.538,7.773,5.193,-4.301,-8.052,26,5.107,4.957,4.421,4.752,1.302,1.876,1.183,1.505,26,5.152,4.547,-10,87.4468387557,norm,0,93,93,93,335.829,335.839,335.845186871,335.845,335.847,335.85,up,1,0.942344418825,9.05765558117,001,021,1920_1200,Intel(R) Core(TM) i5-3570 CPU @ 3.40GHz,orientation_search,LEPPC096,Intel(R) HD Graphics 2500,2018_Dec_21_1246,testMonitor,
191.4,193.9,192.2,198.0,36,30,187.3,190.7,200.8,187.4,7.744,8.306,7.691,8.344,7.76,7.586,8.125,4.76,-4.765,-7.621,1.892,-1.382,7.851,4.961,-4.608,-7.842,192.5,197.3,-8.063,190.9,200.2,187.4,189.0,193.0,36,196.1,1,5,probe,5,0,84,norm,36,-5.047,up,norm,190.763976464,188.1,193.1,193.1,194.3,3,188.0,189.6,188.2,10,6,7.852,5.211,1.767,-1.403,-4.748,-8.295,187.3,2,106.8,-7.603,-7.772,-10,-8.284,-7.731,-5.202,-4.508,-4.504,-5.06,4.772,8.154,9,-1.392,1.721,4.506,8.416,-8.242,-7.576,-1.397,1.425,,180.8,188.0,194.1,196.3,183.0,195.0,187.7,183.0,184.5,0,norm,1.351,2.043,-1.407,-1.855,-4.432,-5.132,-1.177,-1.116,-1.533,-1.208,1.57,-1.652,187.7,184.6,-4.958,-7.866,1.69,-1.693,8.453,5.191,-4.815,-8.426,27,4.367,5.037,4.551,4.42,1.753,1.781,1.694,2.077,27,4.529,4.665,-10,116.791171338,norm,0,94,94,94,336.823,336.835,336.855336439,336.856,336.857,336.86,up,1,0.959748852156,9.04025114784,001,021,1920_1200,Intel(R) Core(TM) i5-3570 CPU @ 3.40GHz,orientation_search,LEPPC096,Intel(R) HD Graphics 2500,2018_Dec_21_1246,testMonitor,
226.9,214.1,217.8,226.6,36,30,217.2,225.8,222.0,227.8,7.686,7.676,8.333,8.14,8.078,7.547,8.225,5.196,-4.339,-8.179,1.78,-1.201,7.838,4.353,-4.851,-7.644,223.9,230.4,-8.358,226.4,226.6,215.0,228.9,229.3,36,222.6,1,5,probe,5,0,116,norm,36,-4.879,up,norm,222.763976464,218.3,215.5,223.5,227.8,3,230.5,219.8,223.7,10,6,8.157,4.973,1.797,-1.921,-4.463,-7.884,222.9,2,106.8,-8.104,-8.126,-10,-7.966,-7.767,-4.38,-4.777,-4.973,-4.408,4.752,8.015,9,-1.346,1.353,5.131,7.75,-8.433,-8.48,-1.988,1.91,,216.7,218.7,232.8,226.3,221.6,218.5,222.0,219.0,228.8,1,norm,2.026,1.892,-1.723,-2.054,-4.88,-4.632,-1.313,-1.713,-1.621,-1.703,1.819,-1.658,224.3,212.8,-4.818,-8.089,1.184,-1.91,7.634,4.7,-4.35,-7.92,27,5.086,4.365,4.418,5.167,1.826,1.777,1.622,1.414,27,4.436,5.077,-10,116.791171338,norm,0,95,95,95,337.852,337.862,337.872059002,337.872,337.874,337.876,up,1,0.553900769375,9.44609923062,001,021,1920_1200,Intel(R) Core(TM) i5-3570 CPU @ 3.40GHz,orientation_search,LEPPC096,Intel(R) HD Graphics 2500,2018_Dec_21_1246,testMonitor,
