d_ori_22,d_ori_23,d_ori_20,d_ori_21,set_size,ctpd,d_ori_24,d_ori_25,d_ori_28,d_ori_29,stim_pos_x_30,stim_pos_x_31,stim_pos_x_32,stim_pos_x_33,stim_pos_x_34,stim_pos_x_35,stim_pos_y_11,stim_pos_y_10,stim_pos_y_13,stim_pos_y_12,stim_pos_y_15,stim_pos_y_14,stim_pos_y_17,stim_pos_y_16,stim_pos_y_19,stim_pos_y_18,d_ori_35,d_ori_34,stim_pos_x_3,d_ori_31,d_ori_30,d_ori_33,d_ori_32,d_ori_26,test_set_size,d_ori_27,targetCol,dsd_test,seq_type,dsd,blockRepN,targetDist,dtype_test,prime_set_size,stim_pos_y_25,correctResponse,dtype,distrMean,d_ori_17,d_ori_16,d_ori_15,d_ori_14,targetRow,d_ori_11,d_ori_13,d_ori_12,dsd_prime,streak_length_prime,stim_pos_y_35,stim_pos_y_34,stim_pos_y_33,stim_pos_y_32,stim_pos_y_31,stim_pos_y_30,d_ori_10,nextProbe,targetOri,stim_pos_x_1,stim_pos_x_2,ctpd_prime,stim_pos_x_4,stim_pos_x_5,stim_pos_x_6,stim_pos_x_7,stim_pos_x_8,stim_pos_x_9,stim_pos_y_28,stim_pos_y_29,targetPos,stim_pos_y_20,stim_pos_y_21,stim_pos_y_22,stim_pos_y_23,stim_pos_y_24,stim_pos_x_0,stim_pos_y_26,stim_pos_y_27,d_ori_9,d_ori_8,d_ori_3,d_ori_2,d_ori_1,d_ori_0,d_ori_7,d_ori_6,d_ori_5,d_ori_4,trialN,dtype_prime,stim_pos_x_18,stim_pos_x_19,stim_pos_x_12,stim_pos_x_13,stim_pos_x_10,stim_pos_x_11,stim_pos_x_16,stim_pos_x_17,stim_pos_x_14,stim_pos_x_15,stim_pos_y_9,stim_pos_y_8,d_ori_19,d_ori_18,stim_pos_y_1,stim_pos_y_0,stim_pos_y_3,stim_pos_y_2,stim_pos_y_5,stim_pos_y_4,stim_pos_y_7,stim_pos_y_6,totBlockN,stim_pos_x_27,stim_pos_x_26,stim_pos_x_25,stim_pos_x_24,stim_pos_x_23,stim_pos_x_22,stim_pos_x_21,stim_pos_x_20,blockN,stim_pos_x_29,stim_pos_x_28,prevDistrCTPD,prevDistrMean,prevDistrType,trials.thisRepN,trials.thisTrialN,trials.thisN,trials.thisIndex,timeStart,timeBeforeDraw,timeDraw,timeAfterSaving,timeAfterWritingToTemp,timeAfterPreparingNext,answer,correct,rt,trialScore,session,participant,resolution,cpu_info,expName,pc_name,graphic_card,date,monitorName,
13.2,21.9,40.9,36.4,36,20,,16.6,19.0,19.9,7.552,8.158,8.258,8.281,8.355,8.239,8.156,4.74,-4.53,-7.614,1.211,-1.862,8.153,4.427,-4.767,-8.481,30.4,16.4,-7.656,31.4,32.7,27.4,27.7,32.6,36,14.5,4,5,prime,10,0,72,norm,36,-4.415,down,norm,27.2372220322,14.8,7.2,36.3,12.4,0,29.2,41.8,44.5,10,6,7.743,5.082,1.584,-1.679,-5.145,-8.364,26.3,6,99.2,-7.691,-8.278,20,-8.075,-8.059,-4.713,-5.07,-5.232,-4.326,4.81,7.802,24,-1.404,1.133,4.908,7.662,-7.791,-8.45,-1.17,1.251,37.7,36.0,47.2,17.7,32.9,20.1,33.9,10.7,24.3,19.0,0,norm,1.535,1.3,-1.811,-1.294,-4.642,-4.636,-1.293,-1.377,-1.341,-2.022,1.525,-1.845,26.5,30.9,-5.099,-7.831,1.426,-1.437,8.449,5.237,-5.07,-7.685,0,4.596,4.938,5.0,5.046,1.742,2.068,1.523,1.473,0,4.374,4.597,,,,0,0,0,0,250.6,250.616,250.637712617,250.638,250.638,250.641,up,0,0.554258922364,-10,001,003,1920_1080,Intel(R) Core(TM) i5-3570 CPU @ 3.40GHz,orientation_search,LEPPC096,Intel(R) HD Graphics 2500,2018_Sep_26_1547,testMonitor,
37.2,27.7,22.3,32.7,36,20,38.6,31.0,27.3,33.1,7.692,7.557,8.053,7.903,7.717,8.092,8.165,4.482,-5.281,-7.931,2.046,-1.211,7.669,4.475,-4.785,-8.472,28.7,37.9,-7.966,32.7,28.2,28.8,35.4,18.3,36,19.0,2,5,prime,10,0,92,norm,36,-4.732,up,norm,27.2372220322,18.9,,33.7,17.1,4,34.7,27.1,47.2,10,6,7.85,5.206,1.545,-1.647,-4.739,-7.665,21.7,6,119.2,-7.612,-8.441,20,-7.909,-8.222,-5.1,-4.331,-4.596,-5.05,4.78,8.121,16,-1.589,1.655,5.219,8.357,-8.357,-7.968,-1.991,1.681,26.0,27.6,26.1,30.5,26.4,7.2,29.4,41.6,41.4,27.4,1,norm,1.955,1.256,-1.841,-1.846,-4.366,-4.471,-1.254,-1.988,-1.853,-2.035,1.269,-1.17,36.1,21.6,-4.502,-8.375,1.622,-1.481,8.144,4.772,-5.056,-7.519,0,4.516,5.3,5.065,4.844,1.253,1.848,1.79,1.621,0,5.11,4.582,,,,0,1,1,1,252.263,252.273,252.29130811,252.291,252.293,252.295,up,1,0.827297755859,9.17270224414,001,003,1920_1080,Intel(R) Core(TM) i5-3570 CPU @ 3.40GHz,orientation_search,LEPPC096,Intel(R) HD Graphics 2500,2018_Sep_26_1547,testMonitor,
13.7,30.2,25.8,30.1,36,20,17.1,,26.4,26.0,7.997,7.886,7.634,8.187,7.78,7.909,8.217,4.857,-4.824,-8.351,1.896,-1.543,7.827,5.289,-4.964,-8.199,35.8,32.2,-8.193,22.9,31.5,18.5,23.0,32.5,36,41.3,4,5,prime,10,0,85,norm,36,-4.671,down,norm,27.2372220322,47.2,7.6,27.7,41.5,1,15.8,39.7,29.8,10,6,7.84,4.553,1.353,-1.562,-4.665,-7.779,34.5,6,112.2,-7.953,-7.958,20,-8.282,-8.446,-4.654,-5.257,-4.544,-5.181,4.978,7.811,25,-2.073,1.748,4.647,7.888,-8.167,-7.636,-1.548,1.715,7.2,31.6,18.1,30.3,15.9,39.2,41.3,39.1,23.8,42.1,2,norm,1.157,1.235,-1.954,-1.598,-5.039,-4.721,-1.501,-2.0,-1.359,-1.348,1.238,-1.857,17.5,30.6,-5.269,-8.335,1.96,-1.104,7.799,4.519,-4.435,-8.126,0,4.41,5.03,4.944,4.37,1.724,1.206,1.723,1.473,0,4.588,5.243,,,,0,2,2,2,253.156,253.17,253.187664488,253.188,253.19,253.193,down,1,0.694549160127,9.30545083987,001,003,1920_1080,Intel(R) Core(TM) i5-3570 CPU @ 3.40GHz,orientation_search,LEPPC096,Intel(R) HD Graphics 2500,2018_Sep_26_1547,testMonitor,
31.1,7.2,17.2,28.6,36,20,27.1,30.7,28.2,36.3,7.96,7.99,8.246,8.053,7.878,7.831,8.272,4.347,-4.94,-8.144,2.062,-1.576,8.126,4.53,-4.453,-8.396,43.2,27.7,-7.769,15.8,34.1,30.1,24.0,32.1,36,10.7,1,5,prime,10,0,80,norm,36,-4.873,up,norm,27.2372220322,25.4,36.5,23.3,24.7,4,42.3,31.5,20.4,10,6,8.292,4.514,1.37,-1.159,-4.806,-8.487,,6,107.2,-8.23,-7.582,20,-7.835,-7.574,-5.015,-4.75,-4.623,-4.681,4.342,8.416,10,-1.978,1.56,5.269,8.165,-8.455,-7.981,-1.777,1.787,35.7,30.5,42.1,30.0,18.9,13.4,35.2,43.3,29.5,42.5,3,norm,1.954,1.404,-1.36,-1.575,-4.463,-4.689,-1.425,-1.494,-1.837,-1.627,1.929,-1.459,47.2,26.7,-4.556,-7.897,1.171,-1.562,7.979,4.309,-5.098,-8.101,0,4.773,5.149,4.397,5.288,1.304,1.536,1.506,1.388,0,5.062,5.155,,,,0,3,3,3,253.93,253.95,253.962577941,253.963,253.966,253.971,up,1,0.632226551712,9.36777344829,001,003,1920_1080,Intel(R) Core(TM) i5-3570 CPU @ 3.40GHz,orientation_search,LEPPC096,Intel(R) HD Graphics 2500,2018_Sep_26_1547,testMonitor,
43.3,15.7,11.5,26.5,36,20,21.6,27.1,7.2,,8.239,7.76,8.027,7.665,8.127,7.975,7.945,5.236,-5.252,-7.766,2.088,-1.45,8.008,4.769,-4.504,-8.063,29.3,42.7,-8.228,23.4,32.7,32.1,26.4,29.7,36,30.1,4,5,prime,10,0,88,norm,36,-5.085,up,norm,27.2372220322,11.7,23.2,25.6,36.3,5,29.7,14.2,31.3,10,6,7.694,4.438,1.584,-1.954,-5.164,-8.329,47.2,6,115.2,-7.873,-7.929,20,-7.718,-7.791,-4.877,-4.654,-5.215,-5.299,4.326,8.065,29,-1.312,1.863,4.903,7.952,-7.604,-8.31,-2.001,1.949,30.2,15.4,19.6,32.0,21.4,26.8,37.7,32.0,45.5,23.0,4,norm,1.293,1.42,-1.808,-1.853,-5.02,-4.398,-1.104,-2.087,-1.594,-2.014,1.406,-1.389,41.6,30.5,-4.394,-7.988,1.234,-1.326,8.255,4.309,-4.804,-8.142,0,4.791,4.4,5.188,4.414,1.677,1.906,1.339,1.208,0,5.194,4.446,,,,0,4,4,4,254.636,254.646,254.662221973,254.662,254.664,254.667,down,0,0.754733787733,-10,001,003,1920_1080,Intel(R) Core(TM) i5-3570 CPU @ 3.40GHz,orientation_search,LEPPC096,Intel(R) HD Graphics 2500,2018_Sep_26_1547,testMonitor,
28.5,16.2,23.2,30.5,36,20,23.5,22.8,27.4,17.5,7.591,8.284,8.219,8.199,7.802,7.958,7.901,4.378,-4.805,-7.887,1.385,-2.098,7.551,4.54,-4.653,-8.189,32.2,24.4,-7.732,47.2,33.7,19.6,9.6,9.1,36,29.5,0,5,prime,10,0,111,norm,36,-5.219,up,norm,27.2372220322,21.7,26.2,26.3,33.7,5,31.9,18.2,19.9,10,6,7.758,4.681,1.258,-1.889,-4.478,-8.081,16.3,6,138.2,-7.94,-7.549,20,-7.82,-8.141,-4.541,-5.242,-4.345,-4.364,4.56,8.293,5,-1.548,1.873,4.55,8.216,-8.075,-8.253,-1.673,2.083,34.7,28.3,35.1,17.8,23.8,33.4,20.9,28.8,,36.1,5,norm,1.196,1.274,-1.72,-1.295,-5.113,-4.655,-1.101,-1.779,-1.338,-1.909,1.783,-1.148,7.2,39.9,-4.59,-7.902,1.275,-1.471,8.114,4.906,-4.375,-8.056,0,5.143,5.029,4.813,4.906,1.293,1.242,1.456,1.686,0,5.003,5.235,,,,0,5,5,5,256.488,256.499,256.503955249,256.504,256.506,256.508,up,1,0.824665651859,9.17533434814,001,003,1920_1080,Intel(R) Core(TM) i5-3570 CPU @ 3.40GHz,orientation_search,LEPPC096,Intel(R) HD Graphics 2500,2018_Sep_26_1547,testMonitor,
157.8,154.3,157.0,155.2,36,-60,149.2,153.0,169.2,159.8,7.63,7.528,7.996,7.85,8.412,7.678,8.122,5.041,-5.228,-8.202,1.605,-1.141,8.193,4.486,-4.3,-7.58,155.0,161.0,-7.786,165.5,161.1,158.8,164.2,152.9,36,154.1,2,5,probe,5,0,112,norm,36,-4.654,down,norm,159.180196394,163.9,156.1,163.2,160.4,1,153.1,,152.2,10,6,7.924,5.248,1.313,-1.45,-4.506,-7.522,149.8,1,47.2,-8.243,-8.28,20,-8.251,-8.103,-4.757,-4.457,-4.968,-5.185,4.591,7.51,13,-1.745,2.032,4.546,7.741,-8.29,-8.119,-1.677,1.612,152.2,160.2,157.6,157.2,168.2,154.1,164.7,165.5,152.4,157.4,0,norm,1.583,2.001,-1.805,-1.776,-4.796,-5.291,-1.159,-1.121,-1.488,-1.343,1.879,-1.222,157.1,154.2,-5.104,-7.733,1.841,-1.182,8.257,5.148,-4.791,-7.8,1,4.933,4.701,5.186,4.759,1.242,1.52,2.02,1.545,1,5.094,5.009,20,27.2372220322,norm,0,6,6,6,257.366,257.375,257.392069096,257.392,257.394,257.396,down,1,2.07502341577,7.92497658423,001,003,1920_1080,Intel(R) Core(TM) i5-3570 CPU @ 3.40GHz,orientation_search,LEPPC096,Intel(R) HD Graphics 2500,2018_Sep_26_1547,testMonitor,
313.0,298.7,317.9,318.4,36,-30,313.5,292.8,324.3,331.6,8.44,8.243,7.97,8.469,8.409,7.98,7.859,5.079,-4.551,-8.166,1.573,-1.672,8.415,4.975,-5.095,-7.957,318.2,311.5,-8.453,324.3,307.3,313.6,313.2,325.2,36,320.7,1,5,prime,10,0,99,norm,36,-4.75,up,norm,312.814536544,332.8,313.1,318.6,301.6,3,304.3,325.0,324.4,10,5,8.024,4.869,1.245,-1.108,-4.757,-8.03,310.0,5,411.8,-7.719,-8.147,-30,-7.744,-7.899,-5.003,-4.409,-4.59,-4.384,5.246,7.727,9,-1.156,1.337,4.656,8.415,-7.527,-8.19,-1.46,1.515,,296.1,305.1,321.8,318.7,310.4,308.9,314.4,316.1,317.2,0,norm,1.965,1.802,-1.367,-1.443,-4.581,-4.708,-1.775,-1.327,-1.996,-1.334,1.413,-1.724,300.8,316.8,-5.078,-8.005,1.673,-1.227,7.653,4.735,-4.391,-7.545,2,5.07,4.902,5.188,4.523,1.547,1.964,1.28,1.252,2,4.972,4.583,-60,27.2372220322,norm,0,7,7,7,259.504,259.513,259.529356562,259.53,259.531,259.534,up,1,1.0777228316,8.9222771684,001,003,1920_1080,Intel(R) Core(TM) i5-3570 CPU @ 3.40GHz,orientation_search,LEPPC096,Intel(R) HD Graphics 2500,2018_Sep_26_1547,testMonitor,
307.9,311.2,292.8,308.0,36,-30,321.3,323.9,324.0,321.2,8.484,7.844,7.581,8.338,8.327,8.303,8.403,4.938,-5.157,-8.411,1.19,-1.867,7.618,4.505,-4.452,-7.596,294.2,298.6,-8.34,307.7,299.3,305.7,316.4,297.0,36,316.6,1,5,prime,10,0,84,norm,36,-4.479,down,norm,312.814536544,301.1,301.8,313.2,303.7,2,303.0,314.6,307.3,10,5,7.874,4.399,1.215,-1.644,-5.097,-7.561,318.6,5,396.8,-8.402,-7.828,-30,-7.917,-7.997,-5.113,-5.096,-4.789,-5.129,4.534,7.609,8,-1.742,1.465,5.069,7.975,-7.563,-7.997,-1.877,1.599,306.5,,315.5,316.7,331.6,331.7,306.0,322.7,313.3,309.3,1,norm,1.469,1.323,-1.359,-1.417,-4.347,-4.991,-1.22,-1.563,-1.606,-1.503,1.392,-1.136,332.8,315.4,-4.708,-8.201,1.374,-1.872,7.748,4.317,-4.491,-7.854,2,5.28,5.154,5.125,4.754,1.523,1.476,1.723,1.33,2,4.702,4.708,-60,27.2372220322,norm,0,8,8,8,260.653,260.662,260.669121285,260.669,260.671,260.674,down,1,2.41699409497,7.58300590503,001,003,1920_1080,Intel(R) Core(TM) i5-3570 CPU @ 3.40GHz,orientation_search,LEPPC096,Intel(R) HD Graphics 2500,2018_Sep_26_1547,testMonitor,
313.4,314.3,,317.8,36,-30,293.7,308.8,305.3,292.8,8.401,7.798,7.537,7.665,7.836,7.743,8.351,4.766,-5.08,-8.286,1.359,-1.805,8.241,5.296,-4.857,-7.562,308.6,297.2,-7.924,323.2,310.2,307.2,292.9,314.1,36,299.3,3,5,prime,10,0,109,norm,36,-4.336,down,norm,312.814536544,315.4,316.5,302.7,324.1,2,319.4,316.4,317.2,10,5,8.07,5.051,2.089,-1.789,-5.078,-8.072,308.4,5,421.8,-7.644,-7.79,-30,-8.494,-7.941,-4.9,-4.737,-5.043,-4.975,4.729,7.962,20,-1.752,2.014,5.182,7.705,-7.675,-8.045,-1.505,1.902,307.5,319.5,315.7,295.0,294.1,312.9,332.8,327.2,324.0,310.9,2,norm,2.005,1.994,-1.477,-1.171,-4.494,-4.953,-1.856,-1.578,-1.569,-1.714,2.021,-1.866,312.3,299.2,-4.403,-8.427,1.269,-1.525,7.656,4.355,-5.255,-7.566,2,4.489,4.848,4.837,4.448,1.413,1.318,1.203,1.53,2,4.347,4.478,-60,27.2372220322,norm,0,9,9,9,263.123,263.133,263.148311816,263.148,263.15,263.153,down,1,1.92451113649,8.07548886351,001,003,1920_1080,Intel(R) Core(TM) i5-3570 CPU @ 3.40GHz,orientation_search,LEPPC096,Intel(R) HD Graphics 2500,2018_Sep_26_1547,testMonitor,
307.5,320.1,312.7,310.2,36,-30,322.9,297.8,310.1,292.8,8.312,7.807,7.577,7.799,8.285,8.303,7.674,4.413,-4.372,-7.619,2.015,-1.944,7.796,4.406,-4.774,-8.104,317.3,301.2,-7.575,295.9,330.6,326.3,305.6,299.7,36,316.1,1,5,prime,10,0,94,norm,36,-5.107,down,norm,312.814536544,307.8,310.4,318.1,319.3,0,332.8,316.4,305.2,10,5,8.021,5.218,1.977,-1.347,-4.404,-7.811,321.0,5,406.8,-8.354,-7.536,-30,-8.163,-7.679,-5.027,-4.848,-4.536,-4.504,4.314,8.247,6,-1.39,1.653,4.717,7.863,-8.14,-8.457,-1.78,1.497,311.4,305.8,314.8,296.5,306.5,322.1,314.9,,307.3,309.0,3,norm,1.708,1.227,-1.53,-1.253,-4.571,-4.359,-1.368,-1.284,-1.752,-1.227,1.816,-1.586,305.5,316.3,-4.454,-7.558,1.708,-1.164,8.274,4.328,-4.477,-8.367,2,4.697,4.611,4.58,5.286,1.114,1.376,1.139,1.302,2,4.624,5.06,-60,27.2372220322,norm,0,10,10,10,265.11,265.12,265.129399907,265.13,265.131,265.134,down,1,1.82235863685,8.17764136315,001,003,1920_1080,Intel(R) Core(TM) i5-3570 CPU @ 3.40GHz,orientation_search,LEPPC096,Intel(R) HD Graphics 2500,2018_Sep_26_1547,testMonitor,
302.5,307.0,320.8,318.6,36,-30,318.2,318.7,307.6,317.9,7.804,8.407,8.348,7.736,7.753,8.098,7.885,5.129,-5.047,-8.093,1.296,-1.772,7.575,5.025,-4.501,-7.543,326.7,320.1,-8.174,309.0,321.4,314.1,330.2,305.3,36,319.9,2,5,prime,10,0,114,norm,36,-4.816,up,norm,312.814536544,301.2,325.6,,298.5,3,313.9,314.8,314.9,10,5,7.668,5.15,1.217,-1.328,-4.559,-8.463,313.1,5,426.8,-7.928,-7.728,-30,-7.932,-7.646,-5.132,-5.012,-4.762,-4.633,4.327,7.899,15,-1.832,1.857,4.477,7.777,-8.389,-8.043,-1.811,1.928,308.8,310.3,315.3,292.8,332.8,304.2,315.0,318.4,311.0,313.1,4,norm,1.119,1.697,-1.663,-2.098,-5.229,-4.682,-1.148,-1.713,-1.237,-1.655,1.653,-1.484,304.1,321.9,-4.687,-8.073,1.3,-1.174,8.182,5.177,-5.278,-7.958,2,4.65,5.285,4.548,5.27,1.648,1.647,1.573,1.602,2,5.148,4.822,-60,27.2372220322,norm,0,11,11,11,266.987,267.009,267.019096941,267.019,267.021,267.024,up,1,1.87474263788,8.12525736212,001,003,1920_1080,Intel(R) Core(TM) i5-3570 CPU @ 3.40GHz,orientation_search,LEPPC096,Intel(R) HD Graphics 2500,2018_Sep_26_1547,testMonitor,
389.5,388.9,378.5,387.3,36,-60,391.8,389.2,380.9,392.2,7.866,7.869,8.106,7.953,7.532,7.898,8.31,4.342,-4.629,-8.025,1.689,-1.227,8.085,4.352,-4.704,-7.942,385.9,382.6,-8.167,395.0,381.9,,394.9,390.1,36,392.6,5,5,probe,5,0,102,norm,36,-4.386,up,norm,388.53564615,388.2,380.6,388.4,379.1,3,388.3,382.6,394.5,10,5,8.037,5.292,1.706,-1.248,-4.781,-7.905,387.8,2,286.5,-8.173,-7.663,-30,-8.404,-8.326,-4.579,-4.707,-4.685,-5.061,5.215,8.461,33,-1.688,1.137,5.281,8.127,-7.506,-7.96,-1.263,1.102,384.9,391.2,383.4,386.8,385.2,388.2,392.1,387.2,398.5,383.2,0,norm,1.333,1.612,-1.556,-1.121,-4.306,-5.218,-1.125,-1.386,-1.381,-1.618,1.197,-1.462,397.9,390.1,-5.111,-7.648,1.621,-1.433,8.358,4.658,-4.784,-7.785,3,4.902,4.747,4.479,4.479,1.951,1.871,1.768,1.414,3,4.477,4.667,-30,312.814536544,norm,0,12,12,12,268.937,268.959,268.968909177,268.969,268.971,268.973,up,1,1.39760164615,8.60239835385,001,003,1920_1080,Intel(R) Core(TM) i5-3570 CPU @ 3.40GHz,orientation_search,LEPPC096,Intel(R) HD Graphics 2500,2018_Sep_26_1547,testMonitor,
391.9,398.6,386.5,394.7,36,-60,394.9,404.0,388.6,395.3,7.8,7.986,8.155,8.314,7.647,7.691,7.59,5.192,-4.486,-8.226,1.961,-2.001,7.905,4.549,-5.25,-8.431,406.5,400.7,-7.708,,403.6,394.6,396.6,390.0,36,396.8,5,5,probe,5,0,110,norm,36,-4.43,down,norm,396.53564615,397.8,387.4,389.7,396.4,1,395.3,394.7,392.7,10,5,8.34,4.525,1.121,-1.12,-4.589,-7.99,396.1,2,286.5,-7.571,-8.471,-30,-7.641,-7.698,-4.648,-4.425,-4.612,-4.755,5.024,7.842,31,-1.327,1.704,4.836,7.632,-7.995,-7.559,-1.251,1.396,399.4,397.8,403.6,396.2,389.2,394.8,392.4,399.4,387.6,395.1,1,norm,1.798,1.303,-1.256,-1.243,-5.027,-4.67,-1.715,-1.156,-1.681,-1.217,1.181,-1.719,391.5,396.2,-5.05,-7.779,2.07,-1.825,8.449,4.584,-4.943,-8.421,3,5.175,5.13,4.895,5.12,1.845,1.632,1.99,1.614,3,4.772,4.914,-30,312.814536544,norm,0,13,13,13,270.388,270.397,270.403823312,270.404,270.406,270.408,down,1,0.976913550174,9.02308644983,001,003,1920_1080,Intel(R) Core(TM) i5-3570 CPU @ 3.40GHz,orientation_search,LEPPC096,Intel(R) HD Graphics 2500,2018_Sep_26_1547,testMonitor,
274.0,269.9,270.8,257.0,36,-40,264.9,267.4,272.5,271.3,8.3,8.458,7.745,7.929,8.038,7.729,8.254,4.82,-4.447,-8.201,1.228,-1.861,7.531,4.389,-4.535,-7.977,272.2,279.5,-7.996,,278.1,279.0,275.0,258.9,36,265.5,5,5,prime,10,0,103,norm,36,-4.304,down,norm,265.806005382,261.2,275.1,255.6,255.4,1,260.2,246.0,270.4,10,6,8.236,4.957,1.637,-1.268,-4.464,-7.893,277.4,6,368.8,-7.574,-8.213,-40,-7.809,-7.564,-4.532,-4.889,-4.624,-4.906,4.721,7.595,31,-2.049,1.189,4.308,8.296,-7.68,-8.015,-1.528,1.307,284.8,263.1,277.5,280.6,263.8,285.8,255.8,267.2,246.3,256.4,0,norm,1.777,1.16,-1.335,-1.885,-4.302,-4.302,-1.821,-1.834,-1.579,-1.44,1.908,-1.238,266.6,245.8,-5.254,-7.634,1.676,-1.861,7.532,4.77,-4.989,-8.191,4,4.735,4.455,4.569,4.568,1.757,1.159,1.537,1.19,4,5.001,4.866,-60,312.814536544,norm,0,14,14,14,271.402,271.412,271.431512926,271.432,271.433,271.436,down,1,3.22631657269,6.77368342731,001,003,1920_1080,Intel(R) Core(TM) i5-3570 CPU @ 3.40GHz,orientation_search,LEPPC096,Intel(R) HD Graphics 2500,2018_Sep_26_1547,testMonitor,
266.1,273.7,277.7,276.1,36,-40,255.0,285.2,257.1,262.3,7.506,8.451,7.609,8.471,7.822,8.415,7.905,4.411,-5.058,-7.885,2.076,-1.24,8.15,4.774,-4.959,-7.605,252.2,260.7,-7.627,271.1,285.8,258.6,258.5,257.4,36,267.3,0,5,prime,10,0,104,norm,36,-4.568,up,norm,265.806005382,245.8,259.6,260.6,281.1,3,258.6,257.6,251.5,10,6,7.648,4.381,1.744,-1.904,-4.541,-7.838,267.0,6,369.8,-8.076,-7.849,-40,-8.247,-7.939,-4.424,-4.546,-4.392,-5.134,4.847,8.459,3,-2.096,1.442,5.243,8.409,-8.193,-8.007,-1.744,1.554,275.9,256.7,,260.0,267.6,264.7,282.1,276.8,264.6,283.1,1,norm,1.267,1.733,-1.38,-1.271,-4.981,-4.776,-1.914,-1.972,-1.89,-1.709,1.674,-1.909,267.1,259.1,-5.252,-7.97,1.352,-1.881,7.989,4.336,-4.862,-8.002,4,4.599,4.939,4.786,4.855,2.09,1.872,1.838,2.01,4,4.487,5.188,-60,312.814536544,norm,0,15,15,15,274.692,274.703,274.709293168,274.709,274.711,274.714,up,1,0.857875741147,9.14212425885,001,003,1920_1080,Intel(R) Core(TM) i5-3570 CPU @ 3.40GHz,orientation_search,LEPPC096,Intel(R) HD Graphics 2500,2018_Sep_26_1547,testMonitor,
266.6,279.6,267.2,261.9,36,-40,258.5,260.3,272.1,264.3,8.155,7.595,8.172,7.579,7.954,8.188,7.754,5.235,-5.197,-7.937,1.866,-1.888,7.729,5.199,-4.846,-8.466,256.4,267.9,-7.529,245.8,266.4,260.1,274.2,253.9,36,269.1,2,5,prime,10,0,114,norm,36,-4.626,up,norm,265.806005382,260.4,258.4,,250.7,3,269.3,252.1,285.8,10,6,7.917,4.699,2.002,-1.2,-4.385,-8.259,268.6,6,379.8,-7.935,-7.891,-40,-7.617,-7.649,-5.241,-4.736,-5.198,-4.452,4.893,8.306,15,-1.605,1.53,5.267,7.808,-8.493,-7.65,-1.747,2.066,268.1,266.4,276.3,251.0,264.3,256.0,282.7,266.5,266.2,266.4,2,norm,1.985,1.586,-1.276,-1.23,-4.457,-5.127,-1.259,-1.785,-1.374,-1.269,1.777,-1.883,256.1,272.1,-4.307,-7.545,1.143,-1.216,8.186,4.752,-4.87,-7.964,4,4.374,4.624,4.371,5.292,1.949,1.278,1.478,1.34,4,4.303,4.927,-60,312.814536544,norm,0,16,16,16,275.613,275.622,275.628702792,275.629,275.631,275.633,down,0,0.672227590065,-10,001,003,1920_1080,Intel(R) Core(TM) i5-3570 CPU @ 3.40GHz,orientation_search,LEPPC096,Intel(R) HD Graphics 2500,2018_Sep_26_1547,testMonitor,
263.6,246.2,259.9,274.3,36,-40,262.8,255.3,269.7,261.7,8.159,7.766,8.073,7.974,7.851,7.838,8.223,4.8,-4.794,-8.18,1.112,-1.512,7.929,4.965,-4.741,-8.232,254.5,263.2,-8.385,277.1,262.6,259.2,255.0,257.0,36,257.5,0,5,prime,10,0,117,norm,36,-5.219,down,norm,265.806005382,256.2,259.9,283.6,264.9,0,267.2,253.6,276.7,10,6,7.579,4.416,1.703,-1.167,-4.639,-8.293,270.8,6,382.8,-8.107,-7.655,-40,-7.584,-7.516,-4.415,-4.41,-5.016,-4.938,5.164,8.212,0,-1.41,1.192,5.295,8.055,-8.38,-8.306,-1.779,1.375,262.8,245.8,278.5,280.0,270.3,,285.8,282.3,270.9,254.3,3,norm,1.851,1.468,-1.155,-1.138,-4.329,-4.585,-1.985,-1.1,-1.402,-1.482,1.716,-1.314,274.1,256.0,-4.972,-7.694,1.838,-1.934,7.682,4.54,-5.254,-8.048,4,5.207,5.244,4.922,5.093,1.618,2.067,1.405,1.804,4,4.816,5.274,-60,312.814536544,norm,0,17,17,17,277.379,277.389,277.406411648,277.407,277.408,277.411,up,0,2.33234719987,-10,001,003,1920_1080,Intel(R) Core(TM) i5-3570 CPU @ 3.40GHz,orientation_search,LEPPC096,Intel(R) HD Graphics 2500,2018_Sep_26_1547,testMonitor,
261.4,254.0,274.8,276.0,36,-40,274.6,269.0,267.9,266.0,8.197,8.456,8.223,8.435,8.402,8.054,8.368,4.967,-5.233,-7.542,1.715,-1.62,7.95,4.602,-4.609,-7.957,258.1,282.7,-7.582,245.8,274.0,272.3,253.7,263.5,36,259.1,2,5,prime,10,0,113,norm,36,-4.472,down,norm,265.806005382,267.9,271.9,265.5,,2,285.8,264.8,255.0,10,6,7.752,4.901,1.424,-1.152,-4.353,-7.886,273.0,6,378.8,-8.223,-8.204,-40,-7.716,-7.979,-4.549,-4.997,-4.949,-4.508,4.625,8.444,14,-1.884,1.924,4.472,7.739,-7.584,-7.791,-2.009,1.695,269.8,265.0,259.0,251.8,259.8,268.3,248.7,262.1,260.3,265.2,4,norm,1.776,1.315,-1.87,-1.472,-4.911,-4.529,-1.394,-1.136,-1.507,-1.527,1.445,-2.094,270.1,264.3,-4.427,-7.726,1.391,-1.493,8.188,4.909,-4.324,-7.849,4,4.411,4.682,5.08,4.718,1.814,1.297,1.673,1.367,4,4.388,4.907,-60,312.814536544,norm,0,18,18,18,280.81,280.82,280.838076101,280.838,280.84,280.843,up,0,3.81972472176,-10,001,003,1920_1080,Intel(R) Core(TM) i5-3570 CPU @ 3.40GHz,orientation_search,LEPPC096,Intel(R) HD Graphics 2500,2018_Sep_26_1547,testMonitor,
280.5,285.8,256.6,254.7,36,-40,272.4,280.9,271.5,265.8,8.249,8.094,8.279,7.915,8.119,7.527,8.036,4.671,-5.225,-8.337,1.105,-1.2,8.31,5.207,-4.986,-8.144,276.6,252.3,-7.642,273.7,271.0,265.8,270.8,279.2,36,266.4,3,5,prime,10,0,105,norm,36,-4.8,down,norm,265.806005382,263.3,256.2,262.6,280.8,1,262.9,245.8,265.2,10,6,8.495,4.44,1.12,-1.309,-4.931,-8.409,253.6,6,370.8,-7.604,-8.286,-40,-8.275,-8.493,-4.993,-4.899,-4.43,-4.473,4.913,7.822,19,-1.124,1.632,4.829,8.185,-7.583,-8.404,-1.597,1.515,274.8,268.2,256.7,275.4,265.1,269.0,264.6,271.9,266.1,257.5,5,norm,1.146,1.177,-1.977,-2.086,-4.508,-4.549,-1.461,-1.438,-1.469,-1.972,1.471,-1.365,,282.3,-5.159,-8.038,1.92,-1.368,8.018,4.728,-5.132,-8.47,4,5.205,4.903,5.107,4.698,1.813,1.827,1.284,1.244,4,4.358,4.978,-60,312.814536544,norm,0,19,19,19,285.728,285.738,285.75177901,285.752,285.754,285.756,down,1,0.973952735018,9.02604726498,001,003,1920_1080,Intel(R) Core(TM) i5-3570 CPU @ 3.40GHz,orientation_search,LEPPC096,Intel(R) HD Graphics 2500,2018_Sep_26_1547,testMonitor,
342.6,351.5,341.0,352.3,36,80,335.9,339.2,332.3,337.9,7.658,7.94,7.784,7.586,7.876,8.412,8.075,4.491,-5.172,-7.717,1.256,-1.75,8.136,4.647,-5.252,-7.537,338.9,340.1,-8.053,337.2,341.6,340.9,347.3,340.9,36,332.4,0,5,probe,5,0,113,norm,36,-5.265,down,norm,342.325511784,347.3,348.5,344.6,339.1,0,344.7,344.4,339.5,10,6,8.252,5.166,1.29,-1.266,-4.334,-7.785,342.3,1,229.3,-8.116,-8.068,-40,-7.803,-8.348,-4.612,-4.473,-4.451,-4.918,4.485,7.566,0,-1.252,1.731,4.705,7.95,-8.465,-7.661,-1.621,1.706,340.7,343.2,342.9,350.6,342.6,,337.7,344.6,340.9,344.8,0,norm,1.311,1.69,-1.607,-1.615,-4.59,-4.756,-1.586,-1.993,-1.108,-1.297,2.034,-1.725,333.0,338.3,-4.338,-8.346,1.351,-1.683,7.925,4.539,-4.896,-7.543,5,4.395,4.856,4.988,5.263,1.414,1.147,1.543,1.193,5,5.243,5.05,-40,265.806005382,norm,0,20,20,20,286.75,286.76,286.766527545,286.767,286.768,286.771,down,1,2.09392294878,7.90607705122,001,003,1920_1080,Intel(R) Core(TM) i5-3570 CPU @ 3.40GHz,orientation_search,LEPPC096,Intel(R) HD Graphics 2500,2018_Sep_26_1547,testMonitor,
6.8,16.0,0.8,4.0,36,0,14.7,9.4,16.9,11.8,7.776,7.51,7.949,8.274,8.116,7.715,8.169,4.922,-4.404,-7.618,1.215,-1.785,8.139,5.149,-5.008,-7.944,15.4,25.1,-7.751,10.1,20.4,7.0,23.5,3.4,36,7.7,1,5,prime,10,0,106,norm,36,-4.366,down,norm,13.3484348343,3.5,20.5,-6.7,2.1,1,6.2,2.7,11.1,10,5,8.319,5.069,2.065,-1.689,-5.239,-8.36,18.8,5,119.3,-8.388,-8.017,0,-8.425,-8.178,-4.812,-5.12,-4.609,-4.485,4.965,7.753,7,-1.54,1.538,4.835,8.321,-7.62,-7.694,-1.463,1.282,17.9,33.3,17.0,12.7,17.2,15.1,,32.1,-0.2,11.0,0,norm,1.867,1.867,-1.797,-1.7,-4.401,-4.303,-1.563,-1.634,-1.671,-1.73,1.63,-1.403,4.7,16.0,-4.586,-8.105,1.754,-1.386,8.156,4.67,-4.424,-7.906,6,4.912,4.561,4.947,4.648,1.591,1.957,1.233,1.171,6,5.156,4.593,80,265.806005382,norm,0,21,21,21,288.903,288.913,288.919358008,288.92,288.921,288.924,down,1,1.58163974646,8.41836025354,001,003,1920_1080,Intel(R) Core(TM) i5-3570 CPU @ 3.40GHz,orientation_search,LEPPC096,Intel(R) HD Graphics 2500,2018_Sep_26_1547,testMonitor,
27.2,18.4,26.4,13.6,36,0,6.5,13.4,0.8,2.2,7.77,7.613,7.817,8.198,8.338,8.477,7.61,4.995,-4.998,-7.908,2.088,-1.821,7.664,5.215,-4.423,-8.397,2.8,19.8,-7.594,31.6,15.7,4.8,16.4,9.6,36,,4,5,prime,10,0,94,norm,36,-5.205,up,norm,13.3484348343,16.7,-0.0,1.4,18.0,3,6.3,20.0,16.5,10,5,8.469,4.415,1.415,-1.381,-5.264,-8.454,20.8,5,107.3,-8.302,-8.202,0,-8.333,-8.495,-4.893,-4.431,-4.475,-4.906,5.263,7.592,27,-1.648,1.181,4.661,7.554,-8.372,-7.904,-2.007,1.669,-6.7,13.1,-6.1,23.6,33.3,23.0,5.0,19.0,-1.8,7.4,1,norm,1.259,1.44,-2.096,-1.965,-4.498,-4.564,-1.401,-1.338,-1.741,-1.646,1.554,-1.743,8.7,9.1,-4.954,-7.64,1.499,-1.233,7.814,4.345,-4.528,-8.12,6,5.3,4.997,5.267,4.898,1.567,1.425,1.117,2.043,6,4.689,4.44,80,265.806005382,norm,0,22,22,22,290.526,290.535,290.541968325,290.542,290.544,290.546,up,1,3.26561521356,6.73438478644,001,003,1920_1080,Intel(R) Core(TM) i5-3570 CPU @ 3.40GHz,orientation_search,LEPPC096,Intel(R) HD Graphics 2500,2018_Sep_26_1547,testMonitor,
28.7,12.5,25.9,32.1,36,0,23.1,11.5,3.6,9.2,8.356,8.253,7.529,8.097,7.752,8.13,8.121,5.296,-5.145,-8.439,1.444,-1.588,7.797,5.078,-5.245,-8.022,26.1,22.5,-7.988,6.8,3.1,6.9,14.0,8.5,36,25.4,1,5,prime,10,0,101,norm,36,-4.873,down,norm,13.3484348343,33.3,21.3,25.5,6.6,0,4.4,26.5,19.3,10,5,7.693,4.561,1.303,-1.68,-5.223,-7.577,15.5,5,114.3,-7.758,-7.825,0,-8.265,-7.936,-4.53,-4.854,-4.457,-5.057,5.043,7.841,6,-1.339,1.361,4.841,7.7,-8.343,-7.935,-1.205,1.662,19.2,0.9,9.9,3.0,6.5,16.7,-6.7,,11.0,5.7,2,norm,2.089,1.31,-1.177,-1.328,-4.317,-4.583,-1.107,-1.234,-2.011,-1.276,2.075,-1.957,3.2,20.5,-4.619,-8.173,1.666,-1.226,7.897,4.763,-4.757,-8.017,6,5.261,4.525,4.808,5.079,1.976,1.758,1.316,1.637,6,5.0,4.321,80,265.806005382,norm,0,23,23,23,293.848,293.859,293.864369069,293.865,293.866,293.869,down,1,1.21531938862,8.78468061138,001,003,1920_1080,Intel(R) Core(TM) i5-3570 CPU @ 3.40GHz,orientation_search,LEPPC096,Intel(R) HD Graphics 2500,2018_Sep_26_1547,testMonitor,
8.2,16.5,13.4,7.0,36,0,3.4,14.2,17.2,15.6,7.986,8.005,8.432,7.868,7.637,7.8,7.751,4.355,-4.435,-8.049,1.945,-1.875,7.605,4.635,-4.91,-8.054,9.9,13.6,-7.855,33.3,11.7,1.9,20.3,6.2,36,-6.7,2,5,prime,10,0,72,norm,36,-4.493,up,norm,13.3484348343,,19.1,8.9,9.3,5,14.2,-0.2,8.9,10,5,7.644,5.096,1.685,-1.719,-4.462,-8.022,9.2,5,85.3,-8.498,-7.87,0,-8.147,-8.16,-4.826,-4.725,-4.427,-4.454,4.6,7.77,17,-1.737,1.495,5.069,7.735,-8.385,-7.53,-1.631,1.96,23.6,10.5,5.2,26.1,24.7,15.5,24.3,5.1,21.9,-6.6,3,norm,1.853,1.19,-1.611,-1.559,-5.243,-4.47,-1.35,-1.332,-1.273,-1.573,1.206,-1.302,7.0,15.7,-4.987,-7.948,1.147,-1.962,8.065,4.843,-4.503,-7.669,6,4.348,4.738,4.982,5.113,1.315,1.248,1.539,1.485,6,4.504,4.673,80,265.806005382,norm,0,24,24,24,295.118,295.131,295.149985557,295.15,295.152,295.154,up,1,1.92807594707,8.07192405293,001,003,1920_1080,Intel(R) Core(TM) i5-3570 CPU @ 3.40GHz,orientation_search,LEPPC096,Intel(R) HD Graphics 2500,2018_Sep_26_1547,testMonitor,
17.4,26.1,12.0,8.8,36,0,8.1,31.6,18.2,14.4,8.259,7.964,8.13,7.914,7.536,7.982,7.982,4.947,-4.387,-7.804,1.244,-2.006,7.752,4.558,-4.35,-7.703,7.3,10.6,-8.215,13.4,4.6,19.6,19.3,4.2,36,20.0,1,5,prime,10,0,67,norm,36,-4.766,up,norm,13.3484348343,7.3,33.3,-6.7,8.3,5,,23.9,7.5,10,5,8.229,5.069,1.315,-1.417,-4.431,-7.975,-6.0,5,80.3,-8.474,-7.937,0,-8.216,-7.566,-5.201,-4.705,-4.788,-4.701,5.207,8.02,11,-1.108,1.706,4.588,7.642,-8.303,-8.43,-1.374,1.474,22.0,6.7,8.1,21.0,2.6,14.1,8.3,18.6,20.9,8.2,4,norm,1.96,1.392,-1.706,-1.93,-4.554,-4.86,-1.282,-1.84,-1.125,-1.893,1.952,-1.167,8.1,16.3,-5.132,-8.349,1.854,-1.441,8.048,4.597,-4.919,-8.248,6,4.559,4.552,4.668,4.749,1.619,1.712,1.92,1.624,6,5.135,4.654,80,265.806005382,norm,0,25,25,25,297.124,297.134,297.141317121,297.141,297.143,297.146,down,0,2.23035045318,-10,001,003,1920_1080,Intel(R) Core(TM) i5-3570 CPU @ 3.40GHz,orientation_search,LEPPC096,Intel(R) HD Graphics 2500,2018_Sep_26_1547,testMonitor,
111.8,105.3,106.8,95.6,36,-80,97.2,98.0,91.9,97.3,7.709,7.736,7.782,7.599,7.862,8.181,7.66,5.297,-5.038,-8.454,1.68,-1.796,7.983,4.974,-4.647,-8.244,96.6,104.5,-7.662,95.3,97.1,106.9,99.1,91.8,36,97.1,3,5,probe,5,0,84,norm,36,-5.073,down,norm,101.75873918,108.0,102.9,98.3,109.6,0,105.5,91.9,99.7,10,5,8.303,5.06,1.898,-1.268,-5.077,-8.333,93.7,1,17.8,-8.362,-8.189,0,-7.541,-8.497,-4.631,-4.804,-5.125,-4.434,4.629,7.857,18,-1.609,2.057,4.713,8.168,-7.73,-7.774,-1.115,1.154,97.8,103.4,108.5,107.0,103.0,107.2,107.3,95.0,97.5,100.6,0,norm,1.227,1.194,-1.894,-1.954,-4.894,-5.119,-1.658,-1.978,-1.681,-1.254,1.64,-1.282,101.9,,-4.913,-7.86,1.538,-1.85,7.778,5.293,-4.374,-8.28,7,4.436,4.861,4.904,4.442,1.628,1.338,1.62,1.977,7,4.647,5.041,0,13.3484348343,norm,0,26,26,26,300.451,300.461,300.477567501,300.478,300.479,300.482,up,0,1.67243073295,-10,001,003,1920_1080,Intel(R) Core(TM) i5-3570 CPU @ 3.40GHz,orientation_search,LEPPC096,Intel(R) HD Graphics 2500,2018_Sep_26_1547,testMonitor,
116.2,116.2,133.6,98.7,36,-20,114.4,110.9,101.5,105.8,8.368,7.568,7.64,7.973,8.262,7.502,7.804,4.307,-4.428,-7.914,1.846,-1.766,7.605,4.908,-5.214,-8.409,132.4,123.3,-7.504,113.0,110.5,123.0,111.3,104.4,36,114.8,0,5,prime,10,0,74,norm,36,-4.687,down,norm,113.594094379,108.8,113.5,105.4,100.2,0,98.1,128.9,98.1,10,6,7.544,4.992,1.436,-1.761,-4.508,-7.939,101.6,6,187.6,-7.736,-7.531,-20,-7.522,-8.463,-5.149,-4.798,-4.508,-4.611,5.042,8.08,0,-1.255,1.53,4.98,8.397,-7.536,-7.821,-1.71,1.261,125.0,116.5,100.4,119.0,109.4,,114.1,128.8,109.0,101.3,0,norm,2.026,1.643,-2.005,-1.956,-4.903,-5.066,-1.214,-1.599,-1.968,-1.964,1.147,-1.101,105.4,93.6,-4.983,-7.689,1.421,-1.45,7.712,4.781,-4.327,-8.142,8,4.479,4.922,4.535,4.81,1.346,1.242,1.491,1.131,8,4.381,5.257,-80,13.3484348343,norm,0,27,27,27,303.227,303.237,303.25420631,303.255,303.259,303.265,down,1,3.03707433189,6.96292566811,001,003,1920_1080,Intel(R) Core(TM) i5-3570 CPU @ 3.40GHz,orientation_search,LEPPC096,Intel(R) HD Graphics 2500,2018_Sep_26_1547,testMonitor,
124.3,108.0,111.5,124.9,36,-20,114.4,115.0,,128.0,8.083,7.554,7.772,7.706,7.7,7.67,7.63,5.271,-5.187,-7.504,1.906,-1.124,8.144,5.072,-5.02,-8.344,120.8,93.6,-8.285,103.8,115.9,106.3,109.9,103.0,36,127.1,4,5,prime,10,0,77,norm,36,-4.545,up,norm,113.594094379,104.6,124.5,122.0,123.2,4,133.6,106.2,113.0,10,6,7.566,4.496,1.491,-1.171,-4.353,-8.244,124.4,6,190.6,-7.94,-7.687,-20,-7.637,-7.828,-4.668,-5.264,-5.155,-5.249,4.338,8.344,28,-1.582,1.669,4.357,7.776,-7.719,-7.548,-1.672,1.901,116.4,119.0,110.7,123.3,105.6,115.3,118.7,118.1,101.1,101.0,1,norm,1.447,1.374,-1.993,-1.474,-4.543,-4.335,-2.011,-1.53,-1.555,-1.407,1.918,-1.875,109.9,114.0,-4.931,-7.818,1.538,-2.067,8.494,5.132,-4.945,-8.457,8,4.661,4.388,5.159,4.4,1.908,1.67,1.922,1.729,8,4.452,4.968,-80,13.3484348343,norm,0,28,28,28,306.343,306.353,306.359462097,306.36,306.361,306.364,down,0,1.80542412643,-10,001,003,1920_1080,Intel(R) Core(TM) i5-3570 CPU @ 3.40GHz,orientation_search,LEPPC096,Intel(R) HD Graphics 2500,2018_Sep_26_1547,testMonitor,
117.3,,106.7,116.5,36,-20,111.2,97.0,110.8,109.9,7.878,8.065,7.784,7.603,7.559,8.461,7.747,4.69,-4.314,-8.076,1.271,-1.397,8.439,4.892,-4.628,-8.075,108.8,109.3,-8.188,101.8,133.6,126.9,102.6,112.3,36,103.3,3,5,prime,10,0,84,norm,36,-4.822,up,norm,113.594094379,111.0,111.6,121.9,107.7,5,101.3,107.7,93.6,10,6,7.96,5.096,1.804,-1.258,-5.243,-7.729,122.4,6,197.6,-7.925,-7.583,-20,-8.413,-8.042,-4.582,-4.991,-5.168,-5.104,4.509,7.559,23,-2.035,1.145,4.73,8.179,-8.23,-8.416,-1.496,1.148,114.1,110.0,104.2,112.1,119.5,127.6,116.5,96.0,113.5,102.0,2,norm,1.978,1.327,-1.473,-1.12,-4.556,-4.761,-1.192,-1.866,-1.235,-1.952,1.531,-1.841,119.0,114.5,-5.274,-7.763,2.055,-1.325,8.035,4.848,-4.465,-8.262,8,4.937,5.192,5.051,5.291,1.497,1.139,1.179,1.294,8,4.912,5.21,-80,13.3484348343,norm,0,29,29,29,309.235,309.245,309.259955586,309.26,309.262,309.264,up,1,1.01086225856,8.98913774144,001,003,1920_1080,Intel(R) Core(TM) i5-3570 CPU @ 3.40GHz,orientation_search,LEPPC096,Intel(R) HD Graphics 2500,2018_Sep_26_1547,testMonitor,
131.6,104.5,112.6,120.4,36,-20,124.2,100.3,130.4,99.0,7.925,7.925,7.86,7.854,7.745,7.98,7.7,4.35,-4.777,-7.548,1.157,-1.858,7.622,5.231,-4.873,-8.084,131.3,118.6,-7.728,95.7,105.4,111.9,118.6,93.6,36,100.5,0,5,prime,10,0,70,norm,36,-4.388,up,norm,113.594094379,102.4,122.0,104.1,110.8,3,113.4,96.0,117.4,10,6,7.605,4.336,1.878,-1.446,-4.453,-7.532,105.6,6,183.6,-8.271,-8.413,-20,-8.418,-7.565,-4.879,-5.112,-5.185,-4.484,4.546,8.235,3,-1.516,1.871,4.646,8.408,-8.002,-8.108,-1.486,1.271,114.3,109.5,,108.5,115.5,122.9,99.7,121.1,121.6,105.6,3,norm,2.024,1.211,-1.994,-1.983,-4.451,-5.247,-1.437,-1.311,-1.517,-2.016,2.033,-1.852,133.6,119.8,-4.766,-7.846,1.709,-1.903,8.207,5.207,-5.038,-7.855,8,4.594,5.178,4.58,5.027,1.265,1.347,1.274,1.816,8,4.768,5.262,-80,13.3484348343,norm,0,30,30,30,310.308,310.318,310.336247966,310.336,310.338,310.341,up,1,1.34613193904,8.65386806096,001,003,1920_1080,Intel(R) Core(TM) i5-3570 CPU @ 3.40GHz,orientation_search,LEPPC096,Intel(R) HD Graphics 2500,2018_Sep_26_1547,testMonitor,
108.9,113.7,106.1,,36,-20,112.5,123.9,97.5,121.5,7.621,8.36,7.558,8.26,7.808,7.66,7.983,4.949,-4.665,-7.546,1.389,-2.008,8.401,5.234,-4.627,-8.446,123.2,128.1,-7.997,114.6,112.9,112.9,109.7,114.8,36,120.4,3,5,prime,10,0,87,norm,36,-4.699,up,norm,113.594094379,124.8,93.6,118.4,118.7,3,113.2,119.6,111.9,10,6,7.829,5.293,1.467,-1.595,-4.958,-8.155,133.6,6,200.6,-7.518,-7.996,-20,-7.782,-8.391,-4.939,-4.613,-4.889,-5.092,4.421,7.802,21,-1.384,1.758,4.386,7.934,-7.834,-7.575,-1.255,1.944,110.3,101.6,115.3,106.6,130.5,129.2,108.5,117.2,129.6,125.4,4,norm,1.473,1.983,-1.772,-1.58,-4.439,-5.242,-1.789,-1.849,-1.837,-1.308,1.333,-1.146,116.4,118.6,-4.393,-8.114,1.244,-1.798,7.972,5.244,-4.805,-8.329,8,4.679,4.352,4.865,4.832,1.687,1.75,1.263,1.547,8,5.247,4.966,-80,13.3484348343,norm,0,31,31,31,311.72,311.73,311.74013859,311.74,311.742,311.745,up,1,1.73710895371,8.26289104629,001,003,1920_1080,Intel(R) Core(TM) i5-3570 CPU @ 3.40GHz,orientation_search,LEPPC096,Intel(R) HD Graphics 2500,2018_Sep_26_1547,testMonitor,
110.2,123.7,125.8,133.6,36,-20,113.2,109.9,102.3,121.0,7.674,7.577,7.567,8.238,8.461,7.967,8.013,5.089,-5.248,-8.131,1.657,-1.216,7.929,4.908,-5.137,-8.388,108.6,107.6,-8.101,106.4,115.9,105.0,100.5,104.3,36,96.1,0,5,prime,10,0,105,norm,36,-4.368,down,norm,113.594094379,107.4,110.0,96.6,114.9,2,123.5,93.6,105.0,10,6,8.254,4.543,1.964,-1.497,-5.103,-8.046,127.8,6,218.6,-7.522,-8.371,-20,-7.67,-8.028,-4.377,-4.985,-5.215,-4.896,4.844,7.75,2,-1.641,1.71,4.467,7.534,-7.851,-7.97,-1.867,1.832,127.3,119.9,109.4,,100.7,108.7,113.0,110.8,107.1,116.1,5,norm,1.341,1.207,-2.051,-1.733,-4.664,-4.864,-1.711,-1.808,-1.703,-1.291,1.6,-1.796,115.7,103.3,-4.498,-7.669,1.158,-1.154,8.477,5.03,-4.807,-7.687,8,5.0,4.736,4.321,4.901,1.776,1.241,1.432,1.479,8,4.372,4.83,-80,13.3484348343,norm,0,32,32,32,313.514,313.524,313.53410431,313.534,313.536,313.539,down,1,1.06194348885,8.93805651115,001,003,1920_1080,Intel(R) Core(TM) i5-3570 CPU @ 3.40GHz,orientation_search,LEPPC096,Intel(R) HD Graphics 2500,2018_Sep_26_1547,testMonitor,
197.7,200.9,200.7,204.0,36,0,198.5,211.1,202.2,202.0,8.457,8.436,7.839,8.331,8.415,8.218,7.894,4.837,-5.212,-7.579,1.336,-2.087,7.597,4.36,-4.632,-8.445,206.6,197.9,-7.933,201.4,202.1,204.1,204.3,194.1,36,204.6,0,5,probe,5,0,106,norm,36,-5.236,down,norm,201.117725143,197.5,195.7,200.3,204.2,0,200.3,198.8,196.2,10,6,8.381,4.659,1.65,-1.16,-4.827,-7.521,201.6,1,95.1,-7.617,-7.925,-20,-8.217,-7.742,-4.933,-4.614,-4.528,-4.987,4.615,7.526,0,-1.504,2.064,5.058,8.172,-7.785,-7.647,-1.283,1.194,191.1,202.8,193.3,204.9,197.3,,204.4,207.0,200.5,210.6,0,norm,1.314,1.521,-1.993,-1.535,-4.521,-4.681,-1.318,-1.567,-1.34,-1.627,2.024,-1.978,200.7,203.4,-4.44,-7.642,1.373,-1.809,8.196,4.696,-4.679,-8.32,9,5.004,4.393,4.991,4.7,1.471,1.941,1.782,2.026,9,4.81,4.501,-20,113.594094379,norm,0,33,33,33,314.642,314.652,314.65823186,314.658,314.66,314.663,down,1,2.73650707121,7.26349292879,001,003,1920_1080,Intel(R) Core(TM) i5-3570 CPU @ 3.40GHz,orientation_search,LEPPC096,Intel(R) HD Graphics 2500,2018_Sep_26_1547,testMonitor,
46.3,26.5,28.0,10.6,36,-20,24.1,32.6,36.1,23.4,7.812,8.492,8.332,7.909,8.306,8.392,8.357,5.266,-4.605,-7.683,1.967,-1.613,7.602,4.844,-4.948,-8.136,18.3,22.8,-7.801,26.1,40.5,33.9,26.9,28.9,36,30.2,0,5,prime,10,0,61,norm,36,-4.81,up,norm,28.8027538208,8.8,22.4,40.5,28.8,5,41.7,48.8,14.4,10,5,8.103,4.34,1.246,-1.684,-5.028,-8.372,33.8,5,89.8,-8.032,-8.172,-20,-7.682,-8.413,-5.062,-4.834,-4.81,-5.073,5.133,7.526,5,-1.667,1.73,5.179,8.002,-8.403,-7.97,-1.433,1.979,9.6,30.6,25.1,25.9,33.1,9.1,36.0,20.9,,32.4,0,norm,1.991,1.715,-1.999,-1.868,-4.666,-4.325,-1.905,-1.609,-1.605,-1.793,1.323,-1.702,29.7,13.8,-4.867,-8.228,2.079,-1.383,8.206,5.055,-5.032,-8.232,10,5.294,4.325,4.435,5.087,1.865,1.921,2.06,1.285,10,4.842,4.929,0,113.594094379,norm,0,34,34,34,317.419,317.428,317.434880026,317.435,317.437,317.439,up,1,1.79199224616,8.20800775384,001,003,1920_1080,Intel(R) Core(TM) i5-3570 CPU @ 3.40GHz,orientation_search,LEPPC096,Intel(R) HD Graphics 2500,2018_Sep_26_1547,testMonitor,
26.6,16.8,36.5,45.3,36,-20,16.8,18.9,26.3,29.4,8.193,8.042,7.871,7.519,7.729,7.993,8.407,5.245,-4.748,-8.257,1.256,-1.921,8.105,5.017,-4.658,-7.911,29.8,29.6,-8.057,22.1,48.0,41.0,31.6,27.1,36,22.2,0,5,prime,10,0,78,norm,36,-4.99,down,norm,28.8027538208,42.7,18.0,32.5,30.1,2,48.8,29.5,20.0,10,5,7.751,4.402,1.387,-1.308,-4.328,-8.107,23.7,5,106.8,-8.085,-7.846,-20,-8.34,-8.361,-5.289,-4.304,-5.044,-4.381,4.385,8.477,2,-1.176,1.456,4.943,7.884,-7.57,-7.754,-1.155,1.232,19.0,37.2,8.8,,32.4,36.3,45.6,23.5,41.3,39.5,1,norm,1.981,1.88,-1.607,-1.317,-4.486,-4.49,-1.832,-1.78,-1.438,-1.985,1.703,-1.709,37.1,16.3,-4.625,-7.976,1.87,-1.339,7.999,4.306,-4.586,-7.556,10,4.52,4.423,5.006,5.054,1.751,1.716,1.102,1.112,10,4.593,4.624,0,113.594094379,norm,0,35,35,35,319.264,319.273,319.290292396,319.29,319.292,319.295,up,0,1.63684450574,-10,001,003,1920_1080,Intel(R) Core(TM) i5-3570 CPU @ 3.40GHz,orientation_search,LEPPC096,Intel(R) HD Graphics 2500,2018_Sep_26_1547,testMonitor,
29.2,21.8,22.9,33.1,36,-20,35.9,15.2,36.7,17.8,7.871,7.665,7.505,8.036,7.688,7.963,7.61,4.962,-5.188,-7.512,1.927,-1.48,7.708,4.777,-4.858,-8.242,34.3,25.6,-7.61,27.2,31.8,35.9,46.6,47.6,36,31.3,0,5,prime,10,0,96,norm,36,-5.225,down,norm,28.8027538208,44.5,32.0,16.3,37.4,1,48.2,21.3,28.9,10,5,8.073,4.983,1.807,-1.199,-5.06,-8.499,48.8,5,124.8,-8.285,-7.658,-20,-8.011,-7.765,-5.279,-4.737,-5.09,-4.744,4.559,7.695,1,-1.365,1.127,5.224,8.335,-8.218,-7.967,-1.38,1.94,27.8,28.0,32.5,35.9,,27.1,11.8,15.3,31.9,8.8,2,norm,1.548,1.49,-1.431,-1.297,-4.885,-5.016,-1.261,-1.328,-1.149,-1.442,1.727,-2.067,33.8,15.8,-5.064,-7.837,2.021,-1.581,8.436,4.841,-4.487,-7.557,10,4.912,4.448,4.552,5.228,1.892,1.515,1.632,1.879,10,4.616,5.142,0,113.594094379,norm,0,36,36,36,321.998,322.007,322.020200191,322.02,322.022,322.025,down,1,1.04532078616,8.95467921384,001,003,1920_1080,Intel(R) Core(TM) i5-3570 CPU @ 3.40GHz,orientation_search,LEPPC096,Intel(R) HD Graphics 2500,2018_Sep_26_1547,testMonitor,
17.6,28.3,26.9,44.6,36,-20,20.6,35.5,37.3,27.5,7.887,7.839,7.626,8.133,7.689,7.554,7.715,4.351,-5.29,-7.525,1.781,-1.237,8.219,4.469,-4.895,-7.623,,16.1,-7.842,30.0,20.1,32.6,19.2,10.1,36,48.8,5,5,prime,10,0,84,norm,36,-5.222,up,norm,28.8027538208,47.2,29.2,40.1,28.4,5,29.9,30.4,40.4,10,5,7.948,4.943,1.308,-2.015,-4.983,-7.656,8.8,5,112.8,-7.957,-8.329,-20,-7.954,-7.666,-4.742,-4.516,-4.324,-4.342,4.311,7.992,35,-1.826,1.569,4.45,8.281,-8.234,-7.879,-1.476,1.296,24.9,25.3,30.0,30.1,17.9,12.5,42.3,19.8,40.9,39.4,3,norm,1.223,1.514,-1.418,-1.248,-4.362,-4.988,-1.855,-1.89,-1.754,-1.801,1.67,-1.203,20.9,44.0,-5.2,-7.562,1.948,-1.27,7.753,4.38,-4.313,-7.968,10,5.105,4.496,5.217,5.249,1.697,1.871,1.242,1.159,10,4.426,4.995,0,113.594094379,norm,0,37,37,37,323.113,323.122,323.128745504,323.129,323.131,323.133,up,1,0.860285685912,9.13971431409,001,003,1920_1080,Intel(R) Core(TM) i5-3570 CPU @ 3.40GHz,orientation_search,LEPPC096,Intel(R) HD Graphics 2500,2018_Sep_26_1547,testMonitor,
33.4,9.7,28.3,8.8,36,-20,28.6,20.3,28.4,18.6,7.543,8.431,8.223,8.496,7.821,8.216,7.558,4.753,-4.667,-8.289,1.697,-1.871,7.713,4.464,-5.241,-7.767,30.1,43.5,-7.72,29.1,43.1,37.9,24.7,,36,31.4,4,5,prime,10,0,100,norm,36,-5.07,down,norm,28.8027538208,32.7,35.5,34.9,26.7,2,19.7,32.0,30.0,10,5,8.219,4.963,1.984,-1.509,-4.96,-7.689,41.7,5,128.8,-8.318,-7.831,-20,-8.215,-8.494,-5.178,-5.262,-4.503,-4.428,5.22,7.763,26,-1.951,2.05,5.188,8.215,-8.496,-8.421,-1.374,1.117,41.6,36.4,13.7,19.7,16.6,41.5,27.5,9.5,48.8,31.2,4,norm,2.096,2.098,-1.581,-1.904,-4.593,-4.776,-2.07,-1.11,-1.257,-1.372,1.797,-1.104,25.4,28.8,-5.014,-8.144,1.356,-1.429,8.49,5.257,-5.018,-7.606,10,4.527,4.839,4.656,4.665,1.635,1.75,1.854,1.703,10,5.216,4.38,0,113.594094379,norm,0,38,38,38,324.033,324.043,324.0491476,324.049,324.051,324.054,down,1,2.41982089015,7.58017910985,001,003,1920_1080,Intel(R) Core(TM) i5-3570 CPU @ 3.40GHz,orientation_search,LEPPC096,Intel(R) HD Graphics 2500,2018_Sep_26_1547,testMonitor,
85.3,73.4,83.6,82.4,36,60,80.0,71.8,77.2,77.9,7.886,8.195,8.494,8.394,7.912,7.82,7.839,4.731,-5.234,-8.036,2.014,-1.891,7.671,5.117,-4.508,-7.902,88.3,68.9,-7.828,75.4,82.0,88.9,73.7,71.0,36,80.4,1,5,probe,5,0,74,norm,36,-4.443,down,norm,78.8502229285,69.1,78.8,71.2,79.8,2,79.5,80.1,84.0,10,5,8.006,4.872,1.971,-1.842,-5.211,-8.486,75.1,1,4.9,-8.236,-8.307,-20,-7.74,-7.947,-5.071,-4.462,-4.912,-4.821,4.706,8.122,8,-1.11,1.391,5.147,8.052,-8.012,-8.143,-1.183,2.059,75.5,,81.0,78.2,86.5,73.4,73.2,72.5,75.4,83.9,0,norm,1.379,1.856,-1.947,-1.378,-4.688,-4.928,-1.29,-1.933,-1.357,-1.451,1.418,-1.137,76.7,73.4,-5.187,-8.036,1.181,-1.592,7.69,4.483,-4.663,-8.2,11,5.158,4.423,4.714,5.251,1.535,1.396,1.12,1.383,11,4.394,4.493,-20,28.8027538208,norm,0,39,39,39,326.514,326.534,326.546091854,326.546,326.548,326.551,up,0,3.07796068687,-10,001,003,1920_1080,Intel(R) Core(TM) i5-3570 CPU @ 3.40GHz,orientation_search,LEPPC096,Intel(R) HD Graphics 2500,2018_Sep_26_1547,testMonitor,
84.3,82.9,113.0,89.2,36,20,78.7,85.0,91.0,98.3,7.915,7.719,7.981,8.13,8.101,8.086,7.685,5.05,-5.135,-8.036,1.687,-1.698,7.613,5.268,-4.412,-8.063,96.5,91.9,-7.769,97.4,95.7,,101.4,86.9,36,81.4,5,5,prime,10,0,81,norm,36,-4.677,up,norm,93.0272413837,101.3,99.0,111.9,86.0,3,91.1,97.8,89.7,10,5,8.296,4.47,1.485,-1.316,-5.251,-7.972,97.8,5,174.0,-8.422,-7.718,20,-8.324,-8.447,-5.099,-4.396,-4.997,-4.355,4.687,7.556,33,-1.524,1.69,4.955,8.3,-8.028,-7.724,-1.818,1.808,94.5,89.6,90.6,73.0,81.6,99.3,82.6,88.4,90.6,100.6,0,norm,2.049,1.231,-1.922,-1.836,-4.714,-4.422,-1.746,-1.268,-1.303,-1.775,1.784,-1.766,101.8,96.7,-4.67,-7.973,1.823,-1.316,8.406,5.293,-5.154,-8.392,12,4.303,4.391,5.148,4.541,1.702,1.384,1.989,1.697,12,4.767,4.939,60,28.8027538208,norm,0,40,40,40,330.682,330.692,330.709006414,330.709,330.711,330.713,down,0,4.03909519614,-10,001,003,1920_1080,Intel(R) Core(TM) i5-3570 CPU @ 3.40GHz,orientation_search,LEPPC096,Intel(R) HD Graphics 2500,2018_Sep_26_1547,testMonitor,
92.5,94.9,87.1,98.4,36,20,99.2,93.2,90.2,84.2,7.646,7.929,7.568,8.278,8.169,7.805,7.814,4.81,-4.814,-8.456,1.3,-1.154,8.129,5.261,-4.546,-7.536,104.9,88.4,-8.4,102.6,84.9,92.2,92.4,88.3,36,103.3,2,5,prime,10,0,86,norm,36,-4.731,up,norm,93.0272413837,,107.9,90.9,79.1,5,73.0,95.5,87.3,10,5,8.218,4.326,1.336,-1.123,-4.7,-8.052,92.3,5,179.0,-7.782,-7.939,20,-8.152,-8.498,-4.727,-4.943,-4.721,-5.007,4.339,7.701,17,-1.499,1.27,5.179,7.934,-8.358,-7.649,-1.506,1.677,80.5,79.7,107.8,83.7,83.0,91.2,100.3,95.7,97.6,79.4,1,norm,1.115,1.312,-2.006,-1.166,-4.329,-4.803,-2.067,-1.703,-1.194,-1.157,1.256,-1.777,113.0,96.1,-5.058,-7.539,1.258,-1.631,7.982,4.6,-4.433,-7.903,12,5.232,4.408,4.434,4.406,1.874,1.173,1.692,1.318,12,5.119,5.084,60,28.8027538208,norm,0,41,41,41,335.819,335.829,335.841208063,335.841,335.843,335.846,up,1,2.76702770561,7.23297229439,001,003,1920_1080,Intel(R) Core(TM) i5-3570 CPU @ 3.40GHz,orientation_search,LEPPC096,Intel(R) HD Graphics 2500,2018_Sep_26_1547,testMonitor,
92.3,96.2,91.0,110.0,36,20,104.9,91.4,101.9,91.7,8.378,8.073,7.583,7.523,7.547,8.352,7.766,4.622,-4.481,-7.798,1.403,-1.915,7.76,4.492,-4.572,-7.709,93.9,81.0,-7.74,106.0,86.8,108.1,105.6,91.5,36,100.6,0,5,prime,10,0,69,norm,36,-5.242,down,norm,93.0272413837,93.4,99.5,110.8,103.4,2,80.7,94.9,85.9,10,5,7.769,4.675,1.57,-1.571,-4.839,-8.463,79.8,5,162.0,-7.559,-7.652,20,-7.531,-8.41,-5.082,-4.57,-4.817,-5.006,5.037,7.99,2,-1.517,1.968,5.034,8.394,-8.207,-7.531,-1.352,1.275,99.5,87.1,93.8,,92.8,113.0,100.4,90.6,73.0,106.6,2,norm,1.998,1.775,-1.57,-2.061,-5.037,-5.007,-1.503,-1.236,-1.99,-1.699,2.002,-1.263,81.6,103.5,-4.716,-8.403,1.146,-2.063,8.432,4.857,-4.718,-7.987,12,4.76,5.133,4.811,4.911,1.347,1.368,1.915,1.636,12,4.39,5.028,60,28.8027538208,norm,0,42,42,42,338.646,338.655,338.664637954,338.665,338.667,338.669,down,1,4.74211025316,5.25788974684,001,003,1920_1080,Intel(R) Core(TM) i5-3570 CPU @ 3.40GHz,orientation_search,LEPPC096,Intel(R) HD Graphics 2500,2018_Sep_26_1547,testMonitor,
84.2,,92.1,95.0,36,20,73.0,101.1,85.0,88.5,7.773,8.375,7.983,8.327,8.096,7.752,8.226,4.419,-4.839,-7.982,1.752,-1.9,8.395,5.193,-5.216,-8.415,97.0,101.7,-8.468,89.8,102.6,102.0,90.0,102.2,36,92.7,3,5,prime,10,0,95,norm,36,-4.657,up,norm,93.0272413837,109.4,92.4,105.8,103.3,5,85.5,92.0,93.7,10,5,8.088,4.461,2.036,-1.264,-5.116,-8.079,82.4,5,188.0,-8.318,-8.396,20,-7.794,-8.216,-4.786,-4.444,-4.566,-5.059,4.859,7.693,23,-1.688,1.137,5.204,8.014,-7.773,-8.313,-1.986,1.346,86.7,81.8,99.3,111.6,96.1,86.2,94.4,104.1,105.4,96.9,3,norm,1.776,1.339,-1.855,-1.281,-4.359,-5.1,-1.667,-1.178,-2.043,-1.259,1.999,-1.331,113.0,76.5,-4.44,-7.586,1.106,-1.227,8.35,5.289,-4.339,-8.252,12,4.474,4.527,4.613,5.227,1.701,1.725,2.068,1.476,12,4.484,4.591,60,28.8027538208,norm,0,43,43,43,343.444,343.453,343.469264602,343.469,343.471,343.474,down,0,3.42765049402,-10,001,003,1920_1080,Intel(R) Core(TM) i5-3570 CPU @ 3.40GHz,orientation_search,LEPPC096,Intel(R) HD Graphics 2500,2018_Sep_26_1547,testMonitor,
82.4,90.5,94.7,87.9,36,20,97.7,88.5,103.9,90.2,7.983,8.468,8.017,7.915,7.592,7.842,8.382,4.773,-4.347,-8.044,1.289,-1.217,8.001,4.986,-4.626,-7.81,90.4,,-7.529,82.1,94.7,103.0,85.4,80.3,36,101.2,5,5,prime,10,0,88,norm,36,-5.107,up,norm,93.0272413837,88.0,73.0,98.0,110.6,4,113.0,96.8,96.5,10,5,7.916,4.528,1.316,-1.304,-4.698,-8.131,95.7,5,181.0,-8.361,-8.141,20,-8.144,-8.205,-4.829,-5.263,-5.095,-4.517,5.116,7.737,34,-1.837,1.582,4.822,8.202,-8.097,-7.679,-1.185,1.539,92.8,90.2,103.3,109.5,96.9,81.9,86.0,104.5,98.2,93.5,4,norm,1.145,2.07,-1.203,-1.14,-4.624,-5.189,-1.786,-1.573,-1.766,-1.828,1.809,-1.119,88.3,76.8,-5.089,-8.361,1.254,-1.777,8.343,4.767,-4.494,-8.471,12,5.299,5.163,4.675,5.199,1.525,1.992,1.106,1.881,12,5.087,4.315,60,28.8027538208,norm,0,44,44,44,347.952,347.961,347.97745295,347.978,347.979,347.982,up,1,1.67031237219,8.32968762781,001,003,1920_1080,Intel(R) Core(TM) i5-3570 CPU @ 3.40GHz,orientation_search,LEPPC096,Intel(R) HD Graphics 2500,2018_Sep_26_1547,testMonitor,
216.5,220.1,220.3,227.8,36,-80,213.3,221.6,218.9,222.6,8.424,8.24,8.137,7.926,8.32,7.682,7.751,5.075,-5.244,-8.08,1.908,-1.243,7.869,4.598,-4.455,-8.247,211.7,217.6,-7.752,215.6,228.8,214.4,220.8,216.1,36,214.0,0,5,probe,5,0,103,norm,36,-5.264,up,norm,220.571311616,222.8,221.5,217.3,230.6,4,219.3,220.4,225.0,10,5,7.95,4.669,1.413,-1.742,-4.797,-7.595,221.4,2,117.6,-7.72,-7.527,20,-8.069,-7.639,-4.865,-4.706,-5.171,-4.976,4.969,8.241,4,-1.252,2.061,4.537,8.028,-7.818,-7.805,-1.737,1.382,219.9,213.0,225.8,211.2,221.4,219.4,226.8,220.6,228.1,,0,norm,1.846,1.741,-1.955,-1.457,-5.022,-5.235,-1.935,-1.723,-1.337,-1.671,1.485,-1.531,216.0,210.6,-4.42,-7.518,1.899,-1.665,8.337,4.963,-4.873,-7.972,13,4.511,4.403,4.355,5.1,1.514,1.834,1.334,1.487,13,4.342,4.328,20,93.0272413837,norm,0,45,45,45,349.685,349.694,349.708862433,349.709,349.711,349.713,up,1,2.38583686569,7.61416313431,001,003,1920_1080,Intel(R) Core(TM) i5-3570 CPU @ 3.40GHz,orientation_search,LEPPC096,Intel(R) HD Graphics 2500,2018_Sep_26_1547,testMonitor,
219.3,225.1,224.0,228.8,36,-80,218.1,225.8,226.6,220.6,7.929,8.161,7.954,7.518,7.68,8.123,8.405,4.802,-4.899,-8.428,1.359,-1.161,8.011,4.727,-4.746,-7.884,226.8,230.9,-7.74,224.6,228.0,214.6,234.2,226.2,36,227.0,0,5,probe,5,0,107,norm,36,-4.311,down,norm,224.571311616,223.6,223.8,226.1,227.7,0,221.7,221.2,222.1,10,5,8.116,5.285,1.743,-1.205,-4.69,-7.978,225.8,2,117.6,-8.239,-8.442,20,-7.655,-8.37,-5.278,-4.61,-4.987,-4.498,4.345,7.977,0,-1.545,1.476,5.008,7.859,-8.124,-8.313,-1.939,1.89,228.6,230.6,234.6,224.8,221.3,,221.1,219.3,224.4,220.1,1,norm,1.721,1.956,-1.385,-2.035,-4.794,-5.194,-1.142,-1.886,-2.062,-1.482,1.109,-1.799,216.4,224.2,-4.365,-8.498,1.854,-1.628,7.749,4.911,-4.895,-7.997,13,4.719,4.823,5.017,4.851,1.962,1.695,1.8,1.953,13,4.412,5.049,20,93.0272413837,norm,0,46,46,46,352.132,352.141,352.157959141,352.158,352.16,352.162,down,1,1.14421545341,8.85578454659,001,003,1920_1080,Intel(R) Core(TM) i5-3570 CPU @ 3.40GHz,orientation_search,LEPPC096,Intel(R) HD Graphics 2500,2018_Sep_26_1547,testMonitor,
174.3,175.2,194.7,173.3,36,-10,167.4,174.6,196.0,171.6,8.107,7.644,7.746,7.541,8.49,8.444,8.391,4.661,-4.971,-8.065,1.129,-1.778,8.035,4.774,-4.703,-8.478,190.2,189.0,-7.964,,166.6,185.5,173.3,181.8,36,175.2,5,5,prime,10,0,70,norm,36,-4.839,down,norm,182.652557999,182.8,184.3,202.2,188.9,1,172.8,193.8,188.9,10,5,7.636,4.311,1.82,-2.024,-4.529,-8.211,180.7,5,252.7,-7.918,-8.17,-10,-7.875,-7.659,-4.803,-4.905,-4.812,-5.198,4.434,8.2,31,-1.615,1.84,5.211,7.583,-8.17,-7.988,-1.977,1.455,181.3,200.0,162.7,195.3,176.7,185.0,165.8,184.9,182.7,184.1,0,norm,1.318,1.451,-1.103,-1.385,-4.693,-4.891,-1.449,-1.866,-2.009,-1.913,1.804,-1.134,202.3,185.1,-4.638,-8.038,1.585,-1.767,7.594,4.663,-4.302,-8.077,14,4.533,4.759,5.007,4.832,1.34,1.367,2.028,1.24,14,5.052,4.417,-80,93.0272413837,norm,0,47,47,47,353.344,353.358,353.376908841,353.377,353.38,353.383,up,0,1.83585028279,-10,001,003,1920_1080,Intel(R) Core(TM) i5-3570 CPU @ 3.40GHz,orientation_search,LEPPC096,Intel(R) HD Graphics 2500,2018_Sep_26_1547,testMonitor,
190.6,186.2,202.0,184.1,36,-10,186.0,194.8,162.7,176.2,7.764,7.875,7.778,8.372,8.38,7.522,8.2,4.584,-5.183,-7.782,2.034,-1.416,7.997,5.281,-4.397,-7.858,171.9,179.3,-8.003,194.4,175.7,169.0,182.9,,36,186.1,4,5,prime,10,0,75,norm,36,-4.724,down,norm,182.652557999,182.3,181.5,183.4,171.8,2,180.7,176.0,201.6,10,5,7.71,4.945,1.492,-1.318,-4.316,-7.585,167.4,5,257.7,-8.279,-7.693,-10,-7.611,-8.385,-5.044,-4.394,-4.494,-4.748,4.81,8.276,26,-1.134,1.288,4.422,8.436,-8.351,-8.354,-1.916,2.052,202.7,188.6,177.0,182.0,184.0,191.0,178.1,165.7,187.4,185.9,1,norm,1.421,1.564,-1.507,-2.065,-4.685,-4.435,-1.507,-1.999,-1.924,-1.694,2.095,-1.182,184.7,177.5,-4.852,-8.167,1.87,-1.604,8.054,4.527,-5.16,-7.894,14,5.059,4.806,4.537,4.794,1.632,1.896,1.406,1.881,14,4.724,4.857,-80,93.0272413837,norm,0,48,48,48,356.285,356.295,356.307486193,356.308,356.309,356.312,down,1,2.921468219,7.078531781,001,003,1920_1080,Intel(R) Core(TM) i5-3570 CPU @ 3.40GHz,orientation_search,LEPPC096,Intel(R) HD Graphics 2500,2018_Sep_26_1547,testMonitor,
168.1,171.8,189.8,169.4,36,-10,184.9,188.6,179.0,169.9,7.966,8.013,8.295,8.463,8.322,7.958,7.741,4.706,-4.876,-8.25,1.958,-1.271,8.323,4.853,-5.178,-7.602,189.1,168.2,-8.485,182.8,179.6,177.5,195.5,189.9,36,179.2,2,5,prime,10,0,113,norm,36,-5.171,down,norm,182.652557999,187.1,183.5,177.2,,2,202.7,172.8,181.6,10,5,7.951,5.047,2.079,-1.888,-5.003,-7.876,179.5,5,295.7,-8.226,-7.679,-10,-8.175,-7.885,-4.684,-5.291,-4.539,-4.93,5.228,7.723,14,-2.001,1.673,4.439,8.297,-8.116,-8.462,-1.624,1.705,189.2,181.6,199.2,183.3,180.9,185.8,177.4,180.9,165.7,175.3,2,norm,1.75,1.883,-1.9,-1.552,-4.681,-4.597,-1.49,-1.574,-1.967,-1.219,2.01,-1.96,162.7,184.5,-5.047,-8.288,1.355,-1.886,8.355,4.452,-4.933,-8.235,14,4.337,4.507,5.003,4.946,2.038,1.416,1.908,1.753,14,5.165,4.42,-80,93.0272413837,norm,0,49,49,49,359.272,359.286,359.304654266,359.305,359.308,359.313,down,1,4.84788491427,5.15211508573,001,003,1920_1080,Intel(R) Core(TM) i5-3570 CPU @ 3.40GHz,orientation_search,LEPPC096,Intel(R) HD Graphics 2500,2018_Sep_26_1547,testMonitor,
174.3,175.6,196.7,197.9,36,-10,202.7,177.4,169.3,177.8,7.872,7.598,7.574,7.639,7.823,7.592,8.097,4.452,-4.562,-8.482,1.775,-1.275,8.047,4.459,-4.36,-8.437,187.8,178.2,-8.47,186.2,188.3,189.7,194.4,190.8,36,187.5,1,5,prime,10,0,73,norm,36,-4.574,down,norm,182.652557999,184.7,177.3,189.2,178.6,0,178.8,186.7,172.8,10,5,7.54,4.943,1.582,-1.234,-4.419,-8.242,198.1,5,255.7,-8.188,-8.278,-10,-7.804,-7.63,-4.877,-5.136,-5.202,-5.137,5.268,7.642,6,-1.983,2.062,4.672,7.693,-8.304,-7.694,-1.17,1.58,191.3,182.0,178.3,173.8,193.5,183.4,162.7,,189.5,187.5,3,norm,2.081,1.32,-1.909,-1.529,-4.537,-5.137,-1.84,-1.583,-1.658,-1.341,1.308,-1.646,187.2,190.6,-4.936,-8.132,1.647,-1.356,8.349,4.384,-4.352,-7.555,14,4.864,4.682,5.08,4.621,1.403,1.798,1.953,1.761,14,4.601,4.762,-80,93.0272413837,norm,0,50,50,50,364.201,364.212,364.217540377,364.218,364.22,364.223,down,1,2.68536637711,7.31463362289,001,003,1920_1080,Intel(R) Core(TM) i5-3570 CPU @ 3.40GHz,orientation_search,LEPPC096,Intel(R) HD Graphics 2500,2018_Sep_26_1547,testMonitor,
165.5,188.4,172.6,170.5,36,-10,162.7,,180.6,187.0,7.918,8.209,8.303,8.241,7.848,8.074,8.046,4.799,-5.261,-7.722,1.309,-1.119,8.391,4.448,-5.069,-8.138,189.1,179.8,-7.612,187.6,202.4,202.1,173.2,174.4,36,192.2,4,5,prime,10,0,63,norm,36,-4.547,down,norm,182.652557999,171.7,199.0,202.7,173.7,1,191.3,182.0,192.2,10,5,7.624,4.98,1.12,-1.64,-4.518,-7.897,177.6,5,245.7,-7.67,-7.83,-10,-7.997,-8.095,-4.48,-5.208,-4.8,-4.551,5.098,8.189,25,-1.304,1.636,4.886,7.761,-7.964,-8.158,-1.35,1.727,191.8,191.3,182.9,195.3,179.4,175.2,187.3,172.6,184.8,200.3,4,norm,1.73,1.269,-2.095,-1.3,-4.342,-5.056,-1.963,-1.191,-1.369,-2.036,2.0,-1.88,190.2,182.5,-4.738,-8.239,1.253,-1.641,7.682,4.371,-5.14,-8.253,14,5.07,4.562,4.38,4.367,1.588,1.622,1.632,1.256,14,4.444,4.915,-80,93.0272413837,norm,0,51,51,51,366.941,366.951,366.961799176,366.962,366.964,366.966,up,0,3.54813988425,-10,001,003,1920_1080,Intel(R) Core(TM) i5-3570 CPU @ 3.40GHz,orientation_search,LEPPC096,Intel(R) HD Graphics 2500,2018_Sep_26_1547,testMonitor,
284.7,290.3,286.1,285.2,36,30,285.1,286.0,,283.6,8.187,7.583,7.532,7.949,7.978,8.492,8.165,4.842,-5.256,-8.03,1.999,-1.172,7.539,4.945,-4.567,-7.858,297.8,287.8,-8.199,282.8,291.0,278.6,289.6,293.3,36,285.0,4,5,probe,5,0,111,norm,36,-5.294,up,norm,287.783155538,285.0,280.8,291.9,289.1,4,293.1,292.2,292.8,10,5,7.63,4.435,1.168,-1.498,-5.087,-8.399,288.8,2,176.8,-7.756,-8.015,-10,-7.803,-7.526,-5.177,-5.043,-4.547,-4.366,5.022,8.425,28,-1.145,1.105,4.328,8.281,-7.706,-8.265,-1.28,1.854,286.6,290.3,293.2,284.7,284.0,284.4,281.1,288.2,277.8,289.4,0,norm,1.833,1.957,-1.423,-1.665,-4.943,-4.365,-2.075,-1.998,-1.342,-1.814,1.386,-1.369,278.0,288.0,-4.44,-7.86,1.362,-1.623,8.102,4.72,-4.323,-8.287,15,4.901,5.094,5.185,4.37,1.56,2.015,1.908,1.96,15,4.822,4.982,-10,182.652557999,norm,0,52,52,52,371.583,371.592,371.610425969,371.611,371.612,371.615,up,1,1.48531862494,8.51468137506,001,003,1920_1080,Intel(R) Core(TM) i5-3570 CPU @ 3.40GHz,orientation_search,LEPPC096,Intel(R) HD Graphics 2500,2018_Sep_26_1547,testMonitor,
273.8,269.1,275.8,263.5,36,30,270.2,277.3,280.8,269.9,8.215,8.44,8.088,7.842,7.975,8.454,7.784,4.658,-4.896,-8.484,1.257,-1.632,7.627,4.4,-4.86,-7.884,275.8,268.3,-8.014,275.7,273.6,280.5,265.5,268.4,36,276.9,2,5,probe,5,0,94,norm,36,-4.967,up,norm,270.783155538,266.8,267.7,,266.1,3,269.4,267.1,270.8,10,5,7.853,4.986,1.871,-1.984,-5.078,-8.196,264.4,2,176.8,-8.306,-7.621,-10,-8.459,-8.48,-4.381,-4.629,-4.661,-4.719,4.988,7.59,15,-1.477,1.848,4.432,7.551,-7.581,-7.993,-1.448,2.007,276.2,268.4,273.2,270.4,273.7,272.7,272.4,269.0,260.8,272.2,1,norm,1.809,1.456,-1.619,-2.008,-5.262,-4.59,-1.729,-1.695,-1.867,-1.453,2.037,-2.041,270.4,277.0,-5.091,-8.092,1.327,-1.831,8.435,4.389,-4.44,-7.669,15,4.309,4.996,4.429,4.847,1.934,1.307,1.564,1.44,15,4.483,4.631,-10,182.652557999,norm,0,53,53,53,373.14,373.149,373.155615603,373.156,373.158,373.16,up,1,2.50028720722,7.49971279278,001,003,1920_1080,Intel(R) Core(TM) i5-3570 CPU @ 3.40GHz,orientation_search,LEPPC096,Intel(R) HD Graphics 2500,2018_Sep_26_1547,testMonitor,
179.8,170.0,187.6,173.5,36,40,166.6,176.4,166.6,166.4,8.27,8.292,8.243,8.014,7.574,7.62,8.27,4.59,-5.037,-8.372,1.848,-1.889,7.548,4.781,-4.464,-8.064,161.5,167.1,-8.011,164.1,176.8,179.1,177.3,,36,168.3,4,5,prime,10,0,80,norm,36,-4.512,down,norm,170.677539672,176.7,175.7,159.8,176.3,2,174.9,187.3,190.7,10,6,8.488,5.224,1.857,-2.015,-4.762,-7.848,157.8,6,250.7,-7.578,-7.939,40,-8.039,-7.708,-5.286,-5.291,-4.622,-4.476,4.324,8.384,26,-1.326,1.479,5.153,8.083,-8.097,-8.266,-1.973,1.659,176.8,173.8,178.8,182.2,162.0,181.5,162.2,180.8,180.5,161.1,0,norm,1.777,1.524,-1.803,-1.845,-4.854,-4.367,-2.073,-1.639,-1.466,-1.829,1.694,-1.144,157.6,150.7,-4.996,-7.948,1.922,-1.647,7.557,4.339,-4.468,-7.655,16,4.676,4.693,5.284,4.867,1.627,1.565,1.45,1.838,16,4.712,4.946,30,182.652557999,norm,0,54,54,54,375.698,375.708,375.713869166,375.714,375.716,375.718,down,1,1.4667324089,8.5332675911,001,003,1920_1080,Intel(R) Core(TM) i5-3570 CPU @ 3.40GHz,orientation_search,LEPPC096,Intel(R) HD Graphics 2500,2018_Sep_26_1547,testMonitor,
167.9,169.5,180.4,174.6,36,40,150.7,180.0,177.1,172.5,7.706,8.305,8.266,8.209,8.051,8.497,8.182,4.878,-4.753,-8.071,1.926,-1.636,7.615,5.008,-4.547,-7.598,183.6,172.4,-7.841,164.6,163.7,157.9,190.7,167.1,36,156.6,2,5,prime,10,0,83,norm,36,-4.705,up,norm,170.677539672,165.7,,163.2,170.4,4,167.5,175.4,158.8,10,6,8.217,5.223,1.392,-1.232,-5.273,-8.464,161.2,6,253.7,-7.626,-8.314,40,-8.222,-8.472,-4.348,-5.084,-5.068,-4.517,4.505,8.127,16,-1.69,1.297,4.537,7.538,-7.55,-7.946,-1.637,1.346,169.4,179.6,179.2,177.6,168.3,179.7,173.9,185.3,188.1,168.3,1,norm,2.037,1.759,-1.713,-1.492,-4.549,-5.155,-1.944,-1.138,-1.745,-1.223,1.665,-1.711,174.9,177.7,-4.76,-7.821,1.925,-1.5,7.725,4.393,-4.636,-8.249,16,4.413,4.307,4.65,5.184,1.895,1.788,1.854,1.53,16,4.542,5.158,30,182.652557999,norm,0,55,55,55,377.227,377.237,377.257229306,377.257,377.259,377.262,up,1,1.48493437398,8.51506562602,001,003,1920_1080,Intel(R) Core(TM) i5-3570 CPU @ 3.40GHz,orientation_search,LEPPC096,Intel(R) HD Graphics 2500,2018_Sep_26_1547,testMonitor,
165.8,183.0,173.8,178.7,36,40,159.2,161.0,190.7,181.2,8.386,8.055,7.777,7.644,7.64,7.564,7.908,5.15,-4.323,-7.895,1.149,-1.481,7.928,5.179,-4.44,-7.624,172.7,163.3,-7.806,172.9,181.0,173.4,160.1,159.9,36,183.5,1,5,prime,10,0,64,norm,36,-4.624,down,norm,170.677539672,164.2,163.0,170.5,178.6,1,150.7,182.8,176.4,10,6,7.892,5.236,1.974,-1.934,-4.563,-8.456,170.3,6,234.7,-8.288,-7.746,40,-7.777,-8.125,-4.723,-4.458,-4.56,-4.334,5.047,7.839,7,-1.953,2.025,4.378,7.964,-7.85,-7.598,-1.132,1.499,170.0,186.4,168.7,154.3,161.5,175.7,,177.9,181.9,159.8,2,norm,1.509,1.462,-1.912,-1.223,-4.546,-5.166,-1.397,-1.992,-1.747,-1.616,1.268,-1.581,167.5,175.4,-4.754,-7.605,1.107,-1.912,8.203,5.088,-5.243,-7.784,16,4.482,5.258,4.993,4.823,1.549,1.672,1.911,1.448,16,4.974,4.474,30,182.652557999,norm,0,56,56,56,378.787,378.796,378.803717787,378.804,378.806,378.808,down,1,2.16235252143,7.83764747857,001,003,1920_1080,Intel(R) Core(TM) i5-3570 CPU @ 3.40GHz,orientation_search,LEPPC096,Intel(R) HD Graphics 2500,2018_Sep_26_1547,testMonitor,
172.1,176.0,172.3,150.7,36,40,178.6,163.3,178.3,165.8,7.776,8.35,7.961,7.628,7.901,8.316,7.657,5.08,-4.535,-7.74,1.341,-1.355,8.175,4.479,-4.779,-8.428,175.9,168.4,-7.564,184.5,178.4,184.3,164.8,164.1,36,152.8,0,5,prime,10,0,72,norm,36,-4.768,up,norm,170.677539672,158.5,182.9,171.6,177.9,5,171.8,165.3,169.2,10,6,8.298,4.434,1.53,-1.694,-4.6,-8.497,182.6,6,242.7,-7.933,-8.417,40,-8.13,-7.576,-4.504,-4.645,-4.889,-4.662,4.323,8.197,5,-1.666,1.316,4.592,7.85,-8.346,-8.396,-1.136,1.434,184.1,180.4,162.1,165.5,181.5,183.1,190.7,165.2,,174.2,3,norm,1.858,1.856,-1.944,-1.709,-4.792,-4.862,-1.686,-1.89,-1.742,-1.316,1.658,-1.419,159.2,158.0,-4.932,-8.175,1.502,-1.127,7.95,5.277,-4.616,-8.171,16,5.019,5.067,5.059,4.497,1.284,1.199,1.212,1.952,16,4.693,4.391,30,182.652557999,norm,0,57,57,57,380.988,380.997,381.016775739,381.017,381.019,381.021,up,1,2.3691030834,7.6308969166,001,003,1920_1080,Intel(R) Core(TM) i5-3570 CPU @ 3.40GHz,orientation_search,LEPPC096,Intel(R) HD Graphics 2500,2018_Sep_26_1547,testMonitor,
165.5,183.0,171.8,155.9,36,40,155.2,153.7,162.5,186.4,7.543,7.709,7.731,8.389,8.077,7.771,7.951,4.522,-5.221,-7.955,1.352,-1.449,7.917,4.382,-5.176,-7.819,175.0,160.3,-7.785,163.2,190.7,179.4,173.2,,36,153.9,4,5,prime,10,0,77,norm,36,-4.375,down,norm,170.677539672,176.5,174.2,165.7,173.0,2,162.7,159.2,157.8,10,6,8.052,4.76,1.449,-1.793,-5.231,-8.095,168.9,6,247.7,-8.443,-7.993,40,-7.637,-8.465,-4.959,-4.511,-5.105,-4.382,4.671,7.865,26,-1.404,1.415,4.641,7.695,-8.499,-7.663,-1.195,1.244,180.3,178.9,167.5,176.1,178.1,181.0,169.8,169.6,150.7,172.8,4,norm,1.475,1.254,-1.113,-1.466,-4.437,-5.276,-1.918,-2.088,-1.711,-1.12,1.565,-1.278,164.8,177.0,-4.78,-8.252,1.444,-2.056,7.986,4.371,-4.657,-8.034,16,4.353,5.234,4.456,4.508,1.302,1.437,1.421,1.724,16,4.579,4.875,30,182.652557999,norm,0,58,58,58,383.423,383.432,383.450202373,383.45,383.452,383.455,down,1,1.9074420024,8.0925579976,001,003,1920_1080,Intel(R) Core(TM) i5-3570 CPU @ 3.40GHz,orientation_search,LEPPC096,Intel(R) HD Graphics 2500,2018_Sep_26_1547,testMonitor,
164.6,164.6,181.2,174.2,36,40,168.3,177.2,158.7,178.4,7.554,8.344,8.138,7.702,7.617,8.324,7.805,4.69,-4.5,-7.941,1.314,-1.183,7.866,5.231,-5.011,-7.715,167.4,150.7,-7.686,162.8,183.1,162.9,190.7,181.2,36,161.0,2,5,prime,10,0,92,norm,36,-4.937,up,norm,170.677539672,,176.8,178.6,178.4,5,162.6,173.6,183.2,10,6,8.215,5.266,1.497,-1.946,-4.487,-8.064,175.8,6,262.7,-8.487,-8.193,40,-7.94,-8.255,-4.387,-4.375,-4.808,-5.062,4.637,8.006,17,-2.043,1.596,4.604,7.551,-7.775,-8.115,-1.577,1.575,184.0,181.2,163.6,168.9,172.8,182.6,179.1,165.1,164.1,187.0,5,norm,2.013,1.444,-1.623,-1.831,-4.992,-4.687,-1.828,-1.273,-1.233,-1.885,1.794,-1.223,170.9,179.9,-5.075,-8.489,1.808,-1.757,8.211,4.677,-4.773,-7.647,16,5.258,4.459,5.171,4.931,1.993,1.756,1.224,2.082,16,4.743,4.929,30,182.652557999,norm,0,59,59,59,385.395,385.405,385.415680156,385.416,385.418,385.42,up,1,1.57167759503,8.42832240497,001,003,1920_1080,Intel(R) Core(TM) i5-3570 CPU @ 3.40GHz,orientation_search,LEPPC096,Intel(R) HD Graphics 2500,2018_Sep_26_1547,testMonitor,
319.8,326.6,331.0,318.2,36,-30,327.1,329.5,315.8,325.1,7.593,7.697,8.303,7.621,7.772,7.515,8.35,5.032,-4.679,-7.974,1.873,-2.055,8.453,4.594,-4.713,-7.503,325.4,319.9,-8.415,328.9,316.6,317.2,323.8,325.2,36,332.0,0,5,probe,5,0,107,norm,36,-4.533,down,norm,324.391838362,331.2,333.0,322.9,324.3,2,321.2,327.7,330.2,10,6,8.116,4.365,1.794,-1.998,-4.56,-8.442,333.2,1,217.4,-7.934,-7.541,40,-8.41,-7.856,-5.055,-4.306,-4.336,-4.652,4.44,7.782,2,-1.508,1.306,5.255,8.036,-8.328,-8.23,-1.854,1.914,320.5,325.2,317.2,,320.0,322.0,334.4,329.2,333.6,325.6,0,norm,1.813,1.399,-1.361,-1.62,-4.453,-4.748,-1.176,-1.752,-2.069,-1.596,1.299,-1.4,314.4,315.8,-5.148,-8.205,2.033,-1.477,7.84,5.161,-5.217,-7.873,17,5.091,5.204,5.292,4.418,2.051,1.175,1.479,1.624,17,4.572,5.066,40,170.677539672,norm,0,60,60,60,387.009,387.019,387.024595382,387.025,387.026,387.029,down,1,1.67021064982,8.32978935018,001,003,1920_1080,Intel(R) Core(TM) i5-3570 CPU @ 3.40GHz,orientation_search,LEPPC096,Intel(R) HD Graphics 2500,2018_Sep_26_1547,testMonitor,
16.9,3.9,12.0,1.5,36,30,3.2,6.0,31.9,32.9,7.79,7.951,8.017,8.341,8.241,8.33,7.885,4.942,-4.305,-8.257,1.167,-1.351,7.816,4.746,-4.575,-8.116,6.8,15.9,-8.135,7.4,23.3,23.3,27.6,14.6,36,11.3,0,5,prime,10,0,66,norm,36,-4.554,up,norm,12.8520409454,-7.1,12.6,14.6,21.9,5,16.7,14.9,13.0,10,5,7.808,5.234,1.995,-1.581,-4.764,-8.171,14.7,5,78.9,-8.16,-8.396,30,-8.152,-8.049,-4.473,-4.916,-4.577,-4.587,4.392,7.806,5,-1.267,1.468,5.186,8.344,-7.878,-7.599,-1.407,2.022,3.8,22.5,20.7,8.4,16.8,17.8,-1.3,25.9,,22.2,0,norm,1.6,1.254,-1.999,-1.541,-5.123,-4.609,-1.164,-1.533,-1.151,-1.958,1.775,-1.534,9.3,29.7,-4.382,-8.121,2.014,-1.201,8.186,5.062,-5.172,-7.813,18,5.246,4.596,4.918,5.178,1.174,1.458,1.923,2.019,18,4.891,4.674,-30,170.677539672,norm,0,61,61,61,388.739,411.164,411.171893898,411.172,411.174,411.177,down,0,1.58672073346,-10,001,003,1920_1080,Intel(R) Core(TM) i5-3570 CPU @ 3.40GHz,orientation_search,LEPPC096,Intel(R) HD Graphics 2500,2018_Sep_26_1547,testMonitor,
27.1,23.7,26.4,12.9,36,30,6.9,10.1,32.9,26.9,8.425,7.633,7.593,7.881,8.22,8.406,8.409,5.094,-4.59,-7.861,1.127,-1.288,8.469,4.509,-4.756,-7.607,-4.9,12.8,-8.382,27.4,11.8,17.5,22.3,4.4,36,2.9,2,5,prime,10,0,119,norm,36,-5.108,up,norm,12.8520409454,20.8,,-0.0,-1.7,4,-7.1,18.2,24.4,10,5,8.206,5.184,1.906,-1.963,-4.759,-7.582,18.3,5,131.9,-8.381,-7.678,30,-8.404,-8.014,-4.466,-4.386,-4.962,-4.759,4.614,7.789,16,-1.855,2.051,4.953,7.683,-7.978,-7.674,-1.875,1.553,9.5,20.5,8.5,4.8,25.0,0.4,10.4,25.3,16.0,23.6,1,norm,1.743,1.28,-1.91,-1.347,-4.989,-4.362,-1.958,-1.215,-1.317,-1.649,1.339,-1.497,19.1,11.2,-4.432,-7.692,1.778,-2.004,7.771,4.858,-5.262,-7.898,18,4.358,4.716,4.794,5.155,1.697,1.314,1.846,1.56,18,4.792,4.666,-30,170.677539672,norm,0,62,62,62,413.83,413.839,413.853316345,413.853,413.856,413.858,up,1,1.54979551389,8.45020448611,001,003,1920_1080,Intel(R) Core(TM) i5-3570 CPU @ 3.40GHz,orientation_search,LEPPC096,Intel(R) HD Graphics 2500,2018_Sep_26_1547,testMonitor,
13.8,25.2,6.8,27.3,36,30,21.0,23.9,18.1,7.6,7.958,8.179,8.115,7.83,8.271,8.005,7.629,4.649,-4.637,-8.075,1.2,-1.799,8.426,4.561,-4.42,-7.823,10.8,10.6,-8.24,7.1,0.2,-4.0,-7.1,10.1,36,6.3,1,5,prime,10,0,98,norm,36,-5.063,down,norm,12.8520409454,20.5,10.2,24.0,10.9,2,13.8,32.9,12.2,10,5,8.113,4.729,1.612,-1.89,-4.841,-7.941,28.0,5,110.9,-7.948,-7.613,30,-7.503,-8.069,-4.956,-4.371,-5.13,-4.305,5.161,8.316,8,-1.678,1.392,4.884,7.708,-7.924,-7.924,-1.162,1.348,14.4,,-1.8,11.4,19.2,-1.2,9.3,7.1,-6.9,9.2,2,norm,1.288,1.541,-1.147,-1.624,-4.989,-5.202,-1.316,-1.933,-1.488,-1.61,1.965,-1.332,-3.4,3.3,-4.343,-7.776,1.945,-1.164,7.855,5.268,-4.904,-7.697,18,4.537,4.854,5.214,5.049,1.293,1.596,1.643,1.234,18,4.755,4.336,-30,170.677539672,norm,0,63,63,63,415.441,415.45,415.460071858,415.46,415.462,415.465,down,1,1.15923806626,8.84076193374,001,003,1920_1080,Intel(R) Core(TM) i5-3570 CPU @ 3.40GHz,orientation_search,LEPPC096,Intel(R) HD Graphics 2500,2018_Sep_26_1547,testMonitor,
25.9,26.7,4.8,13.3,36,30,29.2,4.3,16.9,19.4,7.587,7.657,7.998,8.176,7.63,8.324,7.888,5.096,-5.128,-8.142,1.404,-1.844,8.466,5.034,-5.29,-7.654,12.6,23.2,-8.233,-6.3,11.2,16.9,4.7,4.4,36,12.8,3,5,prime,10,0,86,norm,36,-4.637,down,norm,12.8520409454,18.3,31.5,12.0,-0.6,1,20.0,17.8,12.6,10,5,7.6,4.999,2.026,-1.475,-4.702,-8.062,12.4,5,98.9,-7.673,-7.785,30,-7.747,-8.43,-4.605,-5.26,-4.587,-4.467,4.877,7.873,19,-1.44,1.468,5.086,7.879,-7.947,-8.215,-1.789,1.211,17.9,11.6,21.4,25.4,1.4,-1.5,19.0,-7.1,27.6,-3.6,3,norm,1.685,1.201,-1.791,-1.252,-4.754,-5.168,-1.541,-2.072,-1.419,-1.14,1.21,-1.136,,17.2,-4.809,-7.513,1.661,-1.782,7.549,4.538,-4.53,-7.741,18,4.321,4.544,4.74,4.564,1.902,1.821,1.719,1.884,18,4.416,4.552,-30,170.677539672,norm,0,64,64,64,416.657,416.669,416.69237375,416.693,416.695,416.698,up,0,1.22865165945,-10,001,003,1920_1080,Intel(R) Core(TM) i5-3570 CPU @ 3.40GHz,orientation_search,LEPPC096,Intel(R) HD Graphics 2500,2018_Sep_26_1547,testMonitor,
0.0,32.9,7.1,18.0,36,30,2.1,11.4,19.1,4.8,7.988,8.294,8.241,8.407,7.653,8.363,8.218,4.593,-5.171,-8.322,1.984,-1.403,7.917,5.239,-5.135,-7.693,10.8,15.8,-7.587,23.6,18.4,7.5,18.0,26.6,36,3.5,0,5,prime,10,0,114,norm,36,-4.708,down,norm,12.8520409454,5.8,24.2,26.7,4.1,2,20.9,1.7,9.7,10,5,8.092,4.869,1.881,-1.591,-4.852,-7.818,8.6,5,126.9,-8.377,-7.859,30,-8.205,-7.684,-4.678,-4.98,-5.125,-5.104,4.347,8.144,2,-1.322,1.872,4.969,8.096,-8.257,-7.744,-2.04,1.675,-0.5,11.5,16.5,,9.6,-5.1,7.3,14.7,24.7,-7.1,4,norm,1.137,1.708,-1.531,-1.507,-4.905,-5.209,-1.42,-1.519,-1.845,-1.474,1.468,-1.801,14.8,21.4,-4.5,-8.488,1.428,-1.116,7.644,5.088,-5.07,-8.277,18,4.9,4.326,4.679,4.573,1.594,1.713,2.084,1.876,18,4.874,5.194,-30,170.677539672,norm,0,65,65,65,418.993,419.002,419.016709936,419.017,419.019,419.021,down,1,2.09751492557,7.90248507443,001,003,1920_1080,Intel(R) Core(TM) i5-3570 CPU @ 3.40GHz,orientation_search,LEPPC096,Intel(R) HD Graphics 2500,2018_Sep_26_1547,testMonitor,
151.6,151.5,144.6,152.9,36,80,151.8,146.3,150.3,146.2,8.22,7.531,8.306,8.455,8.084,7.607,8.3,4.975,-4.549,-8.377,1.55,-1.332,8.359,4.428,-5.055,-7.724,138.7,144.8,-8.083,151.0,152.6,142.6,147.9,148.0,36,148.7,2,5,probe,5,0,109,norm,36,-4.338,up,norm,147.025602834,147.7,150.3,,142.0,3,145.1,157.0,150.9,10,5,8.097,4.488,1.229,-2.038,-5.269,-7.894,143.2,1,38.0,-8.073,-7.96,30,-7.584,-7.55,-4.667,-5.108,-4.361,-4.672,4.932,8.167,15,-1.793,1.112,4.353,7.58,-8.298,-7.846,-1.677,1.85,148.7,148.3,144.0,137.0,151.2,145.3,150.3,155.3,152.5,142.3,0,norm,1.749,1.784,-2.059,-1.49,-4.82,-5.152,-2.044,-1.727,-1.177,-1.351,1.902,-1.572,147.8,154.2,-5.133,-8.128,1.309,-1.429,8.329,5.158,-4.927,-8.374,19,4.932,4.38,4.706,4.638,1.682,1.45,1.226,1.231,19,5.01,4.451,30,12.8520409454,norm,0,66,66,66,421.15,421.162,421.18221736,421.182,421.184,421.187,up,1,1.16553549583,8.83446450417,001,003,1920_1080,Intel(R) Core(TM) i5-3570 CPU @ 3.40GHz,orientation_search,LEPPC096,Intel(R) HD Graphics 2500,2018_Sep_26_1547,testMonitor,
343.9,335.3,338.7,343.6,36,60,309.8,336.9,323.2,349.8,8.045,8.488,8.397,7.525,8.059,8.417,7.871,4.638,-4.603,-7.503,1.985,-1.894,8.274,4.977,-5.137,-8.19,317.2,313.0,-7.825,323.7,326.1,344.9,330.5,,36,333.5,4,5,prime,10,0,85,norm,36,-4.465,down,norm,329.787463029,340.9,344.7,312.6,320.7,2,327.5,318.2,316.1,10,6,8.02,4.43,1.242,-1.47,-4.914,-8.433,334.6,6,414.8,-7.98,-8.312,60,-8.24,-7.603,-5.194,-4.603,-5.051,-4.931,4.955,7.595,26,-1.704,1.355,4.844,8.157,-8.482,-7.678,-1.423,2.087,315.9,336.1,316.0,332.0,328.5,320.0,322.4,330.6,338.9,334.8,0,norm,1.868,1.77,-1.816,-1.484,-4.601,-4.564,-1.158,-1.161,-1.866,-1.841,1.408,-1.119,321.9,312.9,-4.353,-7.772,1.925,-1.526,8.429,4.378,-4.956,-8.287,20,5.209,4.508,4.77,4.846,1.305,1.215,1.59,1.871,20,4.987,4.851,80,12.8520409454,norm,0,67,67,67,422.385,422.394,422.401514486,422.402,422.403,422.406,down,1,1.12964500705,8.87035499295,001,003,1920_1080,Intel(R) Core(TM) i5-3570 CPU @ 3.40GHz,orientation_search,LEPPC096,Intel(R) HD Graphics 2500,2018_Sep_26_1547,testMonitor,
320.3,320.6,349.8,328.7,36,60,337.9,309.8,321.0,334.5,7.595,7.572,8.366,8.316,8.248,7.889,7.814,4.368,-5.039,-7.706,1.716,-2.037,8.34,4.519,-5.213,-8.397,325.0,328.4,-7.665,332.9,337.1,315.9,338.7,342.4,36,323.9,0,5,prime,10,0,75,norm,36,-4.462,down,norm,329.787463029,345.3,318.1,326.8,334.3,2,316.4,333.9,338.4,10,6,8.129,4.792,1.113,-1.666,-4.943,-7.523,338.5,6,404.8,-8.442,-8.202,60,-8.35,-7.706,-5.134,-4.304,-5.16,-5.169,5.174,8.477,2,-1.515,1.9,4.473,7.858,-7.997,-8.445,-1.459,1.615,310.3,340.1,333.4,,321.0,313.8,320.2,346.7,336.1,319.3,1,norm,1.991,1.503,-2.055,-1.896,-4.868,-4.514,-1.316,-2.063,-1.284,-1.512,1.617,-1.782,327.2,334.9,-5.156,-7.615,1.904,-1.805,7.959,5.004,-4.84,-7.773,20,4.637,4.525,5.258,4.96,1.395,1.413,1.368,1.608,20,4.663,4.329,80,12.8520409454,norm,0,68,68,68,423.572,423.582,423.588221818,423.588,423.59,423.593,down,1,1.8046755464,8.1953244536,001,003,1920_1080,Intel(R) Core(TM) i5-3570 CPU @ 3.40GHz,orientation_search,LEPPC096,Intel(R) HD Graphics 2500,2018_Sep_26_1547,testMonitor,
,324.4,349.8,317.7,36,60,325.6,342.8,323.1,316.9,7.84,7.888,8.217,7.846,8.019,7.555,7.869,4.417,-4.323,-8.362,1.803,-1.599,7.558,4.425,-4.46,-7.977,336.4,329.7,-7.636,344.0,330.9,321.1,321.9,348.6,36,325.2,3,5,prime,10,0,85,norm,36,-4.496,up,norm,329.787463029,332.3,330.2,309.8,335.6,4,327.8,315.6,330.4,10,6,8.475,4.601,1.583,-1.458,-4.96,-8.312,321.1,6,414.8,-8.067,-8.22,60,-7.826,-7.736,-5.06,-4.985,-4.56,-4.682,5.014,8.22,22,-1.66,1.2,4.743,7.577,-8.029,-7.581,-1.413,1.81,331.2,336.9,325.7,334.8,331.6,327.8,322.3,316.4,347.6,317.9,2,norm,1.55,2.049,-2.051,-1.982,-4.822,-4.499,-1.324,-1.463,-1.408,-2.059,1.215,-1.815,341.1,325.5,-4.738,-7.575,1.274,-1.322,8.064,4.491,-4.52,-8.266,20,4.981,4.576,5.226,4.559,1.138,1.175,1.762,1.367,20,4.479,5.137,80,12.8520409454,norm,0,69,69,69,425.414,425.424,425.429990108,425.43,425.432,425.434,up,1,0.824826838043,9.17517316196,001,003,1920_1080,Intel(R) Core(TM) i5-3570 CPU @ 3.40GHz,orientation_search,LEPPC096,Intel(R) HD Graphics 2500,2018_Sep_26_1547,testMonitor,
325.9,313.6,326.1,340.2,36,60,315.4,318.7,334.6,349.8,8.217,8.278,7.574,8.474,7.672,8.239,7.835,4.553,-4.43,-8.097,1.386,-1.587,7.842,5.298,-5.288,-7.663,330.0,323.9,-7.617,314.7,334.6,311.9,317.8,332.8,36,319.1,3,5,prime,10,0,98,norm,36,-4.302,down,norm,329.787463029,322.9,333.8,335.8,333.2,1,337.2,339.0,309.8,10,6,8.409,5.028,1.445,-1.557,-5.192,-8.032,317.2,6,427.8,-8.019,-8.136,60,-8.063,-7.96,-4.632,-4.832,-5.17,-4.858,4.397,7.728,19,-1.26,1.856,5.256,7.978,-8.318,-8.444,-1.504,1.585,329.4,331.7,341.9,329.5,323.0,339.7,319.9,330.7,344.6,321.8,3,norm,1.875,1.883,-1.494,-1.275,-4.908,-4.549,-1.799,-1.427,-2.053,-1.851,1.466,-1.764,,342.8,-4.59,-7.847,1.543,-1.68,7.591,4.584,-5.241,-8.381,20,4.805,5.291,4.584,4.799,1.416,1.694,1.751,2.095,20,5.207,4.351,80,12.8520409454,norm,0,70,70,70,426.302,426.312,426.318108785,426.318,426.32,426.323,down,1,1.19163709323,8.80836290677,001,003,1920_1080,Intel(R) Core(TM) i5-3570 CPU @ 3.40GHz,orientation_search,LEPPC096,Intel(R) HD Graphics 2500,2018_Sep_26_1547,testMonitor,
337.3,348.8,314.6,,36,60,344.2,322.7,331.4,336.6,8.406,7.506,7.73,7.602,7.683,8.388,7.764,5.188,-5.034,-7.707,1.792,-1.31,8.178,4.838,-4.384,-7.637,338.2,333.1,-8.315,328.6,349.8,330.6,325.8,340.9,36,316.2,3,5,prime,10,0,115,norm,36,-4.935,up,norm,329.787463029,320.4,336.0,325.5,317.6,3,341.5,334.1,328.9,10,6,7.539,4.869,1.776,-1.224,-5.137,-7.886,344.1,6,444.8,-7.753,-8.093,60,-8.24,-8.145,-4.83,-5.105,-5.005,-4.773,5.162,7.662,21,-1.477,2.056,5.181,7.532,-8.38,-7.695,-2.083,1.13,340.8,333.8,332.2,333.1,329.2,329.4,329.1,329.3,317.6,339.3,4,norm,1.901,1.336,-1.442,-1.721,-4.674,-4.419,-1.778,-1.262,-1.116,-1.47,1.679,-1.838,336.9,331.4,-4.462,-7.834,1.399,-1.106,8.269,4.541,-5.112,-7.627,20,4.465,5.048,5.027,4.803,1.188,1.243,1.819,1.972,20,5.053,4.812,80,12.8520409454,norm,0,71,71,71,427.534,427.544,427.551318029,427.552,427.553,427.556,up,1,0.823949067581,9.17605093242,001,003,1920_1080,Intel(R) Core(TM) i5-3570 CPU @ 3.40GHz,orientation_search,LEPPC096,Intel(R) HD Graphics 2500,2018_Sep_26_1547,testMonitor,
321.1,341.7,324.9,309.8,36,60,334.1,326.8,325.5,334.7,7.82,8.397,8.385,8.393,8.455,8.315,7.853,4.323,-4.657,-8.211,1.265,-1.97,7.669,4.681,-4.879,-8.259,321.9,326.6,-8.414,319.4,343.3,317.0,332.1,328.2,36,340.9,0,5,prime,10,0,103,norm,36,-5.039,up,norm,329.787463029,325.7,327.0,327.1,341.5,5,335.8,349.8,322.7,10,6,8.049,4.625,1.489,-1.944,-4.918,-8.266,311.3,6,432.8,-7.512,-8.494,60,-7.928,-7.989,-4.348,-5.217,-5.077,-4.449,5.175,7.544,5,-1.554,1.316,4.822,7.64,-8.253,-8.467,-1.885,1.322,344.5,330.6,324.7,312.6,336.8,329.5,322.1,316.5,,342.4,5,norm,1.189,1.781,-1.174,-1.573,-4.441,-4.356,-2.037,-1.369,-1.214,-1.242,1.692,-1.403,340.6,336.7,-5.282,-7.66,1.334,-1.715,7.951,5.048,-4.325,-7.95,20,4.315,5.277,5.005,4.308,2.038,1.577,1.571,1.136,20,4.769,4.857,80,12.8520409454,norm,0,72,72,72,428.412,428.422,428.438611758,428.439,428.441,428.443,up,1,1.48527546085,8.51472453915,001,003,1920_1080,Intel(R) Core(TM) i5-3570 CPU @ 3.40GHz,orientation_search,LEPPC096,Intel(R) HD Graphics 2500,2018_Sep_26_1547,testMonitor,
471.9,483.3,481.1,488.4,36,-40,491.9,483.6,480.0,487.2,7.857,7.866,8.124,8.288,8.39,8.196,7.577,4.882,-4.472,-7.654,1.609,-1.549,8.214,5.024,-4.743,-7.72,481.6,481.3,-7.8,484.9,480.8,485.5,483.5,475.4,36,487.4,0,5,probe,5,0,95,norm,36,-5.228,up,norm,481.853262948,486.1,478.3,478.3,481.2,5,478.1,474.0,490.0,10,6,7.919,4.932,1.639,-1.969,-4.973,-8.46,479.2,1,386.9,-7.675,-7.983,60,-8.37,-8.39,-4.471,-5.029,-5.074,-4.632,4.942,7.859,5,-2.056,1.825,5.146,7.713,-8.499,-8.373,-1.654,1.822,477.8,483.4,480.2,489.0,485.3,476.5,482.9,479.3,,486.0,0,norm,2.009,1.307,-1.492,-1.557,-5.082,-5.169,-1.97,-1.394,-1.43,-1.647,1.236,-1.462,479.3,482.1,-5.298,-7.795,1.112,-1.288,8.446,5.103,-5.242,-8.188,21,5.092,4.928,4.582,4.995,1.773,2.003,1.663,2.059,21,4.841,4.391,60,329.787463029,norm,0,73,73,73,429.969,429.991,430.000573811,430.001,430.002,430.005,up,1,0.992701042791,9.00729895721,001,003,1920_1080,Intel(R) Core(TM) i5-3570 CPU @ 3.40GHz,orientation_search,LEPPC096,Intel(R) HD Graphics 2500,2018_Sep_26_1547,testMonitor,
244.4,268.3,251.6,260.0,36,40,256.9,231.6,236.1,263.9,8.177,8.427,8.196,7.564,7.682,8.075,7.944,5.241,-4.945,-7.869,1.6,-1.921,7.777,4.651,-4.442,-7.568,269.9,241.9,-7.876,253.2,251.5,271.1,250.4,,36,246.3,4,5,prime,10,0,78,norm,36,-4.71,down,norm,251.599509371,253.2,242.2,257.7,271.6,2,263.7,269.7,264.2,10,5,8.006,4.467,2.064,-1.933,-4.642,-8.167,254.7,5,329.6,-8.26,-8.181,40,-7.75,-8.046,-4.799,-5.01,-5.066,-4.468,4.713,7.885,26,-1.488,1.21,5.288,8.044,-8.499,-8.455,-1.556,1.146,263.1,266.4,252.6,247.4,268.2,241.8,242.6,249.2,247.4,254.3,0,norm,2.052,1.686,-1.78,-1.72,-4.36,-4.698,-1.863,-1.466,-1.893,-1.36,1.376,-1.987,261.8,262.5,-4.418,-7.975,1.175,-1.527,8.15,4.453,-4.842,-7.846,22,4.992,4.301,5.193,5.296,1.801,1.284,1.777,1.743,22,4.898,5.126,-40,329.787463029,norm,0,74,74,74,431.014,431.026,431.030230258,431.03,431.032,431.035,down,1,1.33569769923,8.66430230077,001,003,1920_1080,Intel(R) Core(TM) i5-3570 CPU @ 3.40GHz,orientation_search,LEPPC096,Intel(R) HD Graphics 2500,2018_Sep_26_1547,testMonitor,
248.4,246.3,258.2,250.1,36,40,248.4,267.4,248.7,271.6,8.421,7.673,7.582,7.543,7.937,7.86,7.607,4.402,-5.269,-7.966,1.856,-2.072,7.571,4.81,-5.109,-7.615,242.6,231.6,-7.79,246.9,235.4,241.6,250.2,246.2,36,259.7,2,5,prime,10,0,72,norm,36,-5.08,up,norm,251.599509371,259.1,250.6,,247.0,3,251.8,263.4,258.0,10,5,8.092,4.676,1.981,-1.877,-4.394,-7.793,263.0,5,323.6,-8.098,-7.507,40,-8.481,-7.921,-4.456,-5.031,-5.008,-4.571,5.229,7.61,15,-1.96,1.236,4.726,8.24,-8.049,-8.274,-1.649,1.499,252.2,236.7,251.0,263.5,255.4,234.7,262.3,244.8,250.6,234.8,1,norm,1.547,1.841,-1.478,-2.095,-4.807,-4.781,-1.464,-1.908,-1.133,-1.181,1.343,-1.417,250.5,254.9,-5.139,-7.523,1.189,-1.579,8.495,4.36,-4.541,-8.21,22,4.555,5.177,4.355,4.643,1.804,1.446,1.562,1.456,22,4.387,5.026,-40,329.787463029,norm,0,75,75,75,432.404,432.416,432.436298706,432.436,432.439,432.442,up,1,1.24545909236,8.75454090764,001,003,1920_1080,Intel(R) Core(TM) i5-3570 CPU @ 3.40GHz,orientation_search,LEPPC096,Intel(R) HD Graphics 2500,2018_Sep_26_1547,testMonitor,
252.2,252.9,239.3,243.7,36,40,258.0,257.3,252.3,247.7,7.622,7.734,7.996,7.918,8.13,7.797,7.792,4.838,-5.093,-8.477,1.154,-1.124,8.176,4.902,-4.301,-7.902,244.6,255.9,-7.833,243.4,232.9,,250.2,251.4,36,267.1,5,5,prime,10,0,75,norm,36,-4.348,up,norm,251.599509371,247.5,246.6,271.6,243.6,3,254.2,255.8,246.7,10,5,7.898,4.773,1.229,-2.049,-5.193,-8.312,247.0,5,326.6,-7.951,-7.695,40,-8.101,-8.109,-4.446,-5.14,-4.383,-4.765,4.792,7.907,33,-1.182,1.547,4.492,7.704,-7.85,-8.055,-1.611,1.473,231.6,244.3,238.4,255.2,240.2,259.3,249.8,245.3,252.3,259.2,2,norm,1.228,1.666,-1.727,-1.535,-4.965,-5.159,-1.865,-1.635,-1.832,-1.591,1.356,-1.103,248.5,249.4,-5.169,-7.503,1.224,-1.647,7.825,5.106,-4.838,-8.189,22,5.167,4.371,5.172,5.04,1.699,1.882,1.806,1.575,22,5.174,4.515,-40,329.787463029,norm,0,76,76,76,433.72,433.731,433.742348712,433.743,433.744,433.747,up,1,1.33200550931,8.66799449069,001,003,1920_1080,Intel(R) Core(TM) i5-3570 CPU @ 3.40GHz,orientation_search,LEPPC096,Intel(R) HD Graphics 2500,2018_Sep_26_1547,testMonitor,
245.2,247.8,260.0,251.2,36,40,258.2,266.6,249.2,234.9,8.103,8.357,7.736,8.415,8.428,8.276,8.442,5.118,-5.024,-7.669,1.807,-1.972,7.714,4.485,-4.599,-8.305,247.7,,-7.739,267.8,249.9,240.0,253.9,239.3,36,257.3,5,5,prime,10,0,99,norm,36,-4.541,up,norm,251.599509371,257.4,243.7,246.4,262.8,4,231.6,247.0,236.6,10,5,8.445,4.693,1.212,-1.456,-4.96,-8.441,260.8,5,350.6,-8.135,-7.534,40,-8.43,-7.98,-5.007,-5.273,-4.761,-4.588,4.962,8.366,34,-2.074,1.404,4.504,8.207,-8.365,-7.627,-1.906,1.821,243.7,255.8,253.9,258.8,252.7,233.2,254.2,246.1,254.0,271.6,3,norm,1.274,2.059,-1.206,-1.655,-4.854,-4.896,-1.76,-1.356,-1.528,-1.604,2.008,-1.973,250.6,233.0,-4.462,-7.565,1.487,-1.96,7.913,5.157,-4.905,-8.351,22,4.657,5.15,4.557,4.355,1.717,2.01,1.892,1.915,22,5.123,4.383,-40,329.787463029,norm,0,77,77,77,435.112,435.122,435.130781762,435.131,435.133,435.135,down,0,2.00998026224,-10,001,003,1920_1080,Intel(R) Core(TM) i5-3570 CPU @ 3.40GHz,orientation_search,LEPPC096,Intel(R) HD Graphics 2500,2018_Sep_26_1547,testMonitor,
258.2,247.3,244.8,267.8,36,40,264.2,258.0,250.5,244.7,8.311,7.73,7.857,7.961,8.115,7.981,7.62,4.958,-4.637,-8.472,1.845,-1.406,8.43,4.808,-4.745,-8.149,261.5,265.5,-8.347,246.2,231.6,255.1,252.9,249.0,36,244.0,2,5,prime,10,0,68,norm,36,-4.963,down,norm,251.599509371,260.7,257.8,240.9,,2,271.6,262.1,256.5,10,5,7.828,4.75,2.037,-1.389,-4.366,-8.183,246.7,5,319.6,-8.447,-8.249,40,-7.551,-7.62,-5.067,-5.268,-5.238,-5.014,4.447,8.23,14,-1.29,1.996,4.86,8.12,-8.476,-7.906,-1.225,1.207,250.3,257.1,251.7,267.8,242.1,254.5,248.6,254.2,256.4,265.5,4,norm,2.001,2.045,-1.639,-1.612,-4.607,-4.622,-1.689,-1.87,-1.134,-1.927,1.647,-1.408,259.6,251.5,-4.782,-7.904,1.521,-1.155,8.447,4.641,-4.654,-7.901,22,4.663,4.507,4.843,4.53,1.862,1.534,1.178,1.198,22,4.636,4.726,-40,329.787463029,norm,0,78,78,78,438.211,438.221,438.235068922,438.235,438.237,438.239,up,0,0.807410881998,-10,001,003,1920_1080,Intel(R) Core(TM) i5-3570 CPU @ 3.40GHz,orientation_search,LEPPC096,Intel(R) HD Graphics 2500,2018_Sep_26_1547,testMonitor,
385.0,390.5,398.6,387.2,36,10,392.2,390.3,383.8,395.7,7.535,8.356,7.926,7.96,7.932,8.129,7.802,5.095,-4.739,-7.988,1.944,-1.721,8.223,4.856,-5.218,-8.488,390.8,390.0,-7.768,393.0,388.2,384.0,391.1,390.9,36,379.8,2,5,probe,5,0,94,norm,36,-4.741,up,norm,388.595942246,378.6,,389.4,382.5,4,386.9,389.1,389.5,10,5,7.816,5.226,1.473,-1.66,-5.284,-7.831,385.9,1,294.6,-7.821,-8.444,40,-8.439,-8.258,-4.949,-5.182,-4.713,-4.734,4.789,8.343,16,-1.487,1.659,5.005,8.145,-7.939,-7.899,-1.61,1.142,398.2,396.4,387.8,388.0,384.3,395.6,396.7,397.0,390.2,390.9,0,norm,1.366,1.864,-1.677,-1.882,-5.114,-5.205,-1.445,-1.872,-1.606,-1.813,1.688,-1.79,381.7,388.9,-5.05,-8.426,1.363,-1.716,7.934,4.548,-5.223,-7.765,23,4.377,4.637,4.898,5.163,1.802,1.267,1.841,1.355,23,4.894,5.197,40,251.599509371,norm,0,79,79,79,440.127,440.137,440.153763773,440.154,440.156,440.158,down,0,0.638666151113,-10,001,003,1920_1080,Intel(R) Core(TM) i5-3570 CPU @ 3.40GHz,orientation_search,LEPPC096,Intel(R) HD Graphics 2500,2018_Sep_26_1547,testMonitor,
112.4,105.9,113.1,99.0,36,10,88.6,87.5,97.3,95.5,7.918,7.758,8.465,7.847,7.826,8.497,8.201,4.468,-5.103,-8.255,1.525,-1.97,8.293,4.452,-4.515,-7.88,107.9,105.7,-7.903,91.6,94.6,102.5,123.9,118.9,36,116.1,2,5,prime,10,0,77,norm,36,-5.183,down,norm,107.490131895,90.6,101.2,125.6,127.5,1,106.4,,101.7,10,5,8.191,4.825,1.224,-2.033,-4.837,-7.576,94.2,5,184.5,-8.197,-7.945,10,-8.118,-8.351,-4.442,-4.459,-4.373,-5.126,4.634,8.431,13,-1.321,1.565,4.802,7.746,-7.614,-8.416,-1.833,1.464,98.6,109.7,117.5,108.5,115.2,112.1,109.2,111.3,92.3,94.8,0,norm,1.479,1.537,-1.112,-1.799,-4.304,-5.291,-1.978,-1.145,-1.279,-1.808,1.229,-1.199,116.7,106.1,-4.875,-7.881,1.247,-1.466,7.503,4.379,-4.896,-7.903,24,5.205,5.246,4.813,4.333,1.194,1.722,1.728,1.621,24,4.975,5.084,10,251.599509371,norm,0,80,80,80,441.863,441.873,441.8852949,441.885,441.887,441.89,down,1,0.940192379034,9.05980762097,001,003,1920_1080,Intel(R) Core(TM) i5-3570 CPU @ 3.40GHz,orientation_search,LEPPC096,Intel(R) HD Graphics 2500,2018_Sep_26_1547,testMonitor,
107.9,99.6,121.0,97.2,36,10,106.3,91.6,110.2,112.9,8.492,7.728,7.941,8.39,8.427,7.557,8.005,5.029,-4.302,-8.398,1.583,-1.954,7.622,5.007,-4.866,-8.178,120.6,123.0,-7.859,107.7,100.4,117.9,109.4,106.7,36,111.8,1,5,prime,10,0,116,norm,36,-4.791,down,norm,107.490131895,94.9,104.8,90.4,114.6,2,100.7,103.8,123.1,10,5,7.758,4.383,1.196,-1.309,-4.963,-8.209,108.7,5,223.5,-8.401,-7.533,10,-8.475,-8.374,-5.299,-4.346,-5.26,-4.737,5.044,7.506,8,-2.026,1.943,4.656,8.404,-8.209,-7.619,-1.9,1.648,107.7,,114.6,87.5,110.4,106.7,113.0,108.6,127.5,104.9,1,norm,1.485,1.862,-1.505,-1.578,-4.856,-5.165,-1.746,-1.989,-1.766,-1.292,1.136,-1.945,101.4,122.7,-4.478,-7.61,1.861,-1.629,8.459,4.452,-4.705,-8.07,24,4.652,5.199,4.978,4.855,2.083,1.693,1.473,1.903,24,4.721,4.551,10,251.599509371,norm,0,81,81,81,442.862,442.872,442.883595502,442.884,442.886,442.888,down,1,1.02870261119,8.97129738881,001,003,1920_1080,Intel(R) Core(TM) i5-3570 CPU @ 3.40GHz,orientation_search,LEPPC096,Intel(R) HD Graphics 2500,2018_Sep_26_1547,testMonitor,
114.8,97.3,98.0,104.9,36,10,127.2,100.4,109.3,107.1,8.171,8.426,7.779,8.242,8.106,8.208,7.674,4.984,-4.54,-7.928,2.023,-1.984,8.267,4.59,-4.992,-8.362,113.6,126.5,-7.536,,127.5,87.5,111.3,118.2,36,112.7,5,5,prime,10,0,83,norm,36,-4.97,down,norm,107.490131895,109.3,96.5,107.7,117.1,1,107.9,118.3,94.7,10,5,8.302,5.144,1.799,-1.928,-4.94,-8.096,110.6,5,190.5,-8.397,-7.985,10,-8.426,-8.428,-4.569,-4.772,-4.452,-4.724,5.251,7.6,31,-1.295,2.064,5.234,7.931,-7.603,-7.871,-1.325,1.902,106.6,115.4,126.1,104.5,112.9,113.9,92.7,111.6,116.2,110.7,2,norm,1.47,1.305,-1.384,-1.525,-4.941,-4.962,-1.999,-1.576,-1.204,-1.987,1.649,-1.597,90.5,101.1,-4.801,-7.56,1.641,-1.751,7.711,5.148,-4.758,-7.571,24,4.844,4.873,5.16,4.659,1.934,1.966,2.025,1.894,24,5.094,4.603,10,251.599509371,norm,0,82,82,82,443.961,443.983,443.993413703,443.994,443.995,443.998,up,0,1.53828126627,-10,001,003,1920_1080,Intel(R) Core(TM) i5-3570 CPU @ 3.40GHz,orientation_search,LEPPC096,Intel(R) HD Graphics 2500,2018_Sep_26_1547,testMonitor,
116.2,92.5,,115.9,36,10,95.9,117.8,99.0,98.6,7.825,8.11,7.769,8.264,7.837,8.421,8.417,4.891,-4.641,-7.539,1.899,-1.77,8.286,4.493,-4.602,-7.836,119.0,102.5,-8.442,106.8,92.9,101.0,105.2,87.5,36,116.0,3,5,prime,10,0,112,norm,36,-4.505,down,norm,107.490131895,108.3,100.7,101.7,104.9,2,104.0,117.3,93.8,10,5,8.338,4.775,1.606,-1.145,-4.339,-7.709,127.3,5,219.5,-8.304,-8.094,10,-7.829,-8.397,-4.412,-4.523,-5.226,-5.237,5.177,8.093,20,-1.153,1.523,5.298,8.254,-7.555,-7.731,-1.533,1.568,106.2,110.1,97.0,102.0,114.2,122.7,107.8,127.1,123.3,101.3,3,norm,1.764,1.322,-1.85,-1.197,-4.67,-4.66,-1.346,-1.868,-1.443,-1.158,1.473,-1.542,120.2,121.8,-4.385,-7.985,1.356,-1.782,7.962,5.079,-4.866,-7.639,24,4.557,4.48,4.797,4.578,1.694,1.548,2.032,1.671,24,5.191,5.156,10,251.599509371,norm,0,83,83,83,446.603,446.612,446.627491481,446.628,446.629,446.632,down,1,0.942436911757,9.05756308824,001,003,1920_1080,Intel(R) Core(TM) i5-3570 CPU @ 3.40GHz,orientation_search,LEPPC096,Intel(R) HD Graphics 2500,2018_Sep_26_1547,testMonitor,
96.6,121.1,105.2,104.9,36,10,103.3,100.2,125.2,93.8,7.603,8.464,8.04,7.686,7.97,8.362,7.725,4.391,-5.221,-7.535,2.061,-1.849,8.033,4.378,-5.166,-8.273,127.5,120.0,-7.956,88.5,109.8,108.2,121.3,106.1,36,121.2,1,5,prime,10,0,79,norm,36,-4.485,up,norm,107.490131895,115.3,97.3,97.3,118.0,5,,109.7,98.3,10,5,8.331,4.732,1.162,-1.532,-4.556,-7.782,91.0,5,186.5,-8.193,-8.359,10,-7.551,-7.769,-4.721,-4.658,-4.473,-4.982,5.172,7.956,11,-1.311,1.444,4.788,7.508,-7.863,-8.365,-1.217,1.887,107.7,106.6,118.8,87.5,109.3,108.0,104.2,95.4,97.8,113.9,4,norm,1.12,1.419,-2.043,-1.717,-5.137,-5.182,-1.854,-1.307,-2.026,-2.031,1.664,-2.023,112.1,90.0,-4.456,-8.108,1.368,-1.451,7.673,4.456,-4.382,-7.744,24,4.462,4.796,4.542,4.612,1.103,1.839,1.169,1.956,24,4.368,4.581,10,251.599509371,norm,0,84,84,84,447.607,447.616,447.625717226,447.626,447.628,447.63,up,1,2.50328846984,7.49671153016,001,003,1920_1080,Intel(R) Core(TM) i5-3570 CPU @ 3.40GHz,orientation_search,LEPPC096,Intel(R) HD Graphics 2500,2018_Sep_26_1547,testMonitor,
185.4,192.9,189.5,188.9,36,-10,195.6,185.0,185.3,183.5,8.192,8.32,7.626,8.043,7.823,7.704,7.898,5.236,-4.89,-8.162,1.219,-1.244,8.054,4.494,-4.598,-8.306,185.2,180.8,-7.975,186.5,193.4,180.7,192.9,188.3,36,176.2,1,5,probe,5,0,70,norm,36,-4.826,down,norm,186.244514776,196.2,187.4,186.7,179.6,0,189.1,186.7,188.9,10,5,8.358,5.236,1.818,-1.327,-4.953,-8.483,186.5,2,116.2,-7.726,-8.425,10,-7.999,-8.134,-4.342,-4.696,-4.654,-4.533,4.334,7.742,6,-1.928,1.455,5.176,8.06,-8.452,-7.904,-1.708,1.563,191.0,194.8,188.4,190.1,189.6,186.4,190.5,,181.9,184.2,0,norm,1.107,1.175,-1.967,-1.954,-4.663,-4.492,-1.701,-1.779,-1.722,-1.865,1.965,-1.819,184.4,192.7,-5.079,-8.281,1.516,-1.347,8.16,4.349,-4.379,-8.237,25,4.773,5.202,5.229,4.517,1.849,2.007,1.669,1.144,25,4.544,4.535,10,107.490131895,norm,0,85,85,85,450.164,450.174,450.184094848,450.184,450.186,450.189,down,1,0.995210596997,9.004789403,001,003,1920_1080,Intel(R) Core(TM) i5-3570 CPU @ 3.40GHz,orientation_search,LEPPC096,Intel(R) HD Graphics 2500,2018_Sep_26_1547,testMonitor,
206.6,200.2,209.4,197.9,36,-10,203.6,200.8,215.2,206.0,7.511,7.704,8.152,7.572,8.199,8.296,8.16,4.855,-4.486,-8.05,1.663,-1.543,7.765,5.124,-4.392,-8.366,211.5,204.5,-7.995,211.1,212.6,200.4,208.2,196.5,36,206.6,2,5,probe,5,0,89,norm,36,-4.376,up,norm,205.244514776,205.5,,205.9,202.4,4,208.7,197.2,200.2,10,5,7.99,5.064,1.513,-1.49,-4.7,-7.58,206.5,2,116.2,-7.806,-8.163,10,-7.925,-8.027,-4.849,-4.553,-4.539,-4.423,5.187,7.727,16,-1.876,1.598,4.787,7.51,-7.94,-7.977,-1.98,1.503,207.8,205.0,200.8,210.7,202.6,197.6,196.6,200.3,195.2,204.2,1,norm,1.108,2.03,-1.171,-1.373,-4.353,-4.468,-1.209,-1.596,-1.887,-1.525,1.895,-1.241,205.0,203.0,-5.109,-8.37,1.153,-2.081,7.626,4.759,-4.718,-8.389,25,4.571,4.752,4.751,4.405,1.308,1.506,1.846,1.418,25,5.237,4.993,10,107.490131895,norm,0,86,86,86,451.216,451.227,451.233247579,451.233,451.235,451.238,up,1,0.805559051949,9.19444094805,001,003,1920_1080,Intel(R) Core(TM) i5-3570 CPU @ 3.40GHz,orientation_search,LEPPC096,Intel(R) HD Graphics 2500,2018_Sep_26_1547,testMonitor,
186.3,204.2,183.1,211.0,36,-10,189.5,197.0,210.5,,8.379,8.41,7.927,8.057,8.474,7.768,7.943,4.778,-4.961,-7.894,1.868,-1.557,8.324,5.134,-4.508,-8.33,195.0,194.4,-7.608,196.8,191.8,210.7,191.2,195.5,36,191.5,4,5,prime,10,0,110,norm,36,-4.654,up,norm,194.619933836,193.9,196.4,210.0,175.0,5,193.6,203.5,186.0,10,6,8.348,4.427,1.642,-1.918,-5.034,-7.657,174.6,6,304.6,-8.267,-8.377,-10,-8.191,-7.641,-5.291,-4.582,-4.989,-5.126,4.338,8.453,29,-1.731,2.01,4.654,8.119,-8.15,-7.814,-1.623,1.359,189.2,202.0,201.9,198.4,198.7,212.9,214.6,194.1,191.3,188.4,0,norm,2.092,1.102,-1.271,-1.142,-5.249,-4.869,-2.085,-1.353,-1.956,-1.105,1.772,-1.53,177.8,191.3,-4.993,-8.228,1.427,-1.949,7.514,4.997,-4.706,-7.584,26,5.152,5.024,4.46,4.883,1.332,1.73,1.279,1.64,26,5.231,5.046,-10,107.490131895,norm,0,87,87,87,452.077,452.09,452.109156854,452.109,452.111,452.114,up,1,2.73767340721,7.26232659279,001,003,1920_1080,Intel(R) Core(TM) i5-3570 CPU @ 3.40GHz,orientation_search,LEPPC096,Intel(R) HD Graphics 2500,2018_Sep_26_1547,testMonitor,
193.7,185.4,183.5,183.1,36,-10,197.1,202.1,191.6,202.6,7.607,8.199,8.155,8.373,8.259,7.982,7.809,4.734,-4.993,-8.32,2.054,-1.637,8.26,4.726,-4.35,-7.752,214.6,187.8,-8.329,203.1,,201.2,190.6,204.1,36,201.9,5,5,prime,10,0,62,norm,36,-5.077,down,norm,194.619933836,192.5,199.0,197.2,209.8,0,214.6,198.2,191.8,10,6,7.884,4.935,1.448,-1.432,-4.343,-8.475,193.4,6,256.6,-7.632,-7.502,-10,-8.216,-8.256,-4.666,-5.17,-5.099,-4.614,4.307,7.869,30,-2.076,2.031,5.017,8.259,-7.519,-7.608,-1.95,1.474,197.6,174.6,190.6,191.4,191.6,183.8,196.5,176.7,196.5,185.1,1,norm,1.181,1.326,-1.111,-1.204,-4.538,-4.637,-1.544,-1.471,-1.959,-1.263,1.23,-1.849,195.5,194.9,-4.788,-8.28,1.863,-1.802,8.081,4.994,-4.612,-8.324,26,4.979,4.831,4.75,5.143,1.199,1.243,1.814,1.973,26,4.855,5.151,-10,107.490131895,norm,0,88,88,88,454.883,454.892,454.910721568,454.911,454.913,454.915,down,1,3.41909977817,6.58090022183,001,003,1920_1080,Intel(R) Core(TM) i5-3570 CPU @ 3.40GHz,orientation_search,LEPPC096,Intel(R) HD Graphics 2500,2018_Sep_26_1547,testMonitor,
211.7,183.4,186.1,194.8,36,-10,194.3,174.6,205.6,189.8,8.165,7.891,7.748,8.303,7.861,7.837,8.342,5.007,-5.234,-7.554,1.58,-1.308,8.033,4.533,-4.683,-8.054,196.7,179.1,-7.65,198.1,186.5,204.1,184.2,178.7,36,206.8,1,5,prime,10,0,113,norm,36,-4.873,down,norm,194.619933836,192.0,192.1,212.0,196.3,0,192.4,191.9,193.3,10,6,7.942,5.139,1.277,-1.782,-4.998,-8.261,212.4,6,307.6,-8.194,-7.736,-10,-8.438,-8.006,-5.054,-5.083,-4.328,-5.193,4.688,7.75,6,-1.592,1.624,4.54,7.978,-8.251,-7.864,-1.638,1.908,186.5,190.6,191.7,188.7,201.3,198.2,198.0,,201.6,206.5,2,norm,1.441,1.778,-2.006,-1.322,-5.089,-5.063,-1.63,-1.652,-1.584,-1.769,1.448,-1.466,214.6,201.7,-4.347,-7.665,1.747,-2.096,8.434,4.482,-4.864,-7.821,26,5.123,4.873,4.581,4.807,1.395,1.255,1.279,1.672,26,4.481,5.177,-10,107.490131895,norm,0,89,89,89,458.375,458.394,458.407088691,458.407,458.411,458.416,up,0,1.64495361973,-10,001,003,1920_1080,Intel(R) Core(TM) i5-3570 CPU @ 3.40GHz,orientation_search,LEPPC096,Intel(R) HD Graphics 2500,2018_Sep_26_1547,testMonitor,
208.0,211.1,186.2,187.3,36,-10,188.6,190.2,177.6,206.1,8.222,8.174,7.505,8.188,8.316,7.808,8.395,4.339,-4.848,-8.189,1.404,-2.087,7.712,4.49,-4.89,-7.53,191.0,199.2,-8.305,194.3,183.6,198.1,180.8,205.3,36,188.1,0,5,prime,10,0,92,norm,36,-4.634,up,norm,194.619933836,194.3,201.9,181.0,188.4,5,189.8,191.7,189.0,10,6,7.659,4.681,1.365,-1.98,-5.039,-8.388,198.2,6,286.6,-7.661,-7.789,-10,-7.841,-7.55,-5.113,-4.562,-5.21,-5.177,4.441,8.214,5,-1.153,1.279,4.605,7.561,-8.468,-8.085,-2.071,1.671,191.9,198.5,197.0,198.8,199.5,180.0,174.6,214.6,,198.8,3,norm,1.418,1.712,-1.142,-2.064,-4.759,-4.709,-1.928,-1.511,-1.526,-1.525,1.879,-1.954,182.5,192.3,-4.444,-8.378,2.007,-1.338,7.737,4.394,-4.999,-7.55,26,5.283,4.64,4.97,4.854,1.86,1.606,1.366,1.167,26,5.126,4.598,-10,107.490131895,norm,0,90,90,90,461.127,461.137,461.150467304,461.151,461.152,461.155,up,1,1.16195408367,8.83804591633,001,003,1920_1080,Intel(R) Core(TM) i5-3570 CPU @ 3.40GHz,orientation_search,LEPPC096,Intel(R) HD Graphics 2500,2018_Sep_26_1547,testMonitor,
197.0,210.9,197.2,201.1,36,-10,198.2,180.8,181.0,196.6,7.82,8.331,8.084,8.161,7.899,7.558,8.323,4.748,-4.935,-7.864,2.036,-1.811,7.554,4.327,-5.143,-8.114,190.3,185.2,-8.076,197.9,192.0,195.2,188.2,199.0,36,200.1,2,5,prime,10,0,92,norm,36,-5.146,up,norm,194.619933836,184.8,,197.9,206.6,4,174.6,188.9,209.9,10,6,8.392,4.873,1.194,-1.476,-5.221,-7.973,202.1,6,286.6,-7.89,-8.034,-10,-7.516,-8.08,-5.07,-4.394,-5.203,-4.83,5.122,7.573,16,-1.787,1.511,4.743,7.956,-7.589,-7.656,-1.406,1.88,194.4,200.3,212.0,190.3,181.9,184.2,194.0,190.0,206.2,187.2,4,norm,1.52,1.71,-1.402,-2.081,-4.962,-4.322,-1.642,-1.624,-1.688,-2.039,1.858,-2.086,190.6,214.6,-4.997,-7.617,1.458,-1.91,7.671,4.58,-4.321,-7.84,26,4.384,4.532,4.925,4.543,1.345,1.724,1.424,1.914,26,4.979,5.14,-10,107.490131895,norm,0,91,91,91,462.337,462.346,462.352595082,462.353,462.354,462.357,up,1,3.00870616694,6.99129383306,001,003,1920_1080,Intel(R) Core(TM) i5-3570 CPU @ 3.40GHz,orientation_search,LEPPC096,Intel(R) HD Graphics 2500,2018_Sep_26_1547,testMonitor,
194.7,196.3,190.7,182.6,36,-10,184.4,189.5,193.8,205.4,7.723,8.349,7.962,8.249,7.992,8.001,7.984,4.505,-4.486,-8.051,1.812,-1.908,7.722,4.432,-4.552,-7.882,190.6,196.0,-7.69,186.7,206.3,191.9,202.8,190.4,36,188.3,0,5,prime,10,0,103,norm,36,-4.35,down,norm,194.619933836,174.6,199.0,194.4,203.5,2,189.0,188.8,207.3,10,6,8.195,5.125,1.965,-1.414,-4.71,-8.22,210.2,6,297.6,-8.158,-7.627,-10,-8.234,-8.252,-4.935,-5.036,-4.952,-4.903,4.592,8.06,2,-1.271,1.525,4.401,7.582,-8.493,-8.035,-2.031,1.33,190.0,188.6,201.3,,197.6,191.9,203.0,192.3,206.6,197.5,5,norm,1.704,1.26,-1.446,-1.212,-4.461,-4.598,-1.519,-1.628,-1.273,-2.025,1.6,-2.024,212.3,175.3,-4.324,-7.999,1.257,-1.232,7.522,4.489,-5.298,-8.461,26,5.097,5.077,4.767,5.288,1.173,1.335,2.052,1.709,26,4.506,4.953,-10,107.490131895,norm,0,92,92,92,465.382,465.392,465.398454967,465.399,465.4,465.403,down,1,3.63297845206,6.36702154794,001,003,1920_1080,Intel(R) Core(TM) i5-3570 CPU @ 3.40GHz,orientation_search,LEPPC096,Intel(R) HD Graphics 2500,2018_Sep_26_1547,testMonitor,
265.3,268.3,270.7,,36,10,270.7,267.8,274.3,265.9,8.105,7.766,8.299,8.372,8.097,8.022,8.42,4.446,-4.565,-8.159,1.619,-1.169,8.423,5.207,-4.773,-7.657,267.9,266.0,-7.653,262.3,267.7,266.2,262.2,267.5,36,264.8,3,5,probe,5,0,83,norm,36,-4.797,up,norm,268.011470152,275.6,266.6,258.0,271.7,3,268.5,272.3,271.4,10,6,7.57,4.89,1.146,-1.474,-4.593,-7.56,263.7,2,185.0,-8.024,-8.045,-10,-7.78,-8.204,-4.49,-4.552,-4.402,-4.884,4.931,8.278,21,-1.653,1.218,5.087,7.582,-8.395,-8.035,-1.478,1.704,265.3,261.5,266.9,272.6,270.3,270.2,271.8,278.0,271.8,271.6,0,norm,2.028,1.436,-1.815,-1.908,-4.303,-4.905,-1.906,-1.437,-2.079,-1.452,1.866,-1.105,263.0,267.0,-5.063,-8.184,1.481,-1.544,8.223,4.992,-4.952,-7.767,27,5.292,4.615,4.38,5.117,1.817,1.613,1.885,1.838,27,5.266,4.611,-10,194.619933836,norm,0,93,93,93,469.075,469.085,469.091416111,469.092,469.093,469.096,up,1,1.59023060793,8.40976939207,001,003,1920_1080,Intel(R) Core(TM) i5-3570 CPU @ 3.40GHz,orientation_search,LEPPC096,Intel(R) HD Graphics 2500,2018_Sep_26_1547,testMonitor,
301.2,303.7,293.9,298.0,36,10,297.3,299.8,291.5,301.1,7.986,7.601,7.635,8.472,7.602,7.749,7.969,4.958,-5.127,-7.67,2.021,-1.134,8.318,4.805,-5.283,-8.348,299.1,300.3,-7.777,297.6,299.8,303.2,299.6,289.7,36,308.0,1,5,probe,5,0,113,norm,36,-4.58,up,norm,298.011470152,295.8,299.9,299.8,302.6,3,300.7,304.7,292.5,10,6,8.201,4.425,1.986,-2.003,-4.403,-7.75,294.7,2,185.0,-8.257,-7.918,-10,-8.406,-8.084,-4.755,-5.115,-5.135,-5.157,4.302,8.148,9,-1.14,1.864,5.229,8.421,-8.387,-7.846,-1.524,1.556,,291.7,297.4,293.5,302.7,298.9,296.0,296.3,288.0,304.0,1,norm,2.043,1.621,-1.913,-1.165,-5.226,-4.449,-1.908,-1.284,-1.625,-1.4,1.679,-1.572,296.6,294.5,-4.935,-7.643,1.733,-1.274,8.02,4.818,-5.056,-8.209,27,5.211,5.055,5.113,4.386,1.964,1.299,2.049,1.767,27,4.498,4.469,-10,194.619933836,norm,0,94,94,94,470.729,470.738,470.744931313,470.745,470.747,470.749,up,1,1.20082832796,8.79917167204,001,003,1920_1080,Intel(R) Core(TM) i5-3570 CPU @ 3.40GHz,orientation_search,LEPPC096,Intel(R) HD Graphics 2500,2018_Sep_26_1547,testMonitor,
147.8,135.1,151.5,139.8,36,10,121.9,147.5,149.4,137.1,8.353,7.823,8.262,8.336,8.406,8.202,8.067,4.561,-4.856,-8.011,1.579,-1.729,8.377,4.573,-5.1,-7.604,139.4,148.6,-8.356,149.7,145.7,156.1,139.1,143.9,36,143.8,2,5,prime,10,0,76,norm,36,-4.38,up,norm,141.874746573,149.6,,126.0,147.0,4,135.8,132.1,136.9,10,6,7.664,5.099,1.324,-1.53,-4.432,-8.248,137.8,6,217.9,-8.071,-8.028,10,-8.444,-7.816,-5.297,-4.746,-5.184,-4.944,4.475,7.969,16,-1.539,1.764,4.531,8.494,-8.468,-7.644,-1.627,1.392,135.5,139.9,161.9,144.6,147.0,126.7,137.8,141.0,153.3,143.6,0,norm,1.4,1.687,-1.708,-1.894,-5.054,-4.689,-1.642,-1.953,-1.913,-1.141,1.346,-1.54,140.4,132.1,-4.311,-7.783,1.475,-1.458,7.579,4.879,-5.266,-7.685,28,4.643,4.359,4.717,4.685,1.974,1.161,1.594,1.161,28,4.621,4.9,10,194.619933836,norm,0,95,95,95,471.993,472.002,472.008576373,472.009,472.01,472.013,up,1,2.77166618522,7.22833381478,001,003,1920_1080,Intel(R) Core(TM) i5-3570 CPU @ 3.40GHz,orientation_search,LEPPC096,Intel(R) HD Graphics 2500,2018_Sep_26_1547,testMonitor,
135.7,127.3,134.1,137.3,36,10,121.9,150.2,124.5,161.9,7.893,8.046,7.694,8.089,7.617,7.653,8.1,4.378,-4.346,-8.198,1.535,-1.352,7.526,4.97,-5.096,-8.048,153.2,161.1,-7.713,159.5,,146.2,142.5,152.4,36,149.9,5,5,prime,10,0,117,norm,36,-4.306,down,norm,141.874746573,129.9,147.0,138.2,128.2,0,136.8,150.1,146.3,10,6,8.199,5.191,1.903,-1.887,-4.946,-7.974,143.9,6,258.9,-8.037,-7.641,10,-8.5,-8.495,-4.303,-4.934,-4.649,-5.244,4.382,7.69,30,-1.204,1.219,4.909,7.573,-7.57,-8.092,-1.915,1.374,124.3,132.4,148.5,134.6,128.0,138.1,138.0,139.5,126.5,123.5,1,norm,1.216,2.096,-1.732,-1.993,-4.676,-5.251,-1.524,-1.154,-1.512,-1.471,1.309,-2.075,152.7,121.9,-4.626,-7.514,1.297,-1.542,8.234,4.994,-5.205,-7.532,28,4.43,4.501,4.902,4.324,1.177,1.983,1.23,1.664,28,4.618,4.85,10,194.619933836,norm,0,96,96,96,474.801,474.811,474.831028884,474.831,474.833,474.836,down,1,2.89001759465,7.10998240535,001,003,1920_1080,Intel(R) Core(TM) i5-3570 CPU @ 3.40GHz,orientation_search,LEPPC096,Intel(R) HD Graphics 2500,2018_Sep_26_1547,testMonitor,
