d_ori_22,d_ori_23,d_ori_20,d_ori_21,set_size,ctpd,d_ori_24,d_ori_25,d_ori_28,d_ori_29,stim_pos_x_30,stim_pos_x_31,stim_pos_x_32,stim_pos_x_33,stim_pos_x_34,stim_pos_x_35,stim_pos_y_11,stim_pos_y_10,stim_pos_y_13,stim_pos_y_12,stim_pos_y_15,stim_pos_y_14,stim_pos_y_17,stim_pos_y_16,stim_pos_y_19,stim_pos_y_18,d_ori_35,d_ori_34,stim_pos_x_3,d_ori_31,d_ori_30,d_ori_33,d_ori_32,d_ori_26,test_set_size,d_ori_27,targetCol,dsd_test,seq_type,dsd,blockRepN,targetDist,dtype_test,prime_set_size,stim_pos_y_25,correctResponse,dtype,distrMean,d_ori_17,d_ori_16,d_ori_15,d_ori_14,targetRow,d_ori_11,d_ori_13,d_ori_12,dsd_prime,streak_length_prime,stim_pos_y_35,stim_pos_y_34,stim_pos_y_33,stim_pos_y_32,stim_pos_y_31,stim_pos_y_30,d_ori_10,nextProbe,targetOri,stim_pos_x_1,stim_pos_x_2,ctpd_prime,stim_pos_x_4,stim_pos_x_5,stim_pos_x_6,stim_pos_x_7,stim_pos_x_8,stim_pos_x_9,stim_pos_y_28,stim_pos_y_29,targetPos,stim_pos_y_20,stim_pos_y_21,stim_pos_y_22,stim_pos_y_23,stim_pos_y_24,stim_pos_x_0,stim_pos_y_26,stim_pos_y_27,d_ori_9,d_ori_8,d_ori_3,d_ori_2,d_ori_1,d_ori_0,d_ori_7,d_ori_6,d_ori_5,d_ori_4,trialN,dtype_prime,stim_pos_x_18,stim_pos_x_19,stim_pos_x_12,stim_pos_x_13,stim_pos_x_10,stim_pos_x_11,stim_pos_x_16,stim_pos_x_17,stim_pos_x_14,stim_pos_x_15,stim_pos_y_9,stim_pos_y_8,d_ori_19,d_ori_18,stim_pos_y_1,stim_pos_y_0,stim_pos_y_3,stim_pos_y_2,stim_pos_y_5,stim_pos_y_4,stim_pos_y_7,stim_pos_y_6,totBlockN,stim_pos_x_27,stim_pos_x_26,stim_pos_x_25,stim_pos_x_24,stim_pos_x_23,stim_pos_x_22,stim_pos_x_21,stim_pos_x_20,blockN,stim_pos_x_29,stim_pos_x_28,prevDistrCTPD,prevDistrMean,prevDistrType,trials.thisRepN,trials.thisTrialN,trials.thisN,trials.thisIndex,timeStart,timeBeforeDraw,timeDraw,timeAfterSaving,timeAfterWritingToTemp,timeAfterPreparingNext,answer,correct,rt,trialScore,session,participant,resolution,cpu_info,expName,pc_name,graphic_card,date,monitorName,
108.5,76.8,85.3,87.0,36,-30,94.2,85.1,86.3,87.8,7.68,7.761,8.309,7.541,8.337,7.538,7.719,4.488,-5.171,-7.807,1.106,-1.628,8.192,4.562,-5.003,-7.544,88.1,78.5,-8.174,71.3,80.8,92.8,83.3,95.3,36,90.4,2,5,prime,10,0,107,norm,36,-4.605,down,norm,88.5051886384,79.7,81.0,95.3,83.7,0,96.3,74.4,,10,5,7.987,4.807,1.774,-1.867,-4.773,-8.106,75.7,5,195.5,-8.083,-8.168,-30,-7.727,-8.312,-4.501,-4.508,-4.56,-4.405,5.116,8.155,12,-2.007,1.788,4.577,8.039,-7.804,-7.649,-1.622,1.464,94.2,90.2,88.0,81.3,97.3,91.4,91.2,96.9,70.5,77.8,0,norm,1.338,2.065,-1.827,-1.858,-4.794,-4.322,-2.082,-1.531,-2.041,-1.414,1.96,-1.435,68.5,90.2,-5.261,-7.818,2.087,-1.231,7.919,5.114,-4.319,-7.84,0,4.96,4.589,4.607,4.775,1.6,1.787,1.624,1.108,0,5.16,4.596,,,,0,0,0,0,215.681,215.707,215.727768992,215.728,215.728,215.731,down,1,3.16398480016,6.83601519984,001,023,1920_1200,Intel(R) Core(TM) i5-3570 CPU @ 3.40GHz,orientation_search,LEPPC096,Intel(R) HD Graphics 2500,2019_Jan_03_1115,testMonitor,
108.5,100.4,95.5,84.7,36,-30,68.5,92.9,75.8,88.0,8.116,7.808,7.767,8.449,8.493,8.243,8.182,4.712,-4.772,-7.775,1.58,-1.427,8.203,4.548,-4.521,-7.565,88.6,88.1,-7.505,102.9,70.8,71.4,79.8,77.5,36,96.6,2,5,prime,10,0,76,norm,36,-5.078,up,norm,88.5051886384,92.3,77.6,,105.7,3,71.7,77.8,86.0,10,5,7.966,4.325,1.562,-1.382,-4.919,-7.867,90.7,5,164.5,-7.837,-8.364,-30,-8.193,-8.331,-5.195,-4.993,-5.276,-5.175,4.528,8.132,15,-1.643,1.218,4.856,8.28,-7.748,-7.864,-1.191,1.971,83.1,93.4,100.8,93.2,90.5,105.1,75.5,94.1,74.4,80.4,1,norm,1.257,1.639,-1.319,-1.158,-4.747,-4.925,-2.051,-1.497,-1.426,-1.23,1.599,-1.292,74.5,86.2,-5.237,-8.018,1.193,-1.558,8.187,4.389,-4.76,-8.208,0,5.116,5.181,4.475,5.209,1.275,1.763,1.848,1.829,0,4.428,4.916,,,,0,1,1,1,218.94,218.949,218.957220031,218.957,218.959,218.961,up,1,4.61616110698,5.38383889302,001,023,1920_1200,Intel(R) Core(TM) i5-3570 CPU @ 3.40GHz,orientation_search,LEPPC096,Intel(R) HD Graphics 2500,2019_Jan_03_1115,testMonitor,
106.7,74.5,108.5,107.1,36,-30,85.4,100.7,93.8,73.7,7.806,8.433,8.376,8.289,8.062,7.964,8.307,4.727,-4.465,-8.299,1.392,-1.616,8.146,5.291,-4.436,-8.253,76.4,68.5,-7.733,85.8,92.6,80.7,93.7,86.6,36,76.4,0,5,prime,10,0,75,norm,36,-4.803,down,norm,88.5051886384,96.2,89.6,94.0,92.0,2,77.1,77.1,91.6,10,5,7.73,5.181,1.158,-1.856,-4.843,-8.49,91.1,5,163.5,-8.171,-8.192,-30,-8.121,-8.374,-4.859,-4.911,-5.21,-4.334,5.221,8.337,2,-1.933,1.757,5.243,7.617,-7.529,-7.66,-1.529,1.837,88.3,83.9,96.5,,88.2,88.8,84.8,79.9,95.5,76.2,2,norm,1.334,1.738,-1.66,-1.99,-4.58,-4.937,-1.385,-1.998,-1.292,-1.852,1.705,-1.321,93.2,69.9,-4.821,-7.738,1.522,-1.783,8.307,5.187,-5.024,-8.264,0,4.633,4.7,4.984,5.06,1.181,1.416,1.215,1.681,0,5.009,4.942,,,,0,2,2,2,223.611,223.628,223.64292232,223.643,223.645,223.647,down,1,3.58594917066,6.41405082934,001,023,1920_1200,Intel(R) Core(TM) i5-3570 CPU @ 3.40GHz,orientation_search,LEPPC096,Intel(R) HD Graphics 2500,2019_Jan_03_1115,testMonitor,
91.3,90.0,80.2,93.8,36,-30,97.5,95.8,68.9,74.9,7.711,8.137,7.654,7.507,8.296,8.394,7.626,4.595,-4.499,-7.946,1.949,-1.347,8.364,5.257,-4.58,-8.267,93.0,102.8,-7.632,85.3,91.8,108.5,94.8,84.6,36,91.6,0,5,prime,10,0,118,norm,36,-4.549,down,norm,88.5051886384,71.3,82.1,76.4,68.5,2,86.2,75.4,93.9,10,5,7.87,4.623,1.273,-1.24,-4.598,-8.08,93.5,5,206.5,-7.976,-7.99,-30,-7.628,-8.175,-4.535,-4.479,-5.243,-4.456,5.236,7.861,2,-1.169,1.612,5.058,7.915,-8.391,-8.062,-1.853,1.311,89.4,103.4,95.8,,73.3,79.8,98.3,76.0,87.7,95.2,3,norm,1.392,1.454,-1.956,-1.931,-4.919,-5.114,-2.023,-1.534,-1.858,-1.613,1.82,-1.575,94.2,96.4,-4.924,-7.951,1.23,-1.125,7.87,5.058,-4.615,-8.211,0,4.776,4.997,4.593,5.115,1.191,1.629,1.96,1.897,0,4.823,5.167,,,,0,3,3,3,227.266,227.276,227.284627289,227.285,227.287,227.289,down,1,5.6648286154,4.3351713846,001,023,1920_1200,Intel(R) Core(TM) i5-3570 CPU @ 3.40GHz,orientation_search,LEPPC096,Intel(R) HD Graphics 2500,2019_Jan_03_1115,testMonitor,
89.3,84.1,90.9,100.3,36,-30,87.8,92.4,83.5,81.9,7.729,7.864,7.628,8.047,8.259,7.618,7.612,4.843,-4.908,-7.881,1.144,-1.298,8.456,4.321,-4.912,-7.843,83.0,108.0,-8.355,81.1,84.2,90.7,108.5,91.7,36,87.2,3,5,prime,10,0,99,norm,36,-4.911,down,norm,88.5051886384,70.7,86.9,88.5,70.7,0,85.9,86.0,80.3,10,5,7.545,4.973,2.022,-1.93,-5.12,-8.162,90.8,5,187.5,-8.219,-7.954,-30,-8.142,-8.162,-4.623,-5.017,-5.142,-4.38,4.742,7.776,18,-1.679,1.506,4.927,8.121,-8.339,-8.003,-1.878,1.764,68.5,72.6,89.0,86.1,83.0,96.5,93.1,85.0,80.3,95.9,4,norm,2.073,1.241,-1.623,-1.958,-4.524,-5.024,-2.032,-1.454,-1.381,-1.535,1.609,-1.524,81.4,,-4.303,-8.254,1.65,-1.888,7.98,4.342,-4.77,-7.517,0,4.499,4.485,5.067,5.274,2.072,1.493,1.24,1.287,0,4.835,4.342,,,,0,4,4,4,232.987,232.999,233.019254261,233.019,233.021,233.024,down,1,1.99950979933,8.00049020067,001,023,1920_1200,Intel(R) Core(TM) i5-3570 CPU @ 3.40GHz,orientation_search,LEPPC096,Intel(R) HD Graphics 2500,2019_Jan_03_1115,testMonitor,
148.9,148.6,150.8,143.0,36,-10,157.9,146.8,148.9,147.7,8.14,8.079,7.698,8.119,8.047,8.093,8.298,4.533,-4.3,-7.949,1.83,-1.9,8.462,5.076,-5.196,-7.837,149.6,151.9,-7.817,146.3,144.3,144.2,148.9,153.1,36,152.4,0,5,probe,5,0,87,norm,36,-4.97,up,norm,147.932294134,149.3,153.8,146.8,137.9,3,146.5,144.6,152.1,10,5,8.297,4.884,1.581,-1.899,-4.757,-7.846,141.9,1,60.9,-8.119,-8.446,-30,-8.366,-8.488,-5.034,-4.543,-4.756,-5.015,4.803,8.148,3,-1.674,1.239,5.089,7.726,-8.036,-7.892,-1.842,1.225,141.8,151.9,,139.7,146.1,147.9,142.1,150.1,152.7,144.8,0,norm,1.426,1.157,-1.999,-2.055,-4.495,-4.937,-1.594,-1.826,-1.775,-2.025,1.212,-1.405,148.9,153.8,-5.146,-8.105,1.141,-1.681,8.189,4.79,-4.745,-8.124,1,4.343,4.498,4.577,4.899,1.28,1.25,1.922,1.979,1,4.76,5.146,-30,88.5051886384,norm,0,5,5,5,235.056,235.071,235.088630031,235.089,235.091,235.094,up,1,1.29772536628,8.70227463372,001,023,1920_1200,Intel(R) Core(TM) i5-3570 CPU @ 3.40GHz,orientation_search,LEPPC096,Intel(R) HD Graphics 2500,2019_Jan_03_1115,testMonitor,
140.9,155.9,164.8,140.9,36,40,137.2,157.2,132.3,155.9,8.243,7.578,7.848,8.331,7.826,8.005,8.304,4.894,-4.55,-8.251,1.256,-1.527,7.917,4.96,-5.282,-7.572,150.1,139.4,-7.663,124.8,142.3,137.8,164.7,146.8,36,128.5,0,5,prime,10,0,70,norm,36,-4.512,down,norm,144.776438804,130.1,129.7,142.0,134.0,0,137.5,137.5,146.9,10,5,8.246,4.886,1.352,-1.465,-4.968,-8.208,142.3,5,214.8,-7.759,-7.701,40,-7.821,-8.308,-4.417,-4.797,-4.955,-5.023,4.623,7.917,0,-1.264,1.943,4.998,7.644,-7.956,-7.57,-1.577,2.061,149.1,138.8,162.3,147.1,140.7,,135.3,136.6,131.9,153.1,0,norm,1.648,1.276,-1.915,-1.982,-5.12,-4.329,-1.82,-1.335,-1.917,-1.109,1.617,-1.579,163.7,148.8,-4.772,-7.678,1.163,-2.017,8.136,5.15,-4.462,-8.191,2,4.341,4.878,4.973,5.192,1.35,1.566,1.273,2.012,2,4.893,4.98,-10,88.5051886384,norm,0,6,6,6,236.411,236.421,236.427006736,236.427,236.429,236.432,down,1,1.28230064695,8.71769935305,001,023,1920_1200,Intel(R) Core(TM) i5-3570 CPU @ 3.40GHz,orientation_search,LEPPC096,Intel(R) HD Graphics 2500,2019_Jan_03_1115,testMonitor,
141.7,130.8,129.5,154.8,36,40,157.0,148.9,134.1,154.8,7.503,7.601,8.336,7.998,8.463,7.945,8.046,4.645,-4.355,-7.951,1.408,-1.376,8.211,4.995,-4.653,-8.496,133.1,145.1,-7.895,144.4,135.9,141.4,139.1,146.7,36,149.6,2,5,prime,10,0,75,norm,36,-5.222,down,norm,144.776438804,135.6,144.9,135.7,,2,155.9,143.2,145.7,10,5,7.995,4.36,1.943,-1.344,-4.546,-7.552,128.3,5,219.8,-7.637,-8.442,40,-7.954,-7.813,-4.406,-4.605,-4.419,-5.078,5.238,8.094,14,-1.425,1.43,5.265,7.585,-8.442,-8.306,-1.137,1.554,149.3,153.7,140.6,137.8,164.5,144.2,164.8,159.9,145.1,146.7,1,norm,1.61,1.436,-1.172,-1.941,-5.137,-4.316,-2.064,-1.972,-1.665,-1.663,1.942,-1.924,129.0,143.7,-4.367,-8.468,1.151,-1.188,7.676,4.876,-4.924,-8.362,2,4.834,4.76,5.074,4.33,1.997,1.577,1.342,1.564,2,5.228,4.527,-10,88.5051886384,norm,0,7,7,7,237.752,237.762,237.768417011,237.769,237.77,237.773,down,1,1.41774393596,8.58225606404,001,023,1920_1200,Intel(R) Core(TM) i5-3570 CPU @ 3.40GHz,orientation_search,LEPPC096,Intel(R) HD Graphics 2500,2019_Jan_03_1115,testMonitor,
143.8,145.1,145.2,144.9,36,40,,133.3,144.2,134.7,8.147,8.022,8.016,8.486,7.998,7.804,8.179,4.726,-5.058,-7.883,1.498,-1.237,7.61,4.972,-5.064,-8.141,144.9,156.0,-7.577,137.2,143.5,149.9,126.7,151.1,36,152.5,4,5,prime,10,0,78,norm,36,-4.618,down,norm,144.776438804,155.6,135.3,133.3,142.9,0,150.8,133.7,134.7,10,5,7.798,4.621,1.103,-1.915,-4.903,-8.464,139.5,5,222.8,-7.777,-8.082,40,-7.858,-8.462,-4.909,-4.572,-4.743,-5.29,4.39,8.191,24,-1.419,1.534,5.266,8.432,-7.673,-7.501,-1.131,1.425,148.3,124.8,144.6,152.6,138.0,135.7,151.8,136.0,142.2,164.8,2,norm,2.051,1.61,-1.895,-1.539,-4.563,-4.896,-1.888,-1.707,-1.741,-1.104,2.056,-1.594,132.9,143.0,-4.399,-8.009,1.543,-1.837,8.368,4.979,-4.5,-8.135,2,4.817,4.769,4.574,5.067,1.857,1.897,1.44,1.705,2,4.307,4.396,-10,88.5051886384,norm,0,8,8,8,239.224,239.237,239.255702431,239.256,239.258,239.26,down,1,0.962803911585,9.03719608841,001,023,1920_1200,Intel(R) Core(TM) i5-3570 CPU @ 3.40GHz,orientation_search,LEPPC096,Intel(R) HD Graphics 2500,2019_Jan_03_1115,testMonitor,
145.4,136.6,161.0,136.8,36,40,129.7,141.6,146.4,145.3,7.516,7.969,7.743,7.836,8.18,7.841,7.584,5.072,-4.45,-7.771,1.545,-2.022,7.537,4.585,-4.548,-8.491,139.1,148.9,-8.188,160.7,136.6,126.9,147.2,129.7,36,143.9,0,5,prime,10,0,67,norm,36,-4.93,up,norm,144.776438804,144.6,139.6,144.0,129.7,3,164.8,132.6,132.2,10,5,8.415,5.054,1.443,-1.578,-4.619,-8.126,149.0,5,211.8,-7.951,-7.868,40,-8.12,-8.034,-5.295,-4.511,-4.302,-5.276,4.842,8.124,3,-1.512,1.328,5.078,8.46,-8.292,-7.724,-1.19,1.993,159.9,151.3,,139.7,146.5,140.3,153.7,142.0,149.6,151.3,3,norm,2.06,1.717,-2.057,-1.24,-5.267,-4.489,-1.575,-1.409,-1.259,-1.424,1.432,-1.696,146.2,142.0,-4.382,-8.186,2.07,-1.76,7.507,4.743,-5.166,-8.185,2,4.699,4.859,4.376,4.38,1.203,1.493,1.97,1.108,2,4.453,5.117,-10,88.5051886384,norm,0,9,9,9,240.264,240.276,240.280194957,240.28,240.282,240.286,up,1,0.737940052442,9.26205994756,001,023,1920_1200,Intel(R) Core(TM) i5-3570 CPU @ 3.40GHz,orientation_search,LEPPC096,Intel(R) HD Graphics 2500,2019_Jan_03_1115,testMonitor,
139.5,139.4,164.8,127.0,36,40,141.2,145.8,133.4,146.6,7.53,7.804,8.243,7.642,8.308,8.358,8.353,4.615,-5.104,-8.198,1.969,-1.485,8.12,4.656,-5.235,-8.118,129.2,141.6,-8.5,124.8,148.4,126.0,159.0,134.0,36,,4,5,prime,10,0,116,norm,36,-5.287,up,norm,144.776438804,148.8,155.4,156.3,149.7,3,152.2,129.6,153.8,10,5,7.886,4.631,1.519,-1.148,-4.597,-8.117,161.4,5,260.8,-7.753,-8.436,40,-7.807,-7.861,-5.204,-5.051,-4.739,-4.339,5.083,8.234,27,-1.937,1.205,5.009,7.547,-7.729,-8.463,-1.69,1.957,142.2,149.5,147.8,142.7,149.7,129.3,151.4,139.9,137.0,130.8,4,norm,1.674,2.095,-2.074,-1.889,-4.981,-5.035,-1.631,-2.063,-1.53,-1.594,1.124,-1.218,138.0,132.5,-5.154,-7.865,1.965,-1.585,7.818,4.924,-5.179,-8.096,2,4.582,4.925,5.2,5.207,1.154,1.356,1.873,1.29,2,5.094,4.343,-10,88.5051886384,norm,0,10,10,10,241.04,241.05,241.056063079,241.056,241.058,241.061,up,1,0.944914907624,9.05508509238,001,023,1920_1200,Intel(R) Core(TM) i5-3570 CPU @ 3.40GHz,orientation_search,LEPPC096,Intel(R) HD Graphics 2500,2019_Jan_03_1115,testMonitor,
295.0,283.8,,291.1,36,-60,285.5,290.4,294.6,280.6,8.363,8.492,7.859,7.794,8.108,7.536,8.427,4.559,-5.281,-7.628,1.604,-1.718,7.905,4.742,-5.032,-8.091,293.5,291.3,-8.288,292.1,293.3,293.0,289.2,285.1,36,295.2,3,5,probe,5,0,106,norm,36,-4.889,down,norm,290.582481285,296.4,289.1,296.9,298.1,2,294.3,288.0,289.2,10,5,8.203,4.395,1.743,-1.687,-4.823,-8.306,287.5,2,184.6,-7.894,-7.959,40,-8.336,-7.766,-4.317,-4.306,-4.391,-4.32,4.783,7.98,20,-1.492,1.587,4.334,8.299,-7.76,-8.458,-1.647,1.841,289.5,287.3,292.2,289.3,296.9,286.1,283.9,300.6,291.4,286.5,0,norm,1.82,1.804,-1.193,-1.747,-4.936,-4.792,-1.556,-2.061,-1.202,-1.691,1.508,-1.659,292.3,286.7,-5.011,-7.88,1.451,-1.425,7.724,5.186,-4.63,-8.34,3,4.322,4.426,5.078,5.118,1.918,1.677,2.065,1.872,3,4.996,5.207,40,144.776438804,norm,0,11,11,11,242.042,242.052,242.058195935,242.058,242.06,242.063,down,1,0.844553565741,9.15544643426,001,023,1920_1200,Intel(R) Core(TM) i5-3570 CPU @ 3.40GHz,orientation_search,LEPPC096,Intel(R) HD Graphics 2500,2019_Jan_03_1115,testMonitor,
299.8,301.7,304.0,307.4,36,-60,300.7,295.4,,297.9,8.401,8.486,8.147,7.918,7.992,8.039,7.779,4.876,-4.39,-7.563,1.407,-1.967,7.968,5.018,-4.466,-8.368,304.2,311.6,-8.171,293.3,310.9,297.2,302.0,297.7,36,304.6,4,5,probe,5,0,117,norm,36,-5.205,up,norm,301.582481285,303.6,297.6,300.5,297.3,4,308.4,298.1,303.0,10,5,8.081,4.408,2.066,-1.717,-4.966,-8.113,302.9,2,184.6,-8.322,-8.176,40,-8.17,-8.239,-4.363,-4.962,-4.451,-4.479,4.885,8.266,28,-1.801,1.961,4.356,7.629,-8.16,-8.31,-1.506,1.708,301.8,297.4,291.6,306.3,298.7,301.9,294.3,302.5,297.6,298.6,1,norm,1.423,1.809,-1.504,-2.04,-4.551,-5.296,-1.647,-1.287,-1.331,-1.616,1.843,-1.954,300.0,302.0,-4.484,-8.4,1.812,-1.337,8.316,5.17,-4.843,-7.557,3,5.278,5.123,4.808,5.216,1.502,1.866,1.675,1.446,3,4.794,4.633,40,144.776438804,norm,0,12,12,12,242.948,242.969,242.979757188,242.98,242.982,242.985,up,1,0.757749713321,9.24225028668,001,023,1920_1200,Intel(R) Core(TM) i5-3570 CPU @ 3.40GHz,orientation_search,LEPPC096,Intel(R) HD Graphics 2500,2019_Jan_03_1115,testMonitor,
287.6,294.8,286.9,299.4,36,60,289.4,290.8,280.0,294.2,8.035,7.806,8.024,8.163,7.839,8.016,8.161,4.81,-5.288,-8.442,1.763,-2.062,8.313,4.609,-4.429,-7.972,303.0,282.9,-7.871,271.2,286.2,299.5,275.1,277.4,36,281.0,0,5,prime,10,0,81,norm,36,-5.226,down,norm,291.234390364,289.1,285.6,292.9,304.3,1,286.9,288.3,280.4,10,6,7.861,4.505,1.755,-1.755,-5.098,-7.735,293.7,6,372.2,-7.723,-7.563,60,-8.462,-8.025,-4.672,-5.277,-4.553,-5.117,4.999,7.783,1,-1.916,1.196,4.823,7.549,-8.267,-8.319,-1.646,1.71,285.5,287.5,295.6,284.5,,290.3,298.2,302.2,311.2,288.2,0,norm,1.834,1.931,-1.67,-1.935,-4.456,-4.808,-1.758,-1.923,-1.771,-1.557,1.152,-1.146,300.9,298.4,-4.49,-7.711,1.372,-1.638,7.74,4.534,-5.299,-7.637,4,4.932,4.728,4.594,4.523,1.971,1.123,1.845,1.28,4,5.178,5.058,-60,144.776438804,norm,0,13,13,13,243.759,243.771,243.775437385,243.776,243.778,243.781,down,1,0.788313905912,9.21168609409,001,023,1920_1200,Intel(R) Core(TM) i5-3570 CPU @ 3.40GHz,orientation_search,LEPPC096,Intel(R) HD Graphics 2500,2019_Jan_03_1115,testMonitor,
287.0,287.4,277.6,293.3,36,60,280.2,287.8,294.2,289.5,8.205,7.649,7.564,8.422,7.567,7.765,7.738,5.029,-4.683,-7.968,1.161,-1.973,7.574,4.5,-5.289,-7.772,287.5,273.9,-7.612,311.2,,290.6,299.8,275.9,36,274.6,5,5,prime,10,0,63,norm,36,-4.315,down,norm,291.234390364,273.9,287.7,295.1,286.8,0,286.4,284.5,302.6,10,6,8.222,5.104,1.802,-1.512,-4.583,-7.557,298.8,6,354.2,-7.639,-8.225,60,-7.975,-7.57,-5.211,-4.688,-4.715,-4.342,4.31,7.919,30,-1.298,2.061,4.869,8.436,-7.622,-8.439,-1.56,1.365,277.0,283.1,304.3,294.3,300.6,275.2,282.2,298.4,284.1,271.2,1,norm,1.746,1.542,-1.283,-1.664,-4.397,-5.101,-1.23,-1.878,-1.766,-1.364,1.976,-1.37,296.4,298.9,-4.631,-7.525,1.882,-1.114,8.359,4.724,-4.734,-8.101,4,5.041,4.491,4.648,5.125,1.403,1.227,1.868,1.755,4,4.312,5.124,-60,144.776438804,norm,0,14,14,14,244.586,244.596,244.602051236,244.602,244.604,244.607,down,1,0.858000277096,9.1419997229,001,023,1920_1200,Intel(R) Core(TM) i5-3570 CPU @ 3.40GHz,orientation_search,LEPPC096,Intel(R) HD Graphics 2500,2019_Jan_03_1115,testMonitor,
302.6,295.9,302.5,284.7,36,60,278.3,287.0,282.7,286.9,7.763,8.105,7.896,8.2,7.835,7.569,8.374,4.983,-4.335,-7.68,1.212,-1.584,8.096,4.433,-4.956,-7.862,275.0,274.2,-8.273,298.5,300.1,298.3,290.9,296.0,36,291.7,0,5,prime,10,0,92,norm,36,-4.602,up,norm,291.234390364,289.6,281.7,296.5,294.9,5,296.3,308.0,283.2,10,6,8.0,4.907,1.917,-1.632,-5.156,-8.184,283.0,6,383.2,-7.686,-8.146,60,-7.525,-7.586,-4.598,-4.345,-5.234,-5.063,4.897,7.809,5,-2.02,1.478,4.68,7.904,-7.795,-7.813,-1.419,1.718,293.8,292.7,271.2,287.1,311.2,295.3,296.2,272.1,,299.8,2,norm,1.173,1.907,-1.366,-1.467,-4.538,-4.707,-1.2,-1.334,-1.333,-1.528,1.465,-1.58,287.4,285.8,-5.019,-8.351,1.745,-1.333,8.479,4.682,-4.366,-8.075,4,5.274,5.223,4.968,4.511,1.172,2.027,1.697,1.678,4,4.642,4.905,-60,144.776438804,norm,0,15,15,15,245.506,245.525,245.538068881,245.538,245.54,245.543,up,1,0.757726772894,9.24227322711,001,023,1920_1200,Intel(R) Core(TM) i5-3570 CPU @ 3.40GHz,orientation_search,LEPPC096,Intel(R) HD Graphics 2500,2019_Jan_03_1115,testMonitor,
279.0,275.9,291.3,292.0,36,60,,302.1,288.7,293.0,7.522,8.125,7.718,7.524,8.184,8.21,7.816,4.446,-4.355,-7.574,1.688,-1.128,8.059,4.997,-4.776,-7.893,288.6,290.4,-8.16,291.9,281.9,275.7,310.5,284.4,36,291.9,4,5,prime,10,0,90,norm,36,-4.793,down,norm,291.234390364,286.9,298.3,302.4,291.5,0,271.2,294.5,297.2,10,6,8.438,4.908,1.482,-1.655,-4.938,-8.285,306.6,6,381.2,-7.609,-8.293,60,-7.652,-7.913,-4.465,-4.328,-5.184,-4.746,5.203,7.742,24,-1.844,1.822,5.127,7.777,-8.122,-8.208,-1.659,1.41,271.8,311.2,287.5,279.4,291.1,283.4,283.8,288.5,277.9,271.8,3,norm,1.782,1.422,-1.197,-1.312,-4.377,-5.147,-1.562,-1.178,-1.814,-1.694,1.821,-1.614,300.2,305.9,-5.099,-8.071,1.416,-1.189,8.298,4.672,-4.32,-8.388,4,4.334,4.402,5.058,5.223,1.779,1.613,1.411,2.032,4,4.538,5.063,-60,144.776438804,norm,0,16,16,16,246.317,246.327,246.333593627,246.334,246.336,246.338,down,1,2.07793194481,7.92206805519,001,023,1920_1200,Intel(R) Core(TM) i5-3570 CPU @ 3.40GHz,orientation_search,LEPPC096,Intel(R) HD Graphics 2500,2019_Jan_03_1115,testMonitor,
271.8,282.6,292.2,288.4,36,60,278.3,289.2,309.2,307.0,7.792,7.971,8.345,7.616,8.132,8.469,8.13,5.054,-5.106,-7.794,2.028,-1.628,7.735,4.412,-4.869,-8.334,287.5,288.8,-7.66,294.5,290.9,,311.2,275.3,36,289.7,5,5,prime,10,0,70,norm,36,-4.436,up,norm,291.234390364,298.6,285.0,285.9,304.2,3,278.1,291.1,300.5,10,6,7.976,4.475,2.072,-1.872,-4.655,-8.291,295.9,6,361.2,-7.53,-8.093,60,-7.944,-7.847,-4.959,-4.39,-4.809,-4.812,5.161,8.222,33,-1.571,2.058,4.667,7.659,-7.923,-7.507,-1.165,1.766,294.4,282.5,300.2,284.2,291.1,302.0,299.2,287.1,294.6,301.7,4,norm,2.07,1.439,-1.372,-1.857,-4.493,-5.123,-1.34,-1.812,-1.524,-1.763,1.232,-1.453,304.8,271.2,-4.33,-8.129,1.932,-1.649,7.512,4.776,-5.208,-7.592,4,4.789,5.0,4.899,4.89,1.131,1.396,1.648,1.496,4,5.087,4.44,-60,144.776438804,norm,0,17,17,17,248.454,248.463,248.471576059,248.472,248.473,248.476,up,1,3.73217566691,6.26782433309,001,023,1920_1200,Intel(R) Core(TM) i5-3570 CPU @ 3.40GHz,orientation_search,LEPPC096,Intel(R) HD Graphics 2500,2019_Jan_03_1115,testMonitor,
301.4,274.9,289.5,,36,60,301.5,290.1,305.1,297.3,7.854,7.893,7.933,8.222,8.155,8.249,7.525,4.32,-4.888,-7.687,1.274,-2.092,7.665,4.549,-4.963,-7.762,296.9,307.2,-8.277,271.2,283.8,296.5,287.8,276.2,36,311.2,3,5,prime,10,0,108,norm,36,-4.826,up,norm,291.234390364,295.0,284.2,293.7,289.2,3,291.2,284.9,291.5,10,6,7.697,4.423,1.55,-1.978,-4.593,-8.288,291.7,6,399.2,-7.87,-8.474,60,-7.746,-7.928,-4.788,-5.239,-4.622,-4.73,5.125,7.644,21,-1.197,1.642,4.711,8.119,-8.235,-7.863,-1.151,2.007,300.1,289.6,296.2,298.7,282.7,281.1,285.4,280.5,284.8,281.2,5,norm,1.235,1.372,-1.636,-1.276,-4.6,-5.209,-1.774,-1.929,-1.225,-1.499,1.779,-1.435,292.6,293.4,-5.046,-7.913,1.316,-1.27,8.038,4.4,-4.714,-7.55,4,5.072,4.634,5.143,4.321,1.618,1.491,1.3,1.912,4,5.287,5.279,-60,144.776438804,norm,0,18,18,18,252.225,252.235,252.243599546,252.244,252.245,252.248,up,1,1.82524678313,8.17475321687,001,023,1920_1200,Intel(R) Core(TM) i5-3570 CPU @ 3.40GHz,orientation_search,LEPPC096,Intel(R) HD Graphics 2500,2019_Jan_03_1115,testMonitor,
456.9,446.8,454.2,457.6,36,-30,445.1,,450.2,458.5,7.538,8.002,8.19,7.779,8.219,8.228,7.99,4.34,-4.692,-8.148,1.511,-2.014,7.532,4.446,-5.015,-8.064,449.5,461.7,-8.047,450.1,452.8,450.9,444.5,442.0,36,446.3,4,5,probe,5,0,107,norm,36,-4.325,down,norm,452.03240292,460.7,457.9,452.5,449.7,1,449.6,451.0,453.2,10,6,8.267,4.424,1.348,-1.315,-4.908,-8.001,444.0,2,345.0,-8.033,-7.568,60,-7.805,-7.558,-4.606,-4.568,-5.25,-4.663,5.097,7.828,25,-1.171,1.603,4.843,8.14,-8.432,-8.439,-1.153,1.559,454.1,445.0,447.3,447.2,451.9,460.1,454.9,451.5,444.1,455.0,0,norm,1.845,1.7,-1.596,-1.169,-4.823,-4.881,-1.726,-1.561,-1.219,-1.531,1.477,-1.902,455.0,454.1,-5.201,-7.51,1.332,-1.264,8.051,5.003,-4.969,-7.715,5,5.27,4.834,4.686,5.276,1.868,2.061,1.426,1.116,5,4.405,5.197,60,291.234390364,norm,0,19,19,19,254.105,254.119,254.137470196,254.138,254.139,254.142,down,1,0.9259516277,9.0740483723,001,023,1920_1200,Intel(R) Core(TM) i5-3570 CPU @ 3.40GHz,orientation_search,LEPPC096,Intel(R) HD Graphics 2500,2019_Jan_03_1115,testMonitor,
409.8,409.9,412.7,415.8,36,-30,405.0,408.3,407.2,399.7,7.639,8.374,7.901,7.952,7.916,7.585,7.59,4.364,-4.997,-8.279,1.952,-1.439,7.7,5.121,-4.345,-7.743,410.5,410.6,-8.487,416.4,413.1,402.7,405.9,405.2,36,410.7,1,5,probe,5,0,62,norm,36,-5.148,up,norm,407.03240292,416.0,409.7,408.2,417.0,4,416.9,414.6,405.9,10,6,8.283,4.756,1.325,-1.135,-4.854,-7.576,,2,345.0,-7.863,-8.025,60,-8.255,-7.67,-4.881,-4.713,-4.987,-5.252,4.481,8.207,10,-1.23,1.712,5.258,8.061,-8.475,-7.928,-1.698,1.6,409.5,408.7,414.7,399.0,412.4,411.9,409.3,397.0,411.2,409.8,1,norm,1.605,1.88,-1.468,-1.577,-4.546,-4.969,-1.918,-1.629,-1.817,-1.743,1.427,-2.074,407.9,408.4,-5.163,-7.706,1.242,-1.708,7.942,5.034,-4.728,-7.598,5,4.385,4.427,5.049,4.398,2.015,1.481,1.744,2.03,5,4.345,4.719,60,291.234390364,norm,0,20,20,20,255.101,255.114,255.133786749,255.134,255.136,255.14,up,1,0.874561453023,9.12543854698,001,023,1920_1200,Intel(R) Core(TM) i5-3570 CPU @ 3.40GHz,orientation_search,LEPPC096,Intel(R) HD Graphics 2500,2019_Jan_03_1115,testMonitor,
194.3,194.3,225.7,202.9,36,60,234.3,203.9,222.9,,7.596,7.873,8.354,8.284,7.525,7.796,7.784,4.513,-5.047,-7.687,1.543,-2.095,7.824,5.074,-4.655,-7.657,198.9,217.7,-7.521,218.2,204.9,227.5,229.5,213.5,36,224.0,4,5,prime,10,0,91,norm,36,-4.356,up,norm,214.26574784,231.4,223.4,217.9,218.0,5,212.6,219.8,216.7,10,5,8.346,4.526,1.112,-1.789,-4.886,-8.499,196.8,5,305.3,-8.314,-8.23,60,-8.495,-8.223,-4.777,-4.582,-5.132,-5.299,4.944,7.978,29,-1.5,1.253,4.511,8.306,-8.097,-7.523,-1.454,1.409,220.9,230.3,226.3,227.9,220.5,206.6,209.4,211.8,228.7,229.6,0,norm,1.86,1.958,-1.468,-1.744,-4.632,-5.184,-1.573,-1.226,-1.947,-1.181,1.819,-1.666,204.1,219.4,-4.482,-7.517,1.183,-1.595,7.662,4.803,-4.585,-7.935,6,4.578,4.306,4.568,5.217,1.579,1.627,1.622,1.998,6,4.967,4.625,-30,291.234390364,norm,0,21,21,21,256.05,256.06,256.066401665,256.067,256.068,256.071,up,1,3.64101192631,6.35898807369,001,023,1920_1200,Intel(R) Core(TM) i5-3570 CPU @ 3.40GHz,orientation_search,LEPPC096,Intel(R) HD Graphics 2500,2019_Jan_03_1115,testMonitor,
200.3,222.0,219.7,234.1,36,60,230.1,217.6,,234.3,8.191,7.933,7.936,7.645,8.15,8.468,8.395,4.44,-4.741,-8.488,1.59,-1.416,7.902,5.043,-5.113,-7.79,202.6,219.2,-7.891,221.6,232.9,194.3,206.5,209.5,36,222.6,4,5,prime,10,0,113,norm,36,-5.261,up,norm,214.26574784,208.0,225.5,217.3,207.8,4,229.0,206.7,220.6,10,5,8.282,4.749,1.222,-2.058,-4.667,-7.602,224.5,5,327.3,-7.891,-8.389,60,-8.053,-8.237,-4.889,-5.092,-4.96,-4.936,4.6,8.465,28,-1.619,1.89,5.298,8.056,-7.732,-8.115,-1.272,1.91,219.1,210.4,214.6,196.2,227.7,227.1,219.0,218.7,215.1,206.9,1,norm,1.679,1.194,-1.767,-1.314,-4.992,-4.774,-1.701,-1.838,-1.885,-1.469,1.585,-2.087,218.0,224.6,-5.246,-8.292,1.345,-1.725,8.32,4.417,-4.953,-8.14,6,4.428,5.295,4.43,4.347,1.188,1.413,1.639,1.688,6,5.048,4.404,-30,291.234390364,norm,0,22,22,22,259.732,259.742,259.747986449,259.748,259.75,259.753,up,1,2.32971760035,7.67028239965,001,023,1920_1200,Intel(R) Core(TM) i5-3570 CPU @ 3.40GHz,orientation_search,LEPPC096,Intel(R) HD Graphics 2500,2019_Jan_03_1115,testMonitor,
211.0,222.0,212.4,214.7,36,60,223.0,194.3,195.2,219.1,8.25,8.094,7.524,7.546,8.417,7.811,7.735,4.352,-5.098,-8.446,1.743,-1.711,7.87,5.186,-4.751,-8.419,221.5,208.6,-8.005,208.8,212.3,208.5,225.8,208.4,36,208.1,2,5,prime,10,0,86,norm,36,-4.473,up,norm,214.26574784,212.6,,210.6,234.3,4,214.5,215.6,218.1,10,5,8.092,4.856,1.471,-1.996,-5.006,-8.044,211.8,5,300.3,-8.128,-8.461,60,-8.038,-7.861,-4.657,-4.563,-5.136,-5.218,4.414,8.03,16,-1.426,1.897,4.494,8.134,-8.102,-8.123,-1.229,1.954,214.1,222.1,206.7,221.7,208.8,214.0,221.4,216.3,223.6,215.9,2,norm,1.551,1.301,-1.853,-1.215,-5.219,-4.826,-1.675,-1.805,-1.26,-1.609,1.617,-1.799,219.7,230.2,-5.213,-8.458,1.548,-1.921,7.522,5.198,-4.522,-8.128,6,5.093,4.702,5.223,4.657,1.161,1.128,1.395,1.998,6,4.715,4.487,-30,291.234390364,norm,0,23,23,23,262.119,262.131,262.151362435,262.152,262.154,262.157,up,1,1.55445347606,8.44554652394,001,023,1920_1200,Intel(R) Core(TM) i5-3570 CPU @ 3.40GHz,orientation_search,LEPPC096,Intel(R) HD Graphics 2500,2019_Jan_03_1115,testMonitor,
222.4,223.9,215.2,205.8,36,60,222.2,224.2,207.3,206.0,8.275,7.905,7.624,7.524,8.119,8.362,7.506,4.786,-4.428,-7.614,1.649,-1.875,7.762,4.85,-4.672,-8.392,224.1,194.3,-8.453,212.1,213.0,210.3,207.5,217.2,36,221.0,0,5,prime,10,0,80,norm,36,-4.953,up,norm,214.26574784,217.2,197.6,217.7,207.8,3,201.4,216.1,223.3,10,5,8.309,4.987,1.952,-2.076,-5.12,-7.981,210.1,5,294.3,-7.987,-8.309,60,-7.937,-7.774,-5.005,-4.963,-4.449,-4.805,4.373,8.225,3,-1.451,1.733,5.291,7.523,-7.547,-8.288,-1.439,2.072,219.1,221.6,,233.4,216.6,213.7,198.4,218.2,215.3,230.3,3,norm,1.606,1.882,-1.262,-1.627,-5.015,-4.611,-1.535,-1.842,-2.018,-1.348,1.761,-1.841,210.7,234.3,-4.927,-8.371,1.618,-1.53,7.982,5.224,-4.671,-8.361,6,4.854,5.168,4.653,4.621,1.637,1.481,1.328,1.406,6,4.845,4.643,-30,291.234390364,norm,0,24,24,24,263.744,263.754,263.7715191,263.772,263.773,263.776,up,1,1.73745407765,8.26254592235,001,023,1920_1200,Intel(R) Core(TM) i5-3570 CPU @ 3.40GHz,orientation_search,LEPPC096,Intel(R) HD Graphics 2500,2019_Jan_03_1115,testMonitor,
221.3,215.2,214.8,209.8,36,60,215.4,212.5,217.6,223.5,7.824,8.298,8.192,7.833,8.33,7.677,8.472,4.969,-4.797,-7.589,1.317,-1.83,7.863,4.44,-4.36,-8.264,211.3,196.8,-7.631,234.3,224.4,214.9,210.6,211.4,36,203.2,0,5,prime,10,0,78,norm,36,-4.451,down,norm,214.26574784,207.4,220.1,230.2,221.1,1,212.0,230.5,216.5,10,5,8.355,4.895,1.26,-1.108,-4.497,-7.76,219.1,5,292.3,-7.531,-8.255,60,-7.635,-8.041,-4.732,-4.866,-5.152,-4.612,4.737,8.391,1,-1.491,1.508,4.614,8.168,-7.609,-8.285,-1.274,1.121,197.6,212.2,222.6,228.4,,201.2,209.2,194.3,226.4,223.0,4,norm,1.112,1.731,-1.886,-1.116,-5.071,-5.169,-1.733,-2.088,-1.102,-2.049,1.871,-2.017,205.6,209.0,-4.847,-8.317,1.306,-1.49,8.207,4.54,-4.941,-8.124,6,4.682,4.629,4.879,4.43,1.137,1.506,1.416,1.675,6,4.622,5.231,-30,291.234390364,norm,0,25,25,25,265.547,265.559,265.579245133,265.579,265.581,265.584,down,1,2.92401135068,7.07598864932,001,023,1920_1200,Intel(R) Core(TM) i5-3570 CPU @ 3.40GHz,orientation_search,LEPPC096,Intel(R) HD Graphics 2500,2019_Jan_03_1115,testMonitor,
344.1,339.8,345.3,338.6,36,-20,354.0,346.0,344.6,343.2,7.563,8.405,8.09,8.446,8.384,7.992,7.687,5.268,-4.381,-7.847,1.486,-1.531,8.2,4.725,-4.48,-7.805,347.2,344.0,-8.415,348.3,345.1,345.9,348.9,351.6,36,351.4,0,5,probe,5,0,76,norm,36,-5.138,down,norm,347.578582112,349.7,337.6,343.4,348.1,2,357.3,355.8,346.9,10,5,7.571,4.914,1.542,-1.813,-4.325,-8.107,339.7,1,271.6,-8.277,-8.435,60,-8.108,-8.03,-5.019,-5.028,-5.255,-4.654,5.023,8.138,2,-1.287,1.762,4.385,8.147,-8.095,-8.268,-1.377,1.942,352.0,355.1,351.0,,352.5,352.5,340.3,354.6,348.1,354.3,0,norm,1.563,1.37,-1.836,-1.519,-4.918,-4.971,-1.84,-2.041,-1.81,-1.124,1.557,-1.406,351.2,346.1,-4.305,-8.065,1.183,-1.453,7.827,4.438,-4.44,-7.995,7,5.155,5.155,4.585,4.374,1.837,1.677,1.75,1.303,7,4.838,5.073,60,214.26574784,norm,0,26,26,26,268.546,268.559,268.578313631,268.579,268.581,268.584,down,1,1.43266396593,8.56733603407,001,023,1920_1200,Intel(R) Core(TM) i5-3570 CPU @ 3.40GHz,orientation_search,LEPPC096,Intel(R) HD Graphics 2500,2019_Jan_03_1115,testMonitor,
49.8,52.9,70.2,52.6,36,20,67.0,81.4,41.4,62.4,7.863,8.07,7.644,7.54,8.213,8.326,8.273,4.428,-4.676,-8.303,1.767,-1.622,8.336,4.431,-5.075,-7.881,46.7,58.5,-8.405,54.3,71.2,65.3,62.2,61.2,36,57.1,1,5,prime,10,0,99,norm,36,-4.451,up,norm,61.4329500329,76.1,55.8,62.9,45.6,5,,58.8,72.5,10,5,7.935,5.002,2.087,-1.858,-4.909,-8.452,66.1,5,160.4,-7.514,-8.085,20,-8.403,-7.53,-4.52,-4.636,-4.534,-4.988,5.253,8.121,11,-1.812,1.729,4.868,8.08,-8.002,-8.277,-1.983,1.665,64.8,68.8,50.4,58.0,66.1,70.3,65.1,66.7,46.8,72.9,0,norm,2.007,1.253,-1.46,-2.074,-4.894,-5.088,-1.665,-2.001,-2.064,-1.215,1.833,-1.864,71.0,43.0,-4.742,-8.007,1.246,-1.493,7.749,4.745,-4.336,-8.389,8,4.599,5.281,4.634,4.487,1.342,1.783,2.011,1.139,8,4.517,5.24,-20,214.26574784,norm,0,27,27,27,270.059,270.068,270.074784277,270.075,270.077,270.079,up,1,1.34842008386,8.65157991614,001,023,1920_1200,Intel(R) Core(TM) i5-3570 CPU @ 3.40GHz,orientation_search,LEPPC096,Intel(R) HD Graphics 2500,2019_Jan_03_1115,testMonitor,
57.6,65.6,66.4,56.8,36,20,,75.2,56.7,57.3,7.937,8.274,8.152,8.438,8.238,8.301,8.301,4.722,-4.659,-7.993,1.182,-1.849,7.686,5.152,-4.399,-7.722,66.8,41.4,-8.123,61.1,68.1,58.6,57.1,43.2,36,78.2,4,5,prime,10,0,69,norm,36,-4.516,down,norm,61.4329500329,78.7,56.3,76.3,71.3,0,58.8,81.4,61.7,10,5,7.586,4.603,1.464,-1.347,-4.871,-8.01,63.3,5,130.4,-7.752,-7.907,20,-8.279,-7.746,-4.546,-4.736,-5.057,-5.04,4.448,8.295,24,-1.332,1.743,5.126,8.07,-7.621,-8.421,-1.357,2.007,50.7,60.3,76.5,74.9,61.7,75.1,55.4,79.4,54.9,52.5,1,norm,1.165,2.088,-1.174,-2.09,-5.254,-4.831,-1.578,-1.127,-2.055,-1.57,1.565,-1.853,65.8,57.4,-4.603,-7.656,1.351,-1.778,7.613,5.014,-5.075,-7.776,8,4.453,5.026,4.686,4.804,1.862,1.586,1.901,2.0,8,4.445,4.393,-20,214.26574784,norm,0,28,28,28,271.444,271.454,271.461999638,271.462,271.464,271.467,down,1,2.5485617108,7.4514382892,001,023,1920_1200,Intel(R) Core(TM) i5-3570 CPU @ 3.40GHz,orientation_search,LEPPC096,Intel(R) HD Graphics 2500,2019_Jan_03_1115,testMonitor,
75.5,55.5,54.3,71.1,36,20,58.8,64.6,50.7,49.0,8.316,7.538,7.954,7.655,8.183,7.825,8.15,4.319,-4.853,-8.389,2.046,-1.236,8.38,5.198,-4.786,-8.232,53.1,53.6,-7.851,62.1,67.1,68.2,68.4,54.9,36,79.5,0,5,prime,10,0,101,norm,36,-4.64,down,norm,61.4329500329,58.0,55.9,66.4,57.0,2,46.3,78.9,47.0,10,5,8.115,4.48,1.752,-1.946,-4.446,-8.126,41.4,5,162.4,-8.06,-7.505,20,-8.136,-8.343,-5.279,-4.42,-5.036,-4.637,5.163,8.062,2,-1.443,1.135,4.998,7.925,-8.314,-8.416,-1.733,1.307,61.9,48.4,59.4,,41.7,61.8,73.5,58.3,61.0,62.0,2,norm,1.204,1.271,-1.451,-1.904,-5.025,-4.948,-1.391,-1.422,-1.619,-1.803,1.597,-1.505,47.4,81.4,-4.774,-7.508,2.061,-1.836,8.366,4.573,-5.165,-8.441,8,5.151,4.853,4.962,4.638,1.536,1.859,1.878,1.297,8,5.029,4.592,-20,214.26574784,norm,0,29,29,29,274.048,274.058,274.067191902,274.067,274.069,274.072,down,1,1.88864144085,8.11135855915,001,023,1920_1200,Intel(R) Core(TM) i5-3570 CPU @ 3.40GHz,orientation_search,LEPPC096,Intel(R) HD Graphics 2500,2019_Jan_03_1115,testMonitor,
63.7,55.1,55.4,73.0,36,20,48.0,77.5,59.5,60.7,7.563,8.231,8.35,8.467,7.835,7.561,8.407,5.291,-5.237,-7.784,1.915,-1.881,7.963,4.951,-4.551,-7.614,63.5,56.0,-8.239,41.4,56.3,60.7,76.6,64.1,36,68.8,1,5,prime,10,0,93,norm,36,-5.124,down,norm,61.4329500329,50.6,64.4,72.6,68.6,0,62.5,56.5,81.4,10,5,7.543,4.87,1.105,-1.988,-5.139,-8.475,76.1,5,154.4,-8.032,-7.954,20,-8.098,-7.637,-4.627,-4.652,-4.301,-4.954,4.53,8.312,6,-1.114,1.483,4.622,8.3,-7.662,-8.045,-2.074,1.975,56.9,69.2,62.5,66.2,61.0,68.7,58.0,,75.6,46.4,3,norm,1.814,1.712,-1.989,-1.485,-5.009,-4.746,-1.188,-1.327,-2.0,-1.809,1.133,-1.241,48.8,68.9,-4.881,-8.382,1.469,-1.177,8.251,4.825,-4.307,-8.494,8,4.893,5.225,4.35,5.258,1.893,1.216,2.071,1.181,8,4.39,5.031,-20,214.26574784,norm,0,30,30,30,276.002,276.011,276.019937041,276.02,276.022,276.024,down,1,1.10916140974,8.89083859026,001,023,1920_1200,Intel(R) Core(TM) i5-3570 CPU @ 3.40GHz,orientation_search,LEPPC096,Intel(R) HD Graphics 2500,2019_Jan_03_1115,testMonitor,
53.9,57.1,49.5,59.5,36,20,59.6,64.3,73.2,74.9,8.075,8.212,8.463,7.587,7.539,8.115,7.586,4.507,-4.303,-8.256,1.916,-1.853,7.663,4.924,-5.123,-8.437,59.0,44.5,-8.251,52.3,59.3,70.4,72.6,64.4,36,41.4,2,5,prime,10,0,66,norm,36,-4.387,down,norm,61.4329500329,65.0,61.6,69.5,54.2,1,42.4,,55.3,10,5,7.925,4.943,1.941,-1.695,-4.463,-7.722,61.3,5,127.4,-7.945,-8.287,20,-8.337,-7.795,-4.695,-4.493,-4.774,-5.18,4.459,7.599,13,-1.63,1.418,4.648,7.899,-8.137,-8.341,-1.471,1.598,78.7,80.8,63.2,60.7,78.3,59.9,59.6,60.8,78.8,59.4,4,norm,1.752,1.645,-1.939,-1.734,-4.723,-5.099,-1.748,-1.113,-1.573,-2.08,1.555,-2.008,54.5,81.4,-4.301,-8.264,1.662,-1.173,8.266,4.309,-4.967,-7.626,8,4.767,4.422,5.253,4.585,1.632,1.622,1.665,1.252,8,4.441,5.29,-20,214.26574784,norm,0,31,31,31,277.172,277.183,277.187898382,277.188,277.19,277.192,down,1,1.29932485725,8.70067514275,001,023,1920_1200,Intel(R) Core(TM) i5-3570 CPU @ 3.40GHz,orientation_search,LEPPC096,Intel(R) HD Graphics 2500,2019_Jan_03_1115,testMonitor,
171.3,173.7,173.0,168.5,36,-80,165.9,170.3,161.2,159.4,7.816,8.18,7.639,7.541,7.676,7.524,8.482,4.966,-5.155,-8.066,1.803,-1.258,8.47,4.309,-4.532,-7.627,167.2,169.1,-8.218,171.5,167.3,,162.9,172.2,36,162.7,5,5,probe,5,0,80,norm,36,-4.32,up,norm,165.431161253,170.5,163.8,164.9,162.1,3,164.6,164.2,158.3,10,5,8.409,4.905,1.34,-1.417,-5.203,-7.865,160.4,2,85.4,-8.044,-8.011,20,-7.592,-7.598,-4.854,-4.477,-5.234,-4.851,4.843,7.549,33,-1.69,1.942,4.73,8.125,-7.939,-7.569,-1.548,1.648,156.4,175.4,163.6,168.8,167.9,162.1,155.4,165.0,170.3,159.9,0,norm,1.905,1.875,-1.948,-1.339,-4.393,-4.837,-1.476,-1.608,-2.045,-1.603,1.823,-1.78,164.6,166.2,-5.033,-7.771,1.279,-1.745,7.94,4.724,-4.989,-8.46,9,5.06,4.932,4.327,4.59,1.486,1.822,2.02,1.738,9,5.008,4.638,20,61.4329500329,norm,0,32,32,32,278.524,278.534,278.544235026,278.544,278.546,278.549,up,1,1.24922055377,8.75077944623,001,023,1920_1200,Intel(R) Core(TM) i5-3570 CPU @ 3.40GHz,orientation_search,LEPPC096,Intel(R) HD Graphics 2500,2019_Jan_03_1115,testMonitor,
199.8,193.8,186.8,193.2,36,-80,192.9,197.3,196.9,192.0,7.913,7.83,8.256,8.132,8.41,8.039,8.163,5.011,-4.939,-8.426,2.084,-1.536,8.188,4.382,-4.579,-8.256,195.4,197.3,-8.435,195.2,196.4,196.1,196.6,197.6,36,193.8,0,5,probe,5,0,110,norm,36,-4.498,up,norm,195.431161253,202.9,200.6,205.4,189.0,3,196.7,204.1,196.6,10,5,8.311,4.472,1.557,-1.231,-5.194,-7.501,198.2,2,85.4,-8.024,-8.364,20,-7.979,-8.006,-4.607,-5.177,-4.384,-4.936,5.21,7.908,3,-1.248,1.279,4.977,8.124,-7.564,-8.384,-1.417,1.954,195.0,195.8,,192.2,199.0,196.0,201.0,195.8,195.5,190.6,1,norm,1.742,1.204,-1.77,-1.522,-4.509,-4.753,-1.171,-2.094,-2.07,-1.47,1.599,-1.502,196.7,185.4,-4.304,-7.654,1.852,-1.975,8.437,4.613,-4.934,-8.366,9,4.793,5.17,4.482,4.719,1.766,1.357,1.878,1.775,9,4.468,4.996,20,61.4329500329,norm,0,33,33,33,279.84,279.849,279.855464455,279.856,279.857,279.86,up,1,1.02862995253,8.97137004747,001,023,1920_1200,Intel(R) Core(TM) i5-3570 CPU @ 3.40GHz,orientation_search,LEPPC096,Intel(R) HD Graphics 2500,2019_Jan_03_1115,testMonitor,
125.9,108.5,106.8,113.2,36,-40,115.3,109.8,111.4,106.5,7.541,8.462,8.164,7.606,7.904,7.776,8.344,4.74,-4.975,-7.781,1.102,-1.514,7.6,5.253,-4.952,-8.085,103.1,118.1,-7.924,123.8,136.1,110.7,135.6,104.2,36,114.8,2,5,prime,10,0,107,norm,36,-4.851,up,norm,116.117701023,111.7,112.5,,125.7,3,113.3,128.1,121.4,10,5,8.42,4.923,1.491,-1.286,-4.9,-8.192,96.1,5,223.1,-7.743,-8.108,-40,-7.781,-7.754,-4.423,-4.734,-4.605,-4.767,4.897,7.754,15,-2.026,1.555,4.334,7.779,-8.229,-7.661,-1.266,1.128,110.7,108.1,105.3,112.3,119.5,113.5,116.7,119.4,122.2,101.7,0,norm,1.572,1.779,-1.398,-1.65,-4.483,-5.246,-1.244,-1.101,-1.175,-2.037,1.48,-1.635,113.1,121.0,-4.452,-8.276,2.081,-2.028,8.496,4.791,-5.242,-8.449,10,4.735,5.112,5.188,4.802,1.369,1.109,1.683,2.054,10,5.249,4.303,-80,61.4329500329,norm,0,34,34,34,280.922,280.935,280.953827867,280.954,280.956,280.958,up,1,1.08580051067,8.91419948933,001,023,1920_1200,Intel(R) Core(TM) i5-3570 CPU @ 3.40GHz,orientation_search,LEPPC096,Intel(R) HD Graphics 2500,2019_Jan_03_1115,testMonitor,
118.5,115.5,101.8,108.3,36,-40,96.1,120.8,113.9,128.3,7.832,7.953,8.37,8.359,7.71,8.209,7.576,4.329,-4.78,-7.623,1.506,-1.521,8.134,5.137,-5.06,-7.982,116.8,,-7.592,122.2,136.1,110.9,119.6,106.9,36,117.4,5,5,prime,10,0,89,norm,36,-4.599,up,norm,116.117701023,107.8,108.4,109.4,120.1,4,106.8,101.8,108.0,10,5,7.879,5.154,1.71,-1.648,-4.901,-7.655,110.8,5,205.1,-8.085,-8.159,-40,-7.582,-8.466,-4.5,-4.301,-5.215,-4.659,4.671,7.621,34,-2.071,1.864,5.028,7.602,-7.822,-8.334,-1.267,1.391,118.6,117.0,118.2,100.8,133.9,112.2,97.8,111.0,109.7,110.4,1,norm,1.521,1.106,-1.356,-1.814,-4.407,-4.497,-1.613,-2.026,-1.945,-1.921,1.919,-1.944,114.2,104.2,-4.87,-8.15,1.41,-1.793,8.364,4.561,-4.901,-7.814,10,5.121,5.078,5.203,5.148,1.475,1.172,1.554,1.259,10,4.41,5.241,-80,61.4329500329,norm,0,35,35,35,282.086,282.096,282.103781276,282.104,282.106,282.108,up,1,2.65439585334,7.34560414666,001,023,1920_1200,Intel(R) Core(TM) i5-3570 CPU @ 3.40GHz,orientation_search,LEPPC096,Intel(R) HD Graphics 2500,2019_Jan_03_1115,testMonitor,
,107.8,120.8,106.4,36,-40,110.9,117.6,112.1,108.7,8.391,8.223,7.953,8.045,8.133,7.771,8.456,5.144,-4.53,-8.166,1.184,-1.95,7.993,4.48,-4.881,-7.99,119.0,117.1,-7.802,105.3,129.5,101.2,104.0,117.7,36,118.0,3,5,prime,10,0,112,norm,36,-5.034,up,norm,116.117701023,122.7,123.2,122.6,107.7,4,123.4,123.9,125.0,10,5,8.182,4.338,1.591,-1.116,-5.141,-7.865,107.8,5,228.1,-7.881,-8.264,-40,-7.527,-7.947,-5.216,-4.439,-4.421,-4.886,5.1,8.095,22,-1.741,1.67,4.453,8.175,-7.959,-7.648,-1.682,1.671,110.6,110.8,119.0,107.7,136.1,112.4,115.4,96.1,104.6,117.6,2,norm,1.64,1.935,-1.111,-1.89,-4.539,-4.668,-2.031,-1.156,-1.542,-1.158,1.147,-1.967,115.8,116.2,-4.908,-7.682,1.916,-1.529,8.083,4.502,-4.752,-8.26,10,4.47,4.372,4.586,4.47,1.945,1.687,1.985,1.128,10,4.49,4.93,-80,61.4329500329,norm,0,36,36,36,284.795,284.805,284.815069384,284.815,284.817,284.82,up,1,0.926050935594,9.07394906441,001,023,1920_1200,Intel(R) Core(TM) i5-3570 CPU @ 3.40GHz,orientation_search,LEPPC096,Intel(R) HD Graphics 2500,2019_Jan_03_1115,testMonitor,
113.2,112.0,124.7,124.9,36,-40,96.1,117.4,111.4,108.4,7.951,8.407,7.533,7.701,7.507,7.932,8.103,4.329,-4.809,-7.832,1.924,-1.198,8.078,5.01,-4.386,-8.152,100.4,111.8,-7.668,115.1,116.2,127.5,104.3,115.3,36,126.9,3,5,prime,10,0,85,norm,36,-5.282,down,norm,116.117701023,128.0,119.4,116.3,120.6,0,134.4,136.1,115.0,10,5,7.625,4.658,1.503,-1.469,-4.662,-7.586,121.8,5,201.1,-7.579,-7.587,-40,-8.006,-8.014,-4.787,-4.441,-5.08,-5.278,4.868,8.27,18,-1.959,1.335,4.726,7.601,-7.67,-8.129,-1.591,2.077,105.4,115.1,112.6,104.7,106.3,110.6,122.4,103.3,129.2,99.4,3,norm,1.308,1.347,-1.339,-1.603,-5.12,-5.279,-2.038,-1.518,-1.565,-1.492,1.631,-1.2,108.7,,-4.798,-7.863,1.243,-1.25,7.85,5.012,-5.152,-8.002,10,4.346,4.371,4.754,4.809,2.062,1.854,2.083,1.245,10,4.442,5.156,-80,61.4329500329,norm,0,37,37,37,285.779,285.789,285.797942848,285.798,285.8,285.803,down,1,1.01278234457,8.98721765543,001,023,1920_1200,Intel(R) Core(TM) i5-3570 CPU @ 3.40GHz,orientation_search,LEPPC096,Intel(R) HD Graphics 2500,2019_Jan_03_1115,testMonitor,
127.9,125.7,130.4,121.0,36,-40,113.3,96.1,109.2,120.9,8.452,7.609,7.867,8.173,8.361,7.944,7.514,4.72,-4.922,-7.526,1.655,-1.321,8.163,5.127,-4.457,-8.096,103.8,108.1,-8.401,115.6,,130.1,115.6,131.1,36,105.2,5,5,prime,10,0,100,norm,36,-5.113,down,norm,116.117701023,113.8,109.4,125.1,106.7,0,125.8,122.3,101.2,10,5,7.585,4.689,1.273,-1.764,-4.44,-7.793,136.1,5,216.1,-8.125,-8.33,-40,-8.092,-8.028,-4.452,-4.54,-4.777,-4.786,4.561,8.255,30,-1.518,1.863,5.233,8.047,-7.542,-7.895,-1.527,1.653,101.2,116.3,128.1,128.5,98.5,123.5,100.7,120.8,133.7,125.5,4,norm,1.162,1.292,-1.147,-1.199,-5.177,-4.326,-1.487,-2.08,-1.547,-1.598,1.532,-1.477,97.0,120.4,-4.929,-8.399,1.827,-1.143,8.051,4.927,-4.922,-8.143,10,4.728,4.554,4.941,4.594,1.999,1.907,1.668,1.497,10,4.602,4.723,-80,61.4329500329,norm,0,38,38,38,286.848,286.858,286.87421131,286.874,286.876,286.879,down,1,1.41655616526,8.58344383474,001,023,1920_1200,Intel(R) Core(TM) i5-3570 CPU @ 3.40GHz,orientation_search,LEPPC096,Intel(R) HD Graphics 2500,2019_Jan_03_1115,testMonitor,
139.6,136.1,141.0,130.1,36,-80,134.0,146.9,137.9,133.8,8.135,8.498,8.121,7.822,8.338,7.966,8.459,4.866,-5.025,-7.779,1.413,-1.722,7.906,4.661,-4.902,-8.273,132.0,140.4,-7.748,129.8,144.8,131.3,141.3,136.5,36,138.8,2,5,probe,5,0,60,norm,36,-5.241,up,norm,136.936323666,134.3,,140.8,134.7,4,144.3,137.1,126.9,10,5,8.484,4.642,1.44,-1.375,-5.185,-8.16,130.9,1,76.9,-8.253,-7.952,-40,-8.273,-7.986,-5.034,-5.161,-4.397,-4.403,4.363,7.753,16,-1.99,1.375,5.257,8.388,-7.972,-8.306,-1.213,1.185,136.4,128.6,134.0,136.8,132.2,135.5,143.3,128.2,134.8,142.7,0,norm,1.986,1.668,-1.713,-1.137,-4.759,-4.56,-1.642,-1.144,-1.36,-1.888,1.809,-1.224,138.9,128.5,-5.01,-7.802,1.207,-1.298,7.506,4.978,-4.501,-7.934,11,4.682,4.638,5.048,4.839,1.171,1.522,1.881,2.044,11,4.874,4.663,-40,116.117701023,norm,0,39,39,39,288.326,288.335,288.341609192,288.342,288.343,288.346,up,1,0.860284962338,9.13971503766,001,023,1920_1200,Intel(R) Core(TM) i5-3570 CPU @ 3.40GHz,orientation_search,LEPPC096,Intel(R) HD Graphics 2500,2019_Jan_03_1115,testMonitor,
142.0,168.3,128.3,138.4,36,30,148.4,144.6,137.0,137.9,7.87,7.83,7.566,8.035,8.319,8.356,7.851,4.526,-5.181,-7.581,1.198,-1.621,8.072,4.65,-4.427,-7.574,152.0,,-8.234,151.7,133.9,141.9,140.1,150.4,36,152.6,5,5,prime,10,0,110,norm,36,-4.63,up,norm,148.330746295,133.0,153.8,142.4,148.3,4,143.5,148.7,153.6,10,6,7.724,5.187,1.329,-1.418,-4.532,-7.838,148.1,6,258.3,-8.285,-8.01,30,-8.149,-7.709,-5.2,-5.086,-5.21,-4.789,4.326,8.206,34,-1.474,1.203,5.196,8.317,-8.449,-7.62,-1.751,1.186,141.0,145.9,159.5,150.8,158.0,148.1,137.3,140.8,130.6,141.8,0,norm,1.888,1.391,-1.518,-1.645,-4.301,-5.019,-1.607,-1.412,-1.429,-1.876,2.083,-1.471,145.2,135.9,-4.913,-8.381,1.74,-1.102,8.252,4.508,-4.908,-8.449,12,5.189,4.541,4.675,4.618,1.283,1.9,1.796,1.676,12,5.281,4.339,-80,116.117701023,norm,0,40,40,40,289.239,289.25,289.260888477,289.261,289.263,289.265,up,1,1.24704121338,8.75295878662,001,023,1920_1200,Intel(R) Core(TM) i5-3570 CPU @ 3.40GHz,orientation_search,LEPPC096,Intel(R) HD Graphics 2500,2019_Jan_03_1115,testMonitor,
143.9,148.4,151.7,132.6,36,30,143.3,152.1,138.8,165.7,7.761,8.319,8.045,8.216,8.225,8.3,7.638,4.833,-5.187,-8.455,1.772,-1.505,7.98,4.955,-4.442,-8.032,152.9,144.6,-8.208,128.3,154.2,156.8,148.3,168.3,36,155.5,2,5,prime,10,0,75,norm,36,-4.687,up,norm,148.330746295,,148.6,149.1,153.0,5,160.6,146.9,163.3,10,6,7.561,4.881,1.893,-1.688,-4.613,-7.741,157.4,6,223.3,-8.006,-8.061,30,-8.002,-7.938,-4.861,-5.179,-4.435,-5.173,4.715,7.866,17,-1.412,1.373,4.748,7.962,-8.355,-8.262,-1.151,1.549,150.7,144.1,150.7,144.9,153.2,162.4,139.6,156.1,155.8,137.1,1,norm,1.589,1.568,-1.69,-1.235,-5.075,-5.127,-2.047,-1.818,-1.611,-1.806,1.591,-1.187,145.4,135.4,-4.571,-7.822,2.054,-1.827,8.256,4.312,-4.341,-8.347,12,4.991,5.14,4.884,4.719,1.351,1.43,1.935,2.022,12,4.98,4.829,-80,116.117701023,norm,0,41,41,41,290.545,290.559,290.577563238,290.578,290.579,290.582,up,1,1.10228652651,8.89771347349,001,023,1920_1200,Intel(R) Core(TM) i5-3570 CPU @ 3.40GHz,orientation_search,LEPPC096,Intel(R) HD Graphics 2500,2019_Jan_03_1115,testMonitor,
139.1,161.4,160.6,139.5,36,30,155.2,145.3,137.3,156.9,8.499,7.528,7.759,8.189,7.521,7.582,7.937,4.688,-5.262,-7.657,1.922,-1.366,8.3,5.151,-4.965,-7.709,168.3,157.9,-7.927,132.4,145.8,145.7,146.5,146.9,36,145.1,0,5,prime,10,0,79,norm,36,-4.423,down,norm,148.330746295,154.4,135.6,143.8,150.7,2,167.0,151.8,128.3,10,6,7.84,5.13,1.883,-1.423,-4.689,-8.036,141.7,6,227.3,-8.168,-7.624,30,-8.399,-7.625,-5.192,-4.416,-5.231,-5.003,4.33,8.477,2,-1.144,1.844,4.61,7.581,-8.422,-7.577,-2.074,1.272,156.3,144.8,160.3,,131.8,149.8,137.0,140.7,151.5,155.8,2,norm,1.542,1.562,-1.54,-1.525,-5.148,-4.584,-1.21,-1.529,-1.491,-1.226,1.756,-2.095,151.1,149.4,-4.817,-8.387,1.277,-2.044,8.094,5.159,-5.237,-7.517,12,4.993,5.21,4.87,4.899,1.135,1.285,1.277,1.83,12,4.385,4.87,-80,116.117701023,norm,0,42,42,42,291.717,291.73,291.756697774,291.757,291.759,291.761,down,1,0.996516677538,9.00348332246,001,023,1920_1200,Intel(R) Core(TM) i5-3570 CPU @ 3.40GHz,orientation_search,LEPPC096,Intel(R) HD Graphics 2500,2019_Jan_03_1115,testMonitor,
168.3,146.4,155.9,154.5,36,30,137.8,149.5,163.2,167.4,8.341,8.299,7.936,8.115,8.394,7.577,7.737,5.08,-4.935,-8.413,1.947,-2.059,7.85,4.57,-5.11,-7.948,163.6,137.1,-7.735,147.2,154.7,163.3,140.1,128.3,36,147.9,2,5,prime,10,0,68,norm,36,-4.314,down,norm,148.330746295,136.9,139.3,153.8,,2,137.7,165.4,157.6,10,6,7.765,4.985,1.811,-1.625,-4.803,-7.955,150.8,6,216.3,-8.306,-7.557,30,-8.129,-7.842,-4.998,-4.561,-4.46,-4.593,4.327,8.041,14,-1.539,1.636,4.636,8.032,-7.741,-7.508,-1.838,1.115,139.1,159.7,148.0,144.3,144.9,132.7,152.6,139.0,166.1,146.8,3,norm,1.472,1.103,-1.989,-1.981,-5.117,-5.095,-1.739,-2.089,-1.678,-1.509,1.792,-2.089,133.0,148.7,-4.661,-8.467,1.162,-1.799,8.082,4.827,-4.378,-8.158,12,5.119,4.739,5.279,4.836,1.735,1.849,1.497,1.584,12,4.837,4.798,-80,116.117701023,norm,0,43,43,43,292.79,292.8,292.817518576,292.818,292.819,292.822,down,1,0.909253111069,9.09074688893,001,023,1920_1200,Intel(R) Core(TM) i5-3570 CPU @ 3.40GHz,orientation_search,LEPPC096,Intel(R) HD Graphics 2500,2019_Jan_03_1115,testMonitor,
138.8,147.8,143.1,137.2,36,30,152.5,132.5,150.0,135.3,8.336,8.468,8.188,8.018,7.613,7.785,7.815,4.312,-5.056,-8.342,2.068,-1.438,7.592,4.507,-4.544,-7.858,159.1,155.5,-7.947,128.3,150.7,159.1,136.5,153.2,36,149.4,0,5,prime,10,0,70,norm,36,-4.957,up,norm,148.330746295,141.7,166.7,156.5,153.2,5,137.1,150.9,150.6,10,6,8.023,4.812,1.247,-1.571,-5.281,-8.227,150.7,6,218.3,-7.671,-8.364,30,-7.673,-8.002,-4.468,-4.539,-4.781,-4.885,4.393,8.393,5,-1.613,1.728,5.262,7.532,-8.157,-7.997,-2.044,1.871,150.2,135.3,137.3,159.3,162.7,151.3,149.6,145.3,,149.1,4,norm,1.58,2.083,-1.412,-1.911,-4.937,-4.37,-2.07,-1.954,-1.305,-1.762,1.344,-1.102,168.3,147.7,-5.29,-8.174,1.194,-1.834,8.146,4.794,-4.571,-8.379,12,4.927,4.455,5.288,4.938,1.968,1.521,1.582,1.473,12,5.255,4.672,-80,116.117701023,norm,0,44,44,44,293.764,293.774,293.784706826,293.785,293.787,293.789,up,1,0.841466569311,9.15853343069,001,023,1920_1200,Intel(R) Core(TM) i5-3570 CPU @ 3.40GHz,orientation_search,LEPPC096,Intel(R) HD Graphics 2500,2019_Jan_03_1115,testMonitor,
158.0,148.7,138.1,135.9,36,30,151.2,151.2,146.8,155.7,7.771,8.475,7.585,7.805,8.12,8.333,8.453,5.207,-4.782,-7.57,1.605,-1.971,8.101,4.986,-5.075,-7.706,142.5,168.3,-8.436,159.4,153.2,148.8,161.2,150.3,36,161.5,2,5,prime,10,0,73,norm,36,-4.601,down,norm,148.330746295,128.3,148.9,153.4,,2,156.8,155.7,151.8,10,6,8.095,4.739,1.472,-1.364,-5.036,-8.271,143.3,6,221.3,-7.949,-7.727,30,-8.194,-7.749,-5.206,-5.066,-4.626,-5.05,5.006,8.181,14,-1.794,1.496,4.473,8.053,-8.312,-7.734,-1.802,1.459,148.4,132.5,158.7,144.1,162.4,164.1,146.2,155.0,139.2,143.4,5,norm,1.63,1.56,-1.585,-1.252,-4.747,-4.901,-1.261,-1.353,-1.399,-1.944,1.131,-1.835,139.0,148.1,-4.769,-7.69,1.868,-1.656,8.405,4.663,-5.283,-7.642,12,5.052,4.96,5.137,4.784,1.737,1.406,1.947,1.617,12,5.214,4.77,-80,116.117701023,norm,0,45,45,45,294.664,294.677,294.695902931,294.696,294.698,294.7,down,1,0.792070098694,9.20792990131,001,023,1920_1200,Intel(R) Core(TM) i5-3570 CPU @ 3.40GHz,orientation_search,LEPPC096,Intel(R) HD Graphics 2500,2019_Jan_03_1115,testMonitor,
269.2,265.8,265.0,264.4,36,10,263.0,256.0,262.3,273.4,8.152,7.985,7.714,7.825,8.365,8.36,7.633,4.37,-4.711,-7.682,2.049,-1.802,7.519,4.886,-5.149,-8.238,264.6,,-7.652,273.2,265.2,274.9,258.5,266.6,36,270.1,5,5,probe,5,0,87,norm,36,-4.992,up,norm,264.923338719,271.7,260.9,271.6,263.3,4,265.6,257.2,260.3,10,6,7.913,5.043,1.879,-1.843,-5.236,-7.572,266.2,2,177.9,-7.714,-7.729,30,-8.18,-7.795,-5.247,-4.965,-4.607,-4.356,4.638,7.9,34,-2.066,1.629,4.456,8.203,-7.893,-8.11,-1.537,1.634,268.3,256.0,268.5,263.4,267.0,266.0,268.4,262.4,259.0,259.8,0,norm,1.9,1.66,-1.812,-1.183,-4.325,-4.805,-1.747,-1.11,-2.052,-1.345,1.614,-1.139,264.3,265.2,-5.219,-7.974,1.709,-1.606,7.829,4.868,-4.365,-8.46,13,4.566,4.848,5.115,4.704,1.461,1.634,1.406,1.184,13,4.918,4.386,30,148.330746295,norm,0,46,46,46,295.525,295.535,295.547228148,295.547,295.549,295.552,up,1,0.843707486638,9.15629251336,001,023,1920_1200,Intel(R) Core(TM) i5-3570 CPU @ 3.40GHz,orientation_search,LEPPC096,Intel(R) HD Graphics 2500,2019_Jan_03_1115,testMonitor,
284.0,279.5,291.1,290.1,36,10,282.4,288.6,279.6,287.6,8.274,7.746,7.664,8.079,8.296,7.868,7.746,5.224,-4.85,-7.592,1.159,-1.523,8.375,4.484,-5.131,-8.499,281.6,282.6,-7.99,289.6,295.7,295.9,288.4,288.6,36,289.5,0,5,probe,5,0,108,norm,36,-5.105,down,norm,285.923338719,284.4,282.3,276.2,283.7,1,283.5,288.8,294.6,10,6,8.398,4.964,1.306,-1.297,-4.919,-7.774,285.1,2,177.9,-7.71,-8.022,30,-7.927,-8.309,-4.863,-4.875,-4.55,-5.1,5.002,8.041,1,-1.717,1.302,4.949,8.025,-7.871,-7.807,-1.703,1.238,275.9,284.6,282.5,292.6,,287.6,290.9,282.6,284.7,282.0,1,norm,1.359,2.0,-1.699,-1.105,-5.082,-5.185,-1.405,-1.254,-2.04,-1.942,1.186,-1.47,291.9,288.7,-5.156,-7.94,1.459,-1.282,7.589,4.785,-4.921,-8.283,13,5.144,4.303,4.952,4.346,1.713,1.141,1.765,1.696,13,4.425,4.414,30,148.330746295,norm,0,47,47,47,296.438,296.459,296.469962984,296.47,296.472,296.475,down,1,1.19852161033,8.80147838967,001,023,1920_1200,Intel(R) Core(TM) i5-3570 CPU @ 3.40GHz,orientation_search,LEPPC096,Intel(R) HD Graphics 2500,2019_Jan_03_1115,testMonitor,
351.2,335.2,341.0,336.5,36,40,356.5,355.0,355.6,353.2,8.476,8.331,7.598,8.145,7.728,7.553,7.9,5.093,-5.079,-7.535,1.708,-1.919,8.324,5.095,-5.16,-7.567,350.7,346.1,-8.053,348.9,359.2,366.6,333.2,361.8,36,347.2,0,5,prime,10,0,74,norm,36,-5.273,down,norm,353.209187385,366.0,348.4,357.4,350.4,1,351.9,356.8,354.9,10,6,8.076,4.942,2.064,-1.464,-4.814,-7.511,365.4,6,427.2,-8.206,-8.445,40,-7.568,-8.289,-4.917,-5.166,-4.877,-4.513,5.124,8.028,1,-1.15,1.236,5.083,7.761,-8.313,-7.674,-1.133,1.26,355.5,346.3,354.5,353.4,,351.0,365.7,373.2,362.1,358.8,0,norm,1.164,1.941,-1.158,-1.131,-5.041,-4.997,-1.19,-1.102,-1.937,-1.654,1.57,-1.541,347.1,359.5,-4.825,-7.861,1.564,-1.922,7.627,5.046,-4.744,-7.508,14,4.391,5.237,4.807,5.177,1.376,1.208,1.397,1.189,14,4.522,5.28,10,148.330746295,norm,0,48,48,48,297.716,297.726,297.732348626,297.733,297.734,297.737,down,1,2.10826914794,7.89173085206,001,023,1920_1200,Intel(R) Core(TM) i5-3570 CPU @ 3.40GHz,orientation_search,LEPPC096,Intel(R) HD Graphics 2500,2019_Jan_03_1115,testMonitor,
372.8,370.9,343.2,333.2,36,40,355.0,357.3,350.8,363.1,7.636,8.441,7.641,8.335,8.374,7.862,8.135,5.202,-4.484,-7.978,1.101,-1.69,8.025,5.035,-4.45,-7.757,354.5,343.8,-8.481,350.3,355.1,369.7,365.6,364.8,36,373.2,0,5,prime,10,0,105,norm,36,-5.11,down,norm,353.209187385,366.3,348.5,339.8,348.9,0,345.1,354.4,341.7,10,6,7.944,5.049,1.282,-1.959,-4.626,-8.478,370.3,6,458.2,-8.413,-8.279,40,-7.545,-7.697,-4.634,-4.656,-5.2,-4.309,4.579,7.91,0,-1.336,1.322,4.353,8.14,-8.068,-8.49,-1.83,1.668,339.3,342.2,363.6,372.9,351.3,,358.1,367.1,358.0,356.1,1,norm,1.811,1.701,-1.77,-1.533,-4.627,-4.531,-1.567,-1.955,-1.815,-1.908,1.627,-1.254,338.9,347.9,-4.891,-8.263,2.056,-1.448,8.271,5.288,-5.125,-7.835,14,4.951,4.785,5.199,4.741,2.048,1.808,1.513,1.83,14,5.15,4.586,10,148.330746295,norm,0,49,49,49,299.885,299.904,299.917398773,299.918,299.92,299.923,down,1,2.98952014969,7.01047985031,001,023,1920_1200,Intel(R) Core(TM) i5-3570 CPU @ 3.40GHz,orientation_search,LEPPC096,Intel(R) HD Graphics 2500,2019_Jan_03_1115,testMonitor,
340.5,,356.4,343.2,36,40,358.5,352.8,333.9,345.7,8.08,7.619,7.628,7.957,8.068,7.936,8.115,4.594,-4.415,-7.985,1.839,-1.376,7.93,4.414,-4.421,-7.914,355.7,349.4,-7.798,367.5,361.3,363.1,346.4,346.5,36,338.7,3,5,prime,10,0,103,norm,36,-4.49,up,norm,353.209187385,361.6,367.7,363.1,356.8,5,344.1,358.7,343.0,10,6,7.739,4.447,1.778,-1.651,-4.316,-7.931,346.6,6,456.2,-7.68,-7.998,40,-8.306,-7.672,-4.329,-4.801,-4.812,-5.288,4.668,7.857,23,-1.333,1.473,4.63,8.299,-7.611,-8.19,-1.173,1.232,353.6,372.1,350.4,361.4,366.1,333.2,361.2,373.2,369.5,343.9,2,norm,1.244,1.275,-1.66,-1.683,-5.179,-4.36,-1.463,-1.157,-1.44,-1.594,1.31,-1.641,338.0,340.3,-4.403,-7.661,1.302,-1.885,7.999,4.896,-4.545,-8.143,14,5.005,5.272,4.849,5.063,1.241,1.453,1.257,2.075,14,5.148,4.642,10,148.330746295,norm,0,50,50,50,302.929,302.94,302.944699388,302.945,302.947,302.949,up,1,2.77361663954,7.22638336046,001,023,1920_1200,Intel(R) Core(TM) i5-3570 CPU @ 3.40GHz,orientation_search,LEPPC096,Intel(R) HD Graphics 2500,2019_Jan_03_1115,testMonitor,
359.9,345.1,355.3,349.8,36,40,333.2,360.9,344.2,363.3,7.696,7.806,8.211,7.786,7.762,8.416,7.609,5.244,-5.116,-8.482,1.753,-2.014,7.793,4.893,-5.209,-8.051,372.8,366.0,-8.278,,358.7,354.5,343.5,365.4,36,356.2,5,5,prime,10,0,111,norm,36,-4.77,down,norm,353.209187385,363.3,361.5,348.1,344.7,1,347.0,354.9,359.9,10,6,7.899,5.295,1.296,-1.337,-5.084,-7.705,352.5,6,464.2,-8.29,-8.342,40,-7.768,-7.843,-5.241,-4.364,-4.581,-4.918,4.373,8.168,31,-1.53,1.847,4.601,7.843,-7.901,-7.715,-1.927,1.199,343.3,342.3,356.6,364.3,354.5,362.1,346.4,351.7,337.6,358.5,3,norm,1.384,1.778,-1.779,-1.949,-4.579,-5.132,-1.536,-1.291,-1.767,-1.861,1.593,-1.65,364.2,353.2,-4.794,-7.801,1.239,-1.315,8.173,4.896,-4.876,-7.954,14,5.205,4.86,4.391,4.923,1.348,1.461,1.968,1.15,14,4.72,4.583,10,148.330746295,norm,0,51,51,51,305.766,305.789,305.798420371,305.799,305.801,305.803,down,1,2.26358910801,7.73641089199,001,023,1920_1200,Intel(R) Core(TM) i5-3570 CPU @ 3.40GHz,orientation_search,LEPPC096,Intel(R) HD Graphics 2500,2019_Jan_03_1115,testMonitor,
336.4,349.0,342.6,364.5,36,40,366.4,358.0,351.8,367.6,7.868,8.222,7.633,8.359,7.761,7.504,7.821,4.455,-5.297,-8.188,1.775,-1.458,7.754,4.63,-4.448,-8.143,347.6,348.3,-8.303,,337.4,335.3,348.8,348.9,36,346.8,5,5,prime,10,0,92,norm,36,-4.512,down,norm,353.209187385,347.8,354.5,344.0,368.1,1,357.3,365.0,345.7,10,6,7.96,5.109,1.977,-1.41,-5.163,-8.43,373.2,6,445.2,-8.008,-8.094,40,-7.948,-8.308,-5.088,-4.971,-4.327,-5.194,4.563,8.029,31,-2.031,1.423,4.72,8.149,-8.342,-7.549,-1.129,1.497,342.4,341.1,338.0,356.9,361.9,347.9,370.2,365.5,358.0,354.8,4,norm,1.281,2.02,-1.754,-1.709,-5.051,-4.612,-1.954,-1.638,-1.986,-1.706,1.501,-1.216,351.1,343.7,-5.267,-8.137,1.93,-1.959,7.902,4.439,-4.704,-8.469,14,5.212,4.923,5.142,4.743,1.421,1.977,1.235,1.995,14,4.592,4.928,10,148.330746295,norm,0,52,52,52,308.1,308.11,308.120450514,308.121,308.122,308.125,down,1,1.6000735301,8.3999264699,001,023,1920_1200,Intel(R) Core(TM) i5-3570 CPU @ 3.40GHz,orientation_search,LEPPC096,Intel(R) HD Graphics 2500,2019_Jan_03_1115,testMonitor,
343.2,368.5,368.2,362.2,36,40,351.7,363.4,365.9,342.4,7.679,7.904,8.05,8.204,8.297,7.874,8.165,5.243,-4.884,-8.117,1.492,-1.181,8.451,5.154,-4.733,-7.663,333.2,,-8.402,356.3,356.3,353.1,364.1,355.7,36,344.9,5,5,prime,10,0,111,norm,36,-5.085,up,norm,353.209187385,350.4,348.2,333.9,345.1,4,365.1,356.9,355.3,10,6,8.245,4.359,1.977,-2.06,-4.853,-7.985,336.0,6,464.2,-8.006,-7.955,40,-8.154,-8.197,-4.69,-4.571,-4.826,-4.784,5.042,8.244,34,-1.696,2.053,4.766,8.384,-8.064,-8.0,-2.049,1.474,353.1,362.2,373.2,350.2,366.3,349.9,344.9,348.4,340.8,350.7,5,norm,1.514,1.573,-1.56,-1.952,-4.651,-4.964,-2.071,-2.028,-1.535,-1.577,1.549,-1.648,359.3,365.9,-4.69,-7.861,2.063,-1.119,7.653,4.869,-5.158,-7.92,14,4.501,5.253,4.422,5.1,1.461,1.67,1.705,1.261,14,5.138,4.371,10,148.330746295,norm,0,53,53,53,309.743,309.753,309.759382106,309.76,309.761,309.764,up,1,3.07765062276,6.92234937724,001,023,1920_1200,Intel(R) Core(TM) i5-3570 CPU @ 3.40GHz,orientation_search,LEPPC096,Intel(R) HD Graphics 2500,2019_Jan_03_1115,testMonitor,
495.7,492.8,487.6,487.3,36,0,484.4,496.9,496.7,488.4,8.118,8.245,7.783,7.689,7.75,7.865,7.593,5.3,-4.844,-7.88,1.777,-1.752,7.885,5.273,-4.908,-7.88,496.8,496.0,-7.78,504.4,494.3,495.0,492.8,490.1,36,491.5,0,5,probe,5,0,104,norm,36,-4.534,down,norm,494.386021537,494.1,495.6,490.3,492.9,2,493.6,497.2,493.6,10,6,7.676,4.811,1.222,-1.757,-4.447,-7.876,496.9,2,390.4,-8.464,-8.172,40,-8.006,-7.712,-5.165,-5.149,-4.999,-4.879,5.165,7.79,2,-1.216,1.378,4.49,7.929,-7.688,-8.133,-1.336,1.36,497.6,493.0,503.9,,496.3,497.8,504.4,500.3,491.5,491.3,0,norm,1.227,1.464,-1.793,-1.694,-5.043,-5.296,-1.406,-1.418,-2.088,-2.099,1.396,-1.501,496.0,499.1,-5.141,-8.315,1.866,-1.522,8.146,4.47,-4.462,-8.011,15,5.291,4.397,4.597,4.414,1.222,1.608,1.393,2.051,15,4.548,4.584,40,353.209187385,norm,0,54,54,54,312.874,312.884,312.893911098,312.894,312.896,312.898,down,1,1.26597249745,8.73402750255,001,023,1920_1200,Intel(R) Core(TM) i5-3570 CPU @ 3.40GHz,orientation_search,LEPPC096,Intel(R) HD Graphics 2500,2019_Jan_03_1115,testMonitor,
517.9,508.6,513.9,516.7,36,0,505.0,512.7,501.4,504.1,8.476,8.104,8.368,8.157,8.374,8.254,8.344,4.314,-5.122,-7.981,1.551,-1.493,7.507,4.424,-4.816,-7.671,511.8,499.9,-8.135,508.8,505.9,513.4,507.9,518.4,36,512.9,2,5,probe,5,0,118,norm,36,-5.205,up,norm,508.386021537,510.4,513.5,,504.3,3,504.4,509.0,510.8,10,6,7.82,4.736,1.622,-1.924,-4.934,-8.023,517.7,2,390.4,-7.665,-7.634,40,-7.899,-7.833,-5.024,-4.586,-4.632,-4.939,4.707,8.186,15,-1.102,1.572,5.101,7.652,-7.875,-7.592,-1.331,1.695,508.3,504.4,515.5,513.5,506.2,509.4,508.6,498.4,508.6,510.0,1,norm,1.614,1.736,-1.332,-1.195,-5.149,-4.957,-1.683,-2.056,-2.006,-1.839,1.593,-1.159,504.2,504.4,-4.893,-7.93,1.272,-1.676,8.478,4.863,-4.585,-8.058,15,4.762,4.999,5.187,5.073,1.574,1.552,1.336,1.443,15,4.402,5.287,40,353.209187385,norm,0,55,55,55,314.205,314.224,314.237622961,314.238,314.24,314.243,up,1,1.04571423052,8.95428576948,001,023,1920_1200,Intel(R) Core(TM) i5-3570 CPU @ 3.40GHz,orientation_search,LEPPC096,Intel(R) HD Graphics 2500,2019_Jan_03_1115,testMonitor,
139.9,,129.7,139.9,36,-40,124.8,131.8,133.4,117.7,7.894,7.536,8.213,7.879,8.154,7.908,7.549,4.337,-4.738,-8.221,1.145,-1.188,8.074,4.877,-4.962,-8.189,150.4,134.1,-7.5,138.1,146.9,139.8,125.4,147.2,36,135.4,3,5,prime,10,0,90,norm,36,-4.827,up,norm,137.261208887,140.8,135.7,149.9,157.3,5,130.0,138.4,132.9,10,6,8.335,4.978,1.9,-1.227,-5.026,-8.456,142.7,6,227.3,-8.426,-7.572,-40,-7.698,-8.195,-4.73,-4.735,-4.69,-4.987,4.859,7.829,23,-1.988,1.481,4.898,8.451,-7.879,-8.435,-1.49,1.948,136.6,127.2,143.2,136.3,130.2,117.3,156.4,137.0,124.5,146.7,0,norm,1.959,2.038,-1.621,-2.023,-4.913,-4.512,-1.868,-2.081,-1.704,-1.858,1.268,-1.258,142.3,139.6,-4.815,-8.188,1.215,-1.814,7.909,4.563,-4.62,-7.774,16,5.179,4.335,4.993,4.501,1.37,1.47,1.698,1.573,16,5.256,4.416,0,353.209187385,norm,0,56,56,56,315.328,315.338,315.344113623,315.344,315.346,315.349,up,1,0.962193877382,9.03780612262,001,023,1920_1200,Intel(R) Core(TM) i5-3570 CPU @ 3.40GHz,orientation_search,LEPPC096,Intel(R) HD Graphics 2500,2019_Jan_03_1115,testMonitor,
153.0,140.0,153.8,,36,-40,134.6,132.8,137.9,142.9,7.571,8.01,8.117,8.309,8.461,7.707,8.481,5.204,-5.022,-7.781,1.11,-1.261,7.896,4.371,-4.485,-7.543,151.5,129.2,-7.585,117.3,145.4,151.3,139.0,157.3,36,131.3,3,5,prime,10,0,110,norm,36,-4.929,up,norm,137.261208887,133.6,132.5,142.9,125.9,3,139.3,143.8,156.9,10,6,8.163,4.615,1.446,-2.081,-4.52,-8.218,142.0,6,247.3,-8.167,-7.59,-40,-8.385,-8.099,-4.524,-4.952,-5.102,-4.555,4.451,8.18,21,-1.894,1.479,5.022,8.296,-7.975,-8.205,-1.393,1.35,127.8,136.7,137.2,122.4,131.3,144.1,146.2,145.1,140.6,142.4,1,norm,1.596,1.338,-1.14,-1.935,-4.343,-4.833,-1.438,-1.306,-1.427,-1.687,1.649,-1.997,138.3,123.0,-4.669,-8.099,1.974,-1.82,8.172,5.007,-4.577,-7.89,16,4.787,4.757,5.272,4.584,1.567,1.892,2.025,1.934,16,4.364,4.746,0,353.209187385,norm,0,57,57,57,316.327,316.337,316.357036628,316.357,316.359,316.362,up,1,1.11073796028,8.88926203972,001,023,1920_1200,Intel(R) Core(TM) i5-3570 CPU @ 3.40GHz,orientation_search,LEPPC096,Intel(R) HD Graphics 2500,2019_Jan_03_1115,testMonitor,
157.3,143.3,156.9,130.8,36,-40,148.4,131.2,144.6,139.0,8.112,7.534,8.447,8.092,8.46,8.181,8.427,4.762,-4.973,-7.719,1.597,-1.399,7.622,4.99,-5.146,-7.706,143.0,142.0,-8.293,153.6,137.9,139.6,138.9,133.9,36,149.6,1,5,prime,10,0,70,norm,36,-4.979,up,norm,137.261208887,135.8,126.0,140.7,142.0,4,140.0,143.1,135.4,10,6,7.97,5.276,1.162,-1.377,-4.547,-8.177,,6,207.3,-7.97,-7.535,-40,-7.844,-8.295,-4.466,-4.792,-4.712,-5.074,4.477,8.491,10,-1.416,1.959,5.172,7.787,-8.07,-8.048,-1.826,1.345,148.9,148.1,148.5,141.9,130.2,142.9,125.8,117.3,155.9,150.6,2,norm,1.29,1.511,-1.588,-1.398,-4.917,-4.82,-1.233,-1.806,-1.778,-1.831,1.957,-1.291,150.8,134.6,-4.611,-8.256,1.325,-1.652,8.31,4.817,-4.764,-8.001,16,4.747,4.82,4.996,4.607,1.337,1.778,1.45,1.85,16,4.928,5.063,0,353.209187385,norm,0,58,58,58,317.512,317.522,317.52801856,317.528,317.53,317.533,up,1,0.810221408306,9.18977859169,001,023,1920_1200,Intel(R) Core(TM) i5-3570 CPU @ 3.40GHz,orientation_search,LEPPC096,Intel(R) HD Graphics 2500,2019_Jan_03_1115,testMonitor,
143.0,145.2,,132.2,36,-40,126.5,130.4,146.2,150.7,8.008,8.133,7.989,7.624,7.518,8.356,7.822,5.009,-5.273,-7.554,1.2,-1.663,8.288,4.474,-4.528,-8.499,149.2,139.7,-8.026,148.9,138.3,150.7,140.9,138.8,36,130.6,3,5,prime,10,0,71,norm,36,-4.912,down,norm,137.261208887,139.6,132.6,151.8,142.0,2,143.9,146.9,157.3,10,6,7.937,5.24,1.762,-1.864,-4.706,-7.506,150.8,6,208.3,-8.096,-7.508,-40,-7.553,-7.998,-4.879,-4.597,-4.654,-5.046,5.28,7.925,20,-1.859,1.693,4.411,8.424,-8.406,-8.28,-1.911,1.96,131.8,147.9,131.6,124.6,139.4,133.4,133.6,143.7,117.3,150.2,3,norm,1.608,1.892,-1.713,-1.989,-4.637,-4.644,-1.791,-1.314,-1.451,-2.082,1.794,-1.319,142.8,137.5,-4.759,-7.908,1.201,-1.934,7.854,4.549,-5.203,-8.332,16,4.684,4.841,4.817,4.564,1.593,1.168,1.402,1.727,16,4.479,4.457,0,353.209187385,norm,0,59,59,59,318.386,318.395,318.402132373,318.402,318.404,318.407,down,1,0.754770476517,9.24522952348,001,023,1920_1200,Intel(R) Core(TM) i5-3570 CPU @ 3.40GHz,orientation_search,LEPPC096,Intel(R) HD Graphics 2500,2019_Jan_03_1115,testMonitor,
123.6,120.3,135.3,117.3,36,-40,130.4,153.7,150.1,139.6,8.407,8.439,8.197,8.415,8.197,8.103,8.285,5.028,-4.904,-8.054,2.051,-1.69,8.39,4.878,-4.601,-8.378,126.1,130.6,-8.289,140.4,131.2,147.3,129.4,123.7,36,135.1,3,5,prime,10,0,115,norm,36,-5.188,down,norm,137.261208887,126.8,141.7,118.6,133.6,1,144.0,140.1,139.8,10,6,7.848,4.424,1.451,-1.391,-5.164,-8.026,149.1,6,252.3,-7.978,-8.031,-40,-7.864,-8.436,-4.322,-5.279,-4.839,-5.026,4.68,7.817,19,-1.849,1.995,4.623,8.388,-7.661,-7.968,-1.117,1.332,140.5,135.3,151.0,134.2,130.9,140.6,134.4,126.0,120.7,122.5,4,norm,1.544,2.083,-1.294,-1.637,-4.655,-5.218,-1.224,-1.479,-1.865,-1.704,1.744,-1.897,,157.3,-5.101,-7.894,1.341,-1.372,8.314,4.693,-4.751,-8.285,16,4.315,4.407,4.483,4.792,1.875,1.62,1.762,1.322,16,4.563,4.988,0,353.209187385,norm,0,60,60,60,319.197,319.207,319.212655327,319.213,319.215,319.217,down,1,0.995074751074,9.00492524893,001,023,1920_1200,Intel(R) Core(TM) i5-3570 CPU @ 3.40GHz,orientation_search,LEPPC096,Intel(R) HD Graphics 2500,2019_Jan_03_1115,testMonitor,
137.0,141.4,136.1,132.2,36,-40,137.1,149.7,135.0,149.3,8.361,8.206,8.444,7.966,8.031,8.107,8.112,4.644,-4.433,-8.157,1.642,-1.446,8.037,5.029,-4.632,-7.965,132.8,146.4,-8.035,124.4,117.3,139.7,141.8,136.9,36,136.1,0,5,prime,10,0,115,norm,36,-4.678,up,norm,137.261208887,135.1,156.8,122.1,157.3,4,138.2,133.7,135.9,10,6,8.225,4.971,1.477,-1.212,-5.013,-7.541,118.4,6,252.3,-8.021,-8.327,-40,-7.575,-7.587,-4.54,-4.624,-4.971,-5.16,4.965,8.26,4,-1.664,2.028,4.455,7.943,-7.619,-8.009,-1.754,1.987,127.8,146.9,127.5,133.1,135.1,148.7,138.9,137.0,137.7,,5,norm,2.081,1.186,-1.396,-1.151,-5.15,-5.049,-2.006,-1.66,-1.176,-1.166,1.182,-1.917,137.7,151.7,-5.102,-7.927,1.575,-1.367,8.085,4.46,-4.461,-8.248,16,4.974,4.463,5.172,5.244,2.051,1.523,1.816,1.604,16,5.216,4.931,0,353.209187385,norm,0,61,61,61,320.246,320.26,320.277766894,320.278,320.28,320.283,up,1,0.825216296516,9.17478370348,001,023,1920_1200,Intel(R) Core(TM) i5-3570 CPU @ 3.40GHz,orientation_search,LEPPC096,Intel(R) HD Graphics 2500,2019_Jan_03_1115,testMonitor,
197.1,200.4,200.3,193.9,36,30,207.8,209.3,199.9,190.6,8.046,8.251,7.721,7.745,7.851,8.469,7.559,4.391,-5.221,-7.714,1.874,-1.22,7.594,4.701,-4.575,-8.264,195.4,197.2,-7.835,200.1,197.7,201.0,,201.8,36,202.4,5,5,probe,5,0,107,norm,36,-5.23,down,norm,200.636160141,200.8,201.0,200.3,201.2,2,204.9,202.1,196.3,10,6,8.225,4.735,1.855,-1.235,-4.433,-7.85,196.1,2,93.6,-7.594,-8.204,-40,-7.86,-8.098,-5.181,-4.389,-5.074,-4.58,5.166,7.799,32,-1.742,1.892,4.895,8.171,-7.743,-7.828,-1.291,1.688,205.2,196.8,194.7,196.5,196.9,200.7,197.8,199.6,210.6,197.6,0,norm,1.103,2.081,-1.995,-1.865,-4.447,-4.809,-1.12,-1.156,-1.337,-1.901,1.634,-1.634,198.9,194.0,-4.88,-7.816,1.881,-1.125,8.422,4.882,-5.08,-7.566,17,4.316,4.6,4.704,5.2,1.504,1.882,2.014,1.35,17,4.306,4.668,-40,137.261208887,norm,0,62,62,62,321.146,321.156,321.162732736,321.163,321.165,321.167,down,1,2.14117416944,7.85882583056,001,023,1920_1200,Intel(R) Core(TM) i5-3570 CPU @ 3.40GHz,orientation_search,LEPPC096,Intel(R) HD Graphics 2500,2019_Jan_03_1115,testMonitor,
176.1,175.4,169.1,171.2,36,30,185.4,175.8,,172.8,7.792,8.414,8.018,7.888,7.693,8.301,8.406,5.223,-5.006,-7.602,1.819,-1.461,7.956,4.734,-5.183,-7.776,177.4,175.3,-8.158,182.8,168.3,187.6,172.5,175.0,36,182.6,4,5,probe,5,0,84,norm,36,-4.829,up,norm,177.636160141,176.4,174.4,167.6,176.7,4,179.8,176.5,181.4,10,6,8.102,5.15,1.131,-1.562,-4.474,-8.011,171.3,2,93.6,-8.227,-8.194,-40,-7.802,-7.539,-4.478,-4.883,-4.397,-4.717,4.782,7.818,28,-1.23,1.773,4.645,7.617,-7.91,-7.646,-1.671,1.709,179.0,179.3,179.3,179.0,176.9,174.0,179.9,169.0,174.2,174.6,1,norm,1.604,1.592,-1.517,-1.386,-4.539,-4.635,-1.573,-1.209,-1.988,-1.862,1.796,-1.565,176.9,180.4,-5.118,-7.808,1.132,-1.579,8.177,4.304,-4.601,-8.497,17,4.718,5.043,4.908,4.455,1.166,1.314,1.561,1.463,17,5.059,4.783,-40,137.261208887,norm,0,63,63,63,323.341,323.352,323.357269353,323.357,323.359,323.362,up,1,2.40796648525,7.59203351475,001,023,1920_1200,Intel(R) Core(TM) i5-3570 CPU @ 3.40GHz,orientation_search,LEPPC096,Intel(R) HD Graphics 2500,2019_Jan_03_1115,testMonitor,
264.9,253.0,258.9,241.9,36,0,250.5,254.8,274.1,256.7,7.84,8.226,8.493,7.51,7.594,8.361,7.862,5.183,-4.477,-7.767,1.835,-1.269,7.691,5.236,-4.764,-8.233,256.2,273.9,-7.843,234.2,268.0,257.9,258.1,253.3,36,256.3,2,5,prime,10,0,92,norm,36,-4.799,down,norm,254.111542658,251.8,251.9,265.8,,2,248.3,254.1,238.4,10,5,8.498,4.537,1.31,-1.401,-4.702,-8.462,242.1,5,346.1,-7.778,-7.719,0,-7.645,-8.343,-4.341,-4.324,-4.433,-4.902,5.116,7.807,14,-1.251,2.045,4.875,7.695,-8.255,-8.183,-1.495,1.886,246.8,234.1,249.5,250.5,239.3,266.8,249.3,253.6,243.7,260.2,0,norm,2.065,1.399,-1.948,-1.123,-4.532,-4.495,-1.683,-2.077,-1.936,-2.08,1.881,-2.02,242.6,241.4,-5.279,-8.293,1.398,-1.736,7.983,4.504,-5.2,-7.719,18,4.804,4.781,5.255,4.971,1.895,1.248,1.619,1.184,18,4.72,4.485,30,137.261208887,norm,0,64,64,64,325.811,339.719,339.726016163,339.726,339.729,339.731,down,1,2.36712437846,7.63287562154,001,023,1920_1200,Intel(R) Core(TM) i5-3570 CPU @ 3.40GHz,orientation_search,LEPPC096,Intel(R) HD Graphics 2500,2019_Jan_03_1115,testMonitor,
242.6,,258.0,248.2,36,0,245.2,260.3,253.5,252.8,7.933,8.151,8.172,8.333,8.242,8.331,8.36,5.206,-4.459,-7.994,1.633,-1.773,7.657,4.682,-4.654,-8.46,242.5,253.9,-7.736,254.1,254.5,251.1,235.2,248.2,36,261.5,3,5,prime,10,0,96,norm,36,-4.762,up,norm,254.111542658,263.5,234.1,264.5,254.9,5,245.3,249.3,256.8,10,5,7.645,4.321,1.416,-1.693,-5.031,-7.821,268.3,5,350.1,-7.893,-8.299,0,-7.649,-8.015,-4.639,-4.515,-4.596,-4.624,4.639,7.616,23,-1.411,1.685,4.764,7.813,-7.897,-7.829,-1.448,1.603,244.1,247.0,264.1,274.1,255.7,252.2,255.8,244.1,252.5,259.5,1,norm,1.996,1.494,-2.077,-1.98,-4.372,-4.444,-1.484,-1.314,-1.288,-1.591,1.845,-1.903,253.5,268.0,-4.49,-8.02,1.77,-1.895,7.75,4.43,-4.967,-8.211,18,4.817,5.26,4.713,4.379,1.733,1.952,1.808,1.255,18,5.227,5.096,30,137.261208887,norm,0,65,65,65,342.131,342.14,342.15827354,342.158,342.16,342.163,up,1,1.72199253289,8.27800746711,001,023,1920_1200,Intel(R) Core(TM) i5-3570 CPU @ 3.40GHz,orientation_search,LEPPC096,Intel(R) HD Graphics 2500,2019_Jan_03_1115,testMonitor,
261.3,254.6,262.3,255.3,36,0,240.4,255.9,255.9,268.7,8.26,8.034,7.966,8.209,8.476,7.904,8.276,4.396,-5.259,-7.63,1.216,-1.203,8.104,4.56,-4.984,-8.437,255.9,254.8,-8.151,249.7,274.1,,234.1,256.6,36,247.4,5,5,prime,10,0,67,norm,36,-4.963,up,norm,254.111542658,252.9,242.9,254.3,260.4,3,250.2,237.2,257.8,10,5,7.548,5.191,1.798,-1.787,-4.762,-7.851,251.1,5,321.1,-8.315,-7.738,0,-8.216,-7.709,-4.515,-4.656,-4.677,-5.166,4.756,7.662,33,-2.041,1.906,4.674,7.732,-7.879,-7.641,-1.223,1.219,244.3,247.7,263.1,253.7,246.6,255.4,240.3,258.2,251.7,263.8,2,norm,1.699,1.464,-1.383,-1.948,-4.312,-4.82,-1.261,-1.969,-1.788,-1.401,1.27,-1.26,264.4,259.0,-4.532,-8.05,1.693,-1.73,7.506,4.516,-5.108,-7.577,18,4.996,4.74,5.2,4.461,1.415,1.781,1.483,1.763,18,4.388,4.946,30,137.261208887,norm,0,66,66,66,343.906,343.915,343.922125708,343.922,343.924,343.927,up,1,1.09528245248,8.90471754752,001,023,1920_1200,Intel(R) Core(TM) i5-3570 CPU @ 3.40GHz,orientation_search,LEPPC096,Intel(R) HD Graphics 2500,2019_Jan_03_1115,testMonitor,
235.7,243.9,257.4,243.9,36,0,250.7,257.2,247.2,260.9,7.576,8.078,8.423,7.574,7.735,8.454,7.961,4.804,-5.163,-7.928,2.033,-1.212,8.286,4.861,-4.775,-8.324,252.3,253.9,-8.001,274.1,256.6,257.0,254.8,249.4,36,234.1,1,5,prime,10,0,87,norm,36,-4.357,down,norm,254.111542658,259.7,253.0,258.3,250.9,0,235.0,235.5,255.5,10,5,7.99,4.683,1.116,-1.201,-4.758,-8.264,249.3,5,341.1,-8.321,-8.108,0,-8.141,-7.991,-4.78,-5.273,-5.017,-4.885,4.785,8.135,6,-1.388,1.194,4.88,7.901,-7.576,-7.842,-1.998,1.389,264.6,254.7,239.2,240.5,247.6,246.7,248.0,,261.2,260.6,3,norm,1.915,1.95,-1.52,-1.386,-4.328,-4.727,-1.553,-2.068,-1.817,-1.254,1.217,-1.755,238.6,256.9,-4.396,-8.456,2.081,-1.737,8.202,4.716,-4.537,-7.742,18,4.808,4.656,4.439,5.013,1.733,1.949,1.741,1.593,18,4.38,4.319,30,137.261208887,norm,0,67,67,67,345.061,345.086,345.106601138,345.107,345.109,345.111,down,1,1.82744785657,8.17255214343,001,023,1920_1200,Intel(R) Core(TM) i5-3570 CPU @ 3.40GHz,orientation_search,LEPPC096,Intel(R) HD Graphics 2500,2019_Jan_03_1115,testMonitor,
235.1,257.8,248.3,251.0,36,0,253.2,256.1,234.1,254.6,7.567,7.696,7.501,7.938,8.256,7.974,7.734,4.629,-4.636,-7.965,2.047,-1.778,8.303,5.045,-4.86,-8.383,274.1,263.8,-8.408,268.5,260.6,269.5,253.0,252.6,36,242.9,0,5,prime,10,0,68,norm,36,-5.074,up,norm,254.111542658,253.5,259.3,246.8,261.5,5,262.2,237.0,249.0,10,5,7.509,5.03,1.236,-1.33,-4.304,-8.461,266.7,5,322.1,-8.266,-7.879,0,-7.712,-8.393,-5.17,-4.85,-4.688,-4.619,4.406,7.614,5,-1.28,1.449,4.908,7.545,-8.418,-8.498,-1.962,1.402,263.0,252.4,258.1,258.6,264.0,255.8,272.7,242.5,,242.9,4,norm,1.762,1.177,-1.716,-1.726,-5.004,-4.633,-1.521,-1.421,-1.91,-1.535,1.415,-1.41,253.7,269.1,-4.419,-7.987,1.533,-1.621,8.449,5.09,-4.973,-8.312,18,4.497,4.51,4.894,4.376,1.891,1.671,1.569,2.086,18,4.458,4.71,30,137.261208887,norm,0,68,68,68,346.979,346.988,346.995203942,346.995,346.997,347.0,up,1,1.50322811023,8.49677188977,001,023,1920_1200,Intel(R) Core(TM) i5-3570 CPU @ 3.40GHz,orientation_search,LEPPC096,Intel(R) HD Graphics 2500,2019_Jan_03_1115,testMonitor,
377.5,378.4,372.1,380.8,36,-20,,371.7,386.2,377.1,7.834,7.847,7.71,8.066,8.236,8.071,7.536,4.623,-5.061,-7.641,1.971,-1.609,8.376,5.251,-5.289,-7.963,379.9,366.2,-8.208,366.5,382.6,380.5,377.6,376.9,36,372.8,4,5,probe,5,0,118,norm,36,-4.322,down,norm,376.17793364,377.9,372.7,376.8,375.2,0,379.5,380.5,375.3,10,5,8.182,4.493,1.219,-1.473,-4.44,-7.762,373.6,2,258.2,-8.165,-8.464,0,-7.713,-8.182,-4.403,-4.844,-4.591,-5.037,4.907,7.824,24,-1.434,1.863,4.992,8.458,-7.839,-7.735,-1.434,1.356,373.2,377.7,380.8,373.5,375.0,368.9,374.6,381.2,371.5,375.3,0,norm,1.115,1.932,-1.728,-1.242,-4.649,-4.579,-1.874,-1.425,-1.176,-1.563,1.132,-1.209,372.5,373.1,-4.399,-8.31,1.396,-1.542,7.654,5.251,-4.756,-8.056,19,4.641,5.013,5.16,5.293,1.305,1.459,1.142,1.321,19,5.052,4.464,0,254.111542658,norm,0,69,69,69,348.524,348.533,348.539464625,348.54,348.541,348.544,down,1,1.71705702114,8.28294297886,001,023,1920_1200,Intel(R) Core(TM) i5-3570 CPU @ 3.40GHz,orientation_search,LEPPC096,Intel(R) HD Graphics 2500,2019_Jan_03_1115,testMonitor,
356.1,351.9,347.9,348.6,36,-20,350.4,342.4,356.8,346.0,8.494,7.565,8.213,8.184,7.865,7.687,8.293,5.081,-4.445,-8.244,1.919,-1.752,8.5,4.42,-4.347,-8.136,360.2,350.5,-7.857,356.1,346.4,358.4,347.1,351.9,36,355.9,1,5,probe,5,0,92,norm,36,-4.539,up,norm,350.17793364,347.8,352.2,350.6,347.5,5,,348.5,349.0,10,5,8.374,5.173,1.649,-1.325,-4.898,-7.978,352.5,2,258.2,-7.523,-7.909,0,-7.94,-8.073,-4.789,-4.535,-4.999,-5.166,4.869,8.256,11,-1.157,1.41,4.485,7.723,-8.402,-7.548,-1.58,1.161,347.0,348.1,357.9,352.5,350.3,346.3,350.8,353.7,340.2,351.2,1,norm,1.977,1.829,-1.174,-1.683,-4.643,-4.448,-2.031,-1.32,-1.75,-1.675,1.977,-1.199,359.0,352.4,-4.332,-7.826,1.707,-1.197,7.722,4.955,-5.11,-8.28,19,4.37,4.379,5.206,5.205,2.003,1.695,1.189,1.636,19,4.83,4.32,0,254.111542658,norm,0,70,70,70,350.302,350.311,350.317972103,350.318,350.32,350.323,up,1,1.62009931393,8.37990068607,001,023,1920_1200,Intel(R) Core(TM) i5-3570 CPU @ 3.40GHz,orientation_search,LEPPC096,Intel(R) HD Graphics 2500,2019_Jan_03_1115,testMonitor,
145.1,156.6,139.6,165.4,36,20,160.4,158.2,149.4,152.8,8.209,8.404,8.065,7.685,7.99,7.939,7.654,4.574,-5.154,-8.248,1.725,-1.955,8.085,5.011,-5.211,-8.4,147.2,151.4,-7.622,161.0,143.1,171.1,164.0,159.2,36,179.1,1,5,prime,10,0,83,norm,36,-4.314,up,norm,159.613444317,161.2,168.7,161.4,159.5,4,160.2,143.3,176.0,10,6,8.413,4.474,1.737,-2.046,-4.316,-7.913,,6,242.6,-7.986,-8.298,20,-7.782,-8.217,-4.417,-5.201,-5.279,-4.445,5.026,8.453,10,-1.138,1.637,4.675,7.725,-7.997,-8.165,-1.567,1.927,142.8,173.5,151.7,162.1,179.6,164.0,165.6,165.3,158.4,140.6,0,norm,1.3,1.597,-1.573,-1.185,-4.733,-5.16,-1.252,-1.766,-1.538,-1.366,1.719,-1.271,158.0,151.6,-5.203,-8.043,1.2,-1.498,7.677,5.077,-4.737,-8.045,20,4.731,4.639,4.927,4.743,1.737,1.355,1.901,1.884,20,4.949,4.654,-20,254.111542658,norm,0,71,71,71,351.987,351.996,352.002616718,352.003,352.004,352.007,up,1,1.57060051694,8.42939948306,001,023,1920_1200,Intel(R) Core(TM) i5-3570 CPU @ 3.40GHz,orientation_search,LEPPC096,Intel(R) HD Graphics 2500,2019_Jan_03_1115,testMonitor,
158.1,168.5,164.0,150.1,36,20,145.8,162.8,166.5,143.8,7.508,8.305,7.902,8.0,8.293,8.129,7.947,4.707,-4.801,-7.753,1.497,-1.31,8.01,4.732,-5.163,-7.582,161.1,168.0,-8.007,139.6,171.4,179.6,160.8,152.9,36,158.8,0,5,prime,10,0,91,norm,36,-4.959,up,norm,159.613444317,170.0,168.4,169.4,162.6,5,150.0,153.8,147.1,10,6,7.663,4.447,1.818,-1.164,-4.4,-7.633,146.4,6,250.6,-7.569,-8.269,20,-8.318,-8.426,-5.017,-4.582,-4.355,-4.626,4.917,8.001,5,-1.386,1.929,4.592,8.15,-7.635,-7.638,-1.427,1.469,156.5,169.1,154.3,148.9,160.3,154.9,171.1,160.7,,166.4,1,norm,1.179,1.662,-1.641,-1.697,-4.848,-4.522,-1.868,-1.474,-1.449,-1.248,2.022,-1.2,162.6,161.1,-4.475,-7.79,2.025,-1.629,7.651,5.101,-4.36,-8.394,20,4.788,5.171,5.123,4.843,1.166,1.399,2.052,2.026,20,4.439,4.967,-20,254.111542658,norm,0,72,72,72,353.594,353.604,353.623959342,353.624,353.626,353.628,up,1,0.859095682401,9.1409043176,001,023,1920_1200,Intel(R) Core(TM) i5-3570 CPU @ 3.40GHz,orientation_search,LEPPC096,Intel(R) HD Graphics 2500,2019_Jan_03_1115,testMonitor,
176.1,170.5,161.8,148.7,36,20,151.4,153.0,157.3,140.3,8.144,7.979,8.42,7.544,7.72,8.352,8.253,4.456,-5.059,-7.958,1.861,-1.732,8.397,4.652,-4.989,-7.542,164.2,169.5,-7.596,179.6,158.8,163.4,161.9,153.0,36,176.8,2,5,prime,10,0,117,norm,36,-4.953,down,norm,159.613444317,162.0,161.1,162.9,178.2,0,159.0,147.5,,10,6,8.325,4.68,1.276,-2.052,-4.873,-7.755,158.9,6,276.6,-7.59,-8.096,20,-7.552,-7.714,-4.746,-4.944,-4.462,-5.284,5.016,7.554,12,-1.872,1.169,4.91,8.03,-7.613,-8.306,-1.606,1.857,139.6,145.9,158.3,166.3,152.1,159.6,153.1,153.1,156.9,175.2,2,norm,1.446,1.607,-2.012,-1.913,-4.455,-4.955,-1.321,-1.495,-1.264,-1.596,1.929,-1.112,155.8,166.1,-5.17,-7.536,1.603,-1.464,8.38,5.03,-5.284,-8.003,20,4.644,4.792,5.217,4.565,1.645,1.205,2.069,1.509,20,4.888,5.0,-20,254.111542658,norm,0,73,73,73,354.529,354.539,354.545316848,354.545,354.547,354.55,down,1,1.26759583438,8.73240416562,001,023,1920_1200,Intel(R) Core(TM) i5-3570 CPU @ 3.40GHz,orientation_search,LEPPC096,Intel(R) HD Graphics 2500,2019_Jan_03_1115,testMonitor,
152.2,165.8,159.1,172.5,36,20,171.1,177.8,153.9,159.6,8.46,8.086,7.842,7.707,7.812,8.162,8.348,4.847,-4.437,-7.706,1.203,-1.67,8.294,5.003,-4.379,-7.65,169.5,153.6,-7.535,147.8,,153.2,155.0,175.8,36,155.6,5,5,prime,10,0,73,norm,36,-5.242,down,norm,159.613444317,149.8,167.2,156.3,151.2,0,163.5,179.6,157.5,10,6,7.78,5.159,1.892,-1.766,-5.205,-7.588,173.3,6,232.6,-7.514,-7.98,20,-7.9,-8.299,-5.157,-5.244,-4.935,-4.88,4.377,8.036,30,-1.9,1.687,4.678,8.246,-7.656,-7.914,-1.292,1.581,148.2,157.2,165.7,160.9,152.0,144.8,139.6,150.2,156.3,163.0,3,norm,1.893,1.342,-1.563,-1.328,-4.835,-5.126,-1.736,-1.186,-1.44,-1.394,1.911,-1.749,148.8,163.9,-4.791,-8.056,1.682,-1.801,7.889,4.705,-4.338,-8.245,20,5.03,4.778,5.29,5.029,1.659,1.834,1.381,1.939,20,5.022,4.448,-20,254.111542658,norm,0,74,74,74,355.855,355.865,355.871261956,355.871,355.873,355.876,down,1,1.31477010223,8.68522989777,001,023,1920_1200,Intel(R) Core(TM) i5-3570 CPU @ 3.40GHz,orientation_search,LEPPC096,Intel(R) HD Graphics 2500,2019_Jan_03_1115,testMonitor,
,157.3,160.9,148.5,36,20,149.5,149.6,179.6,150.2,7.861,8.184,7.983,7.99,7.541,8.286,8.129,5.135,-5.188,-8.161,1.957,-1.8,8.498,4.754,-4.439,-8.227,144.1,154.3,-7.907,165.0,140.2,166.9,168.1,171.6,36,145.2,3,5,prime,10,0,63,norm,36,-4.703,up,norm,159.613444317,163.0,152.6,165.8,148.6,4,149.1,151.9,140.8,10,6,7.934,5.234,1.295,-2.062,-5.165,-8.455,174.8,6,222.6,-8.457,-8.178,20,-7.933,-8.334,-5.13,-5.1,-4.972,-4.813,5.082,8.007,22,-1.935,2.003,5.222,8.072,-8.492,-8.187,-2.016,1.963,169.7,171.5,152.2,153.9,156.6,166.9,139.6,149.5,163.5,145.2,4,norm,1.594,1.629,-2.089,-1.941,-4.507,-4.416,-1.834,-1.161,-1.236,-2.007,1.488,-1.745,171.8,151.5,-4.663,-7.601,1.309,-2.019,7.59,4.768,-5.093,-8.261,20,5.039,5.048,5.256,5.138,1.493,1.335,1.507,1.426,20,4.506,5.025,-20,254.111542658,norm,0,75,75,75,357.228,357.238,357.24387302,357.244,357.246,357.248,up,1,0.807773423458,9.19222657654,001,023,1920_1200,Intel(R) Core(TM) i5-3570 CPU @ 3.40GHz,orientation_search,LEPPC096,Intel(R) HD Graphics 2500,2019_Jan_03_1115,testMonitor,
153.2,164.0,157.2,163.6,36,20,160.7,160.4,149.7,150.6,8.103,8.396,7.505,8.458,8.15,8.258,7.61,5.052,-4.809,-8.339,1.712,-2.081,7.556,4.387,-4.92,-8.329,168.4,174.0,-8.467,139.6,164.9,149.9,172.3,142.2,36,157.7,3,5,prime,10,0,96,norm,36,-4.806,down,norm,159.613444317,170.8,161.2,166.0,162.0,1,179.6,158.0,171.2,10,6,8.112,4.631,1.766,-2.031,-5.134,-7.61,170.5,6,255.6,-7.649,-7.991,20,-7.803,-7.513,-4.997,-5.17,-5.194,-4.323,5.102,7.79,19,-2.054,1.487,5.155,8.399,-7.662,-7.557,-1.528,1.317,153.0,170.6,169.2,149.2,146.1,144.0,162.5,150.9,169.3,168.5,5,norm,1.147,1.87,-1.125,-1.537,-4.987,-5.061,-1.642,-1.509,-1.528,-2.06,1.575,-1.512,,172.4,-5.193,-7.928,1.124,-1.716,7.577,4.552,-5.3,-8.341,20,4.982,4.445,5.161,4.379,1.714,1.479,1.447,1.684,20,4.895,4.83,-20,254.111542658,norm,0,76,76,76,358.089,358.099,358.116578713,358.117,358.118,358.121,down,1,0.704156352278,9.29584364772,001,023,1920_1200,Intel(R) Core(TM) i5-3570 CPU @ 3.40GHz,orientation_search,LEPPC096,Intel(R) HD Graphics 2500,2019_Jan_03_1115,testMonitor,
293.3,297.5,287.8,,36,80,294.6,299.1,292.5,294.2,7.679,8.475,7.676,8.067,8.376,8.401,7.833,4.531,-4.563,-8.076,2.032,-1.71,7.876,4.78,-4.749,-8.06,304.7,298.2,-8.228,301.1,290.9,298.0,298.1,290.1,36,295.2,3,5,probe,5,0,117,norm,36,-5.229,up,norm,294.680405204,303.5,294.8,298.0,292.4,3,298.4,295.0,291.7,10,6,8.31,4.747,1.655,-1.264,-4.848,-8.289,294.1,2,177.7,-7.518,-7.617,20,-7.786,-8.434,-5.174,-4.56,-4.326,-4.907,4.398,7.995,21,-1.317,1.639,4.606,8.119,-8.37,-8.228,-1.985,1.318,299.7,294.7,296.6,296.9,295.1,284.7,293.6,294.7,297.1,298.6,0,norm,2.082,1.464,-1.44,-1.195,-4.492,-4.392,-2.024,-1.912,-1.907,-1.815,1.733,-1.694,303.6,296.7,-4.825,-8.487,1.695,-1.568,7.695,5.223,-4.601,-7.607,21,4.913,4.357,4.713,5.262,1.426,1.4,1.954,1.121,21,4.949,4.877,20,159.613444317,norm,0,77,77,77,358.866,358.885,358.898574947,358.899,358.901,358.904,up,1,0.689077248562,9.31092275144,001,023,1920_1200,Intel(R) Core(TM) i5-3570 CPU @ 3.40GHz,orientation_search,LEPPC096,Intel(R) HD Graphics 2500,2019_Jan_03_1115,testMonitor,
258.7,253.6,264.7,255.9,36,80,253.4,257.7,255.2,252.3,7.75,7.772,7.641,8.456,7.717,7.763,8.449,4.788,-5.246,-7.529,1.587,-1.527,8.321,4.712,-4.986,-7.811,258.5,252.2,-8.416,263.7,249.2,261.1,260.2,256.0,36,253.9,1,5,probe,5,0,77,norm,36,-4.957,down,norm,254.680405204,261.7,254.7,256.1,255.9,2,264.2,253.9,256.5,10,6,7.637,4.786,1.912,-1.132,-4.976,-7.74,254.3,2,177.7,-8.054,-8.254,20,-8.204,-8.42,-4.885,-4.959,-5.176,-4.661,4.859,7.701,8,-1.86,1.946,4.621,7.617,-7.99,-7.961,-1.249,1.125,260.6,,259.0,251.9,259.2,251.2,249.2,255.2,254.3,255.4,1,norm,1.588,1.235,-1.914,-1.593,-4.464,-4.508,-1.952,-2.096,-1.104,-1.164,2.018,-1.688,244.7,253.3,-4.516,-8.382,1.67,-1.279,8.453,4.622,-4.768,-7.665,21,4.469,4.897,5.253,4.94,1.808,1.256,2.055,2.052,21,4.325,5.199,20,159.613444317,norm,0,78,78,78,359.63,359.644,359.6630127,359.663,359.666,359.669,down,1,1.02773165377,8.97226834623,001,023,1920_1200,Intel(R) Core(TM) i5-3570 CPU @ 3.40GHz,orientation_search,LEPPC096,Intel(R) HD Graphics 2500,2019_Jan_03_1115,testMonitor,
201.0,212.6,215.6,218.7,36,-60,220.7,209.5,219.2,220.4,7.761,7.53,7.654,7.616,7.565,8.111,7.985,4.885,-5.037,-7.779,2.009,-1.718,8.445,4.901,-4.663,-8.186,218.5,211.0,-7.962,225.6,202.4,235.1,210.0,195.1,36,211.8,0,5,prime,10,0,113,norm,36,-4.597,down,norm,215.072178755,214.6,213.2,230.1,233.5,0,218.5,218.7,218.6,10,6,7.633,5.276,1.274,-1.719,-5.004,-8.18,218.0,6,328.1,-7.861,-7.964,-60,-8.283,-7.706,-5.285,-5.269,-4.869,-4.647,4.504,7.7,0,-1.487,2.065,4.341,7.685,-8.045,-7.607,-1.266,1.58,219.7,196.1,220.5,219.1,230.1,,205.4,198.0,224.2,223.7,0,norm,1.948,1.387,-1.975,-1.387,-5.174,-4.358,-1.846,-1.985,-2.01,-1.522,1.626,-1.566,230.7,201.9,-4.762,-7.813,1.993,-1.705,7.58,4.4,-5.145,-7.781,22,4.501,4.485,4.712,4.407,1.222,1.878,1.662,1.223,22,5.073,4.944,80,159.613444317,norm,0,79,79,79,360.738,360.747,360.753723971,360.754,360.756,360.758,down,1,1.62052642843,8.37947357157,001,023,1920_1200,Intel(R) Core(TM) i5-3570 CPU @ 3.40GHz,orientation_search,LEPPC096,Intel(R) HD Graphics 2500,2019_Jan_03_1115,testMonitor,
218.3,212.5,221.7,198.5,36,-60,206.4,216.0,212.5,229.1,8.21,7.789,8.406,8.451,7.653,7.662,8.02,4.463,-5.079,-7.779,1.492,-1.506,8.017,4.437,-4.967,-8.128,227.0,195.1,-7.723,209.2,219.5,207.2,210.5,214.0,36,218.0,1,5,prime,10,0,65,norm,36,-4.507,down,norm,215.072178755,212.1,213.2,220.1,217.8,0,211.7,202.5,200.1,10,6,7.979,4.933,2.094,-1.422,-5.098,-8.322,218.0,6,280.1,-8.124,-7.661,-60,-8.168,-8.106,-4.317,-5.156,-5.246,-4.508,4.718,7.883,6,-1.895,1.543,4.707,8.383,-8.201,-7.686,-1.986,1.343,195.1,221.6,215.3,235.1,196.2,219.8,222.0,,224.7,200.9,1,norm,1.749,1.312,-1.295,-1.862,-4.901,-4.96,-1.489,-1.562,-2.078,-1.152,1.873,-1.658,228.7,217.4,-5.241,-7.872,1.624,-1.214,7.85,4.876,-4.431,-8.362,22,4.492,4.809,5.157,5.18,1.782,1.49,1.368,1.615,22,5.22,4.908,80,159.613444317,norm,0,80,80,80,362.411,362.421,362.43750017,362.438,362.44,362.442,down,1,1.11191969402,8.88808030598,001,023,1920_1200,Intel(R) Core(TM) i5-3570 CPU @ 3.40GHz,orientation_search,LEPPC096,Intel(R) HD Graphics 2500,2019_Jan_03_1115,testMonitor,
195.8,195.4,207.8,206.8,36,-60,210.1,226.4,212.5,213.4,7.91,8.343,7.922,7.882,7.988,8.296,7.711,4.455,-5.079,-8.417,1.587,-1.419,8.342,4.734,-4.832,-8.165,212.1,209.2,-7.61,203.4,208.2,213.7,208.3,198.5,36,,4,5,prime,10,0,70,norm,36,-4.75,up,norm,215.072178755,201.4,199.5,217.0,219.6,3,206.7,218.6,218.8,10,6,7.507,4.863,1.79,-1.448,-4.949,-7.945,204.9,6,285.1,-7.563,-7.757,-60,-8.048,-7.814,-4.874,-4.389,-4.379,-5.06,4.83,7.624,27,-1.719,1.641,4.485,7.987,-8.305,-8.117,-1.249,1.722,226.2,210.3,219.0,211.1,195.1,235.1,215.6,204.2,208.1,205.4,2,norm,1.215,1.666,-1.132,-1.892,-4.797,-5.266,-1.552,-2.002,-1.271,-1.2,1.398,-2.029,212.3,214.0,-4.598,-8.022,1.9,-1.714,8.279,5.261,-5.291,-7.527,22,4.87,4.312,4.827,4.971,1.525,1.649,1.383,2.08,22,5.257,5.048,80,159.613444317,norm,0,81,81,81,363.592,363.602,363.608459161,363.609,363.61,363.613,up,1,0.993185184469,9.00681481553,001,023,1920_1200,Intel(R) Core(TM) i5-3570 CPU @ 3.40GHz,orientation_search,LEPPC096,Intel(R) HD Graphics 2500,2019_Jan_03_1115,testMonitor,
204.0,204.0,,197.3,36,-60,224.0,223.6,235.1,209.7,7.776,7.77,8.104,7.911,8.289,7.575,8.248,4.897,-4.504,-7.861,1.431,-1.148,7.738,4.887,-5.04,-8.339,214.4,208.7,-7.601,204.5,214.1,195.1,204.6,220.2,36,216.6,3,5,prime,10,0,73,norm,36,-4.376,down,norm,215.072178755,205.1,197.9,207.3,222.2,2,232.0,222.4,218.2,10,6,7.657,4.426,1.952,-1.796,-4.467,-8.254,215.1,6,288.1,-8.387,-8.009,-60,-7.835,-8.306,-4.948,-5.08,-5.038,-4.72,4.631,8.092,20,-1.115,1.111,5.184,8.368,-8.014,-8.278,-1.775,1.255,207.1,218.1,221.2,217.2,217.2,213.5,214.9,216.9,228.8,217.1,3,norm,1.735,1.832,-1.84,-1.807,-4.642,-4.306,-1.217,-1.125,-1.341,-1.815,1.573,-1.402,213.9,219.9,-5.271,-7.521,1.93,-1.846,8.373,4.943,-5.144,-7.995,22,5.138,4.835,4.925,4.423,1.212,1.449,1.84,1.59,22,4.339,4.958,80,159.613444317,norm,0,82,82,82,364.623,364.633,364.652387661,364.653,364.654,364.657,down,1,0.940419187975,9.05958081203,001,023,1920_1200,Intel(R) Core(TM) i5-3570 CPU @ 3.40GHz,orientation_search,LEPPC096,Intel(R) HD Graphics 2500,2019_Jan_03_1115,testMonitor,
224.3,215.9,231.0,205.8,36,-60,227.0,218.6,203.1,197.4,7.774,8.38,8.39,8.427,7.83,7.643,8.06,4.657,-4.433,-7.899,1.686,-1.458,7.753,4.701,-5.002,-7.667,227.9,212.2,-8.469,218.0,205.3,235.1,206.8,207.1,36,222.2,2,5,prime,10,0,69,norm,36,-4.606,down,norm,215.072178755,200.4,216.3,212.1,,2,232.0,222.0,210.1,10,6,8.026,5.12,1.461,-1.754,-5.136,-7.515,201.6,6,284.1,-7.86,-8.41,-60,-8.442,-7.925,-4.801,-4.736,-5.186,-5.057,4.619,8.179,14,-1.25,1.686,4.461,8.108,-7.797,-8.336,-1.145,1.263,205.4,198.0,212.8,210.0,195.1,206.1,217.1,214.3,221.6,217.1,4,norm,1.796,1.181,-1.49,-1.154,-4.942,-5.269,-1.688,-2.007,-2.051,-1.732,1.208,-1.405,210.9,214.7,-4.569,-8.344,1.914,-1.223,8.106,5.091,-5.039,-8.43,22,5.296,4.882,4.602,4.842,1.547,1.666,1.782,1.868,22,4.376,4.775,80,159.613444317,norm,0,83,83,83,365.636,365.646,365.651942133,365.652,365.654,365.656,down,1,1.56680689505,8.43319310495,001,023,1920_1200,Intel(R) Core(TM) i5-3570 CPU @ 3.40GHz,orientation_search,LEPPC096,Intel(R) HD Graphics 2500,2019_Jan_03_1115,testMonitor,
200.3,211.0,,212.4,36,-60,214.9,224.1,210.7,212.4,8.274,7.918,7.663,8.383,7.869,7.783,8.272,5.038,-4.537,-7.76,1.225,-1.291,8.466,4.837,-4.983,-8.172,223.9,235.1,-7.8,231.6,219.8,211.8,195.1,224.9,36,215.2,3,5,prime,10,0,112,norm,36,-5.153,down,norm,215.072178755,209.4,222.1,209.0,203.5,2,206.5,207.7,210.9,10,6,8.443,4.693,1.842,-1.655,-4.893,-7.601,211.7,6,327.1,-8.367,-8.169,-60,-7.908,-8.05,-4.648,-5.086,-4.358,-4.439,4.727,8.241,20,-1.467,2.05,4.627,7.697,-8.487,-7.951,-2.062,1.87,213.2,221.3,225.8,213.8,220.8,211.0,232.2,209.3,224.3,212.7,5,norm,1.925,1.844,-1.845,-1.914,-4.747,-4.71,-1.659,-1.333,-1.295,-1.77,1.197,-1.467,219.5,205.8,-4.968,-8.149,1.663,-1.11,7.849,4.55,-5.093,-7.737,22,5.228,4.494,4.897,4.313,1.202,1.523,1.167,1.634,22,4.664,5.234,80,159.613444317,norm,0,84,84,84,367.243,367.253,367.258683479,367.259,367.261,367.264,down,1,0.876416005292,9.12358399471,001,023,1920_1200,Intel(R) Core(TM) i5-3570 CPU @ 3.40GHz,orientation_search,LEPPC096,Intel(R) HD Graphics 2500,2019_Jan_03_1115,testMonitor,
261.0,266.3,266.7,261.6,36,10,261.7,260.9,268.5,266.2,8.494,7.802,7.64,7.536,8.119,7.829,8.029,4.819,-4.466,-7.518,1.126,-1.742,7.575,4.772,-5.168,-7.78,271.5,264.9,-7.877,259.3,268.7,266.6,264.7,267.3,36,275.5,0,5,probe,5,0,114,norm,36,-4.439,up,norm,265.534332597,275.0,273.2,267.0,260.8,4,255.5,265.5,268.2,10,6,7.67,4.702,1.519,-1.64,-4.34,-7.51,260.3,2,151.5,-7.673,-8.33,-60,-7.93,-7.686,-4.324,-4.55,-4.588,-4.583,4.893,8.159,4,-2.019,1.18,5.108,7.892,-7.551,-8.149,-1.929,1.307,265.9,270.5,264.9,268.4,272.1,255.7,271.3,263.0,264.5,,0,norm,1.948,1.745,-1.779,-1.777,-4.679,-5.246,-1.151,-2.051,-1.802,-1.63,1.13,-1.546,273.8,262.1,-4.761,-7.721,1.675,-1.372,7.641,4.904,-4.47,-7.777,23,5.286,4.683,5.136,4.62,2.092,1.469,1.844,1.699,23,4.603,4.999,-60,215.072178755,norm,0,85,85,85,368.179,368.191,368.21140447,368.212,368.214,368.217,up,1,1.46911328314,8.53088671686,001,023,1920_1200,Intel(R) Core(TM) i5-3570 CPU @ 3.40GHz,orientation_search,LEPPC096,Intel(R) HD Graphics 2500,2019_Jan_03_1115,testMonitor,
225.1,221.9,219.9,229.0,36,10,222.5,232.0,226.1,235.5,8.294,8.065,7.609,7.706,8.167,7.546,8.425,5.261,-4.53,-8.075,1.522,-1.136,8.061,4.389,-5.187,-7.646,230.5,223.4,-7.657,225.7,220.9,222.8,221.4,231.5,36,230.1,2,5,probe,5,0,74,norm,36,-4.696,up,norm,225.534332597,,223.1,221.2,215.5,5,230.0,225.7,228.7,10,6,8.393,4.808,1.167,-1.378,-4.645,-8.498,231.6,2,151.5,-8.494,-7.843,-60,-8.367,-7.829,-5.131,-4.954,-5.034,-4.314,5.236,7.811,17,-1.567,1.94,4.485,8.067,-7.508,-7.804,-2.028,1.79,226.1,230.9,231.7,222.8,221.8,228.1,232.0,220.2,215.6,222.3,1,norm,1.278,1.572,-1.341,-1.517,-4.408,-4.642,-1.467,-1.755,-1.264,-1.332,2.054,-1.663,223.3,228.9,-5.065,-7.964,1.441,-1.355,7.54,4.307,-4.605,-8.493,23,5.22,5.093,4.634,4.322,1.812,2.039,1.141,1.617,23,4.595,4.362,-60,215.072178755,norm,0,86,86,86,369.719,369.729,369.737971746,369.738,369.74,369.742,up,1,0.828017141328,9.17198285867,001,023,1920_1200,Intel(R) Core(TM) i5-3570 CPU @ 3.40GHz,orientation_search,LEPPC096,Intel(R) HD Graphics 2500,2019_Jan_03_1115,testMonitor,
30.6,27.3,22.4,12.5,36,80,36.7,18.1,28.4,8.2,7.705,7.511,7.974,8.072,8.059,8.22,8.479,4.56,-4.3,-8.044,2.02,-1.699,8.32,5.089,-5.111,-7.579,18.2,30.9,-8.392,25.8,14.9,28.6,22.2,43.3,36,28.3,2,5,prime,10,0,86,norm,36,-5.017,down,norm,23.2939108229,27.4,28.0,11.3,39.3,0,18.3,22.4,,10,5,8.074,4.444,1.262,-2.051,-5.069,-7.738,5.1,5,109.3,-8.078,-8.091,80,-8.431,-7.889,-4.404,-5.111,-4.804,-4.571,4.98,7.548,12,-1.135,1.746,4.7,8.028,-7.973,-8.234,-1.826,1.337,3.3,21.6,36.6,20.3,18.9,18.2,24.0,16.4,12.1,16.8,0,norm,1.357,1.14,-2.069,-2.069,-5.251,-4.64,-1.303,-1.659,-2.066,-1.96,1.639,-1.115,23.7,17.3,-5.11,-8.079,1.396,-1.345,7.835,5.185,-4.891,-8.201,24,4.998,4.743,5.035,4.604,1.899,1.966,1.749,1.383,24,4.413,4.522,10,215.072178755,norm,0,87,87,87,370.612,370.622,370.628269124,370.629,370.632,370.636,down,1,1.14590925432,8.85409074568,001,023,1920_1200,Intel(R) Core(TM) i5-3570 CPU @ 3.40GHz,orientation_search,LEPPC096,Intel(R) HD Graphics 2500,2019_Jan_03_1115,testMonitor,
22.0,41.7,21.5,36.5,36,80,,43.3,42.9,26.3,8.2,8.435,7.584,8.209,8.063,8.408,7.516,4.983,-4.62,-7.504,1.675,-1.632,8.081,4.625,-5.194,-8.438,17.3,11.9,-7.854,3.3,22.8,27.5,16.2,12.9,36,23.7,4,5,prime,10,0,79,norm,36,-5.213,down,norm,23.2939108229,23.6,23.1,34.8,19.2,0,15.8,30.1,17.0,10,5,8.106,4.45,1.769,-2.052,-5.122,-8.286,42.5,5,102.3,-8.117,-8.343,80,-7.728,-8.347,-4.774,-4.398,-4.642,-4.621,4.586,8.406,24,-1.857,1.669,5.006,7.689,-7.688,-7.941,-1.767,1.1,31.0,34.0,25.0,22.8,20.8,16.5,27.0,37.4,26.9,21.6,1,norm,1.704,2.091,-1.33,-1.749,-5.165,-4.972,-1.766,-1.637,-1.121,-1.814,1.615,-1.239,17.4,14.8,-4.456,-8.036,2.066,-1.255,8.3,4.963,-5.067,-7.557,24,4.521,5.218,4.606,4.65,1.155,1.686,1.912,1.741,24,4.34,4.629,10,215.072178755,norm,0,88,88,88,371.8,371.81,371.816211878,371.816,371.818,371.821,down,1,1.79115851864,8.20884148136,001,023,1920_1200,Intel(R) Core(TM) i5-3570 CPU @ 3.40GHz,orientation_search,LEPPC096,Intel(R) HD Graphics 2500,2019_Jan_03_1115,testMonitor,
29.8,5.6,18.7,,36,80,31.1,11.1,8.4,6.8,7.811,8.404,8.314,8.129,8.312,8.207,8.326,5.227,-5.152,-8.029,1.516,-1.405,8.149,5.146,-4.699,-7.878,17.5,20.1,-7.523,21.1,9.0,10.4,24.4,3.3,36,12.3,3,5,prime,10,0,83,norm,36,-5.197,up,norm,23.2939108229,31.3,23.5,33.5,30.4,3,14.7,43.3,20.3,10,5,8.394,5.264,1.714,-1.225,-4.848,-8.146,16.7,5,106.3,-7.532,-7.778,80,-8.265,-7.934,-4.377,-4.542,-4.509,-4.408,4.404,8.277,21,-1.279,1.215,4.64,7.888,-7.772,-8.491,-1.897,1.989,13.7,32.2,25.6,22.9,27.1,24.4,25.6,34.1,26.2,32.7,2,norm,1.81,1.308,-2.004,-1.837,-4.482,-4.342,-1.601,-1.418,-1.752,-1.377,1.933,-1.484,22.8,14.2,-4.74,-8.057,1.964,-1.975,8.365,5.176,-4.644,-8.485,24,4.964,4.335,5.197,4.993,2.013,1.21,1.35,1.632,24,4.99,5.269,10,215.072178755,norm,0,89,89,89,373.655,373.676,373.686832709,373.687,373.689,373.692,up,1,1.60085169347,8.39914830653,001,023,1920_1200,Intel(R) Core(TM) i5-3570 CPU @ 3.40GHz,orientation_search,LEPPC096,Intel(R) HD Graphics 2500,2019_Jan_03_1115,testMonitor,
23.5,30.9,27.5,37.3,36,80,25.9,22.9,28.6,43.3,8.189,7.519,7.89,8.295,7.774,8.447,7.74,4.614,-5.02,-8.266,1.578,-1.544,8.286,4.658,-4.636,-8.069,18.4,22.8,-7.744,12.1,22.8,16.0,29.6,27.3,36,23.9,2,5,prime,10,0,95,norm,36,-5.008,down,norm,23.2939108229,25.8,19.6,35.8,,2,30.6,16.0,15.2,10,5,7.521,4.685,1.83,-1.667,-4.405,-8.235,10.2,5,118.3,-8.359,-7.653,80,-7.935,-7.987,-5.293,-4.408,-4.512,-4.356,4.634,8.139,14,-2.006,1.401,4.872,7.521,-8.294,-8.276,-1.886,1.83,26.8,4.4,11.6,27.0,8.0,3.3,23.8,18.4,14.7,27.8,3,norm,1.443,1.784,-1.467,-1.649,-4.832,-4.679,-1.864,-1.281,-2.05,-1.453,1.321,-1.261,24.4,32.7,-5.24,-7.793,1.896,-1.689,7.952,4.368,-4.658,-7.629,24,4.683,4.314,4.452,4.958,1.735,1.164,1.988,1.565,24,4.717,5.252,10,215.072178755,norm,0,90,90,90,375.309,375.321,375.325578665,375.326,375.328,375.331,down,1,1.84104156775,8.15895843225,001,023,1920_1200,Intel(R) Core(TM) i5-3570 CPU @ 3.40GHz,orientation_search,LEPPC096,Intel(R) HD Graphics 2500,2019_Jan_03_1115,testMonitor,
25.9,24.2,8.0,17.6,36,80,12.1,17.4,15.6,27.0,8.07,8.272,7.621,8.345,8.332,8.35,7.539,4.679,-4.984,-7.92,1.449,-1.114,8.261,4.686,-4.573,-7.853,31.1,21.8,-8.029,33.7,11.0,17.6,,10.0,36,42.2,5,5,prime,10,0,98,norm,36,-4.793,down,norm,23.2939108229,43.3,32.9,27.8,19.6,2,24.0,30.1,5.9,10,5,7.989,4.962,1.893,-1.511,-5.258,-8.444,32.3,5,121.3,-8.005,-7.529,80,-7.613,-7.619,-4.45,-4.46,-4.446,-5.29,5.287,7.856,32,-1.458,1.109,4.344,7.555,-8.098,-7.8,-1.305,1.788,14.8,30.9,13.3,3.3,18.1,34.9,14.2,17.5,28.9,19.4,4,norm,1.66,1.661,-1.989,-1.442,-4.866,-4.638,-1.373,-1.949,-1.104,-1.836,1.357,-1.53,18.5,17.0,-4.772,-8.176,1.706,-1.189,8.153,5.262,-4.738,-8.046,24,5.052,4.374,5.148,5.143,1.112,1.253,1.187,1.369,24,4.556,5.272,10,215.072178755,norm,0,91,91,91,377.211,377.22,377.226734409,377.227,377.229,377.231,down,1,0.843536942686,9.15646305731,001,023,1920_1200,Intel(R) Core(TM) i5-3570 CPU @ 3.40GHz,orientation_search,LEPPC096,Intel(R) HD Graphics 2500,2019_Jan_03_1115,testMonitor,
224.4,216.4,216.3,223.3,36,-10,219.4,220.6,222.3,210.5,7.73,7.971,8.048,7.901,8.392,8.48,8.161,4.837,-5.237,-8.258,1.348,-1.3,7.882,5.196,-5.276,-7.853,210.7,225.9,-7.636,208.8,213.6,227.5,216.9,223.2,36,212.3,0,5,probe,5,0,118,norm,36,-4.728,up,norm,217.45329307,210.0,211.0,220.2,223.2,3,215.4,223.7,210.3,10,5,8.258,4.585,1.821,-1.134,-4.871,-7.747,223.1,1,99.5,-8.145,-8.13,80,-7.888,-8.12,-4.421,-5.184,-4.582,-5.253,4.347,8.055,3,-1.281,1.653,4.393,7.733,-7.524,-7.537,-1.328,1.833,219.3,222.3,,218.4,218.5,214.2,220.0,207.5,214.8,218.7,0,norm,1.744,2.099,-1.99,-1.13,-4.575,-4.317,-1.861,-1.563,-1.594,-1.313,1.104,-1.962,215.9,213.9,-4.711,-8.062,2.072,-1.17,7.991,4.627,-4.606,-7.824,25,4.936,4.641,5.249,5.228,1.684,1.552,1.705,1.971,25,4.712,5.103,80,23.2939108229,norm,0,92,92,92,378.115,378.125,378.132327315,378.132,378.134,378.137,up,1,0.770523907997,9.229476092,001,023,1920_1200,Intel(R) Core(TM) i5-3570 CPU @ 3.40GHz,orientation_search,LEPPC096,Intel(R) HD Graphics 2500,2019_Jan_03_1115,testMonitor,
212.4,195.1,177.5,196.3,36,-10,215.2,192.0,188.8,193.4,8.493,7.642,8.356,7.553,8.47,7.672,8.169,4.904,-5.03,-8.246,1.781,-2.058,8.253,4.306,-4.382,-8.041,200.3,202.3,-7.554,204.2,193.7,190.6,181.6,198.5,36,215.5,2,5,prime,10,0,82,norm,36,-4.532,up,norm,195.475818253,194.2,,175.5,184.8,4,188.9,199.1,198.3,10,6,7.995,5.139,1.53,-2.01,-4.452,-8.486,196.0,6,277.5,-8.363,-8.017,-10,-7.926,-7.692,-4.419,-4.777,-4.937,-4.68,5.166,8.088,16,-1.65,1.291,4.523,7.943,-8.488,-8.301,-1.891,1.486,196.6,193.3,199.2,207.5,196.8,210.8,185.5,209.6,195.1,209.4,0,norm,2.088,1.892,-2.043,-1.632,-4.374,-4.787,-1.733,-1.154,-1.455,-1.225,1.157,-1.262,199.7,199.1,-5.005,-7.926,1.449,-2.023,7.974,5.028,-4.914,-8.479,26,4.987,5.289,5.204,4.898,1.457,1.255,1.912,1.45,26,4.61,4.635,-10,23.2939108229,norm,0,93,93,93,378.927,378.937,378.942586756,378.943,378.945,378.947,up,1,0.996354887171,9.00364511283,001,023,1920_1200,Intel(R) Core(TM) i5-3570 CPU @ 3.40GHz,orientation_search,LEPPC096,Intel(R) HD Graphics 2500,2019_Jan_03_1115,testMonitor,
187.1,195.1,195.1,180.0,36,-10,201.0,201.2,175.5,194.8,7.764,8.4,8.295,8.399,7.646,7.861,8.262,4.642,-4.948,-7.795,1.799,-1.525,7.731,4.783,-5.241,-8.438,197.9,193.8,-7.648,190.8,215.5,187.6,195.1,210.4,36,182.7,0,5,prime,10,0,91,norm,36,-4.419,up,norm,195.475818253,201.5,184.8,184.0,212.7,3,198.7,197.5,211.6,10,6,8.173,5.233,1.493,-1.902,-4.798,-8.076,201.8,6,286.5,-8.294,-8.367,-10,-8.0,-8.441,-4.57,-4.639,-4.757,-4.495,4.792,8.041,3,-1.837,1.549,4.362,7.974,-8.398,-7.688,-1.853,1.386,184.6,190.0,,184.6,202.8,205.4,193.4,193.7,192.5,199.3,1,norm,1.505,1.132,-1.743,-1.445,-5.163,-4.925,-1.608,-1.644,-2.068,-1.243,1.367,-1.91,206.0,203.2,-4.611,-7.691,1.754,-1.343,7.623,4.616,-4.74,-7.501,26,4.833,5.138,4.309,5.101,1.682,1.856,1.564,1.711,26,4.386,4.649,-10,23.2939108229,norm,0,94,94,94,379.977,379.99,380.008792522,380.009,380.011,380.013,up,1,1.80639850718,8.19360149282,001,023,1920_1200,Intel(R) Core(TM) i5-3570 CPU @ 3.40GHz,orientation_search,LEPPC096,Intel(R) HD Graphics 2500,2019_Jan_03_1115,testMonitor,
202.7,183.9,196.3,182.6,36,-10,214.7,191.3,178.6,185.0,7.728,7.887,7.972,7.901,7.954,8.006,7.504,5.255,-4.402,-8.323,2.055,-1.774,7.609,5.228,-4.839,-7.565,184.0,182.1,-8.48,189.9,189.0,197.0,203.0,175.5,36,193.6,1,5,prime,10,0,64,norm,36,-4.819,up,norm,195.475818253,200.9,191.8,183.2,214.9,4,196.3,194.5,205.3,10,6,7.675,4.731,1.621,-2.09,-4.993,-8.087,,6,259.5,-8.234,-7.636,-10,-7.812,-8.415,-4.764,-4.377,-4.828,-4.783,5.115,7.914,10,-1.984,1.353,4.961,7.668,-8.0,-7.948,-1.271,1.827,179.8,191.6,186.1,197.9,198.5,181.3,198.0,186.7,192.7,215.5,2,norm,1.897,1.666,-1.913,-1.454,-5.105,-4.311,-1.476,-1.724,-1.435,-1.218,1.987,-1.886,204.4,195.9,-5.136,-8.05,1.311,-1.649,7.708,4.512,-4.795,-7.929,26,5.123,4.715,4.604,4.42,1.55,1.594,1.531,1.43,26,4.348,4.788,-10,23.2939108229,norm,0,95,95,95,381.859,381.869,381.87539244,381.876,381.877,381.88,up,1,2.02775157572,7.97224842428,001,023,1920_1200,Intel(R) Core(TM) i5-3570 CPU @ 3.40GHz,orientation_search,LEPPC096,Intel(R) HD Graphics 2500,2019_Jan_03_1115,testMonitor,
