d_ori_22,d_ori_23,d_ori_20,d_ori_21,set_size,ctpd,d_ori_24,d_ori_25,d_ori_28,d_ori_29,stim_pos_x_30,stim_pos_x_31,stim_pos_x_32,stim_pos_x_33,stim_pos_x_34,stim_pos_x_35,stim_pos_y_11,stim_pos_y_10,stim_pos_y_13,stim_pos_y_12,stim_pos_y_15,stim_pos_y_14,stim_pos_y_17,stim_pos_y_16,stim_pos_y_19,stim_pos_y_18,d_ori_35,d_ori_34,stim_pos_x_3,d_ori_31,d_ori_30,d_ori_33,d_ori_32,d_ori_26,test_set_size,d_ori_27,targetCol,dsd_test,seq_type,dsd,blockRepN,targetDist,dtype_test,prime_set_size,stim_pos_y_25,correctResponse,dtype,distrMean,d_ori_17,d_ori_16,stim_pos_y_3,d_ori_14,targetRow,d_ori_11,d_ori_13,d_ori_12,dsd_prime,streak_length_prime,stim_pos_y_35,stim_pos_y_34,stim_pos_y_33,stim_pos_y_32,stim_pos_y_31,stim_pos_y_30,d_ori_10,nextProbe,targetOri,stim_pos_x_1,stim_pos_x_2,ctpd_prime,stim_pos_x_4,stim_pos_x_5,stim_pos_x_6,stim_pos_x_7,stim_pos_x_8,stim_pos_x_9,stim_pos_y_28,stim_pos_y_29,targetPos,stim_pos_y_20,stim_pos_y_21,stim_pos_y_22,stim_pos_y_23,stim_pos_y_24,stim_pos_x_0,stim_pos_y_26,stim_pos_y_27,d_ori_9,d_ori_8,d_ori_3,d_ori_2,d_ori_1,d_ori_0,d_ori_7,d_ori_6,d_ori_5,d_ori_4,trialN,dtype_prime,stim_pos_x_18,stim_pos_x_19,stim_pos_x_12,stim_pos_x_13,stim_pos_x_10,stim_pos_x_11,stim_pos_x_16,stim_pos_x_17,stim_pos_x_14,stim_pos_x_15,stim_pos_y_9,stim_pos_y_8,d_ori_19,d_ori_18,stim_pos_y_1,stim_pos_y_0,d_ori_15,stim_pos_y_2,stim_pos_y_5,stim_pos_y_4,stim_pos_y_7,stim_pos_y_6,totBlockN,stim_pos_x_27,stim_pos_x_26,stim_pos_x_25,stim_pos_x_24,stim_pos_x_23,stim_pos_x_22,stim_pos_x_21,stim_pos_x_20,blockN,stim_pos_x_29,stim_pos_x_28,prevDistrCTPD,prevDistrMean,prevDistrType,trials.thisRepN,trials.thisTrialN,trials.thisN,trials.thisIndex,timeStart,timeBeforeDraw,timeDraw,timeAfterSaving,timeAfterWritingToTemp,timeAfterPreparingNext,answer,correct,rt,trialScore,session,participant,resolution,cpu_info,expName,pc_name,graphic_card,date,monitorName,
141.0,139.9,121.6,117.5,36,-60,129.4,131.0,149.8,147.1,8.252,7.677,7.919,7.716,7.576,8.339,7.841,4.451,-5.049,-7.732,1.599,-2.047,8.063,5.245,-5.001,-8.053,132.3,130.9,-8.446,129.5,131.0,132.5,,108.8,36,139.3,5,10,prime,15,0,82,norm,36,-4.717,down,norm,138.767849732,138.3,131.0,1.668,139.8,2,124.5,137.1,155.6,15,3,7.971,5.085,1.187,-1.36,-4.954,-8.449,140.6,3,220.8,-8.386,-8.394,-60,-8.48,-8.469,-5.123,-4.523,-4.436,-4.826,4.554,7.633,32,-1.475,1.735,4.741,7.696,-7.74,-7.957,-1.204,1.574,143.3,128.2,147.4,149.3,138.3,156.4,134.6,130.7,134.5,126.0,0,norm,1.953,1.802,-1.2,-1.464,-5.218,-5.118,-1.647,-1.189,-1.828,-1.622,1.718,-1.313,130.4,168.8,-5.244,-7.829,156.2,-1.525,8.304,4.509,-4.357,-7.623,0,4.553,4.35,4.665,4.379,1.469,1.294,1.884,1.459,0,4.341,5.227,,,,0,0,0,0,2134.465,2134.476,2134.48390227,2134.484,2134.485,2134.489,down,1,1.75673881036,2.0,001,001,800_600,Intel(R) Core(TM) i7-2670QM CPU @ 2.20GHz,orientation_search,GRVLAPTOP3,Intel(R) HD Graphics Family,2018_mei_31_1238,testMonitor,
134.7,150.6,154.4,150.9,36,-60,161.9,143.9,,148.6,7.62,7.837,8.497,8.108,8.171,7.787,8.258,5.152,-5.09,-8.037,1.632,-1.463,7.963,5.054,-4.714,-8.489,128.9,142.3,-8.123,136.4,134.1,153.8,154.6,157.0,36,160.0,4,10,prime,15,0,117,norm,36,-4.74,up,norm,138.767849732,155.3,121.6,1.632,168.8,4,150.4,143.1,122.0,15,3,8.013,4.708,1.925,-1.19,-4.53,-7.677,135.3,3,255.8,-8.077,-7.716,-60,-8.392,-8.405,-4.95,-4.9,-4.868,-4.685,4.385,7.745,28,-1.128,1.954,4.422,8.256,-7.89,-7.685,-1.736,1.782,161.6,160.7,143.2,123.7,151.5,123.2,144.9,165.2,150.1,144.1,1,norm,1.186,1.265,-1.572,-1.699,-5.102,-5.198,-1.975,-1.852,-1.83,-1.283,2.025,-1.598,165.5,136.3,-4.653,-7.962,130.5,-1.657,7.963,4.342,-4.542,-7.899,0,4.804,5.14,5.054,5.082,1.981,1.865,1.612,1.623,0,5.135,4.308,,,,0,1,1,1,2136.256,2136.261,2136.26343758,2136.264,2136.266,2136.27,down,0,2.09018530357,-11.0,001,001,800_600,Intel(R) Core(TM) i7-2670QM CPU @ 2.20GHz,orientation_search,GRVLAPTOP3,Intel(R) HD Graphics Family,2018_mei_31_1238,testMonitor,
149.7,153.4,122.0,136.0,36,-60,117.2,141.5,108.8,120.4,7.725,8.337,7.96,7.734,7.599,8.273,7.97,5.032,-4.886,-7.904,1.89,-2.024,7.589,4.4,-4.395,-8.275,136.7,145.0,-7.633,162.8,150.1,124.8,155.9,140.8,36,136.6,0,10,prime,15,0,65,norm,36,-4.366,up,norm,138.767849732,149.4,154.6,1.748,129.9,3,148.2,168.8,112.5,15,3,8.478,5.299,1.538,-1.461,-4.511,-8.093,129.4,3,203.8,-8.384,-7.66,-60,-8.022,-8.139,-4.893,-4.421,-5.281,-4.4,4.655,7.823,3,-2.034,1.15,4.82,8.472,-7.942,-7.911,-1.802,1.916,143.1,119.4,,149.5,127.9,117.7,120.9,145.4,141.0,123.4,2,norm,1.551,1.861,-1.451,-1.722,-4.655,-5.088,-1.51,-1.5,-1.946,-2.033,1.544,-1.106,160.1,133.6,-4.344,-8.499,138.2,-1.27,8.071,4.683,-4.377,-8.34,0,4.903,5.273,4.425,5.245,1.912,1.54,1.827,2.048,0,4.858,4.365,,,,0,2,2,2,2139.38,2139.386,2139.38821431,2139.389,2139.392,2139.395,up,1,1.61299137572,4.0,001,001,800_600,Intel(R) Core(TM) i7-2670QM CPU @ 2.20GHz,orientation_search,GRVLAPTOP3,Intel(R) HD Graphics Family,2018_mei_31_1238,testMonitor,
145.8,151.4,145.9,156.1,36,0,153.6,125.0,135.0,165.0,8.326,7.845,8.041,7.806,7.942,7.86,8.464,4.484,-5.101,-8.052,1.652,-1.63,7.63,4.362,-4.505,-7.71,135.9,153.0,-8.136,143.6,139.5,138.2,145.1,137.0,36,137.3,0,10,probe,10,0,71,norm,36,-5.139,up,norm,145.048712948,147.1,138.5,1.158,151.0,5,135.3,141.9,148.6,15,3,8.226,4.468,1.487,-1.905,-4.746,-8.414,156.2,1,74.0,-8.332,-8.049,-60,-7.828,-7.83,-4.72,-4.568,-4.767,-5.025,4.348,7.626,5,-1.787,1.789,5.046,7.906,-8.285,-7.828,-1.374,1.119,149.0,145.4,133.3,143.2,138.9,147.4,138.4,135.5,,131.0,0,norm,1.147,1.128,-2.095,-1.269,-4.797,-4.943,-1.857,-1.106,-1.557,-1.77,1.757,-1.863,139.5,136.9,-5.018,-7.703,145.4,-2.051,8.039,4.654,-4.684,-8.135,1,5.082,4.781,4.909,4.622,2.002,1.523,1.229,1.149,1,4.706,5.089,-60,138.767849732,norm,0,3,3,3,2141.016,2141.021,2141.02334938,2141.024,2141.027,2141.03,up,1,3.36622378664,-14.0,001,001,800_600,Intel(R) Core(TM) i7-2670QM CPU @ 2.20GHz,orientation_search,GRVLAPTOP3,Intel(R) HD Graphics Family,2018_mei_31_1238,testMonitor,
232.7,238.0,233.1,239.7,36,-10,249.9,,201.2,258.3,7.664,7.877,8.315,8.266,7.735,7.593,8.037,5.101,-4.977,-8.382,1.157,-1.437,8.464,4.804,-5.073,-8.168,222.8,233.3,-7.694,245.3,231.2,216.0,210.2,248.9,36,229.5,4,10,prime,15,0,86,norm,36,-4.89,down,norm,231.190170295,255.8,218.7,1.847,249.1,1,230.1,226.9,218.3,15,5,8.304,5.04,1.696,-1.47,-5.12,-7.631,219.7,5,317.2,-8.054,-7.801,-10,-8.315,-7.707,-4.414,-4.988,-4.687,-4.41,5.005,7.994,25,-1.95,1.771,5.135,7.857,-8.168,-7.548,-1.539,1.577,251.9,245.6,237.0,229.2,247.4,233.8,214.7,211.6,236.1,251.9,0,norm,1.792,2.036,-1.421,-1.942,-5.294,-5.087,-1.45,-1.747,-1.327,-1.175,1.109,-1.63,240.5,258.6,-4.682,-8.345,261.2,-1.946,7.777,4.541,-4.578,-8.15,2,4.507,5.246,4.751,5.116,1.298,1.545,1.472,1.446,2,5.183,4.805,0,138.767849732,norm,0,4,4,4,2144.405,2144.411,2144.41298278,2144.413,2144.417,2144.42,down,1,3.10569676673,-11.0,001,001,800_600,Intel(R) Core(TM) i7-2670QM CPU @ 2.20GHz,orientation_search,GRVLAPTOP3,Intel(R) HD Graphics Family,2018_mei_31_1238,testMonitor,
217.5,249.0,244.4,239.8,36,-10,250.8,229.5,214.6,222.7,8.178,8.135,7.789,8.049,7.904,8.399,7.679,4.801,-4.574,-8.043,1.211,-1.297,8.393,4.338,-4.687,-7.601,234.7,222.6,-7.933,224.8,237.5,229.9,261.2,243.1,36,,4,10,prime,15,0,79,norm,36,-4.458,up,norm,231.190170295,244.3,214.8,1.294,225.9,3,242.2,207.5,231.8,15,5,8.106,4.72,1.579,-2.096,-4.661,-8.432,230.9,5,310.2,-8.329,-8.422,-10,-8.284,-7.959,-5.051,-4.872,-4.55,-4.684,4.634,7.88,27,-2.09,1.754,5.172,8.082,-7.631,-7.769,-1.719,1.844,223.4,241.3,257.2,220.7,232.1,244.0,236.8,229.0,201.2,254.4,1,norm,1.925,1.71,-1.59,-1.655,-4.864,-4.887,-1.996,-1.179,-1.988,-1.553,1.842,-1.549,236.7,219.2,-4.966,-7.966,229.5,-1.278,7.733,4.641,-5.046,-7.932,2,4.586,5.226,4.723,5.128,1.445,1.932,1.46,1.173,2,4.745,4.75,0,138.767849732,norm,0,5,5,5,2147.534,2147.54,2147.54188464,2147.542,2147.545,2147.549,up,1,2.93040527888,-9.0,001,001,800_600,Intel(R) Core(TM) i7-2670QM CPU @ 2.20GHz,orientation_search,GRVLAPTOP3,Intel(R) HD Graphics Family,2018_mei_31_1238,testMonitor,
234.6,224.4,222.2,249.9,36,-10,228.6,238.6,221.8,247.7,8.137,8.086,7.752,7.546,7.556,7.921,8.26,4.681,-4.72,-7.7,1.271,-1.508,7.869,4.476,-4.951,-7.55,250.0,229.9,-7.792,256.2,232.2,261.2,206.6,233.5,36,235.6,1,10,prime,15,0,67,norm,36,-4.797,up,norm,231.190170295,201.2,206.6,1.765,213.8,3,222.2,242.5,209.8,15,5,7.646,4.435,1.325,-1.621,-5.123,-8.479,230.7,5,298.2,-8.192,-7.917,-10,-8.398,-8.144,-5.097,-5.042,-4.341,-4.43,4.574,7.856,9,-1.593,1.839,5.275,7.973,-8.089,-7.865,-1.117,1.262,,236.7,218.4,260.3,225.4,236.1,220.4,245.5,221.0,241.7,2,norm,1.804,1.972,-1.299,-1.767,-4.564,-4.816,-1.103,-1.657,-1.864,-2.054,1.277,-1.529,255.3,238.8,-5.054,-8.269,257.3,-1.979,8.016,5.049,-4.928,-8.282,2,5.12,4.551,4.837,4.385,1.572,1.833,1.609,1.108,2,5.043,4.517,0,138.767849732,norm,0,6,6,6,2150.488,2150.494,2150.49627343,2150.497,2150.5,2150.503,down,0,4.35569011255,-34.0,001,001,800_600,Intel(R) Core(TM) i7-2670QM CPU @ 2.20GHz,orientation_search,GRVLAPTOP3,Intel(R) HD Graphics Family,2018_mei_31_1238,testMonitor,
212.1,219.7,235.0,235.1,36,-10,231.7,237.6,235.2,216.2,8.263,8.175,8.162,7.503,8.352,8.077,7.8,4.94,-4.448,-8.434,1.402,-1.102,7.799,5.088,-4.928,-8.415,201.2,214.3,-8.121,221.0,,242.3,206.6,237.0,36,245.8,5,10,prime,15,0,95,norm,36,-4.947,down,norm,231.190170295,217.5,259.6,1.936,228.6,0,261.2,233.1,216.0,15,5,7.662,4.457,1.292,-1.761,-4.835,-8.167,247.4,5,326.2,-7.987,-8.052,-10,-7.801,-7.895,-4.484,-4.833,-4.66,-4.728,5.253,7.751,30,-1.362,1.129,4.382,8.466,-8.001,-7.836,-1.526,1.504,221.4,238.9,211.9,242.6,240.6,246.2,238.2,230.0,241.9,214.4,3,norm,1.367,2.083,-1.817,-1.919,-4.379,-5.196,-1.328,-1.232,-1.473,-1.21,1.833,-1.55,217.5,238.6,-4.565,-8.313,229.8,-1.324,8.414,4.395,-4.605,-7.768,2,5.171,5.058,4.933,5.293,1.474,2.011,2.003,1.92,2,4.348,4.766,0,138.767849732,norm,0,7,7,7,2155.869,2155.874,2155.87611889,2155.876,2155.879,2155.883,up,0,2.14261926031,-11.0,001,001,800_600,Intel(R) Core(TM) i7-2670QM CPU @ 2.20GHz,orientation_search,GRVLAPTOP3,Intel(R) HD Graphics Family,2018_mei_31_1238,testMonitor,
244.9,226.2,,255.0,36,-10,218.9,244.0,237.8,251.3,8.21,8.489,7.836,8.328,7.524,7.934,7.744,5.222,-4.982,-8.359,1.624,-1.184,8.022,4.575,-4.383,-8.333,229.3,212.9,-8.45,261.2,242.5,224.2,243.9,226.7,36,243.0,3,10,prime,15,0,77,norm,36,-4.967,down,norm,231.190170295,244.7,217.5,1.494,222.1,2,240.1,246.6,243.8,15,5,7.874,4.725,1.283,-1.54,-4.532,-7.655,207.9,5,308.2,-7.522,-8.08,-10,-7.59,-8.298,-5.183,-5.01,-4.379,-4.546,5.043,8.32,20,-1.979,1.845,4.486,7.576,-8.325,-8.419,-1.726,1.884,241.9,234.0,218.0,241.7,201.2,256.1,237.1,205.6,233.0,225.0,4,norm,1.351,1.124,-2.086,-1.518,-5.159,-5.016,-2.06,-2.058,-1.282,-1.566,1.835,-1.523,249.0,242.5,-4.476,-8.497,223.5,-1.283,7.584,4.641,-4.481,-7.823,2,4.415,4.667,4.326,4.903,2.005,1.807,1.546,2.01,2,4.54,4.875,0,138.767849732,norm,0,8,8,8,2159.036,2159.042,2159.04405203,2159.045,2159.048,2159.051,down,1,1.9317277084,1.0,001,001,800_600,Intel(R) Core(TM) i7-2670QM CPU @ 2.20GHz,orientation_search,GRVLAPTOP3,Intel(R) HD Graphics Family,2018_mei_31_1238,testMonitor,
285.3,297.6,304.2,,36,80,297.2,300.0,286.1,310.9,8.169,8.05,7.596,8.054,8.353,7.983,7.977,5.064,-5.059,-8.464,1.58,-1.884,8.306,4.757,-4.931,-8.156,300.3,296.6,-7.57,298.7,280.6,295.5,289.1,315.9,36,287.0,3,10,probe,10,0,72,norm,36,-5.299,up,norm,295.872541141,292.7,293.1,1.843,308.0,3,300.3,285.0,275.9,15,5,7.939,4.408,2.007,-1.765,-4.766,-8.266,292.9,1,223.9,-8.373,-8.048,-10,-8.077,-7.764,-5.222,-4.715,-5.096,-4.565,4.664,7.98,21,-1.996,1.623,4.559,7.617,-7.739,-8.112,-1.132,1.817,291.1,299.4,280.2,285.3,284.6,298.3,287.5,302.1,295.3,303.8,0,norm,1.276,1.917,-1.216,-1.529,-4.781,-4.699,-1.587,-1.535,-1.728,-1.737,1.507,-1.236,298.8,296.4,-4.76,-7.726,298.2,-1.52,8.279,4.44,-4.903,-8.206,3,5.122,4.508,4.379,4.433,1.401,2.097,1.95,1.309,3,5.019,4.581,-10,231.190170295,norm,0,9,9,9,2160.992,2160.997,2160.99873501,2161.0,2161.003,2161.006,up,1,4.18090994544,-22.0,001,001,800_600,Intel(R) Core(TM) i7-2670QM CPU @ 2.20GHz,orientation_search,GRVLAPTOP3,Intel(R) HD Graphics Family,2018_mei_31_1238,testMonitor,
293.5,250.8,,272.1,36,60,259.5,283.7,282.5,275.8,7.585,8.367,8.371,7.507,8.428,8.357,7.662,5.066,-5.056,-7.902,1.849,-1.2,7.637,4.832,-5.152,-7.572,238.7,275.8,-7.595,240.2,251.6,286.2,279.0,256.9,36,245.1,3,10,prime,15,0,66,norm,36,-4.457,down,norm,263.486544603,267.4,255.8,1.683,258.0,2,284.2,267.1,236.6,15,2,7.788,4.56,1.691,-1.848,-5.06,-7.554,236.5,2,329.5,-7.806,-8.006,60,-8.287,-8.117,-4.338,-4.993,-4.416,-4.863,5.232,8.413,20,-1.189,1.712,4.938,7.96,-8.473,-8.42,-1.813,2.085,261.7,233.5,265.7,286.4,259.2,258.6,270.5,253.7,243.3,255.2,0,norm,1.212,1.241,-1.886,-2.063,-4.657,-4.371,-1.273,-1.997,-1.598,-1.851,1.358,-1.915,280.6,251.2,-4.743,-7.812,260.6,-1.759,7.511,5.024,-4.712,-7.74,4,4.776,4.416,4.607,4.843,2.099,1.204,1.804,1.946,4,4.847,4.623,80,231.190170295,norm,0,10,10,10,2165.196,2165.201,2165.20298453,2165.204,2165.207,2165.21,down,1,2.581233922,-6.0,001,001,800_600,Intel(R) Core(TM) i7-2670QM CPU @ 2.20GHz,orientation_search,GRVLAPTOP3,Intel(R) HD Graphics Family,2018_mei_31_1238,testMonitor,
252.6,260.6,250.8,260.7,36,60,271.3,249.0,261.9,243.1,8.137,7.861,8.396,7.636,7.83,8.22,7.963,4.578,-5.091,-8.118,1.659,-1.277,8.278,5.154,-4.398,-7.676,277.6,261.0,-8.06,272.7,285.7,274.8,250.0,245.7,36,271.8,3,10,prime,15,0,115,norm,36,-4.881,down,norm,263.486544603,278.6,262.0,1.103,258.0,0,256.7,266.5,250.4,15,2,7.532,5.054,2.088,-1.232,-4.717,-8.361,246.0,2,378.5,-7.816,-7.55,60,-7.82,-8.42,-5.267,-4.323,-5.115,-4.702,4.759,7.823,18,-1.649,1.178,5.282,7.666,-7.502,-7.99,-1.81,1.873,259.6,256.1,248.5,292.7,249.6,276.2,267.0,267.9,233.5,262.6,1,norm,1.953,1.56,-2.014,-1.477,-5.03,-5.241,-1.401,-1.629,-1.683,-1.317,1.653,-1.667,253.0,,-5.094,-8.097,268.1,-1.141,8.408,4.423,-4.424,-8.163,4,4.526,5.06,4.865,4.69,1.783,1.442,1.294,1.674,4,5.037,4.679,80,231.190170295,norm,0,11,11,11,2167.8,2167.805,2167.80705744,2167.808,2167.811,2167.815,down,1,6.02341475396,-40.0,001,001,800_600,Intel(R) Core(TM) i7-2670QM CPU @ 2.20GHz,orientation_search,GRVLAPTOP3,Intel(R) HD Graphics Family,2018_mei_31_1238,testMonitor,
436.5,411.9,415.0,415.8,36,30,423.0,422.2,433.6,429.3,8.2,7.917,8.0,7.615,7.823,8.484,7.805,4.841,-4.376,-8.063,1.284,-1.244,7.802,4.75,-5.236,-8.021,426.5,431.4,-8.043,415.2,414.2,440.0,424.9,442.4,36,423.9,0,10,probe,10,0,106,norm,36,-4.537,down,norm,422.350881567,435.6,428.8,1.318,414.9,2,424.5,421.3,426.7,15,2,7.918,4.384,2.096,-1.604,-4.587,-7.784,417.5,2,316.4,-8.415,-7.712,60,-7.877,-8.242,-4.974,-5.237,-4.95,-4.923,4.343,8.315,2,-2.006,1.148,5.238,7.89,-8.352,-7.935,-1.699,2.044,434.5,427.1,433.8,,402.7,439.9,404.0,403.6,424.5,438.3,0,norm,1.125,1.851,-1.551,-1.441,-4.393,-4.461,-1.433,-1.658,-2.052,-1.963,1.357,-1.614,437.6,402.4,-4.591,-8.099,419.3,-1.286,7.78,4.876,-4.94,-7.519,5,4.719,4.481,5.184,4.75,1.454,1.96,1.89,1.131,5,5.119,4.563,60,263.486544603,norm,0,12,12,12,2173.847,2173.853,2173.85444496,2173.855,2173.858,2173.861,up,0,4.01691374276,-30.0,001,001,800_600,Intel(R) Core(TM) i7-2670QM CPU @ 2.20GHz,orientation_search,GRVLAPTOP3,Intel(R) HD Graphics Family,2018_mei_31_1238,testMonitor,
418.9,439.0,428.1,432.7,36,30,409.4,422.0,424.0,431.7,7.755,7.732,8.201,8.25,8.488,8.171,7.598,4.324,-4.706,-8.435,1.834,-1.505,7.633,4.767,-4.907,-7.613,436.1,416.4,-8.32,420.2,417.1,412.5,429.2,420.7,36,415.8,3,10,probe,10,0,108,norm,36,-4.653,down,norm,424.350881567,431.0,438.0,1.712,412.9,1,439.0,435.4,435.7,15,2,8.157,4.964,1.718,-1.712,-5.101,-7.935,420.3,2,316.4,-8.087,-8.028,60,-8.27,-8.14,-5.113,-5.087,-4.603,-5.285,4.983,7.619,19,-1.459,1.32,4.337,7.66,-7.615,-7.955,-1.869,1.84,404.4,430.1,431.8,440.4,419.7,436.8,442.8,444.4,415.8,433.9,1,norm,1.287,1.613,-1.695,-1.336,-4.556,-5.035,-1.928,-1.577,-2.05,-1.962,1.55,-1.637,,434.8,-4.845,-8.398,412.7,-1.783,8.039,4.497,-4.338,-7.86,5,4.511,4.652,4.941,5.175,2.029,1.823,1.841,1.501,5,4.633,4.777,60,263.486544603,norm,0,13,13,13,2178.895,2178.9,2178.90151963,2178.902,2178.905,2178.909,down,1,2.58448255976,-6.0,001,001,800_600,Intel(R) Core(TM) i7-2670QM CPU @ 2.20GHz,orientation_search,GRVLAPTOP3,Intel(R) HD Graphics Family,2018_mei_31_1238,testMonitor,
219.1,222.4,240.2,201.3,36,0,223.8,208.8,260.9,241.4,8.132,7.917,7.734,7.771,8.299,8.038,8.079,4.798,-4.481,-8.208,1.44,-1.43,8.419,4.419,-4.352,-7.657,237.0,203.9,-8.266,239.1,214.5,239.1,246.4,236.8,36,208.0,2,10,prime,15,0,67,norm,36,-5.274,up,norm,231.274458034,,222.0,1.777,241.4,5,260.0,232.2,219.0,15,2,8.041,4.46,1.234,-1.27,-4.399,-7.68,228.8,2,298.3,-8.361,-7.953,0,-8.371,-7.827,-4.302,-5.205,-4.736,-5.276,4.649,7.988,17,-1.194,1.506,5.177,7.74,-7.552,-7.923,-1.378,1.447,236.2,251.7,226.0,261.3,232.6,239.6,234.3,211.5,217.3,259.9,0,norm,1.112,1.114,-2.046,-1.15,-4.402,-4.872,-1.77,-1.172,-1.15,-1.466,1.968,-1.756,252.1,216.8,-4.698,-8.28,256.8,-1.566,8.461,4.407,-4.449,-7.667,6,5.207,4.589,4.379,4.713,2.044,1.378,1.195,2.078,6,4.949,4.374,30,263.486544603,norm,0,14,14,14,2181.502,2181.507,2181.50924323,2181.51,2181.513,2181.517,down,0,2.74694573416,-17.0,001,001,800_600,Intel(R) Core(TM) i7-2670QM CPU @ 2.20GHz,orientation_search,GRVLAPTOP3,Intel(R) HD Graphics Family,2018_mei_31_1238,testMonitor,
261.3,206.5,,205.6,36,0,252.5,239.6,235.8,237.3,7.88,7.875,7.887,8.294,8.228,8.487,7.926,4.744,-5.221,-7.592,1.353,-1.183,7.751,4.593,-4.422,-8.443,233.1,213.0,-7.806,237.4,218.5,227.3,247.9,209.6,36,230.7,3,10,prime,15,0,91,norm,36,-4.857,down,norm,231.274458034,238.7,201.3,1.905,217.0,2,228.9,226.4,205.4,15,2,8.462,4.855,1.649,-1.243,-5.125,-8.028,249.7,2,322.3,-8.064,-7.982,0,-8.192,-8.437,-4.838,-5.198,-5.144,-4.333,4.489,7.568,20,-1.671,1.638,4.701,8.067,-7.573,-8.329,-1.477,1.126,222.0,240.6,235.6,231.2,204.2,238.5,229.1,231.0,222.3,224.0,1,norm,2.02,1.892,-1.175,-1.574,-4.681,-4.352,-2.046,-1.406,-1.384,-1.465,1.152,-1.521,227.4,202.5,-4.781,-8.345,237.5,-1.737,7.836,4.648,-4.348,-8.261,6,4.467,4.882,5.106,5.12,1.789,1.302,2.06,1.499,6,4.993,4.851,30,263.486544603,norm,0,15,15,15,2185.275,2185.28,2185.28215472,2185.282,2185.285,2185.289,up,0,1.12021547383,-19.0,001,001,800_600,Intel(R) Core(TM) i7-2670QM CPU @ 2.20GHz,orientation_search,GRVLAPTOP3,Intel(R) HD Graphics Family,2018_mei_31_1238,testMonitor,
311.8,322.7,313.3,324.6,36,30,339.7,316.5,313.3,320.5,8.151,8.202,8.012,7.624,7.744,7.724,7.842,5.042,-4.387,-8.335,1.724,-1.524,8.19,4.572,-4.355,-7.626,307.9,322.6,-7.619,322.2,321.7,307.7,321.2,328.9,36,325.6,0,10,probe,10,0,90,norm,36,-4.374,down,norm,319.666699458,299.7,318.3,1.906,316.9,1,327.9,314.2,320.0,15,2,7.791,4.527,1.176,-2.017,-5.0,-8.27,326.4,2,229.7,-8.244,-7.552,0,-8.468,-7.8,-5.064,-5.113,-4.38,-4.762,4.324,7.592,1,-1.297,1.714,4.497,8.313,-7.529,-7.912,-2.073,1.808,322.5,333.7,307.4,317.8,,327.6,332.5,307.8,322.9,308.1,0,norm,1.172,1.394,-1.644,-1.283,-4.348,-4.727,-1.981,-1.19,-1.894,-1.904,1.694,-1.879,336.3,316.4,-4.703,-8.209,313.5,-1.521,7.895,5.166,-5.058,-7.753,7,4.619,4.377,4.747,5.013,2.1,1.114,1.658,1.703,7,4.397,4.607,0,231.274458034,norm,0,16,16,16,2187.427,2187.433,2187.43493502,2187.435,2187.438,2187.442,down,1,1.99438574503,0.0,001,001,800_600,Intel(R) Core(TM) i7-2670QM CPU @ 2.20GHz,orientation_search,GRVLAPTOP3,Intel(R) HD Graphics Family,2018_mei_31_1238,testMonitor,
301.6,290.2,290.6,304.0,36,30,310.4,292.7,295.0,304.6,7.706,7.546,8.479,7.502,8.03,7.763,7.568,4.603,-4.738,-8.487,1.417,-1.568,7.865,4.839,-5.113,-7.872,303.0,,-7.658,294.8,315.7,302.4,287.2,297.3,36,295.2,5,10,probe,10,0,66,norm,36,-4.802,up,norm,295.666699458,298.5,282.1,1.744,287.0,4,291.7,308.7,284.7,15,2,7.897,5.132,1.114,-2.087,-4.626,-8.023,290.8,2,229.7,-8.059,-8.255,0,-7.541,-8.477,-5.015,-4.303,-4.738,-5.195,4.614,7.767,34,-1.558,1.257,4.707,8.401,-8.335,-7.734,-1.962,1.613,290.9,293.1,285.3,295.1,296.6,284.4,302.9,290.9,275.7,291.3,1,norm,1.225,1.638,-1.388,-1.135,-4.417,-4.803,-1.748,-1.554,-1.876,-2.038,1.4,-1.387,300.1,286.2,-4.6,-7.68,293.5,-2.083,7.514,4.336,-5.086,-7.527,7,4.415,4.848,5.165,4.777,1.393,1.871,1.22,1.758,7,4.417,4.324,0,231.274458034,norm,0,17,17,17,2189.445,2189.451,2189.45270797,2189.453,2189.456,2189.46,up,1,3.30413824245,-13.0,001,001,800_600,Intel(R) Core(TM) i7-2670QM CPU @ 2.20GHz,orientation_search,GRVLAPTOP3,Intel(R) HD Graphics Family,2018_mei_31_1238,testMonitor,
67.5,69.0,82.2,,36,40,95.9,66.6,59.2,65.2,8.358,8.433,8.181,7.947,7.596,8.068,8.097,5.013,-4.387,-8.117,2.047,-1.135,7.925,4.93,-5.076,-8.075,66.2,41.3,-8.004,76.8,86.7,85.4,49.6,54.1,36,67.4,3,10,prime,15,0,112,norm,36,-4.603,up,norm,71.3236170608,52.7,54.2,1.651,101.3,3,53.1,84.0,73.6,15,6,7.662,4.522,2.081,-1.75,-5.259,-7.618,63.5,6,183.3,-7.827,-7.869,40,-7.782,-8.45,-4.712,-5.109,-4.837,-4.837,4.745,8.226,21,-2.037,1.516,4.843,8.292,-7.801,-8.043,-1.873,2.077,45.5,100.4,78.0,75.6,57.9,77.0,57.4,75.8,83.9,75.5,0,norm,1.566,1.485,-1.611,-1.557,-5.044,-4.341,-1.639,-1.873,-1.56,-1.489,1.82,-1.286,74.8,68.6,-4.715,-8.379,91.2,-1.344,7.62,4.616,-4.488,-7.686,8,5.131,4.822,5.146,5.119,1.807,1.185,1.659,1.154,8,4.369,4.71,30,231.274458034,norm,0,18,18,18,2192.773,2192.779,2192.7803142,2192.781,2192.784,2192.788,up,1,2.90508579682,-9.0,001,001,800_600,Intel(R) Core(TM) i7-2670QM CPU @ 2.20GHz,orientation_search,GRVLAPTOP3,Intel(R) HD Graphics Family,2018_mei_31_1238,testMonitor,
71.5,81.2,83.0,69.9,36,40,99.0,62.4,82.1,65.6,7.628,8.005,8.429,8.383,7.704,7.529,8.26,5.109,-4.998,-8.265,1.796,-1.405,7.976,4.9,-4.384,-7.932,73.7,86.9,-8.461,84.9,91.7,76.1,100.3,100.1,36,64.7,0,10,prime,15,0,111,norm,36,-5.17,up,norm,71.3236170608,72.9,56.2,1.228,63.2,5,89.5,64.3,80.1,15,6,7.755,4.767,1.357,-1.861,-4.412,-7.681,88.4,6,182.3,-7.611,-8.425,40,-7.801,-7.832,-4.379,-4.461,-4.798,-4.848,4.497,8.305,5,-1.921,1.696,4.579,8.183,-8.17,-8.019,-1.84,1.856,47.2,95.0,61.0,101.3,66.4,71.3,75.7,41.3,,67.3,1,norm,1.797,1.854,-1.428,-1.568,-4.321,-5.077,-2.039,-1.957,-1.204,-1.991,1.306,-1.537,52.8,54.8,-5.075,-7.988,90.0,-1.103,8.437,4.52,-4.766,-8.228,8,5.069,4.79,4.595,4.47,1.496,1.434,1.993,1.409,8,4.53,4.414,30,231.274458034,norm,0,19,19,19,2195.701,2195.707,2195.70877646,2195.709,2195.712,2195.716,down,0,3.22157605394,-22.0,001,001,800_600,Intel(R) Core(TM) i7-2670QM CPU @ 2.20GHz,orientation_search,GRVLAPTOP3,Intel(R) HD Graphics Family,2018_mei_31_1238,testMonitor,
75.7,41.3,93.6,82.8,36,40,84.3,52.2,54.3,72.1,8.158,7.96,8.39,7.891,7.866,7.637,7.764,5.066,-4.893,-8.272,1.364,-1.847,7.596,4.387,-4.382,-8.044,63.8,74.5,-8.227,99.7,56.0,79.0,96.6,64.4,36,91.4,1,10,prime,15,0,67,norm,36,-4.546,down,norm,71.3236170608,65.6,75.8,1.424,59.8,1,69.5,45.5,75.7,15,6,8.316,4.933,1.531,-1.279,-4.72,-7.585,75.1,6,138.3,-8.256,-7.752,40,-8.325,-7.705,-5.15,-4.443,-4.71,-4.307,4.548,7.861,7,-1.5,1.323,4.653,7.548,-8.001,-8.086,-1.54,1.517,67.7,82.1,73.7,66.3,84.8,70.0,,75.4,82.3,91.1,2,norm,1.809,1.66,-1.181,-1.325,-4.37,-5.076,-2.076,-1.619,-1.298,-1.272,1.194,-1.809,101.3,87.1,-4.455,-7.859,72.6,-1.391,8.245,5.275,-5.147,-7.821,8,5.285,4.775,5.128,4.681,2.0,2.014,1.864,1.767,8,4.323,4.683,30,231.274458034,norm,0,20,20,20,2199.954,2199.96,2199.9620558,2199.963,2199.965,2199.969,up,0,1.8970162684,-11.0,001,001,800_600,Intel(R) Core(TM) i7-2670QM CPU @ 2.20GHz,orientation_search,GRVLAPTOP3,Intel(R) HD Graphics Family,2018_mei_31_1238,testMonitor,
94.0,80.4,50.7,62.0,36,40,51.1,101.1,67.6,69.3,7.751,7.618,7.864,8.206,8.193,7.695,8.138,5.015,-5.211,-7.751,1.14,-1.671,8.043,5.147,-4.836,-8.385,79.7,57.2,-8.348,,63.6,65.0,82.5,55.5,36,80.0,5,10,prime,15,0,93,norm,36,-4.912,down,norm,71.3236170608,66.4,80.3,1.316,64.7,1,69.0,56.5,87.0,15,6,8.184,4.779,1.783,-1.615,-4.701,-7.504,77.5,6,164.3,-7.827,-8.212,40,-8.296,-8.33,-4.643,-4.961,-5.122,-4.424,4.862,7.573,31,-1.748,1.916,5.087,7.88,-8.007,-8.355,-1.978,1.155,54.9,41.3,41.8,99.6,68.3,72.7,58.9,96.9,93.6,63.4,3,norm,1.375,1.102,-1.539,-1.588,-4.958,-4.304,-1.513,-2.088,-1.972,-1.557,1.212,-1.494,52.4,80.2,-4.478,-7.986,101.3,-2.077,8.41,4.476,-5.085,-7.542,8,5.012,4.903,4.76,4.488,1.213,1.321,1.773,1.431,8,5.201,5.128,30,231.274458034,norm,0,21,21,21,2202.887,2202.892,2202.89415614,2202.895,2202.897,2202.901,down,1,1.72155153856,3.0,001,001,800_600,Intel(R) Core(TM) i7-2670QM CPU @ 2.20GHz,orientation_search,GRVLAPTOP3,Intel(R) HD Graphics Family,2018_mei_31_1238,testMonitor,
75.3,50.7,48.2,66.7,36,40,101.3,66.3,54.5,95.5,7.521,7.512,8.198,7.834,7.544,8.45,8.288,4.94,-5.043,-7.809,1.625,-1.212,7.735,4.355,-4.799,-7.548,63.0,60.3,-7.968,69.1,76.9,85.3,76.7,70.8,36,82.3,2,10,prime,15,0,69,norm,36,-4.444,down,norm,71.3236170608,94.2,69.9,1.998,88.0,1,67.1,,67.8,15,6,7.566,4.484,1.185,-2.071,-4.898,-8.017,72.9,6,140.3,-8.007,-7.674,40,-7.562,-8.214,-4.8,-5.115,-4.898,-4.327,4.364,7.701,13,-1.416,1.596,4.867,8.409,-7.879,-7.691,-1.837,1.654,62.4,74.6,75.1,83.3,41.3,64.9,65.5,94.6,71.7,81.0,4,norm,1.32,1.752,-1.794,-1.219,-4.426,-5.081,-1.324,-1.885,-1.398,-2.04,1.772,-1.907,85.5,75.5,-4.933,-7.741,84.0,-1.56,8.033,5.199,-4.483,-7.838,8,5.039,5.151,4.498,4.639,1.67,1.837,1.939,2.045,8,4.305,4.859,30,231.274458034,norm,0,22,22,22,2204.631,2204.637,2204.63832954,2204.639,2204.642,2204.646,up,0,2.48758798102,-15.0,001,001,800_600,Intel(R) Core(TM) i7-2670QM CPU @ 2.20GHz,orientation_search,GRVLAPTOP3,Intel(R) HD Graphics Family,2018_mei_31_1238,testMonitor,
93.1,84.3,77.6,67.5,36,40,70.2,73.1,82.6,65.0,7.715,8.129,7.62,8.363,7.832,7.956,7.513,5.007,-4.564,-8.369,2.037,-1.561,8.202,4.45,-4.334,-7.969,67.3,62.5,-8.497,59.2,74.1,73.2,85.1,57.3,36,47.5,0,10,prime,15,0,73,norm,36,-5.261,up,norm,71.3236170608,101.3,84.2,1.485,60.7,3,85.8,70.6,57.9,15,6,8.028,4.672,1.829,-1.444,-4.986,-7.691,56.5,6,144.3,-8.462,-7.534,40,-7.792,-7.728,-4.768,-4.32,-4.758,-4.451,5.0,7.633,3,-1.861,1.434,4.577,8.484,-7.755,-7.521,-1.36,1.662,62.0,70.9,,57.4,92.6,61.1,61.4,41.3,86.9,69.8,5,norm,1.277,1.882,-1.834,-1.245,-4.495,-4.61,-1.697,-1.955,-1.986,-1.496,2.056,-1.267,61.6,89.1,-4.703,-8.441,47.8,-1.206,7.796,5.106,-4.365,-7.531,8,5.017,5.043,5.032,4.762,1.618,1.523,1.888,1.801,8,4.627,4.718,30,231.274458034,norm,0,23,23,23,2208.144,2208.15,2208.15168248,2208.152,2208.155,2208.159,down,0,0.645809294644,-24.0,001,001,800_600,Intel(R) Core(TM) i7-2670QM CPU @ 2.20GHz,orientation_search,GRVLAPTOP3,Intel(R) HD Graphics Family,2018_mei_31_1238,testMonitor,
190.9,191.7,211.6,194.7,36,10,201.0,196.2,205.7,219.1,7.764,8.259,8.455,7.513,8.479,8.328,7.667,4.64,-4.65,-7.905,1.489,-1.825,8.198,4.703,-4.462,-7.555,188.9,192.3,-8.302,184.5,186.4,212.9,192.4,187.1,36,209.0,3,10,probe,10,0,82,norm,36,-4.836,down,norm,199.273590907,204.5,197.7,2.037,198.9,0,219.3,200.3,183.8,15,6,8.268,5.269,1.229,-1.835,-5.076,-7.983,199.4,1,117.3,-8.461,-7.699,40,-8.248,-8.46,-4.878,-4.866,-5.161,-4.549,4.822,8.024,18,-1.688,2.007,5.14,8.247,-8.056,-7.569,-1.99,2.059,200.8,193.6,179.3,194.7,214.1,209.0,201.0,189.9,197.4,198.5,0,norm,2.002,1.624,-1.301,-1.261,-4.357,-4.421,-1.948,-2.051,-1.711,-1.85,1.708,-1.269,204.5,,-5.011,-7.737,193.8,-1.838,7.965,5.17,-5.093,-7.959,9,4.997,5.006,5.21,5.027,1.388,1.243,1.22,1.386,9,4.957,4.524,40,71.3236170608,norm,0,24,24,24,2209.813,2209.819,2209.82106202,2209.822,2209.825,2209.828,up,0,3.14405376012,-21.0,001,001,800_600,Intel(R) Core(TM) i7-2670QM CPU @ 2.20GHz,orientation_search,GRVLAPTOP3,Intel(R) HD Graphics Family,2018_mei_31_1238,testMonitor,
105.7,129.8,131.2,106.9,36,80,128.0,139.8,,122.0,8.47,8.384,8.317,7.971,8.056,8.004,8.088,5.181,-4.941,-8.148,1.79,-1.112,8.116,4.459,-4.982,-8.02,131.0,122.1,-8.226,118.0,149.1,132.9,116.2,96.4,36,116.0,4,10,prime,15,0,118,norm,36,-4.691,up,norm,123.284458885,131.8,128.4,1.23,117.0,4,117.3,153.3,115.9,15,5,7.666,4.508,1.38,-2.074,-4.959,-8.149,123.4,5,241.3,-7.73,-8.075,80,-7.604,-7.695,-4.359,-5.169,-4.915,-4.788,4.988,8.291,28,-1.628,1.934,5.024,8.364,-8.311,-8.461,-1.93,2.012,146.1,93.3,121.3,118.7,122.4,114.6,125.3,119.7,130.8,112.0,0,norm,1.136,1.629,-1.688,-1.786,-4.473,-5.166,-1.819,-1.857,-1.415,-1.142,2.008,-2.057,125.9,135.7,-4.328,-8.371,110.1,-1.328,7.91,5.033,-5.25,-8.461,10,4.329,4.803,4.993,4.713,1.959,1.358,1.485,1.21,10,5.253,5.241,10,71.3236170608,norm,0,25,25,25,2213.994,2214.0,2214.00155964,2214.002,2214.005,2214.008,up,1,1.90708531772,1.0,001,001,800_600,Intel(R) Core(TM) i7-2670QM CPU @ 2.20GHz,orientation_search,GRVLAPTOP3,Intel(R) HD Graphics Family,2018_mei_31_1238,testMonitor,
132.5,95.5,121.2,144.6,36,80,,121.5,108.8,107.1,7.97,7.592,7.999,7.884,8.066,8.438,8.292,4.865,-4.424,-8.011,1.89,-1.493,8.196,4.82,-5.071,-8.138,145.6,142.9,-7.591,141.9,135.4,125.3,93.3,108.8,36,131.2,4,10,prime,15,0,62,norm,36,-4.512,down,norm,123.284458885,127.9,126.2,1.431,116.7,0,126.8,128.1,120.1,15,5,7.532,5.263,1.832,-2.013,-4.471,-8.493,115.1,5,185.3,-8.194,-8.353,80,-7.956,-7.81,-4.843,-4.353,-4.422,-4.316,4.931,7.942,24,-1.144,1.473,5.224,8.37,-8.487,-8.348,-2.06,1.973,122.4,101.1,129.4,110.6,138.3,106.9,134.1,128.0,125.2,143.7,1,norm,1.832,1.602,-1.452,-1.343,-4.579,-4.362,-1.433,-1.634,-2.096,-1.704,1.954,-1.475,112.3,153.3,-4.785,-8.419,120.8,-2.06,7.922,4.36,-4.579,-7.508,10,5.244,4.671,4.791,4.826,1.35,1.897,1.432,1.651,10,4.419,4.823,10,71.3236170608,norm,0,26,26,26,2215.924,2215.93,2215.93216338,2215.933,2215.936,2215.939,up,0,2.58817013952,-16.0,001,001,800_600,Intel(R) Core(TM) i7-2670QM CPU @ 2.20GHz,orientation_search,GRVLAPTOP3,Intel(R) HD Graphics Family,2018_mei_31_1238,testMonitor,
97.0,142.0,108.0,116.2,36,80,93.3,102.1,122.2,112.7,8.011,7.659,8.48,7.506,7.647,8.235,7.675,5.087,-4.349,-7.586,1.151,-1.436,8.042,5.01,-4.369,-8.224,94.2,127.0,-7.846,133.5,135.9,151.1,123.0,123.0,36,130.4,2,10,prime,15,0,66,norm,36,-5.056,down,norm,123.284458885,153.3,138.5,1.926,135.1,1,112.9,,126.5,15,5,8.368,5.043,1.847,-1.315,-4.305,-8.062,129.1,5,189.3,-8.28,-8.402,80,-8.022,-7.984,-5.033,-4.651,-4.528,-5.124,4.469,7.937,13,-1.439,1.754,4.367,8.297,-8.198,-7.596,-1.113,1.769,140.0,136.1,130.2,140.8,116.2,104.5,122.4,114.5,113.6,132.3,2,norm,1.894,1.375,-1.607,-1.813,-4.336,-4.377,-2.068,-2.014,-1.679,-1.265,1.745,-1.707,107.4,119.1,-4.357,-7.989,99.9,-1.515,8.466,4.95,-5.267,-7.734,10,5.089,4.452,4.36,4.408,1.896,1.855,1.158,1.505,10,4.833,4.562,10,71.3236170608,norm,0,27,27,27,2219.548,2219.553,2219.55462423,2219.555,2219.558,2219.561,down,1,2.23689186104,-2.0,001,001,800_600,Intel(R) Core(TM) i7-2670QM CPU @ 2.20GHz,orientation_search,GRVLAPTOP3,Intel(R) HD Graphics Family,2018_mei_31_1238,testMonitor,
113.8,115.0,110.0,103.7,36,80,109.5,148.6,,125.0,7.518,8.411,8.336,8.039,7.748,8.379,7.981,5.139,-4.762,-7.608,1.394,-1.143,8.422,4.357,-4.581,-7.576,116.6,123.4,-8.452,133.9,136.4,133.4,134.8,118.8,36,109.2,4,10,prime,15,0,85,norm,36,-4.709,up,norm,123.284458885,104.8,123.0,1.542,144.7,4,134.4,137.4,146.4,15,5,7.593,4.637,1.6,-1.387,-5.142,-7.795,132.1,5,208.3,-7.653,-7.848,80,-7.967,-8.497,-5.008,-4.975,-5.012,-5.238,4.992,7.718,28,-1.199,1.451,4.346,8.352,-7.847,-8.453,-1.565,1.834,130.5,153.3,113.6,93.3,110.7,136.1,122.1,93.5,103.9,138.9,3,norm,1.705,1.757,-1.686,-1.941,-5.004,-4.367,-2.085,-1.474,-1.61,-1.33,1.251,-1.26,130.6,127.2,-4.365,-7.536,119.4,-1.145,8.187,4.901,-4.474,-7.501,10,5.112,4.391,5.102,4.682,1.185,1.366,1.675,1.704,10,4.971,5.091,10,71.3236170608,norm,0,28,28,28,2221.807,2221.813,2221.81442513,2221.815,2221.818,2221.822,down,0,4.83731175108,-38.0,001,001,800_600,Intel(R) Core(TM) i7-2670QM CPU @ 2.20GHz,orientation_search,GRVLAPTOP3,Intel(R) HD Graphics Family,2018_mei_31_1238,testMonitor,
111.8,124.4,109.5,151.7,36,80,129.3,130.5,108.1,103.0,7.882,8.205,7.893,8.047,7.869,7.707,7.891,5.159,-4.649,-8.13,1.371,-1.76,8.272,4.529,-4.486,-8.132,111.3,99.9,-7.58,140.8,116.3,135.1,132.2,109.3,36,127.5,2,10,prime,15,0,91,norm,36,-5.011,down,norm,123.284458885,115.9,105.9,1.6,124.6,0,153.3,140.7,,15,5,8.08,4.468,1.404,-1.121,-4.693,-8.076,147.2,5,214.3,-8.372,-8.195,80,-8.138,-8.111,-4.465,-4.393,-4.534,-5.169,4.732,8.406,12,-1.693,1.454,4.319,7.723,-7.907,-8.361,-1.329,1.434,144.3,108.8,140.5,132.3,118.3,124.8,94.6,93.3,128.8,115.7,4,norm,1.938,2.081,-1.507,-1.176,-5.243,-4.483,-1.895,-1.782,-1.591,-1.74,1.374,-1.146,149.5,118.7,-5.197,-8.355,135.5,-1.419,7.724,5.232,-4.36,-8.166,10,4.452,4.61,4.634,5.274,1.756,1.798,1.759,1.51,10,4.849,4.988,10,71.3236170608,norm,0,29,29,29,2227.675,2227.681,2227.68250298,2227.683,2227.686,2227.689,down,1,2.05108771229,-1.0,001,001,800_600,Intel(R) Core(TM) i7-2670QM CPU @ 2.20GHz,orientation_search,GRVLAPTOP3,Intel(R) HD Graphics Family,2018_mei_31_1238,testMonitor,
291.1,287.7,291.1,303.9,36,60,300.2,287.4,283.6,296.6,8.347,7.603,8.075,7.67,7.721,7.506,8.274,5.288,-4.395,-7.747,1.861,-1.6,7.791,4.674,-4.311,-8.216,282.9,283.8,-8.114,290.9,288.3,278.9,283.9,286.8,36,,4,10,probe,10,0,83,norm,36,-4.508,up,norm,289.947327214,281.6,291.0,1.557,291.7,3,297.7,293.2,294.1,15,5,8.455,5.128,1.368,-1.902,-5.17,-8.49,283.9,1,206.9,-7.649,-8.272,80,-8.386,-7.61,-4.626,-4.369,-4.546,-4.877,5.208,7.592,27,-1.831,1.943,5.069,7.814,-7.67,-8.028,-1.487,1.599,300.2,269.9,287.3,275.1,286.5,282.8,309.9,290.7,284.0,282.0,0,norm,1.437,1.899,-1.547,-1.423,-4.837,-4.626,-2.009,-2.087,-1.116,-1.863,1.681,-1.838,293.0,287.6,-4.673,-8.182,283.7,-1.806,8.255,4.469,-5.081,-8.493,11,5.174,5.046,5.117,4.853,1.126,1.356,1.569,2.036,11,4.838,4.68,80,123.284458885,norm,0,30,30,30,2229.749,2229.755,2229.75651794,2229.757,2229.76,2229.764,up,1,4.60226251253,-26.0,001,001,800_600,Intel(R) Core(TM) i7-2670QM CPU @ 2.20GHz,orientation_search,GRVLAPTOP3,Intel(R) HD Graphics Family,2018_mei_31_1238,testMonitor,
197.5,235.7,228.7,209.6,36,-30,247.7,219.1,,208.4,8.313,7.912,8.495,8.017,7.797,8.269,8.082,5.29,-4.875,-8.189,1.648,-1.161,7.55,5.136,-5.22,-7.935,209.8,210.5,-8.115,231.8,227.5,227.0,212.0,196.4,36,210.1,4,10,prime,15,0,111,norm,36,-4.99,up,norm,217.679789217,208.0,235.6,1.561,233.7,4,190.5,195.5,240.4,15,3,8.176,4.742,1.259,-1.56,-4.896,-8.009,214.0,3,328.7,-8.241,-8.359,-30,-7.769,-7.665,-4.918,-4.457,-4.644,-4.655,4.718,7.725,28,-2.089,1.798,4.467,7.526,-7.724,-7.861,-1.581,1.511,187.7,208.3,217.4,208.4,203.5,204.5,245.9,216.4,228.5,204.8,0,norm,1.838,1.447,-1.108,-1.393,-5.245,-4.377,-1.366,-1.544,-1.814,-1.222,1.251,-1.796,238.1,237.2,-4.383,-8.009,205.2,-1.96,8.47,5.142,-5.242,-7.593,12,4.716,4.584,5.228,4.449,1.14,1.767,1.937,1.282,12,4.364,5.17,60,123.284458885,norm,0,31,31,31,2234.375,2234.38,2234.38150504,2234.382,2234.385,2234.389,up,1,2.39568286534,-4.0,001,001,800_600,Intel(R) Core(TM) i7-2670QM CPU @ 2.20GHz,orientation_search,GRVLAPTOP3,Intel(R) HD Graphics Family,2018_mei_31_1238,testMonitor,
205.2,,200.7,208.8,36,-30,197.5,206.3,205.7,231.3,8.374,8.233,7.752,7.576,7.639,7.669,8.431,5.231,-4.976,-7.555,2.064,-1.486,8.277,5.033,-4.32,-8.419,233.0,209.8,-8.131,222.4,187.7,240.8,213.6,220.2,36,205.0,3,10,prime,15,0,114,norm,36,-4.325,up,norm,217.679789217,220.8,214.8,1.656,217.4,5,210.4,210.5,210.3,15,3,8.112,4.784,1.447,-1.663,-5.248,-8.482,208.3,3,331.7,-8.339,-7.771,-30,-8.059,-8.39,-4.445,-4.828,-4.805,-4.944,4.409,8.123,23,-1.209,2.054,4.46,7.98,-7.987,-7.779,-1.897,1.819,210.5,225.1,223.5,203.3,212.6,232.9,226.8,226.2,223.7,247.7,1,norm,1.924,1.396,-1.565,-2.072,-4.707,-4.479,-1.474,-1.452,-1.886,-1.402,1.213,-1.787,217.1,236.7,-4.743,-8.436,206.2,-1.34,8.447,5.252,-4.699,-8.022,12,4.523,5.169,4.834,4.925,1.126,1.666,1.801,1.132,12,4.359,4.438,60,123.284458885,norm,0,32,32,32,2236.793,2236.799,2236.80030847,2236.801,2236.804,2236.808,down,0,4.0416098338,-30.0,001,001,800_600,Intel(R) Core(TM) i7-2670QM CPU @ 2.20GHz,orientation_search,GRVLAPTOP3,Intel(R) HD Graphics Family,2018_mei_31_1238,testMonitor,
217.1,224.3,210.0,228.3,36,-30,187.8,203.4,214.2,233.9,8.342,8.405,7.562,8.25,8.213,8.019,7.735,5.155,-4.493,-8.453,1.628,-1.874,7.724,4.506,-4.909,-8.157,187.7,217.2,-8.16,191.4,222.1,237.8,243.9,230.4,36,223.0,0,10,prime,15,0,116,norm,36,-5.11,up,norm,217.679789217,206.2,207.7,1.476,222.5,3,223.2,219.3,209.9,15,3,8.04,5.075,1.748,-1.637,-4.379,-7.783,231.3,3,333.7,-7.702,-7.738,-30,-7.948,-8.077,-4.533,-5.251,-4.88,-5.097,4.407,7.693,3,-1.239,1.798,4.673,7.686,-8.248,-7.684,-1.238,1.397,226.8,204.4,,217.5,240.2,234.0,205.0,226.1,219.2,216.1,2,norm,2.009,1.451,-1.922,-1.125,-5.136,-4.546,-1.778,-1.47,-1.57,-1.613,1.897,-1.736,229.1,196.2,-4.706,-8.28,226.9,-1.1,7.55,4.31,-4.573,-7.946,12,5.157,4.85,5.28,4.479,2.02,1.526,1.902,1.678,12,4.993,4.772,60,123.284458885,norm,0,33,33,33,2241.871,2241.876,2241.87782797,2241.878,2241.881,2241.884,down,0,10.2672587091,-93.0,001,001,800_600,Intel(R) Core(TM) i7-2670QM CPU @ 2.20GHz,orientation_search,GRVLAPTOP3,Intel(R) HD Graphics Family,2018_mei_31_1238,testMonitor,
289.3,281.0,282.2,275.6,36,-10,286.8,290.8,284.2,278.4,7.681,7.999,8.207,8.409,7.673,7.671,7.797,4.372,-5.228,-8.079,1.335,-1.513,8.121,4.552,-4.945,-7.71,285.7,298.0,-8.425,279.1,302.9,307.5,285.1,305.6,36,267.5,1,10,probe,10,0,97,norm,36,-5.153,up,norm,287.502359821,286.3,291.9,1.87,269.5,4,284.5,302.1,292.0,15,3,7.73,5.245,1.815,-2.067,-4.94,-8.227,,1,190.5,-8.32,-7.646,-30,-8.455,-8.27,-5.032,-5.118,-4.505,-4.97,4.508,8.198,10,-1.243,1.478,5.258,7.918,-8.102,-7.888,-1.855,1.39,292.1,307.1,291.5,270.9,282.3,291.5,282.5,307.2,302.7,288.0,0,norm,1.259,1.561,-1.791,-1.945,-4.371,-4.486,-1.548,-2.007,-1.261,-1.482,1.903,-1.861,285.7,287.4,-4.464,-7.592,302.2,-1.479,7.524,4.731,-4.326,-8.199,13,4.5,4.843,4.403,4.501,1.657,1.666,1.16,1.282,13,4.496,4.846,-30,217.679789217,norm,0,34,34,34,2253.166,2253.173,2253.17541243,2253.176,2253.18,2253.185,up,1,3.13419484262,-11.0,001,001,800_600,Intel(R) Core(TM) i7-2670QM CPU @ 2.20GHz,orientation_search,GRVLAPTOP3,Intel(R) HD Graphics Family,2018_mei_31_1238,testMonitor,
178.6,187.6,168.4,185.5,36,10,169.4,163.1,151.0,181.2,8.143,7.823,7.817,8.458,7.579,7.835,7.678,4.637,-4.749,-8.019,1.416,-1.978,7.863,4.84,-4.572,-7.505,171.7,168.9,-8.312,173.3,168.5,182.5,178.0,171.8,36,169.6,0,10,prime,15,0,101,norm,36,-4.387,up,norm,174.804353273,190.8,176.8,1.227,171.1,5,156.9,171.3,176.8,15,2,8.207,4.427,1.426,-1.887,-4.49,-7.642,167.2,2,275.8,-7.571,-7.525,10,-8.206,-7.965,-5.135,-4.454,-4.397,-4.658,5.217,7.522,5,-1.756,2.015,5.268,8.423,-7.8,-8.104,-1.675,1.747,178.2,164.8,159.9,187.4,144.8,197.4,170.9,197.1,,176.5,0,norm,1.743,1.237,-1.217,-1.554,-5.248,-5.221,-1.616,-1.296,-1.926,-1.387,1.489,-1.29,204.8,176.2,-4.485,-7.611,177.2,-1.963,8.0,4.393,-4.82,-7.598,14,4.351,5.207,4.655,4.99,1.906,1.395,1.996,1.166,14,4.797,4.462,-10,217.679789217,norm,0,35,35,35,2256.33,2256.338,2256.33995684,2256.341,2256.344,2256.35,up,1,2.74681311764,-7.0,001,001,800_600,Intel(R) Core(TM) i7-2670QM CPU @ 2.20GHz,orientation_search,GRVLAPTOP3,Intel(R) HD Graphics Family,2018_mei_31_1238,testMonitor,
198.5,165.4,176.1,176.8,36,10,170.4,190.7,169.6,178.7,7.936,8.426,7.849,8.196,8.394,7.988,7.626,4.361,-4.898,-7.547,2.054,-1.967,8.172,4.985,-4.893,-7.668,184.3,177.9,-8.019,169.2,185.2,180.2,162.2,144.8,36,,4,10,prime,15,0,109,norm,36,-4.457,up,norm,174.804353273,175.9,180.1,2.044,169.6,3,168.9,150.7,204.8,15,2,8.259,4.677,1.275,-1.105,-5.27,-7.894,186.7,2,283.8,-8.125,-7.825,10,-7.807,-8.338,-4.761,-4.969,-4.798,-5.159,4.333,8.335,27,-1.786,1.349,4.753,7.897,-7.686,-7.557,-1.202,1.144,152.1,184.0,198.7,177.0,165.5,183.2,161.2,160.5,193.4,162.3,1,norm,1.18,1.687,-1.302,-1.863,-4.685,-4.96,-1.59,-1.358,-2.043,-1.471,1.849,-1.326,167.8,180.8,-4.68,-7.894,182.7,-1.788,7.783,4.657,-4.414,-8.354,14,5.198,5.299,5.187,4.782,1.139,1.454,1.794,1.905,14,4.365,5.287,-10,217.679789217,norm,0,36,36,36,2259.107,2259.116,2259.11819354,2259.119,2259.123,2259.128,down,0,2.20004594882,-12.0,001,001,800_600,Intel(R) Core(TM) i7-2670QM CPU @ 2.20GHz,orientation_search,GRVLAPTOP3,Intel(R) HD Graphics Family,2018_mei_31_1238,testMonitor,
264.9,263.3,272.4,270.3,36,40,289.1,285.0,289.8,288.8,8.491,8.349,8.425,8.045,8.226,8.339,7.607,4.529,-4.772,-8.487,1.272,-1.439,7.901,4.801,-4.94,-7.864,283.0,294.1,-7.686,289.4,285.4,282.3,298.8,272.8,36,288.1,2,10,probe,10,0,100,norm,36,-4.622,up,norm,283.325004837,,297.8,1.518,277.7,5,296.9,284.9,278.1,15,2,7.627,5.137,1.606,-1.435,-5.231,-8.101,283.5,1,183.3,-8.213,-8.181,10,-7.511,-7.703,-5.297,-4.92,-4.905,-4.927,4.497,8.111,17,-1.423,1.554,4.944,7.616,-8.368,-7.849,-1.918,2.015,266.6,303.3,291.7,286.1,270.7,292.1,278.7,271.4,274.3,285.8,0,norm,1.204,1.962,-1.4,-2.09,-4.561,-4.414,-2.033,-1.308,-1.964,-1.36,1.531,-1.626,287.1,267.4,-4.612,-7.944,274.9,-1.281,7.733,4.668,-5.217,-7.996,15,4.572,4.926,4.634,4.353,2.08,1.45,2.013,1.799,15,5.097,4.348,10,174.804353273,norm,0,37,37,37,2262.338,2262.345,2262.34766681,2262.348,2262.352,2262.357,up,1,3.68578943952,-17.0,001,001,800_600,Intel(R) Core(TM) i7-2670QM CPU @ 2.20GHz,orientation_search,GRVLAPTOP3,Intel(R) HD Graphics Family,2018_mei_31_1238,testMonitor,
172.6,156.8,138.9,161.2,36,-80,164.5,125.3,140.9,,7.672,8.419,7.749,7.641,7.794,8.318,7.952,5.287,-4.679,-8.449,1.672,-1.253,7.949,4.507,-4.396,-8.465,169.8,183.0,-8.47,162.8,159.5,183.6,171.3,154.3,36,150.7,4,10,prime,15,0,104,norm,36,-5.084,up,norm,155.328656018,162.6,185.3,1.711,155.2,5,170.4,135.7,172.1,15,6,7.668,4.987,1.159,-1.526,-4.53,-8.472,156.8,6,259.3,-8.222,-8.3,-80,-7.638,-8.05,-4.62,-4.394,-5.212,-4.775,5.014,8.373,29,-1.286,1.719,4.586,7.626,-8.28,-8.343,-2.005,1.889,158.8,158.1,168.7,166.0,175.6,142.7,164.6,158.1,155.4,168.2,0,norm,2.074,1.439,-1.842,-1.836,-4.43,-5.256,-1.669,-1.826,-1.41,-1.875,1.276,-1.853,182.0,157.4,-4.507,-8.136,135.2,-1.704,8.284,4.657,-4.408,-8.406,16,4.914,5.025,4.97,5.065,2.023,2.045,1.607,1.628,16,5.111,4.415,40,174.804353273,norm,0,38,38,38,2266.054,2266.062,2266.06396599,2266.065,2266.068,2266.073,up,1,3.50688835417,-15.0,001,001,800_600,Intel(R) Core(TM) i7-2670QM CPU @ 2.20GHz,orientation_search,GRVLAPTOP3,Intel(R) HD Graphics Family,2018_mei_31_1238,testMonitor,
174.1,130.2,161.6,153.1,36,-80,160.5,158.7,143.3,170.1,7.663,8.102,8.417,8.059,8.073,7.69,8.24,4.415,-5.285,-8.128,1.397,-1.146,7.877,4.471,-5.029,-7.799,171.6,175.9,-7.613,125.3,135.0,159.9,134.7,141.9,36,165.8,2,10,prime,15,0,76,norm,36,-4.405,down,norm,155.328656018,132.8,151.5,1.703,164.9,1,142.3,,177.1,15,6,7.917,4.987,1.491,-1.123,-4.303,-8.125,144.2,6,231.3,-7.549,-8.194,-80,-7.593,-8.424,-4.683,-4.379,-5.206,-4.555,5.101,8.16,13,-1.161,1.115,5.123,8.484,-8.199,-7.877,-1.668,1.225,170.5,173.6,158.3,133.5,131.2,127.5,170.0,161.5,185.3,171.0,1,norm,1.771,1.663,-1.567,-1.754,-4.813,-4.848,-1.54,-1.68,-1.872,-1.197,1.554,-1.868,137.9,168.8,-4.746,-8.017,133.5,-1.11,7.754,5.179,-5.232,-7.637,16,4.801,4.671,4.993,4.911,1.882,1.588,1.677,1.247,16,4.303,4.451,40,174.804353273,norm,0,39,39,39,2269.591,2269.599,2269.60142385,2269.602,2269.606,2269.611,down,1,2.46592572634,-5.0,001,001,800_600,Intel(R) Core(TM) i7-2670QM CPU @ 2.20GHz,orientation_search,GRVLAPTOP3,Intel(R) HD Graphics Family,2018_mei_31_1238,testMonitor,
143.5,136.1,158.3,148.3,36,-80,171.0,134.4,134.5,161.2,8.198,7.863,8.423,8.442,8.015,8.285,8.188,5.045,-5.291,-7.792,1.691,-1.936,8.142,4.848,-4.57,-7.779,164.7,169.0,-8.161,154.8,167.1,160.5,158.2,146.9,36,155.5,1,10,prime,15,0,67,norm,36,-4.827,down,norm,155.328656018,141.5,157.9,1.246,129.4,0,137.1,168.0,163.9,15,6,8.312,5.062,1.733,-2.03,-4.408,-8.168,165.8,6,222.3,-8.379,-8.253,-80,-8.05,-8.231,-4.895,-4.796,-5.043,-4.396,4.503,7.797,6,-1.243,1.769,4.528,8.431,-7.839,-7.57,-1.752,1.756,148.2,173.4,141.4,165.7,165.0,155.3,153.8,,135.4,125.3,2,norm,1.976,1.624,-1.331,-1.787,-4.394,-4.471,-1.331,-1.526,-1.278,-1.688,2.052,-1.166,185.3,161.8,-4.992,-8.107,126.8,-1.847,8.25,4.378,-5.126,-8.276,16,4.569,4.591,4.737,4.573,1.784,1.557,1.21,1.642,16,5.148,4.486,40,174.804353273,norm,0,40,40,40,2272.088,2272.095,2272.09700945,2272.098,2272.102,2272.107,down,1,3.44194875305,-14.0,001,001,800_600,Intel(R) Core(TM) i7-2670QM CPU @ 2.20GHz,orientation_search,GRVLAPTOP3,Intel(R) HD Graphics Family,2018_mei_31_1238,testMonitor,
153.5,174.3,169.8,152.7,36,-80,153.8,149.8,182.3,151.1,7.54,8.37,8.221,8.154,7.999,8.352,7.876,4.873,-4.54,-7.704,1.368,-1.387,7.599,4.439,-4.905,-7.596,157.5,138.5,-7.611,148.4,142.2,149.0,156.5,133.6,36,175.4,2,10,prime,15,0,64,norm,36,-4.333,down,norm,155.328656018,147.0,171.6,1.67,125.3,1,167.5,,146.5,15,6,7.668,4.981,1.766,-1.495,-4.434,-8.234,160.7,6,219.3,-7.991,-8.298,-80,-7.505,-7.628,-4.716,-5.064,-4.746,-4.972,4.364,7.547,13,-1.953,1.328,5.228,8.446,-8.026,-8.456,-1.413,1.95,152.9,157.9,164.0,185.3,163.3,152.6,159.0,174.1,150.6,128.9,3,norm,1.72,1.227,-2.004,-1.677,-4.904,-4.465,-1.946,-1.902,-1.987,-1.869,1.802,-1.936,158.0,139.5,-4.862,-7.528,167.8,-1.813,8.329,4.496,-4.628,-7.84,16,4.723,4.33,5.102,4.493,1.59,1.176,1.809,2.087,16,4.733,4.542,40,174.804353273,norm,0,41,41,41,2275.56,2275.568,2275.57024076,2275.571,2275.575,2275.58,down,1,1.67141689077,3.0,001,001,800_600,Intel(R) Core(TM) i7-2670QM CPU @ 2.20GHz,orientation_search,GRVLAPTOP3,Intel(R) HD Graphics Family,2018_mei_31_1238,testMonitor,
157.1,,185.3,181.4,36,-80,159.2,153.7,165.9,155.6,8.118,8.307,8.261,7.668,7.574,8.13,7.546,5.221,-5.022,-8.459,1.186,-1.784,8.371,4.715,-4.339,-8.353,144.6,162.2,-7.71,135.7,139.6,148.4,145.5,160.6,36,162.6,3,10,prime,15,0,88,norm,36,-5.094,up,norm,155.328656018,148.0,153.3,1.799,127.7,5,146.0,151.8,162.9,15,6,8.377,4.734,1.425,-1.786,-4.767,-8.187,176.0,6,243.3,-8.466,-8.154,-80,-8.28,-8.271,-5.038,-4.68,-4.46,-4.784,4.833,7.615,23,-1.115,1.768,4.328,8.484,-8.099,-8.244,-1.766,1.23,142.8,152.4,162.9,147.7,168.1,157.5,158.8,145.9,178.4,178.1,4,norm,1.87,1.766,-2.013,-1.726,-4.744,-4.718,-1.51,-1.997,-1.398,-1.455,1.845,-1.968,176.4,177.7,-4.913,-7.949,125.3,-2.028,7.511,4.38,-5.066,-7.687,16,4.635,4.732,4.437,4.52,1.408,1.614,1.258,1.367,16,4.973,4.927,40,174.804353273,norm,0,42,42,42,2277.263,2277.271,2277.27314333,2277.274,2277.278,2277.283,up,1,2.33719898035,-3.0,001,001,800_600,Intel(R) Core(TM) i7-2670QM CPU @ 2.20GHz,orientation_search,GRVLAPTOP3,Intel(R) HD Graphics Family,2018_mei_31_1238,testMonitor,
140.9,125.3,168.8,163.1,36,-80,133.3,139.4,168.3,145.6,8.056,8.008,8.003,8.195,8.459,8.342,8.336,4.627,-4.839,-8.211,1.507,-1.232,7.626,4.855,-5.254,-7.654,148.6,,-8.088,138.5,180.6,155.3,144.1,145.2,36,158.0,5,10,prime,15,0,94,norm,36,-4.878,up,norm,155.328656018,185.3,174.1,1.55,159.3,4,137.9,164.2,147.8,15,6,8.341,4.923,1.195,-2.086,-4.677,-7.716,150.7,6,249.3,-7.713,-7.959,-80,-8.092,-8.04,-5.227,-4.323,-5.122,-4.939,4.506,8.458,34,-1.102,1.502,5.004,7.997,-8.36,-8.169,-1.355,1.909,175.7,150.6,145.1,140.0,161.0,149.2,171.8,161.6,140.5,166.0,5,norm,2.081,1.927,-1.492,-1.802,-4.306,-4.39,-1.916,-1.782,-1.93,-1.459,1.879,-1.535,157.8,145.2,-4.924,-7.602,164.9,-1.654,7.969,4.76,-4.379,-8.001,16,4.785,4.816,5.041,4.404,1.315,1.797,1.769,1.644,16,5.16,4.987,40,174.804353273,norm,0,43,43,43,2279.631,2279.638,2279.64107526,2279.642,2279.646,2279.651,up,1,3.91592532943,-19.0,001,001,800_600,Intel(R) Core(TM) i7-2670QM CPU @ 2.20GHz,orientation_search,GRVLAPTOP3,Intel(R) HD Graphics Family,2018_mei_31_1238,testMonitor,
,142.3,155.2,139.8,36,-30,134.0,138.9,166.4,148.5,8.225,8.146,8.4,7.584,7.992,8.06,8.256,5.274,-5.187,-7.705,1.612,-1.355,7.99,5.092,-4.414,-8.092,151.3,144.2,-8.473,135.3,145.7,126.4,147.7,139.4,36,149.8,3,10,probe,10,0,67,norm,36,-5.079,up,norm,146.361044296,146.4,146.9,1.862,133.1,4,129.2,152.7,141.4,15,6,7.633,4.953,2.085,-2.042,-5.118,-8.455,141.4,2,79.4,-7.725,-8.013,-80,-7.829,-7.538,-5.211,-4.884,-4.597,-4.846,5.293,8.115,22,-1.921,1.615,4.99,7.921,-7.57,-8.423,-1.819,1.151,142.3,141.7,141.0,131.9,141.5,161.0,134.0,136.7,151.2,153.1,0,norm,1.926,1.571,-1.849,-1.312,-4.571,-5.001,-1.392,-1.883,-1.61,-1.542,1.122,-1.323,148.0,133.0,-4.403,-8.189,161.1,-1.84,7.863,5.046,-4.805,-7.699,17,4.985,4.875,4.447,4.935,1.768,2.065,1.247,1.705,17,5.058,5.192,-80,155.328656018,norm,0,44,44,44,2283.578,2283.585,2283.58760885,2283.588,2283.592,2283.597,up,1,4.18403063628,-22.0,001,001,800_600,Intel(R) Core(TM) i7-2670QM CPU @ 2.20GHz,orientation_search,GRVLAPTOP3,Intel(R) HD Graphics Family,2018_mei_31_1238,testMonitor,
188.4,172.2,175.0,186.8,36,-30,167.4,163.4,168.9,159.1,7.659,8.375,8.422,8.278,7.982,7.672,8.031,4.438,-4.552,-8.252,1.976,-1.932,7.606,4.513,-5.01,-8.423,168.9,171.4,-7.966,168.3,178.3,153.1,148.4,177.4,36,169.3,2,10,probe,10,0,89,norm,36,-4.491,down,norm,168.361044296,164.3,170.9,1.133,162.7,0,173.6,157.8,,15,6,8.14,5.044,1.418,-1.961,-4.321,-7.737,175.8,2,79.4,-8.263,-7.528,-80,-7.988,-8.233,-4.426,-4.476,-4.599,-4.691,4.574,7.938,12,-1.302,1.319,5.105,7.761,-7.585,-8.008,-1.971,1.759,181.6,171.0,160.8,175.4,167.8,181.4,168.8,173.7,167.1,172.8,1,norm,1.762,1.886,-1.635,-2.004,-5.062,-4.605,-1.711,-1.123,-1.966,-2.098,1.633,-1.279,166.9,165.9,-5.29,-7.518,151.5,-1.487,8.412,4.474,-4.592,-7.586,17,4.82,4.315,4.461,4.923,1.269,1.716,1.907,1.998,17,5.292,4.534,-80,155.328656018,norm,0,45,45,45,2287.792,2287.8,2287.8023108,2287.803,2287.807,2287.812,down,1,3.38984867241,-14.0,001,001,800_600,Intel(R) Core(TM) i7-2670QM CPU @ 2.20GHz,orientation_search,GRVLAPTOP3,Intel(R) HD Graphics Family,2018_mei_31_1238,testMonitor,
196.9,200.9,199.9,198.5,36,-10,200.4,174.1,172.8,177.4,8.168,7.618,7.911,8.123,8.424,8.407,7.957,4.894,-4.598,-8.395,1.649,-1.928,7.909,4.352,-4.59,-7.635,168.6,224.7,-7.902,220.6,215.9,223.5,199.4,189.3,36,170.8,2,10,prime,15,0,92,norm,36,-4.556,up,norm,194.689914488,,197.8,1.235,190.6,5,206.8,198.8,188.3,15,3,8.332,5.089,1.268,-1.699,-4.668,-8.041,208.8,3,286.7,-7.858,-8.469,-10,-8.262,-7.837,-5.105,-4.721,-4.463,-4.529,4.461,7.858,17,-1.739,1.403,5.051,7.949,-7.572,-8.445,-1.278,1.634,210.8,215.4,180.8,215.5,195.8,175.6,218.6,187.9,164.7,191.7,0,norm,2.09,1.311,-1.968,-1.722,-5.019,-4.717,-1.431,-1.714,-1.895,-1.691,1.33,-1.643,211.0,175.5,-4.363,-7.861,194.1,-2.059,8.415,5.071,-5.248,-7.841,18,4.338,4.424,4.906,4.445,1.519,1.664,1.266,1.638,18,4.7,5.091,-30,155.328656018,norm,0,46,46,46,2291.213,2291.22,2291.2223951,2291.223,2291.227,2291.232,up,1,4.44539584864,-24.0,001,001,800_600,Intel(R) Core(TM) i7-2670QM CPU @ 2.20GHz,orientation_search,GRVLAPTOP3,Intel(R) HD Graphics Family,2018_mei_31_1238,testMonitor,
188.7,202.1,224.7,188.4,36,-10,188.4,164.7,189.6,196.7,8.094,7.561,8.306,8.219,8.495,8.345,8.029,4.874,-5.19,-7.677,1.943,-1.438,8.394,4.461,-4.906,-7.502,204.1,174.2,-7.864,,179.8,200.7,173.1,188.2,36,184.0,5,10,prime,15,0,89,norm,36,-4.35,down,norm,194.689914488,200.2,206.1,2.057,205.1,1,192.2,214.7,196.6,15,3,7.998,4.426,1.412,-1.803,-5.221,-8.025,179.5,3,283.7,-7.787,-8.309,-10,-8.432,-8.236,-4.702,-5.283,-4.741,-5.028,4.545,7.524,31,-1.898,1.406,4.673,8.043,-7.563,-8.392,-1.424,1.796,185.1,188.5,189.4,185.1,223.0,187.0,189.2,195.8,190.6,183.1,1,norm,2.094,1.152,-1.794,-1.331,-4.878,-4.927,-1.375,-1.584,-1.573,-1.755,1.734,-1.163,192.7,185.9,-5.126,-7.845,184.8,-1.24,8.291,5.068,-5.053,-7.602,18,4.527,5.031,5.297,4.931,1.722,1.207,1.898,1.617,18,4.591,4.502,-30,155.328656018,norm,0,47,47,47,2295.688,2295.696,2295.69807841,2295.699,2295.703,2295.708,down,1,5.92500909404,-39.0,001,001,800_600,Intel(R) Core(TM) i7-2670QM CPU @ 2.20GHz,orientation_search,GRVLAPTOP3,Intel(R) HD Graphics Family,2018_mei_31_1238,testMonitor,
164.7,168.2,219.6,211.3,36,-10,204.5,214.2,183.5,176.7,8.088,7.776,8.038,8.151,8.342,8.033,8.096,4.837,-4.336,-8.232,1.968,-1.123,7.936,4.631,-4.894,-8.159,201.0,170.6,-7.817,206.3,194.8,201.5,223.8,,36,188.5,4,10,prime,15,0,87,norm,36,-4.866,down,norm,194.689914488,217.0,205.5,1.73,171.6,2,202.1,202.0,169.4,15,3,7.961,4.752,2.018,-1.377,-4.86,-7.916,169.2,3,281.7,-7.906,-8.37,-10,-8.007,-8.499,-5.037,-4.762,-4.59,-4.703,5.103,8.194,26,-1.748,1.333,4.722,8.004,-8.189,-8.312,-1.723,1.64,224.7,190.7,205.1,212.5,198.4,184.1,205.5,190.7,197.2,219.3,2,norm,1.223,1.288,-1.419,-1.665,-4.646,-4.364,-1.417,-1.682,-1.635,-2.058,1.233,-1.388,190.3,212.4,-5.141,-8.127,209.7,-1.551,8.098,5.114,-4.588,-7.918,18,4.35,4.406,4.931,5.158,1.109,1.22,1.694,1.406,18,4.767,4.451,-30,155.328656018,norm,0,48,48,48,2301.644,2301.652,2301.65423605,2301.655,2301.659,2301.664,up,0,3.08546060659,-21.0,001,001,800_600,Intel(R) Core(TM) i7-2670QM CPU @ 2.20GHz,orientation_search,GRVLAPTOP3,Intel(R) HD Graphics Family,2018_mei_31_1238,testMonitor,
255.2,262.8,254.9,258.5,36,-60,242.2,236.6,258.8,254.7,8.372,7.784,8.428,8.057,7.968,7.967,7.81,5.195,-5.01,-8.494,1.26,-1.458,7.804,4.385,-4.986,-8.135,230.9,231.5,-8.183,245.4,259.0,270.3,234.9,270.9,36,237.1,0,10,probe,10,0,63,norm,36,-4.686,down,norm,250.918988541,264.7,267.7,2.069,252.1,2,254.0,259.8,242.5,15,3,8.362,4.528,1.733,-1.87,-4.68,-7.895,236.1,1,187.9,-7.597,-7.741,-10,-7.81,-7.888,-4.572,-4.358,-5.223,-4.538,4.674,8.36,2,-1.935,1.961,4.349,8.494,-7.791,-7.539,-1.851,2.014,259.5,247.3,255.1,,240.9,250.3,254.3,254.2,239.9,244.3,0,norm,1.818,2.051,-1.231,-1.201,-4.812,-4.925,-1.129,-1.635,-2.015,-1.469,1.41,-1.214,252.3,247.1,-4.852,-8.491,259.3,-2.085,8.373,4.511,-4.965,-7.617,19,4.943,4.362,5.097,4.82,1.916,1.274,1.174,1.936,19,4.407,4.312,-10,194.689914488,norm,0,49,49,49,2305.768,2305.775,2305.77755307,2305.778,2305.782,2305.787,up,0,4.02070498755,-30.0,001,001,800_600,Intel(R) Core(TM) i7-2670QM CPU @ 2.20GHz,orientation_search,GRVLAPTOP3,Intel(R) HD Graphics Family,2018_mei_31_1238,testMonitor,
148.4,153.5,125.9,119.8,36,80,151.7,174.4,145.6,160.4,8.098,7.966,7.539,8.314,7.603,8.414,7.676,5.051,-4.836,-8.16,1.685,-1.308,8.231,4.932,-4.477,-7.608,139.4,148.1,-7.532,135.7,123.7,154.3,139.0,151.4,36,147.7,2,10,prime,15,0,79,norm,36,-4.637,up,norm,144.402676603,,150.4,1.335,125.6,5,130.2,114.4,147.5,15,2,7.745,5.033,1.58,-1.245,-5.008,-7.865,149.0,2,223.4,-8.101,-7.961,80,-7.809,-8.194,-4.485,-4.442,-5.18,-4.907,5.217,7.724,17,-1.483,1.73,4.682,7.781,-7.776,-8.315,-1.164,1.243,163.1,124.2,120.4,150.3,124.6,161.1,148.0,141.3,147.7,145.8,0,norm,1.473,1.217,-1.462,-1.297,-5.191,-5.021,-1.542,-1.925,-1.109,-1.451,1.277,-1.475,161.3,116.6,-5.262,-7.578,126.0,-2.032,8.054,5.005,-4.478,-7.978,20,4.751,4.838,5.027,4.967,1.538,1.798,2.041,1.226,20,4.664,5.264,-60,194.689914488,norm,0,50,50,50,2310.822,2352.084,2352.08653181,2352.087,2352.091,2352.096,up,1,2.1989499947,-2.0,001,001,800_600,Intel(R) Core(TM) i7-2670QM CPU @ 2.20GHz,orientation_search,GRVLAPTOP3,Intel(R) HD Graphics Family,2018_mei_31_1238,testMonitor,
149.1,149.0,132.2,,36,80,173.8,143.4,124.8,127.5,7.842,8.454,8.069,8.32,8.398,8.429,7.517,4.848,-5.264,-8.361,1.149,-1.44,7.694,5.008,-4.569,-7.744,134.9,135.1,-7.589,146.3,168.3,146.4,144.0,171.4,36,132.0,3,10,prime,15,0,103,norm,36,-4.446,up,norm,144.402676603,158.6,153.6,2.006,128.8,3,174.4,114.4,155.9,15,2,7.813,4.964,2.061,-1.741,-4.634,-8.08,151.0,2,247.4,-8.222,-7.78,80,-8.345,-7.66,-4.84,-4.599,-4.81,-5.286,5.299,8.165,21,-1.402,1.988,4.744,8.059,-8.175,-7.516,-1.185,1.77,148.8,130.3,139.7,120.7,130.8,138.7,132.5,152.3,167.6,115.1,1,norm,1.878,1.513,-1.441,-1.325,-4.4,-4.396,-2.072,-1.834,-1.238,-1.446,1.541,-1.538,142.1,121.7,-4.368,-7.736,135.6,-1.843,8.475,5.192,-4.673,-8.067,20,5.155,4.879,5.285,5.039,1.929,2.096,1.841,1.869,20,4.668,4.746,-60,194.689914488,norm,0,51,51,51,2354.306,2354.314,2354.31594858,2354.316,2354.32,2354.325,up,1,2.14218825662,-1.0,001,001,800_600,Intel(R) Core(TM) i7-2670QM CPU @ 2.20GHz,orientation_search,GRVLAPTOP3,Intel(R) HD Graphics Family,2018_mei_31_1238,testMonitor,
334.7,336.8,339.5,335.2,36,-40,342.9,343.9,355.0,331.1,8.466,8.478,7.642,7.567,8.131,7.815,7.633,4.37,-4.762,-7.643,1.346,-1.952,7.752,4.96,-4.453,-7.825,340.2,349.1,-7.952,344.0,335.0,,346.7,342.7,36,352.3,5,10,probe,10,0,113,norm,36,-4.672,up,norm,343.633566473,348.2,329.4,1.69,363.6,3,351.9,337.4,333.3,15,2,8.401,4.867,1.926,-1.22,-4.596,-8.341,323.6,1,230.6,-8.046,-8.395,80,-8.078,-7.947,-4.676,-4.539,-4.582,-4.481,4.476,7.702,33,-1.532,1.313,5.066,7.565,-7.71,-8.26,-1.214,1.391,339.4,338.1,350.4,352.8,345.0,356.5,344.4,332.7,355.2,339.3,0,norm,1.473,1.924,-2.011,-1.262,-4.791,-4.887,-1.435,-1.744,-1.494,-1.66,1.885,-2.013,348.3,342.4,-4.524,-8.319,334.1,-1.4,8.143,4.571,-4.511,-7.54,21,4.871,4.621,4.896,5.066,1.162,1.83,1.308,1.124,21,4.883,4.936,80,144.402676603,norm,0,52,52,52,2356.478,2356.486,2356.48817261,2356.489,2356.493,2356.498,down,0,2.39604942861,-14.0,001,001,800_600,Intel(R) Core(TM) i7-2670QM CPU @ 2.20GHz,orientation_search,GRVLAPTOP3,Intel(R) HD Graphics Family,2018_mei_31_1238,testMonitor,
194.8,210.3,203.4,224.4,36,20,208.5,202.6,200.7,225.5,8.264,8.46,8.163,7.929,8.496,7.978,7.603,5.273,-4.538,-8.44,1.801,-1.484,8.179,4.335,-4.566,-7.505,223.5,,-7.977,228.8,229.3,205.0,206.0,210.1,36,224.7,5,10,prime,15,0,97,norm,36,-5.173,up,norm,214.843861665,216.3,212.8,1.858,203.1,4,209.6,232.2,211.5,15,5,7.715,5.252,1.95,-1.52,-5.128,-8.304,201.1,5,311.8,-7.524,-7.67,20,-7.919,-7.66,-4.463,-5.218,-4.417,-5.08,5.145,7.855,34,-1.854,1.725,4.519,7.753,-7.677,-7.843,-1.163,1.558,244.8,200.6,229.6,184.8,217.9,213.4,217.2,242.2,202.5,242.5,0,norm,1.736,1.65,-1.957,-1.738,-4.709,-4.528,-1.891,-1.838,-1.279,-1.612,1.489,-1.74,190.0,222.4,-4.966,-8.429,202.4,-1.7,8.027,5.269,-5.252,-7.704,22,4.953,4.317,4.812,5.268,1.131,1.59,1.937,1.521,22,5.16,4.366,-40,144.402676603,norm,0,53,53,53,2359.915,2359.922,2359.9247051,2359.925,2359.929,2359.934,down,0,1.64384199395,-14.0,001,001,800_600,Intel(R) Core(TM) i7-2670QM CPU @ 2.20GHz,orientation_search,GRVLAPTOP3,Intel(R) HD Graphics Family,2018_mei_31_1238,testMonitor,
214.5,219.7,199.8,204.6,36,20,,220.8,207.6,236.1,8.043,8.453,7.791,7.563,7.6,8.081,7.863,4.916,-5.295,-8.259,2.03,-1.769,7.944,4.452,-4.49,-8.464,216.6,228.9,-8.484,225.6,198.5,192.4,204.6,184.8,36,219.4,4,10,prime,15,0,104,norm,36,-5.03,down,norm,214.843861665,199.1,242.5,1.695,195.7,0,234.4,212.8,210.5,15,5,8.466,4.863,1.565,-1.211,-4.8,-8.477,222.3,5,318.8,-8.339,-7.68,20,-7.653,-8.111,-4.524,-4.998,-4.459,-4.648,4.427,7.667,24,-1.963,1.318,4.888,7.81,-8.187,-8.368,-1.818,2.082,223.0,244.8,213.8,214.5,201.2,202.3,239.9,213.5,211.2,206.8,1,norm,1.377,1.417,-1.153,-1.533,-5.209,-5.272,-1.96,-1.351,-1.409,-1.447,1.576,-1.458,218.4,194.2,-5.125,-8.39,199.3,-1.524,7.566,4.641,-5.268,-7.846,22,4.904,5.045,5.147,4.511,1.518,1.373,1.84,1.836,22,5.092,4.591,-40,144.402676603,norm,0,54,54,54,2362.583,2362.59,2362.59247411,2362.593,2362.597,2362.602,down,1,0.831505108771,12.0,001,001,800_600,Intel(R) Core(TM) i7-2670QM CPU @ 2.20GHz,orientation_search,GRVLAPTOP3,Intel(R) HD Graphics Family,2018_mei_31_1238,testMonitor,
230.1,236.3,206.1,206.3,36,20,193.0,205.3,184.8,214.0,7.898,7.7,8.025,7.557,8.347,8.016,8.472,4.682,-4.963,-8.091,1.332,-2.04,7.944,4.813,-4.61,-7.53,223.7,236.7,-8.258,223.1,194.3,238.8,206.9,204.9,36,211.7,1,10,prime,15,0,96,norm,36,-4.911,down,norm,214.843861665,216.0,218.1,1.121,233.5,2,223.3,220.9,209.7,15,5,8.211,5.024,1.181,-2.007,-4.838,-8.408,209.3,5,310.8,-7.776,-7.863,20,-7.565,-8.463,-4.585,-5.081,-4.961,-4.956,5.251,8.161,8,-1.711,2.001,4.807,8.145,-7.7,-7.556,-1.519,2.048,226.0,,219.8,199.5,244.8,193.6,219.4,222.0,186.4,220.3,2,norm,1.479,1.772,-1.739,-1.688,-4.701,-5.279,-1.391,-1.221,-1.927,-2.044,1.41,-1.254,193.9,208.7,-4.593,-7.81,236.3,-2.002,8.134,5.273,-5.257,-8.047,22,4.69,5.143,5.218,4.995,1.243,1.724,1.211,1.392,22,4.585,5.045,-40,144.402676603,norm,0,55,55,55,2363.445,2363.453,2363.45511935,2363.456,2363.46,2363.465,down,1,1.46393274288,5.0,001,001,800_600,Intel(R) Core(TM) i7-2670QM CPU @ 2.20GHz,orientation_search,GRVLAPTOP3,Intel(R) HD Graphics Family,2018_mei_31_1238,testMonitor,
237.6,219.6,199.6,184.8,36,20,229.0,223.6,236.9,191.8,8.199,8.121,8.469,8.177,7.591,7.969,8.132,4.519,-5.059,-7.974,1.509,-1.707,8.057,5.124,-4.622,-7.837,201.7,233.9,-7.593,185.2,207.7,196.6,230.2,,36,208.8,4,10,prime,15,0,112,norm,36,-4.983,down,norm,214.843861665,207.6,194.6,1.885,216.4,2,223.7,195.8,207.0,15,5,7.825,4.52,1.587,-1.365,-4.452,-8.021,235.6,5,326.8,-8.45,-7.941,20,-7.583,-8.139,-4.652,-4.57,-5.182,-4.469,4.93,7.595,26,-2.065,1.963,4.469,8.325,-8.398,-7.939,-1.622,1.717,227.5,213.7,244.8,224.5,229.6,217.6,219.8,215.8,206.5,196.3,3,norm,1.648,1.364,-1.114,-1.793,-5.211,-4.899,-1.519,-1.415,-1.838,-1.759,1.375,-1.305,216.3,215.0,-4.66,-8.327,222.0,-1.324,7.61,4.544,-4.374,-8.284,22,5.27,5.203,4.442,5.037,1.691,1.761,1.848,1.904,22,4.625,4.751,-40,144.402676603,norm,0,56,56,56,2364.939,2364.947,2364.94915791,2364.95,2364.954,2364.959,up,0,1.75826390034,-12.0,001,001,800_600,Intel(R) Core(TM) i7-2670QM CPU @ 2.20GHz,orientation_search,GRVLAPTOP3,Intel(R) HD Graphics Family,2018_mei_31_1238,testMonitor,
217.6,229.6,231.4,216.4,36,20,227.0,221.9,217.7,217.7,7.511,8.483,7.507,8.467,7.755,8.094,7.884,5.049,-4.5,-7.836,1.896,-2.099,8.482,4.611,-4.633,-8.283,206.5,189.4,-8.241,218.0,187.6,217.3,219.2,235.0,36,,4,10,prime,15,0,68,norm,36,-5.015,up,norm,214.843861665,216.5,212.2,1.598,223.0,3,203.9,210.3,184.8,15,5,8.491,4.71,1.11,-1.541,-4.31,-7.779,236.4,5,282.8,-8.213,-8.328,20,-7.704,-8.427,-4.815,-4.966,-4.842,-4.417,4.388,8.494,27,-1.76,1.831,4.901,7.548,-8.307,-7.997,-1.168,1.171,210.3,227.5,216.7,244.8,226.0,196.0,203.7,197.0,230.6,229.8,4,norm,1.951,1.66,-2.001,-1.707,-4.683,-5.087,-1.875,-2.092,-1.778,-1.205,1.599,-1.275,202.1,192.3,-4.438,-7.904,201.2,-2.072,8.127,4.886,-4.895,-7.983,22,4.569,5.139,4.999,5.287,1.648,1.491,1.501,1.56,22,4.509,4.991,-40,144.402676603,norm,0,57,57,57,2367.731,2367.738,2367.74007209,2367.741,2367.745,2367.75,down,0,3.11743986611,-21.0,001,001,800_600,Intel(R) Core(TM) i7-2670QM CPU @ 2.20GHz,orientation_search,GRVLAPTOP3,Intel(R) HD Graphics Family,2018_mei_31_1238,testMonitor,
290.1,299.1,299.9,298.0,36,20,296.8,297.8,310.7,312.1,7.575,7.71,8.443,7.568,7.618,7.847,8.446,4.504,-4.986,-7.576,1.763,-1.289,8.178,4.367,-5.241,-7.621,299.6,294.4,-8.132,305.6,309.9,302.1,315.4,302.7,36,313.2,1,10,probe,10,0,68,norm,36,-4.656,up,norm,298.814848193,297.1,307.7,1.206,305.6,3,307.5,286.2,291.5,15,5,7.728,4.873,1.506,-1.933,-5.208,-8.481,304.8,1,230.8,-7.798,-8.104,20,-8.242,-8.427,-4.565,-4.903,-5.141,-5.002,4.6,7.701,9,-1.65,1.605,4.385,8.481,-8.201,-8.224,-1.677,1.533,,299.9,293.3,297.3,296.1,303.4,294.7,300.3,291.5,318.8,0,norm,1.406,1.806,-1.669,-1.64,-4.798,-4.693,-1.723,-1.558,-1.84,-1.922,1.601,-2.085,295.6,278.8,-5.298,-8.418,309.8,-1.385,7.978,5.289,-4.656,-7.999,23,4.404,4.921,5.273,4.412,1.439,1.857,1.48,1.582,23,5.272,4.589,20,214.843861665,norm,0,58,58,58,2371.88,2371.888,2371.89060305,2371.891,2371.895,2371.9,up,1,2.31920982969,-3.0,001,001,800_600,Intel(R) Core(TM) i7-2670QM CPU @ 2.20GHz,orientation_search,GRVLAPTOP3,Intel(R) HD Graphics Family,2018_mei_31_1238,testMonitor,
83.1,55.1,40.9,40.3,36,-60,35.3,47.8,59.9,48.6,7.918,8.223,8.331,7.999,8.448,7.783,8.313,4.322,-4.647,-8.3,1.184,-1.188,8.207,4.42,-4.449,-8.258,64.7,23.1,-8.43,45.2,49.8,52.0,65.1,43.3,36,80.3,2,10,prime,15,0,81,norm,36,-4.426,up,norm,53.0790172979,32.0,50.9,1.579,34.4,3,51.6,53.1,43.2,15,6,8.456,4.463,1.362,-1.637,-4.691,-7.918,55.7,6,134.1,-7.938,-8.281,-60,-8.224,-7.724,-4.816,-5.045,-4.959,-4.68,5.178,8.362,15,-1.822,1.151,4.459,7.86,-8.459,-7.715,-1.221,1.741,34.9,63.1,52.5,45.1,58.6,67.7,62.5,29.0,67.8,35.8,0,norm,1.207,1.968,-1.883,-1.933,-4.878,-5.012,-1.901,-1.315,-1.763,-1.182,2.017,-1.715,53.9,30.3,-4.611,-8.085,,-1.809,8.128,4.458,-4.74,-7.804,24,5.044,4.649,4.964,4.759,1.615,1.772,2.037,1.397,24,5.114,5.18,20,214.843861665,norm,0,59,59,59,2374.23,2374.237,2374.23931305,2374.24,2374.244,2374.249,down,0,2.65235326613,-17.0,001,001,800_600,Intel(R) Core(TM) i7-2670QM CPU @ 2.20GHz,orientation_search,GRVLAPTOP3,Intel(R) HD Graphics Family,2018_mei_31_1238,testMonitor,
57.7,63.1,44.2,54.2,36,-60,35.4,57.4,83.1,65.4,7.76,8.179,8.458,7.828,8.236,8.359,7.717,4.818,-4.407,-8.324,1.223,-2.078,7.558,4.311,-4.405,-7.823,49.1,,-7.735,52.9,62.4,55.0,46.8,63.4,36,70.1,5,10,prime,15,0,114,norm,36,-4.809,up,norm,53.0790172979,65.6,81.5,1.225,56.1,4,24.4,48.6,45.1,15,6,7.722,4.447,1.696,-1.515,-5.163,-7.798,44.5,6,167.1,-7.929,-7.973,-60,-8.17,-8.451,-5.038,-4.643,-5.046,-4.879,4.347,7.902,34,-2.0,1.298,4.915,8.376,-8.059,-8.329,-1.547,1.538,33.7,66.0,46.2,56.3,76.8,40.0,54.5,73.2,30.2,23.1,1,norm,1.671,1.333,-1.674,-1.178,-4.371,-4.96,-1.729,-2.08,-1.861,-1.695,1.158,-1.886,38.8,50.9,-4.566,-8.412,68.5,-1.282,7.725,4.736,-5.14,-8.063,24,4.914,4.482,5.222,5.084,1.468,1.433,1.101,1.667,24,4.572,5.036,20,214.843861665,norm,0,60,60,60,2377.917,2377.925,2377.92693717,2377.927,2377.931,2377.936,up,1,1.40120699711,6.0,001,001,800_600,Intel(R) Core(TM) i7-2670QM CPU @ 2.20GHz,orientation_search,GRVLAPTOP3,Intel(R) HD Graphics Family,2018_mei_31_1238,testMonitor,
48.4,56.2,74.5,46.9,36,-60,33.9,49.7,61.0,57.7,8.231,7.737,7.849,8.328,8.257,8.329,7.924,4.518,-4.773,-8.158,1.917,-1.731,7.912,4.93,-4.562,-7.635,49.0,59.1,-7.585,48.0,54.7,60.3,,23.1,36,45.0,5,10,prime,15,0,75,norm,36,-4.64,down,norm,53.0790172979,32.0,55.1,2.007,42.2,2,83.1,54.0,30.5,15,6,8.06,4.927,1.881,-2.004,-4.377,-7.602,50.1,6,128.1,-7.929,-8.352,-60,-8.382,-8.315,-4.788,-4.83,-4.568,-4.45,4.9,8.337,32,-1.95,2.072,5.214,7.946,-8.462,-8.351,-1.559,1.289,48.8,48.2,55.9,65.1,64.0,55.8,34.4,47.4,42.2,49.0,2,norm,1.811,1.61,-1.241,-1.928,-4.722,-4.372,-1.231,-1.559,-1.543,-1.986,1.551,-1.706,53.5,69.3,-5.107,-7.822,58.6,-2.079,7.513,4.698,-4.34,-7.748,24,4.363,4.942,4.813,4.837,1.679,1.947,1.743,1.948,24,4.374,4.926,20,214.843861665,norm,0,61,61,61,2379.35,2379.358,2379.36005338,2379.361,2379.365,2379.37,down,1,3.49038600279,-15.0,001,001,800_600,Intel(R) Core(TM) i7-2670QM CPU @ 2.20GHz,orientation_search,GRVLAPTOP3,Intel(R) HD Graphics Family,2018_mei_31_1238,testMonitor,
44.0,44.7,71.0,73.4,36,-60,38.7,59.8,61.7,46.1,7.954,7.986,8.481,7.926,8.023,8.309,7.893,4.515,-4.357,-7.915,1.187,-1.928,7.611,5.104,-4.764,-8.136,61.8,73.9,-7.831,24.0,76.3,31.9,60.2,54.9,36,38.6,1,10,prime,15,0,82,norm,36,-5.177,down,norm,53.0790172979,29.4,59.4,1.572,53.8,0,59.4,59.4,67.6,15,6,7.912,5.195,1.746,-1.756,-4.461,-7.879,70.8,6,135.1,-7.742,-7.619,-60,-8.22,-7.518,-5.186,-4.359,-5.141,-4.973,4.908,7.656,6,-1.862,1.769,4.676,8.138,-7.875,-8.32,-1.727,1.509,71.0,30.6,61.2,83.1,71.5,26.6,23.1,,28.0,68.4,3,norm,1.137,1.723,-1.207,-1.694,-4.672,-4.78,-1.36,-1.342,-1.743,-2.042,1.809,-1.565,59.1,35.6,-4.646,-7.778,38.0,-1.915,8.457,4.474,-5.254,-7.667,24,5.267,4.738,5.296,4.98,1.927,1.868,1.413,1.817,24,4.36,4.433,20,214.843861665,norm,0,62,62,62,2382.871,2382.879,2382.88127413,2382.882,2382.886,2382.891,up,0,2.32042859418,-13.0,001,001,800_600,Intel(R) Core(TM) i7-2670QM CPU @ 2.20GHz,orientation_search,GRVLAPTOP3,Intel(R) HD Graphics Family,2018_mei_31_1238,testMonitor,
46.2,61.9,51.2,76.6,36,-60,69.6,47.6,44.6,64.7,8.273,8.109,8.061,8.307,7.732,8.036,7.531,4.971,-4.952,-8.137,1.291,-1.392,7.886,5.273,-4.692,-8.302,31.4,57.6,-7.75,41.1,52.1,81.7,30.3,73.2,36,69.3,1,10,prime,15,0,110,norm,36,-5.197,down,norm,53.0790172979,31.6,47.0,1.423,67.9,0,53.2,60.0,55.7,15,6,7.964,5.202,1.224,-1.172,-4.814,-7.853,43.6,6,163.1,-7.772,-7.939,-60,-8.118,-7.714,-4.425,-4.557,-4.693,-4.872,5.131,8.314,6,-1.94,2.062,4.678,7.622,-7.73,-7.881,-1.906,1.584,83.1,71.2,36.7,67.7,53.1,58.2,57.1,,23.1,47.7,4,norm,1.706,1.665,-1.188,-1.705,-5.277,-5.244,-1.428,-1.607,-1.361,-1.859,1.141,-1.301,66.7,49.8,-5.246,-7.709,67.5,-1.749,7.942,4.858,-4.944,-8.061,24,4.938,4.615,5.147,4.566,1.385,1.169,1.896,1.368,24,4.616,4.888,20,214.843861665,norm,0,63,63,63,2386.232,2386.239,2386.24177766,2386.242,2386.246,2386.251,down,1,1.40709909302,6.0,001,001,800_600,Intel(R) Core(TM) i7-2670QM CPU @ 2.20GHz,orientation_search,GRVLAPTOP3,Intel(R) HD Graphics Family,2018_mei_31_1238,testMonitor,
61.2,41.4,56.2,34.5,36,-60,83.1,70.7,39.3,57.5,8.338,7.742,7.74,8.382,8.008,7.962,8.067,5.172,-4.532,-7.679,1.277,-1.943,8.187,4.856,-4.632,-8.1,53.9,76.4,-8.057,41.0,53.5,75.2,49.4,63.4,36,42.9,0,10,prime,15,0,105,norm,36,-5.147,up,norm,53.0790172979,66.8,57.1,1.379,54.1,3,55.0,40.2,36.9,15,6,8.241,4.701,1.143,-1.199,-4.55,-7.828,28.1,6,158.1,-8.439,-7.779,-60,-8.104,-8.154,-4.859,-4.721,-5.174,-4.545,4.623,8.078,3,-1.666,1.839,4.511,8.175,-7.637,-8.176,-1.762,1.168,39.6,64.7,,69.9,71.3,69.6,54.8,62.8,65.8,23.1,5,norm,1.44,1.175,-1.953,-1.512,-5.046,-4.891,-1.737,-1.212,-1.466,-1.396,1.98,-2.089,49.7,55.4,-5.216,-8.258,59.3,-1.282,8.469,4.339,-4.412,-8.025,24,4.831,4.831,5.014,4.979,1.413,1.426,1.21,1.259,24,5.104,5.187,20,214.843861665,norm,0,64,64,64,2387.67,2387.679,2387.68091485,2387.681,2387.686,2387.691,down,0,1.79469328461,-12.0,001,001,800_600,Intel(R) Core(TM) i7-2670QM CPU @ 2.20GHz,orientation_search,GRVLAPTOP3,Intel(R) HD Graphics Family,2018_mei_31_1238,testMonitor,
47.8,61.8,71.3,82.1,36,60,71.9,67.2,80.1,78.4,8.457,8.198,8.41,7.592,8.042,7.974,7.775,4.881,-4.93,-8.474,1.955,-2.031,8.016,5.037,-4.355,-7.719,65.9,83.5,-8.433,52.4,80.2,,64.3,65.3,36,77.8,5,10,probe,10,0,77,norm,36,-4.77,up,norm,67.7718623413,63.1,53.3,1.626,63.2,3,78.1,67.1,77.2,15,6,8.248,5.132,1.873,-1.253,-4.358,-7.912,60.5,1,-9.2,-7.727,-7.555,-60,-7.668,-7.666,-4.582,-4.77,-5.008,-5.038,4.945,7.832,33,-1.741,1.934,4.631,7.714,-7.937,-8.42,-1.146,1.711,72.5,51.6,87.8,61.7,71.3,75.6,80.5,76.0,66.6,66.3,0,norm,1.69,1.704,-1.714,-1.362,-4.784,-4.563,-1.372,-1.677,-1.851,-1.956,1.557,-1.314,69.4,72.1,-4.418,-7.891,69.5,-1.189,8.329,4.836,-4.667,-8.154,25,4.387,4.343,4.57,4.363,1.722,2.035,1.613,1.435,25,5.271,4.763,-60,53.0790172979,norm,0,65,65,65,2390.506,2390.514,2390.51609259,2390.517,2390.52,2390.526,down,0,4.24255981635,-32.0,001,001,800_600,Intel(R) Core(TM) i7-2670QM CPU @ 2.20GHz,orientation_search,GRVLAPTOP3,Intel(R) HD Graphics Family,2018_mei_31_1238,testMonitor,
43.8,50.8,28.1,65.7,36,-80,46.5,35.1,59.0,40.2,7.619,7.759,8.119,8.031,8.121,8.057,8.484,4.834,-4.626,-8.105,1.287,-1.516,7.732,5.244,-4.954,-8.446,56.8,39.0,-8.02,30.3,22.2,,35.1,53.2,36,58.0,5,10,prime,15,0,63,norm,36,-4.498,up,norm,40.8651028639,70.9,51.6,1.603,51.9,3,10.9,46.2,54.8,15,3,8.443,5.283,1.139,-1.92,-5.288,-8.378,24.5,3,103.9,-8.468,-7.517,-80,-8.052,-7.955,-4.941,-4.825,-4.525,-4.483,4.62,7.797,33,-1.102,1.788,4.621,7.555,-8.407,-8.005,-1.88,2.054,56.6,20.3,30.3,41.2,33.9,26.8,11.2,46.7,44.8,67.7,0,norm,1.276,1.962,-1.904,-1.494,-5.175,-4.303,-1.108,-1.523,-1.237,-1.42,1.624,-1.975,48.2,52.1,-4.307,-8.263,30.2,-2.027,8.263,4.71,-5.28,-7.73,26,4.351,4.643,4.796,4.964,2.085,1.424,2.027,1.908,26,4.829,5.089,60,53.0790172979,norm,0,66,66,66,2395.779,2395.786,2395.78857331,2395.789,2395.793,2395.798,down,0,1.06159290184,-19.0,001,001,800_600,Intel(R) Core(TM) i7-2670QM CPU @ 2.20GHz,orientation_search,GRVLAPTOP3,Intel(R) HD Graphics Family,2018_mei_31_1238,testMonitor,
43.9,21.0,53.5,63.4,36,-80,37.6,53.4,49.8,44.3,7.839,8.123,8.49,8.114,8.126,7.791,7.529,5.097,-4.323,-8.072,1.8,-1.809,7.772,4.36,-5.122,-8.277,31.1,70.9,-7.903,16.5,42.9,42.7,34.8,41.3,36,35.1,3,10,prime,15,0,68,norm,36,-4.823,down,norm,40.8651028639,48.8,61.8,1.31,27.5,0,38.9,53.7,10.9,15,3,7.586,4.555,1.258,-1.502,-5.154,-8.207,33.7,3,108.9,-8.233,-8.084,-80,-7.929,-8.264,-4.845,-4.595,-5.219,-5.002,5.075,7.588,18,-1.744,2.031,4.647,8.347,-8.023,-7.955,-1.999,1.989,36.1,35.9,45.5,16.8,35.4,54.4,30.7,43.6,40.7,55.8,1,norm,1.379,1.919,-1.38,-1.85,-5.234,-4.88,-1.476,-1.426,-1.891,-1.673,1.804,-2.04,68.3,,-4.383,-8.42,60.8,-1.144,8.073,4.306,-4.931,-8.226,26,4.517,4.805,4.897,5.242,1.936,1.859,1.85,1.335,26,4.58,4.547,60,53.0790172979,norm,0,67,67,67,2397.885,2397.893,2397.89526891,2397.896,2397.9,2397.905,down,1,1.19972468063,8.0,001,001,800_600,Intel(R) Core(TM) i7-2670QM CPU @ 2.20GHz,orientation_search,GRVLAPTOP3,Intel(R) HD Graphics Family,2018_mei_31_1238,testMonitor,
35.5,23.8,35.4,70.9,36,-80,37.7,,67.3,22.7,8.157,8.458,7.571,8.417,8.429,8.229,8.392,4.487,-4.881,-8.184,1.644,-1.656,8.007,4.813,-5.128,-7.89,34.1,23.5,-7.899,39.8,32.1,47.5,36.0,54.7,36,52.7,4,10,prime,15,0,72,norm,36,-4.327,down,norm,40.8651028639,64.3,28.3,1.939,27.4,1,28.0,59.2,57.5,15,3,7.506,4.387,1.912,-1.228,-4.474,-8.272,34.8,3,112.9,-8.35,-8.438,-80,-8.323,-7.827,-4.766,-4.45,-4.498,-4.542,5.155,7.85,25,-2.1,1.623,4.333,8.18,-7.559,-8.336,-1.994,1.217,34.4,42.0,18.2,37.3,46.7,29.4,41.7,47.6,12.5,10.9,2,norm,2.008,1.844,-1.148,-1.553,-4.541,-5.04,-1.942,-1.207,-1.468,-1.721,1.158,-1.16,53.9,32.3,-4.795,-8.022,63.2,-1.136,7.526,4.313,-4.896,-7.924,26,4.333,4.806,4.633,4.518,1.521,1.582,1.299,1.44,26,4.957,5.195,60,53.0790172979,norm,0,68,68,68,2399.116,2399.123,2399.12539406,2399.126,2399.13,2399.135,down,1,1.32776779781,7.0,001,001,800_600,Intel(R) Core(TM) i7-2670QM CPU @ 2.20GHz,orientation_search,GRVLAPTOP3,Intel(R) HD Graphics Family,2018_mei_31_1238,testMonitor,
74.0,53.8,66.5,53.7,36,-20,37.9,45.6,49.1,54.8,7.936,7.827,8.407,8.382,8.491,7.587,8.342,5.025,-4.782,-8.304,1.736,-2.044,7.777,5.296,-5.237,-7.865,66.3,50.5,-8.361,58.7,54.5,47.7,35.7,73.6,36,44.8,2,10,probe,10,0,87,norm,36,-4.453,down,norm,54.0498736968,44.9,69.1,1.213,,2,34.0,62.1,61.6,15,3,7.934,4.728,1.818,-1.762,-5.023,-7.817,43.3,1,-33.0,-7.616,-7.954,-80,-8.254,-7.912,-5.247,-5.008,-5.043,-4.771,4.613,8.074,14,-1.935,1.653,5.082,7.981,-8.458,-8.272,-1.801,1.196,63.9,67.4,40.3,57.5,50.7,67.7,57.5,43.8,53.0,53.3,0,norm,1.18,1.482,-1.935,-1.172,-5.179,-4.426,-1.208,-1.527,-1.249,-1.371,1.741,-1.538,56.0,60.8,-4.333,-8.209,67.3,-1.918,7.614,4.711,-4.784,-8.394,27,5.143,5.153,4.33,4.541,2.098,1.33,1.929,1.296,27,4.831,5.215,-80,40.8651028639,norm,0,69,69,69,2400.473,2400.481,2400.4834666,2400.484,2400.488,2400.493,up,0,1.47587430009,-15.0,001,001,800_600,Intel(R) Core(TM) i7-2670QM CPU @ 2.20GHz,orientation_search,GRVLAPTOP3,Intel(R) HD Graphics Family,2018_mei_31_1238,testMonitor,
92.5,122.0,91.8,126.3,36,80,111.0,87.9,76.4,108.7,8.339,7.731,8.122,7.844,8.318,7.731,8.167,4.904,-4.881,-8.339,1.918,-2.056,8.435,4.741,-4.74,-8.154,110.7,132.5,-7.951,99.5,101.2,112.4,97.1,113.8,36,103.9,0,10,prime,15,0,110,norm,36,-4.491,up,norm,102.536164781,115.7,114.2,1.45,103.7,5,120.7,126.1,72.5,15,3,8.185,4.606,1.553,-1.452,-4.929,-7.951,106.8,3,212.5,-8.419,-8.161,80,-8.374,-7.612,-4.775,-5.075,-4.438,-4.645,4.812,8.054,5,-1.952,1.399,4.506,8.271,-7.684,-7.848,-1.243,1.812,98.0,106.1,111.5,103.5,98.4,115.2,122.5,82.3,,95.8,0,norm,2.018,1.423,-1.347,-1.941,-4.397,-5.199,-1.616,-1.977,-1.878,-1.257,1.752,-1.932,99.8,86.0,-4.609,-8.293,100.7,-1.695,7.659,4.585,-4.886,-8.024,28,4.559,5.219,5.273,5.231,1.193,2.063,1.739,1.295,28,5.264,5.164,-20,40.8651028639,norm,0,70,70,70,2402.986,2402.996,2402.99811255,2402.999,2403.003,2403.008,down,0,1.61391081913,-14.0,001,001,800_600,Intel(R) Core(TM) i7-2670QM CPU @ 2.20GHz,orientation_search,GRVLAPTOP3,Intel(R) HD Graphics Family,2018_mei_31_1238,testMonitor,
91.7,107.2,84.4,84.5,36,80,72.5,114.0,117.8,76.3,8.271,7.528,8.094,7.76,7.685,8.171,7.658,5.16,-4.904,-7.741,1.282,-1.964,7.998,4.477,-4.443,-7.81,97.9,121.6,-7.699,103.5,107.0,89.8,121.5,132.5,36,112.7,0,10,prime,15,0,69,norm,36,-4.533,down,norm,102.536164781,103.0,94.2,1.736,107.5,2,92.9,99.0,106.2,15,3,8.134,5.238,1.491,-1.243,-5.265,-7.543,104.3,3,171.5,-7.791,-7.835,80,-7.647,-8.011,-4.905,-5.257,-4.598,-4.764,5.133,8.227,2,-1.702,1.302,4.742,7.925,-8.147,-8.189,-1.93,1.879,88.8,95.1,98.5,,90.4,106.1,81.2,114.4,106.2,107.7,1,norm,1.61,1.468,-1.975,-1.363,-5.188,-4.993,-1.783,-1.786,-1.841,-1.581,1.563,-1.716,113.6,108.0,-5.226,-7.822,96.5,-1.298,7.693,4.494,-4.571,-7.988,28,4.829,5.024,4.429,4.847,1.921,1.934,1.773,1.601,28,4.789,4.874,-20,40.8651028639,norm,0,71,71,71,2405.638,2405.646,2405.64795497,2405.648,2405.652,2405.657,up,0,0.864749361783,-21.0,001,001,800_600,Intel(R) Core(TM) i7-2670QM CPU @ 2.20GHz,orientation_search,GRVLAPTOP3,Intel(R) HD Graphics Family,2018_mei_31_1238,testMonitor,
96.3,106.2,106.5,97.1,36,80,116.7,89.1,111.4,107.3,7.562,8.487,7.776,8.355,7.94,7.757,7.582,4.576,-4.91,-7.741,1.934,-1.955,7.761,4.75,-4.485,-7.735,114.1,99.0,-8.285,106.8,131.0,100.1,101.6,109.0,36,94.4,2,10,prime,15,0,84,norm,36,-4.326,down,norm,102.536164781,120.9,131.2,1.792,,2,87.6,81.0,132.5,15,3,7.91,4.605,1.159,-1.397,-4.635,-7.978,107.5,3,186.5,-7.889,-7.872,80,-7.786,-8.429,-5.05,-4.712,-5.266,-4.651,4.837,7.901,14,-1.676,2.009,5.027,8.318,-8.485,-7.668,-1.996,1.365,79.8,87.7,114.2,106.8,127.3,124.3,123.6,100.5,89.1,72.5,2,norm,2.043,1.153,-1.299,-1.714,-4.569,-4.446,-1.789,-1.207,-1.743,-1.978,1.658,-2.005,103.3,106.5,-4.696,-7.578,114.0,-1.244,8.093,4.644,-4.749,-8.119,28,4.317,4.408,4.761,4.655,1.17,2.088,2.031,1.207,28,4.773,5.011,-20,40.8651028639,norm,0,72,72,72,2407.541,2407.549,2407.55111596,2407.551,2407.556,2407.561,up,0,6.48885344147,-55.0,001,001,800_600,Intel(R) Core(TM) i7-2670QM CPU @ 2.20GHz,orientation_search,GRVLAPTOP3,Intel(R) HD Graphics Family,2018_mei_31_1238,testMonitor,
295.7,285.9,290.2,293.8,36,60,311.6,282.0,297.3,297.0,8.181,7.807,7.606,8.201,8.23,8.416,7.517,4.743,-5.188,-7.984,1.246,-1.204,8.079,4.853,-4.977,-7.756,293.3,292.4,-7.681,295.8,284.9,297.0,300.9,272.8,36,281.0,3,10,probe,10,0,108,norm,36,-5.259,down,norm,291.616440946,292.3,285.0,1.753,285.2,0,289.0,276.5,289.7,15,3,8.184,4.632,1.574,-1.577,-4.482,-7.853,282.2,1,183.6,-7.835,-8.415,80,-8.424,-8.23,-5.056,-4.772,-4.763,-5.262,4.471,7.82,18,-1.314,1.941,5.238,8.009,-7.611,-7.877,-1.231,1.583,282.7,307.3,296.8,298.2,287.7,294.3,271.6,284.8,276.0,306.6,0,norm,1.835,1.292,-1.727,-1.869,-4.711,-5.188,-1.518,-1.293,-2.026,-1.792,1.756,-1.433,295.5,,-4.581,-7.564,306.0,-1.305,8.341,4.728,-4.78,-8.407,29,5.125,4.708,4.813,4.794,1.274,1.724,1.161,1.789,29,4.88,4.581,80,102.536164781,norm,0,73,73,73,2415.06,2415.068,2415.07060382,2415.071,2415.075,2415.08,down,1,4.41151606364,-24.0,001,001,800_600,Intel(R) Core(TM) i7-2670QM CPU @ 2.20GHz,orientation_search,GRVLAPTOP3,Intel(R) HD Graphics Family,2018_mei_31_1238,testMonitor,
218.9,241.1,196.4,224.0,36,40,224.2,228.2,230.2,220.8,7.667,7.655,8.051,8.159,8.438,8.289,8.113,5.295,-4.367,-7.921,1.82,-1.94,8.026,4.399,-4.997,-8.153,221.7,224.4,-8.24,240.6,,204.1,225.2,200.5,36,188.5,5,10,prime,15,0,111,norm,36,-4.523,down,norm,218.496204025,226.3,204.8,1.264,199.0,0,227.7,232.3,226.9,15,5,7.62,4.365,1.472,-1.854,-4.815,-7.622,212.1,5,329.5,-8.486,-8.274,40,-8.247,-8.176,-4.947,-4.673,-4.586,-4.694,4.398,7.768,30,-1.381,1.667,5.233,7.897,-7.777,-8.055,-1.867,1.872,248.5,224.2,240.9,226.2,205.0,238.2,210.6,219.2,194.3,235.4,0,norm,1.675,1.141,-1.892,-1.243,-5.141,-5.002,-1.271,-1.928,-1.614,-1.133,2.063,-1.945,190.6,241.4,-4.396,-7.718,205.7,-1.53,7.912,5.174,-4.989,-8.341,30,4.313,4.429,4.461,4.739,1.819,1.366,1.107,1.327,30,4.312,5.067,60,102.536164781,norm,0,74,74,74,2419.503,2419.51,2419.51256798,2419.513,2419.517,2419.522,up,0,4.13776474857,-31.0,001,001,800_600,Intel(R) Core(TM) i7-2670QM CPU @ 2.20GHz,orientation_search,GRVLAPTOP3,Intel(R) HD Graphics Family,2018_mei_31_1238,testMonitor,
222.2,233.2,191.5,248.5,36,40,210.0,,212.9,218.5,7.682,8.3,7.686,7.906,7.57,8.344,7.569,4.685,-4.877,-8.434,1.203,-1.176,8.359,5.1,-4.604,-7.55,210.2,222.2,-7.527,222.7,188.5,209.5,240.0,209.5,36,198.8,4,10,prime,15,0,65,norm,36,-4.842,down,norm,218.496204025,218.1,217.0,1.713,245.4,1,193.4,203.7,219.7,15,5,7.88,4.749,1.177,-1.554,-4.911,-8.215,220.3,5,283.5,-7.803,-8.069,40,-8.225,-7.526,-4.41,-4.645,-4.795,-4.443,4.423,7.978,25,-1.725,1.63,4.324,7.773,-7.649,-8.379,-1.293,1.458,192.7,221.6,218.2,206.9,236.5,214.1,212.7,244.4,229.7,217.9,1,norm,1.523,1.13,-1.549,-1.102,-4.797,-4.835,-2.047,-1.447,-2.089,-2.093,1.948,-1.698,236.9,228.0,-4.773,-8.305,234.9,-1.32,7.557,4.921,-4.997,-7.555,30,4.978,4.727,4.607,4.599,2.081,2.02,1.262,1.654,30,4.34,4.983,60,102.536164781,norm,0,75,75,75,2424.685,2424.693,2424.69505859,2424.696,2424.7,2424.705,down,1,5.60428958405,-36.0,001,001,800_600,Intel(R) Core(TM) i7-2670QM CPU @ 2.20GHz,orientation_search,GRVLAPTOP3,Intel(R) HD Graphics Family,2018_mei_31_1238,testMonitor,
208.6,214.0,215.8,224.8,36,40,205.2,191.2,243.5,213.3,8.023,8.402,7.606,8.358,8.169,7.853,7.519,4.356,-4.532,-8.122,1.944,-1.816,7.546,4.855,-4.615,-7.652,193.3,,-8.362,202.2,242.9,238.6,223.4,217.3,36,205.5,5,10,prime,15,0,86,norm,36,-5.171,up,norm,218.496204025,203.4,235.4,1.894,211.0,4,210.0,221.0,201.5,15,5,7.702,5.294,1.82,-1.466,-5.185,-7.723,214.9,5,304.5,-8.042,-7.781,40,-8.351,-7.726,-5.285,-5.177,-5.177,-4.659,4.402,8.07,34,-1.482,1.627,4.918,8.152,-8.447,-8.186,-2.009,2.035,232.3,188.5,248.5,236.0,215.6,229.4,204.3,220.6,227.9,222.5,2,norm,1.609,1.5,-1.909,-1.592,-4.313,-4.632,-1.302,-1.575,-1.73,-1.718,1.347,-1.229,216.7,230.7,-4.596,-8.258,213.9,-1.847,8.486,4.615,-4.458,-8.448,30,4.343,4.715,4.792,4.52,1.239,1.32,1.123,2.053,30,5.225,4.837,60,102.536164781,norm,0,76,76,76,2430.32,2430.328,2430.32997371,2430.331,2430.335,2430.34,down,0,2.42350291593,-14.0,001,001,800_600,Intel(R) Core(TM) i7-2670QM CPU @ 2.20GHz,orientation_search,GRVLAPTOP3,Intel(R) HD Graphics Family,2018_mei_31_1238,testMonitor,
241.5,194.4,220.4,200.0,36,40,204.7,219.9,242.4,204.0,8.018,7.912,7.604,7.934,7.546,7.95,8.172,4.726,-4.433,-8.489,1.612,-1.388,7.649,4.357,-4.464,-8.182,240.4,231.5,-8.349,224.3,231.0,204.7,221.1,229.0,36,203.1,0,10,prime,15,0,77,norm,36,-4.868,down,norm,218.496204025,212.6,226.9,1.81,246.5,0,219.3,222.9,218.2,15,5,7.862,4.83,2.035,-1.142,-4.956,-8.176,207.3,5,295.5,-8.186,-7.645,40,-7.617,-8.222,-4.482,-4.623,-4.789,-4.959,4.656,7.605,0,-1.905,1.722,4.961,7.578,-7.912,-8.026,-2.088,1.558,247.7,244.5,215.8,224.6,221.7,,242.5,218.2,188.5,248.5,3,norm,2.034,1.361,-1.936,-1.706,-4.591,-4.981,-2.091,-1.193,-1.426,-1.908,1.533,-1.397,223.0,201.6,-5.162,-7.924,234.9,-1.194,7.562,5.276,-4.716,-7.952,30,4.763,4.792,4.719,4.567,1.947,1.372,1.691,1.877,30,4.536,4.81,60,102.536164781,norm,0,77,77,77,2433.78,2433.788,2433.79021001,2433.791,2433.795,2433.8,down,1,2.31206534819,-3.0,001,001,800_600,Intel(R) Core(TM) i7-2670QM CPU @ 2.20GHz,orientation_search,GRVLAPTOP3,Intel(R) HD Graphics Family,2018_mei_31_1238,testMonitor,
248.5,,226.4,224.9,36,40,212.1,224.5,191.9,237.2,8.077,8.005,7.585,8.028,8.459,7.934,8.174,4.322,-5.299,-8.339,1.975,-1.997,8.114,4.771,-5.018,-7.99,188.5,207.8,-8.072,190.3,190.7,189.9,216.3,219.1,36,222.9,3,10,prime,15,0,84,norm,36,-4.659,up,norm,218.496204025,206.8,220.3,1.386,215.4,5,219.6,224.9,235.7,15,5,8.268,4.626,1.457,-1.393,-4.934,-7.767,226.2,5,302.5,-8.227,-7.599,40,-8.149,-8.181,-5.267,-4.755,-4.639,-4.363,4.588,7.541,23,-2.022,1.678,4.694,7.528,-7.517,-8.188,-1.137,1.29,228.2,199.6,225.1,221.5,202.5,220.7,248.1,194.2,231.4,222.2,4,norm,1.547,2.043,-1.12,-1.262,-4.849,-4.483,-1.378,-1.535,-1.191,-1.696,1.117,-2.093,218.5,231.2,-5.098,-8.245,194.0,-1.577,8.277,4.654,-4.497,-7.512,30,4.372,4.811,4.942,4.969,1.339,1.658,1.261,1.565,30,5.253,5.142,60,102.536164781,norm,0,78,78,78,2436.123,2436.13,2436.13257543,2436.133,2436.137,2436.142,up,1,3.28636109143,-13.0,001,001,800_600,Intel(R) Core(TM) i7-2670QM CPU @ 2.20GHz,orientation_search,GRVLAPTOP3,Intel(R) HD Graphics Family,2018_mei_31_1238,testMonitor,
397.0,378.7,399.0,403.7,36,30,380.9,395.9,393.0,393.7,7.781,7.535,8.104,8.447,7.685,8.053,7.895,4.546,-4.418,-8.115,1.344,-1.772,8.179,5.284,-4.764,-8.242,389.2,388.7,-8.305,389.3,,395.6,380.0,392.8,36,395.2,5,10,probe,10,0,119,norm,36,-4.55,down,norm,384.217274679,393.2,369.8,2.078,384.5,0,380.7,372.7,382.9,15,5,8.015,5.13,1.996,-2.006,-4.989,-7.503,390.9,2,265.2,-8.182,-7.67,40,-8.315,-8.224,-4.344,-4.402,-4.567,-4.575,5.171,7.808,30,-2.055,1.695,4.976,8.469,-7.739,-8.257,-1.433,1.917,385.8,388.3,377.2,370.1,384.1,395.0,404.2,380.1,364.2,398.4,0,norm,1.562,1.192,-1.866,-2.031,-5.236,-4.819,-1.474,-1.295,-1.101,-1.118,1.919,-1.712,382.7,388.3,-4.376,-7.772,390.0,-1.823,8.034,4.462,-4.926,-8.22,31,4.441,5.105,4.666,5.114,1.146,1.154,1.816,2.067,31,4.425,4.885,40,218.496204025,norm,0,79,79,79,2439.44,2439.448,2439.4502004,2439.451,2439.455,2439.46,up,0,3.79285626564,-28.0,001,001,800_600,Intel(R) Core(TM) i7-2670QM CPU @ 2.20GHz,orientation_search,GRVLAPTOP3,Intel(R) HD Graphics Family,2018_mei_31_1238,testMonitor,
393.2,353.2,353.8,361.3,36,30,375.7,385.4,361.6,356.9,7.607,8.27,8.31,7.974,7.774,7.791,7.661,4.929,-5.006,-7.931,2.056,-1.622,8.005,4.627,-4.843,-8.184,358.1,376.7,-7.52,357.4,370.9,386.6,356.3,386.4,36,376.1,0,10,probe,10,0,108,norm,36,-4.913,up,norm,373.217274679,386.6,372.4,1.585,370.0,3,378.8,375.7,386.1,15,5,8.291,4.877,1.746,-1.281,-4.785,-7.729,375.3,2,265.2,-7.542,-8.194,40,-8.191,-7.815,-4.561,-4.414,-5.142,-4.63,4.922,7.962,3,-1.949,1.997,4.434,8.145,-8.454,-8.099,-1.39,2.036,363.5,380.7,,368.6,370.6,377.3,370.3,386.6,370.5,358.7,1,norm,1.495,1.392,-1.678,-1.161,-4.365,-4.595,-1.834,-1.984,-1.649,-1.368,1.689,-1.472,385.7,368.1,-4.907,-7.643,370.9,-1.431,7.787,5.273,-4.923,-8.159,31,5.052,5.251,4.743,4.66,1.231,1.381,1.587,1.888,31,4.542,4.453,40,218.496204025,norm,0,80,80,80,2444.263,2444.27,2444.27265116,2444.273,2444.277,2444.282,down,0,5.1333748616,-41.0,001,001,800_600,Intel(R) Core(TM) i7-2670QM CPU @ 2.20GHz,orientation_search,GRVLAPTOP3,Intel(R) HD Graphics Family,2018_mei_31_1238,testMonitor,
150.6,147.5,142.9,166.0,36,-30,166.8,147.7,149.7,128.5,7.643,8.212,7.957,8.046,7.992,8.066,8.464,4.705,-4.916,-8.148,1.662,-2.032,7.868,4.514,-4.756,-8.27,148.6,134.6,-8.395,114.7,145.2,170.1,114.3,134.7,36,110.1,1,10,prime,15,0,94,norm,36,-4.902,down,norm,140.099910227,168.4,154.4,1.158,143.5,1,118.7,130.3,151.3,15,2,7.805,5.044,1.559,-1.307,-5.018,-7.637,164.8,2,234.1,-7.891,-7.758,-30,-7.954,-8.152,-4.805,-5.056,-4.845,-4.563,5.262,7.86,7,-1.368,1.487,4.892,8.206,-7.71,-8.246,-1.495,1.588,128.7,137.5,142.0,149.8,133.8,141.6,,158.6,118.3,117.7,0,norm,1.8,1.899,-1.373,-1.107,-5.011,-4.712,-1.424,-2.055,-1.389,-1.332,1.646,-1.437,145.2,129.9,-4.832,-8.09,131.5,-1.761,8.274,5.128,-5.266,-8.461,32,4.451,4.498,4.401,5.123,1.914,1.497,1.843,1.584,32,4.791,5.298,30,218.496204025,norm,0,81,81,81,2450.44,2450.448,2450.45035496,2450.451,2450.455,2450.46,down,1,0.970221520953,10.0,001,001,800_600,Intel(R) Core(TM) i7-2670QM CPU @ 2.20GHz,orientation_search,GRVLAPTOP3,Intel(R) HD Graphics Family,2018_mei_31_1238,testMonitor,
117.0,125.5,124.7,155.6,36,-30,144.2,124.7,124.6,144.0,7.617,7.956,8.407,8.279,8.41,8.236,8.46,4.769,-4.988,-7.725,1.984,-2.045,7.945,4.706,-4.31,-8.189,149.2,143.2,-7.945,135.2,111.1,125.7,116.8,143.0,36,132.4,2,10,prime,15,0,69,norm,36,-4.528,up,norm,140.099910227,166.4,,1.173,140.9,4,123.2,145.0,136.8,15,2,7.567,4.525,1.821,-1.475,-4.975,-8.164,170.1,2,209.1,-8.041,-7.856,-30,-7.966,-7.637,-5.079,-5.073,-4.646,-4.711,5.222,8.33,16,-2.087,1.353,4.592,7.78,-8.218,-8.086,-1.614,1.975,152.4,135.8,153.9,110.1,149.7,116.2,155.6,138.9,153.5,134.0,1,norm,1.979,1.955,-1.86,-2.048,-4.324,-5.082,-1.793,-1.863,-1.597,-1.864,1.706,-1.434,110.1,127.4,-4.576,-7.965,124.0,-2.051,8.18,4.354,-5.267,-8.026,32,5.293,4.9,4.834,4.958,1.97,1.794,1.659,1.59,32,4.447,4.939,30,218.496204025,norm,0,82,82,82,2451.441,2451.449,2451.45166478,2451.452,2451.456,2451.461,up,1,1.99552886207,0.0,001,001,800_600,Intel(R) Core(TM) i7-2670QM CPU @ 2.20GHz,orientation_search,GRVLAPTOP3,Intel(R) HD Graphics Family,2018_mei_31_1238,testMonitor,
212.7,217.5,220.7,201.0,36,-40,221.8,238.7,211.2,225.7,7.738,8.46,8.047,8.309,7.536,8.014,8.485,5.187,-5.17,-8.117,1.955,-1.609,7.586,4.583,-5.058,-8.302,226.3,213.8,-7.975,220.1,,208.2,214.2,211.1,36,217.5,5,10,probe,10,0,107,norm,36,-4.623,down,norm,218.651423138,210.3,236.0,1.636,212.4,0,202.8,218.7,231.2,15,2,7.971,4.457,1.324,-1.717,-4.829,-8.173,204.4,2,111.7,-7.618,-7.871,-30,-8.129,-8.216,-4.456,-4.501,-4.886,-4.82,5.061,8.014,30,-2.059,1.202,4.747,8.231,-8.105,-7.641,-1.757,1.638,233.7,213.9,210.2,220.5,198.7,230.9,217.3,220.6,226.7,214.2,0,norm,2.098,1.868,-1.334,-1.645,-4.981,-5.048,-1.141,-1.862,-1.666,-1.235,1.26,-1.202,227.7,226.4,-5.135,-7.525,222.1,-1.202,8.169,4.997,-4.797,-7.534,33,4.948,4.686,5.185,5.275,1.937,2.006,2.072,1.257,33,4.989,5.047,-30,140.099910227,norm,0,83,83,83,2453.468,2453.475,2453.47761979,2453.478,2453.482,2453.487,down,1,2.18994841498,-2.0,001,001,800_600,Intel(R) Core(TM) i7-2670QM CPU @ 2.20GHz,orientation_search,GRVLAPTOP3,Intel(R) HD Graphics Family,2018_mei_31_1238,testMonitor,
209.8,190.4,199.5,204.4,36,-40,197.3,208.2,,201.3,7.831,7.505,8.432,7.602,7.878,7.631,7.645,5.134,-5.176,-7.714,1.622,-1.403,7.541,5.112,-4.344,-8.46,211.0,205.0,-8.196,192.0,203.4,187.6,206.9,209.8,36,205.5,4,10,probe,10,0,85,norm,36,-4.656,up,norm,196.651423138,197.9,196.0,1.681,186.4,4,206.7,193.7,196.4,15,2,7.984,4.573,1.173,-1.332,-5.178,-8.281,216.7,2,111.7,-8.294,-7.844,-30,-7.896,-8.058,-4.613,-4.629,-4.586,-4.808,4.931,8.093,28,-1.781,1.825,5.285,8.377,-8.323,-7.602,-1.666,1.689,198.3,200.2,186.1,189.5,176.7,192.3,200.7,210.7,192.2,208.4,1,norm,1.772,1.752,-1.921,-2.024,-5.21,-4.812,-1.874,-1.468,-1.103,-1.239,1.241,-1.801,190.1,188.8,-4.692,-8.246,185.0,-2.042,8.225,4.609,-4.985,-7.699,33,4.961,4.47,4.694,5.265,1.191,1.599,1.122,2.082,33,5.273,4.931,-30,140.099910227,norm,0,84,84,84,2455.688,2455.696,2455.69779404,2455.698,2455.702,2455.707,up,1,2.40603769391,-4.0,001,001,800_600,Intel(R) Core(TM) i7-2670QM CPU @ 2.20GHz,orientation_search,GRVLAPTOP3,Intel(R) HD Graphics Family,2018_mei_31_1238,testMonitor,
254.3,246.6,281.7,275.6,36,-20,247.4,267.5,253.9,238.2,8.391,8.398,7.567,8.27,8.173,7.544,8.105,4.712,-4.405,-8.099,1.63,-1.585,7.788,5.135,-4.624,-8.487,249.9,254.7,-8.285,239.7,246.7,243.2,272.6,243.5,36,232.7,0,10,prime,15,0,114,norm,36,-5.282,up,norm,251.706323623,262.3,221.7,1.145,272.1,4,272.4,254.5,250.6,15,6,8.215,4.838,1.866,-1.376,-4.807,-8.151,244.9,6,365.7,-8.052,-7.544,-20,-7.852,-8.426,-4.963,-5.175,-4.643,-4.476,5.042,8.307,4,-1.884,2.027,5.289,7.812,-8.206,-8.01,-1.816,1.263,272.2,247.1,269.2,229.7,229.7,226.8,243.0,254.4,264.9,,0,norm,1.535,1.295,-1.377,-1.464,-5.144,-4.631,-1.654,-1.291,-2.039,-2.028,1.96,-1.504,263.0,254.9,-5.224,-7.943,241.7,-2.041,8.164,4.5,-4.327,-7.726,34,4.397,4.447,4.614,4.777,1.255,1.322,1.581,1.704,34,4.672,5.22,-40,140.099910227,norm,0,85,85,85,2458.125,2458.133,2458.13512549,2458.136,2458.14,2458.145,up,1,2.66794644721,-7.0,001,001,800_600,Intel(R) Core(TM) i7-2670QM CPU @ 2.20GHz,orientation_search,GRVLAPTOP3,Intel(R) HD Graphics Family,2018_mei_31_1238,testMonitor,
251.9,281.7,258.4,248.0,36,-20,266.6,251.8,269.6,236.9,8.495,7.951,7.85,7.628,7.867,8.337,7.599,4.911,-4.473,-8.492,1.804,-1.294,7.937,4.771,-4.409,-7.722,234.9,243.3,-8.046,235.1,257.2,258.1,253.0,240.1,36,235.2,3,10,prime,15,0,108,norm,36,-4.701,down,norm,251.706323623,231.8,256.0,2.088,274.4,1,236.1,261.8,247.3,15,6,8.119,4.547,1.516,-1.426,-4.495,-8.448,257.8,6,359.7,-8.364,-7.9,-20,-7.935,-7.603,-4.74,-4.9,-4.902,-5.213,4.394,8.474,19,-1.539,1.427,4.361,8.321,-8.069,-7.67,-1.48,1.718,232.5,252.9,244.7,261.2,245.1,270.8,245.0,221.7,235.9,251.6,1,norm,1.702,1.754,-1.704,-1.416,-4.618,-4.84,-1.622,-1.831,-2.04,-1.853,2.086,-2.057,,271.7,-4.989,-8.089,260.1,-1.937,8.423,5.233,-4.934,-8.014,34,4.906,5.206,4.311,4.34,1.969,1.782,2.038,1.539,34,4.868,5.254,-40,140.099910227,norm,0,86,86,86,2460.824,2460.831,2460.83369655,2460.834,2460.838,2460.843,down,1,3.05934542541,-11.0,001,001,800_600,Intel(R) Core(TM) i7-2670QM CPU @ 2.20GHz,orientation_search,GRVLAPTOP3,Intel(R) HD Graphics Family,2018_mei_31_1238,testMonitor,
276.0,260.7,268.8,245.0,36,-20,232.7,,234.0,272.8,8.153,8.491,7.571,8.221,8.354,8.08,8.324,4.438,-4.896,-8.483,1.3,-2.06,8.292,4.716,-4.843,-8.412,237.4,221.7,-8.433,247.2,274.7,246.6,256.5,240.3,36,258.0,4,10,prime,15,0,104,norm,36,-4.733,down,norm,251.706323623,248.4,263.6,1.393,262.1,1,262.9,269.8,243.5,15,6,8.346,4.737,1.58,-1.772,-5.034,-8.077,258.9,6,355.7,-8.495,-7.974,-20,-7.675,-8.361,-4.889,-4.86,-5.022,-5.146,4.966,7.623,25,-1.274,1.693,4.918,8.411,-7.54,-8.137,-2.071,1.475,256.5,227.1,261.5,256.0,246.3,237.9,241.7,237.1,243.6,236.5,2,norm,1.446,1.46,-1.75,-2.007,-5.103,-5.021,-1.144,-1.707,-1.456,-1.385,1.532,-2.094,251.4,281.7,-4.64,-8.417,254.4,-1.402,8.052,4.63,-4.36,-7.634,34,4.621,4.799,4.974,5.078,1.985,1.139,2.048,1.454,34,4.375,4.98,-40,140.099910227,norm,0,87,87,87,2463.914,2463.921,2463.92381648,2463.924,2463.928,2463.933,up,0,3.19404271653,-22.0,001,001,800_600,Intel(R) Core(TM) i7-2670QM CPU @ 2.20GHz,orientation_search,GRVLAPTOP3,Intel(R) HD Graphics Family,2018_mei_31_1238,testMonitor,
255.2,248.8,249.9,278.7,36,-20,235.9,245.4,221.7,256.5,8.321,8.487,7.941,7.989,8.305,8.038,7.912,5.063,-5.243,-8.465,1.359,-1.316,8.185,4.512,-4.518,-7.848,222.6,249.5,-8.298,279.7,259.2,249.0,244.5,248.7,36,267.2,1,10,prime,15,0,103,norm,36,-4.823,up,norm,251.706323623,240.3,238.5,1.258,237.3,3,239.3,261.1,276.7,15,6,7.868,4.495,1.464,-2.04,-4.961,-7.898,245.0,6,354.7,-8.134,-7.67,-20,-7.921,-7.823,-4.515,-4.62,-4.644,-4.574,5.156,7.855,9,-1.56,1.287,4.388,8.133,-7.81,-7.55,-1.756,1.493,,239.9,263.1,263.7,253.6,245.5,260.2,243.1,271.1,235.2,3,norm,1.115,1.715,-1.108,-1.657,-4.524,-4.534,-1.543,-1.364,-1.108,-2.064,1.978,-1.734,269.3,278.6,-4.777,-7.71,252.2,-1.437,7.763,4.836,-4.781,-8.104,34,4.779,4.498,4.961,5.036,1.993,1.592,1.278,1.702,34,5.081,4.751,-40,140.099910227,norm,0,88,88,88,2468.146,2468.155,2468.1568732,2468.157,2468.161,2468.166,down,0,1.3982534778,-16.0,001,001,800_600,Intel(R) Core(TM) i7-2670QM CPU @ 2.20GHz,orientation_search,GRVLAPTOP3,Intel(R) HD Graphics Family,2018_mei_31_1238,testMonitor,
,263.5,224.6,241.5,36,-20,264.3,281.7,247.0,270.4,8.155,7.69,7.773,8.118,8.327,7.755,8.059,4.679,-5.235,-8.031,2.065,-1.245,7.909,4.306,-4.757,-7.824,248.4,248.5,-7.569,256.6,271.8,242.8,236.6,260.7,36,270.4,3,10,prime,15,0,82,norm,36,-4.414,up,norm,251.706323623,250.2,258.4,1.723,251.6,4,233.4,221.7,258.1,15,6,7.717,4.713,1.776,-1.464,-5.003,-7.962,263.3,6,333.7,-7.595,-7.684,-20,-8.488,-8.412,-4.751,-4.535,-4.727,-4.89,4.941,8.331,22,-1.19,1.844,4.773,7.914,-7.825,-7.663,-1.725,1.546,228.6,248.3,250.5,247.3,246.9,241.6,243.3,259.8,269.8,262.1,4,norm,1.935,1.662,-1.811,-1.101,-5.057,-4.397,-1.79,-1.298,-1.691,-1.821,1.268,-1.763,249.8,244.3,-5.201,-7.907,236.8,-1.764,8.092,5.19,-4.923,-8.077,34,4.559,4.866,4.697,4.551,1.704,1.996,1.897,1.642,34,4.62,4.447,-40,140.099910227,norm,0,89,89,89,2470.58,2470.587,2470.58946362,2470.59,2470.594,2470.599,down,0,0.57597082063,-24.0,001,001,800_600,Intel(R) Core(TM) i7-2670QM CPU @ 2.20GHz,orientation_search,GRVLAPTOP3,Intel(R) HD Graphics Family,2018_mei_31_1238,testMonitor,
265.7,251.1,258.2,255.5,36,-20,247.6,264.7,254.4,275.5,8.354,8.026,7.65,8.318,7.987,7.759,8.14,4.615,-5.243,-8.209,1.309,-1.421,7.555,4.609,-4.764,-8.275,221.7,246.4,-7.592,263.7,263.6,244.0,264.9,232.4,36,227.7,2,10,prime,15,0,99,norm,36,-4.898,up,norm,251.706323623,275.8,,1.217,234.0,4,249.9,258.4,266.9,15,6,7.926,4.82,1.879,-1.429,-4.673,-7.955,281.7,6,350.7,-7.639,-7.656,-20,-8.262,-7.962,-5.045,-5.138,-4.622,-4.892,5.185,7.811,16,-1.8,1.988,5.193,8.046,-7.815,-7.657,-1.461,1.942,249.0,252.8,259.9,233.8,248.7,247.1,236.7,236.2,231.6,249.5,5,norm,1.679,1.51,-2.05,-1.179,-5.227,-4.905,-1.738,-1.564,-1.417,-1.975,1.447,-1.722,244.1,257.9,-4.928,-8.441,229.6,-1.807,7.647,4.384,-5.284,-8.427,34,5.24,4.787,4.709,5.182,1.249,1.14,1.943,1.25,34,4.392,4.695,-40,140.099910227,norm,0,90,90,90,2472.187,2472.194,2472.19623883,2472.197,2472.201,2472.206,down,0,1.20194273862,-18.0,001,001,800_600,Intel(R) Core(TM) i7-2670QM CPU @ 2.20GHz,orientation_search,GRVLAPTOP3,Intel(R) HD Graphics Family,2018_mei_31_1238,testMonitor,
355.0,341.9,340.5,339.0,36,-20,343.6,342.6,319.3,340.0,8.357,7.881,8.197,8.399,8.422,7.983,7.807,4.427,-4.718,-7.976,1.152,-2.06,7.653,5.218,-4.895,-8.158,315.0,329.7,-8.048,315.2,336.3,350.9,316.3,341.1,36,344.6,3,10,probe,10,0,105,norm,36,-4.478,down,norm,334.953850199,326.6,339.7,1.431,327.9,1,342.2,328.7,322.9,15,6,8.366,4.953,1.137,-1.408,-4.35,-7.833,336.3,2,230.0,-7.987,-7.549,-20,-7.645,-8.257,-5.037,-5.234,-4.972,-5.087,4.422,8.168,19,-1.629,1.28,4.416,7.726,-8.094,-7.949,-1.364,1.948,334.3,323.5,335.1,344.6,343.4,330.1,349.8,331.5,342.5,329.0,0,norm,1.21,1.588,-1.553,-1.409,-4.763,-4.507,-1.174,-1.895,-1.753,-1.708,1.819,-1.389,,341.5,-5.137,-8.072,331.8,-1.633,7.548,4.969,-4.665,-7.774,35,4.425,4.498,5.178,4.657,1.59,2.071,1.347,1.49,35,4.545,5.042,-20,251.706323623,norm,0,91,91,91,2474.433,2474.441,2474.44328239,2474.444,2474.448,2474.453,down,1,1.27220848064,7.0,001,001,800_600,Intel(R) Core(TM) i7-2670QM CPU @ 2.20GHz,orientation_search,GRVLAPTOP3,Intel(R) HD Graphics Family,2018_mei_31_1238,testMonitor,
288.7,,289.5,303.8,36,-20,320.6,283.9,296.9,298.6,8.489,8.265,7.69,8.161,7.811,8.349,8.381,4.632,-5.055,-8.138,1.748,-1.211,8.062,5.219,-5.196,-8.47,311.4,305.4,-7.923,295.4,296.9,300.6,283.7,301.8,36,305.6,3,10,probe,10,0,72,norm,36,-4.733,up,norm,301.953850199,303.2,298.0,1.548,299.7,5,304.1,300.1,311.2,15,6,7.746,4.461,1.963,-1.289,-4.536,-7.687,288.2,2,230.0,-7.851,-7.909,-20,-7.772,-7.7,-4.378,-5.042,-4.595,-4.747,4.792,7.848,23,-1.54,1.949,4.644,8.162,-7.999,-8.244,-2.064,1.113,289.9,289.5,292.2,309.9,322.0,290.9,306.1,307.0,304.6,286.9,1,norm,1.803,2.005,-1.531,-1.745,-4.574,-4.77,-1.398,-1.724,-1.195,-1.276,2.089,-1.571,296.7,292.9,-4.458,-7.878,288.5,-1.132,8.491,4.464,-5.018,-7.615,35,4.978,4.338,4.979,4.73,1.291,1.213,1.388,1.541,35,4.781,4.545,-20,251.706323623,norm,0,92,92,92,2475.736,2475.744,2475.7473632,2475.748,2475.755,2475.765,up,1,2.19285663921,-2.0,001,001,800_600,Intel(R) Core(TM) i7-2670QM CPU @ 2.20GHz,orientation_search,GRVLAPTOP3,Intel(R) HD Graphics Family,2018_mei_31_1238,testMonitor,
-15.4,34.9,-4.8,-17.3,36,0,18.3,5.4,15.2,-7.3,7.563,8.079,7.671,8.142,8.008,8.413,7.91,4.657,-4.533,-8.275,1.954,-1.296,7.821,5.215,-5.273,-8.079,36.5,-4.0,-8.499,-11.9,3.1,-16.6,31.4,9.5,36,6.6,0,10,prime,15,0,113,norm,36,-4.684,up,norm,6.51542144025,-0.6,29.7,2.002,8.1,5,12.2,10.7,13.8,15,5,8.012,4.421,1.346,-1.655,-4.666,-8.109,-23.5,5,119.5,-7.934,-8.02,0,-7.811,-7.705,-4.621,-4.367,-5.005,-4.586,4.981,8.078,5,-1.275,2.072,4.934,7.826,-7.786,-7.784,-1.537,2.018,-12.7,5.0,-2.1,32.6,-19.0,18.6,-5.1,20.4,,13.5,0,norm,1.35,1.557,-1.739,-1.576,-4.648,-5.043,-1.133,-1.661,-1.848,-1.305,1.111,-1.293,1.5,19.6,-4.999,-8.483,-3.2,-1.447,8.234,4.888,-4.788,-7.61,36,4.766,4.803,4.492,5.059,1.719,1.259,1.506,1.834,36,4.536,5.119,-20,251.706323623,norm,0,93,93,93,2477.97,2477.978,2477.98036248,2477.981,2477.985,2477.99,up,1,3.62267658427,-16.0,001,001,800_600,Intel(R) Core(TM) i7-2670QM CPU @ 2.20GHz,orientation_search,GRVLAPTOP3,Intel(R) HD Graphics Family,2018_mei_31_1238,testMonitor,
4.2,2.8,,-16.4,36,0,13.2,26.0,20.5,5.6,7.649,8.419,7.889,8.173,7.647,8.234,7.989,4.73,-5.019,-7.585,1.874,-1.679,7.513,4.613,-4.328,-8.05,-4.8,-14.0,-7.585,-2.9,0.4,8.7,-3.2,36.5,36,17.2,3,10,prime,15,0,78,norm,36,-4.427,down,norm,6.51542144025,-11.8,-4.3,1.203,7.0,2,36.0,-12.6,33.3,15,5,8.211,4.7,1.349,-1.151,-4.706,-7.629,-23.5,5,84.5,-7.53,-8.417,0,-8.076,-7.762,-4.759,-5.231,-4.569,-5.169,5.12,7.751,20,-1.325,1.688,4.773,7.968,-7.921,-8.084,-2.097,1.461,17.6,-11.6,32.6,-0.9,10.0,0.4,6.8,28.1,-9.5,12.8,1,norm,1.814,1.999,-1.466,-1.375,-4.358,-4.936,-1.739,-1.405,-1.533,-2.027,1.269,-2.037,12.5,-4.0,-5.017,-8.221,27.8,-1.517,8.221,5.125,-5.192,-8.417,36,4.961,5.234,4.316,4.448,1.588,1.815,2.007,2.023,36,5.218,4.91,-20,251.706323623,norm,0,94,94,94,2481.624,2481.631,2481.63448366,2481.635,2481.639,2481.644,down,1,1.99059683504,0.0,001,001,800_600,Intel(R) Core(TM) i7-2670QM CPU @ 2.20GHz,orientation_search,GRVLAPTOP3,Intel(R) HD Graphics Family,2018_mei_31_1238,testMonitor,
-2.6,13.6,15.0,1.4,36,0,-3.4,17.4,9.0,3.4,8.118,7.526,8.485,7.886,8.437,8.35,8.061,5.283,-4.793,-8.375,1.567,-1.752,7.655,5.14,-4.83,-7.947,9.0,22.6,-7.697,-10.5,-15.2,24.3,-19.5,7.7,36,1.7,2,10,prime,15,0,69,norm,36,-4.423,down,norm,6.51542144025,7.2,0.1,1.293,,2,-13.0,8.9,-20.8,15,5,8.15,5.224,1.392,-1.623,-4.882,-7.754,10.4,5,75.5,-8.414,-7.793,0,-8.019,-7.603,-4.958,-5.261,-4.664,-4.602,4.595,7.529,14,-1.202,2.003,4.708,7.532,-7.81,-7.994,-1.728,1.839,13.2,10.6,15.2,17.0,5.0,-6.4,-8.0,10.3,15.4,19.3,2,norm,1.765,1.745,-1.473,-1.706,-4.556,-4.822,-1.857,-1.239,-1.649,-1.91,1.272,-1.397,36.5,-10.3,-5.223,-8.149,7.8,-1.225,7.834,5.136,-5.241,-8.188,36,4.86,4.724,4.937,5.226,1.934,1.522,1.11,1.44,36,4.36,4.625,-20,251.706323623,norm,0,95,95,95,2483.646,2483.653,2483.65583165,2483.656,2483.66,2483.665,down,1,3.11079129569,-11.0,001,001,800_600,Intel(R) Core(TM) i7-2670QM CPU @ 2.20GHz,orientation_search,GRVLAPTOP3,Intel(R) HD Graphics Family,2018_mei_31_1238,testMonitor,
