d_ori_22,d_ori_23,d_ori_20,d_ori_21,set_size,ctpd,d_ori_24,d_ori_25,d_ori_28,d_ori_29,stim_pos_x_30,stim_pos_x_31,stim_pos_x_32,stim_pos_x_33,stim_pos_x_34,stim_pos_x_35,stim_pos_y_11,stim_pos_y_10,stim_pos_y_13,stim_pos_y_12,stim_pos_y_15,stim_pos_y_14,stim_pos_y_17,stim_pos_y_16,stim_pos_y_19,stim_pos_y_18,d_ori_35,d_ori_34,stim_pos_x_3,d_ori_31,d_ori_30,d_ori_33,d_ori_32,d_ori_26,test_set_size,d_ori_27,targetCol,dsd_test,seq_type,dsd,blockRepN,targetDist,dtype_test,prime_set_size,stim_pos_y_25,correctResponse,dtype,distrMean,d_ori_17,d_ori_16,stim_pos_y_3,d_ori_14,targetRow,d_ori_11,d_ori_13,d_ori_12,dsd_prime,streak_length_prime,stim_pos_y_35,stim_pos_y_34,stim_pos_y_33,stim_pos_y_32,stim_pos_y_31,stim_pos_y_30,d_ori_10,nextProbe,targetOri,stim_pos_x_1,stim_pos_x_2,ctpd_prime,stim_pos_x_4,stim_pos_x_5,stim_pos_x_6,stim_pos_x_7,stim_pos_x_8,stim_pos_x_9,stim_pos_y_28,stim_pos_y_29,targetPos,stim_pos_y_20,stim_pos_y_21,stim_pos_y_22,stim_pos_y_23,stim_pos_y_24,stim_pos_x_0,stim_pos_y_26,stim_pos_y_27,d_ori_9,d_ori_8,d_ori_3,d_ori_2,d_ori_1,d_ori_0,d_ori_7,d_ori_6,d_ori_5,d_ori_4,trialN,dtype_prime,stim_pos_x_18,stim_pos_x_19,stim_pos_x_12,stim_pos_x_13,stim_pos_x_10,stim_pos_x_11,stim_pos_x_16,stim_pos_x_17,stim_pos_x_14,stim_pos_x_15,stim_pos_y_9,stim_pos_y_8,d_ori_19,d_ori_18,stim_pos_y_1,stim_pos_y_0,d_ori_15,stim_pos_y_2,stim_pos_y_5,stim_pos_y_4,stim_pos_y_7,stim_pos_y_6,totBlockN,stim_pos_x_27,stim_pos_x_26,stim_pos_x_25,stim_pos_x_24,stim_pos_x_23,stim_pos_x_22,stim_pos_x_21,stim_pos_x_20,blockN,stim_pos_x_29,stim_pos_x_28,prevDistrCTPD,prevDistrMean,prevDistrType,trials.thisRepN,trials.thisTrialN,trials.thisN,trials.thisIndex,timeStart,timeBeforeDraw,timeDraw,timeAfterSaving,timeAfterWritingToTemp,timeAfterPreparingNext,answer,correct,rt,trialScore,session,participant,resolution,cpu_info,expName,pc_name,graphic_card,date,monitorName,
100.7,88.7,91.0,92.9,36,-40,85.9,82.5,86.3,98.7,8.425,8.358,8.484,7.531,8.031,8.053,8.091,4.83,-4.743,-8.482,1.581,-1.273,7.851,5.288,-5.283,-7.655,76.5,93.5,-7.524,97.3,99.3,93.7,110.7,88.2,36,90.5,0,5,prime,10,0,76,norm,36,-4.781,down,norm,90.6720112698,92.5,76.2,1.191,83.6,0,74.0,87.5,81.6,10,6,7.74,5.234,1.436,-1.463,-5.145,-8.251,94.9,6,166.7,-7.628,-7.608,-40,-8.485,-8.239,-5.109,-4.945,-4.344,-5.151,4.71,7.984,0,-1.233,1.219,4.758,7.947,-8.121,-8.385,-2.028,1.318,80.9,90.9,92.0,73.2,70.7,,78.1,92.3,76.2,90.3,0,norm,1.852,1.997,-1.989,-1.874,-4.445,-4.831,-2.047,-1.765,-2.076,-2.013,1.717,-1.161,108.1,85.0,-5.044,-8.059,92.2,-1.613,7.969,4.924,-4.46,-7.74,0,5.226,4.523,5.148,4.329,1.109,1.471,1.358,1.954,0,4.994,5.022,,,,0,0,0,0,217.044,217.054,217.061053386,217.061,217.062,217.065,up,0,1.25609137672,-10,001,012,800_600,Intel(R) Core(TM) i7-2670QM CPU @ 2.20GHz,orientation_search,GRVLAPTOP3,Intel(R) HD Graphics Family,2018_jun_21_1707,testMonitor,
110.7,101.8,85.4,104.4,36,-40,96.0,84.7,78.7,82.2,8.074,8.45,7.759,8.382,7.931,8.476,7.929,5.008,-4.655,-7.561,1.492,-1.355,8.456,4.31,-5.11,-7.65,87.6,96.2,-7.997,96.3,,98.6,90.4,80.2,36,89.8,5,5,prime,10,0,102,norm,36,-4.409,down,norm,90.6720112698,70.7,95.6,1.931,110.3,0,86.3,83.4,106.5,10,6,8.059,5.082,1.287,-1.799,-4.919,-8.0,101.3,6,192.7,-7.746,-8.102,-40,-7.814,-7.522,-5.268,-4.401,-4.842,-4.904,4.448,8.076,30,-1.558,1.349,4.314,8.159,-7.902,-7.732,-1.991,1.296,105.9,87.2,103.8,91.3,104.7,90.7,88.7,87.4,101.7,87.6,1,norm,1.628,1.19,-1.574,-1.639,-4.618,-4.867,-1.837,-1.783,-1.879,-2.032,1.102,-1.78,97.0,77.9,-5.114,-8.036,83.2,-1.363,7.591,4.643,-4.965,-7.81,0,5.01,5.297,5.136,4.461,1.622,1.105,1.438,2.08,0,5.259,4.987,,,,0,1,1,1,219.34,219.346,219.348585512,219.349,219.351,219.354,down,1,3.80356535821,6.19643464179,001,012,800_600,Intel(R) Core(TM) i7-2670QM CPU @ 2.20GHz,orientation_search,GRVLAPTOP3,Intel(R) HD Graphics Family,2018_jun_21_1707,testMonitor,
102.2,97.0,80.9,79.8,36,-40,87.9,86.2,108.2,83.1,7.878,8.043,7.644,7.959,7.51,7.875,7.614,4.677,-5.284,-8.303,1.669,-1.227,8.042,4.435,-4.644,-7.915,86.2,70.7,-8.153,95.8,94.0,85.1,101.6,90.1,36,99.0,0,5,prime,10,0,98,norm,36,-4.584,up,norm,90.6720112698,110.7,84.9,2.075,96.3,5,101.2,106.4,79.6,10,6,7.519,4.941,1.387,-1.438,-4.553,-7.794,82.9,6,188.7,-8.199,-8.016,-40,-7.996,-7.917,-4.743,-4.602,-4.962,-4.794,5.279,7.872,5,-1.623,1.233,4.322,8.133,-8.278,-8.461,-1.7,1.684,102.4,89.4,88.7,101.3,75.8,84.5,84.0,82.2,,98.8,2,norm,1.94,1.853,-1.185,-1.368,-4.993,-5.282,-2.032,-1.197,-1.215,-1.692,1.856,-1.46,86.6,96.0,-5.084,-8.25,95.0,-1.899,8.465,4.396,-4.319,-8.272,0,4.837,4.572,4.96,4.765,2.0,1.925,2.007,1.109,0,4.741,4.367,,,,0,2,2,2,223.168,223.174,223.175548387,223.176,223.178,223.182,up,1,3.14109720427,6.85890279573,001,012,800_600,Intel(R) Core(TM) i7-2670QM CPU @ 2.20GHz,orientation_search,GRVLAPTOP3,Intel(R) HD Graphics Family,2018_jun_21_1707,testMonitor,
101.2,87.9,79.6,70.7,36,-40,78.2,86.9,86.4,83.2,7.929,8.213,7.829,7.654,8.277,7.612,8.391,4.863,-4.827,-8.021,1.481,-1.579,7.951,4.516,-4.806,-7.919,110.7,94.7,-8.439,,103.0,86.3,96.1,96.6,36,85.1,5,5,prime,10,0,65,norm,36,-4.663,down,norm,90.6720112698,86.8,94.5,1.727,89.9,1,81.4,99.2,83.2,10,6,8.122,5.235,1.711,-2.085,-4.307,-8.293,89.7,6,155.7,-8.363,-8.023,-40,-8.326,-8.066,-4.413,-4.544,-4.924,-4.854,4.666,8.093,31,-1.968,1.978,5.116,8.196,-8.283,-8.499,-1.189,1.65,89.2,100.5,98.5,86.9,97.5,91.3,79.8,84.6,87.5,94.1,3,norm,1.607,1.512,-1.182,-2.083,-4.675,-4.83,-1.321,-1.828,-1.196,-1.563,1.676,-1.28,76.1,88.1,-5.176,-8.314,92.0,-1.188,8.372,4.454,-4.545,-8.491,0,4.89,5.125,4.778,4.464,2.031,1.557,1.788,1.82,0,5.089,4.55,,,,0,3,3,3,226.335,226.342,226.343629293,226.344,226.347,226.35,down,1,3.10272036355,6.89727963645,001,012,800_600,Intel(R) Core(TM) i7-2670QM CPU @ 2.20GHz,orientation_search,GRVLAPTOP3,Intel(R) HD Graphics Family,2018_jun_21_1707,testMonitor,
88.3,90.6,81.4,84.5,36,-40,94.7,97.5,110.7,110.2,8.099,8.41,8.345,8.163,8.17,7.743,7.708,5.198,-5.124,-7.624,1.165,-1.907,7.624,4.482,-4.655,-7.753,83.5,94.4,-8.228,96.7,91.3,79.1,86.6,108.1,36,72.5,2,5,prime,10,0,67,norm,36,-4.681,up,norm,90.6720112698,77.8,94.1,1.498,98.9,3,90.8,102.3,71.7,10,6,7.668,4.731,1.32,-1.504,-5.266,-7.924,87.1,6,157.7,-8.303,-8.002,-40,-7.987,-8.5,-4.827,-4.431,-4.779,-4.958,4.85,8.385,15,-1.687,1.443,4.591,8.162,-7.58,-7.975,-1.356,1.846,104.7,80.9,83.3,87.0,87.0,83.0,79.3,82.7,99.8,75.8,4,norm,1.158,1.921,-2.041,-1.591,-4.634,-4.932,-1.259,-2.043,-1.377,-1.86,1.622,-1.717,89.4,70.7,-4.759,-8.045,,-1.479,8.358,4.891,-4.801,-8.492,0,4.877,4.325,4.512,4.361,1.781,2.052,1.63,1.332,0,5.066,5.207,,,,0,4,4,4,229.462,229.468,229.469947029,229.47,229.473,229.476,up,1,2.52207231018,7.47792768982,001,012,800_600,Intel(R) Core(TM) i7-2670QM CPU @ 2.20GHz,orientation_search,GRVLAPTOP3,Intel(R) HD Graphics Family,2018_jun_21_1707,testMonitor,
84.5,110.7,87.7,107.4,36,-40,82.4,93.0,90.1,109.7,7.63,7.744,7.531,7.546,8.39,8.156,7.846,5.278,-4.435,-7.867,1.613,-1.861,7.695,4.717,-5.171,-8.018,94.2,84.7,-7.551,93.9,84.1,92.4,103.6,77.6,36,90.4,2,5,prime,10,0,80,norm,36,-4.524,up,norm,90.6720112698,98.9,,1.246,81.9,4,86.9,98.6,95.9,10,6,7.774,5.15,1.838,-1.208,-5.298,-7.515,82.1,6,170.7,-7.557,-7.96,-40,-7.976,-7.958,-5.204,-4.453,-5.292,-4.402,5.014,8.195,16,-1.836,1.751,4.426,8.402,-8.078,-8.308,-1.727,1.293,84.5,88.8,94.8,91.0,99.6,96.7,92.0,92.0,101.2,101.4,5,norm,2.032,2.054,-1.936,-1.877,-5.041,-5.034,-1.881,-1.647,-2.098,-1.579,1.202,-2.029,95.9,87.9,-4.352,-8.383,70.7,-1.118,8.351,5.286,-4.548,-8.394,0,4.501,4.924,4.408,5.28,1.243,1.226,1.292,1.677,0,4.486,5.086,,,,0,5,5,5,232.009,232.014,232.01596926,232.016,232.019,232.022,down,0,3.96457849261,-10,001,012,800_600,Intel(R) Core(TM) i7-2670QM CPU @ 2.20GHz,orientation_search,GRVLAPTOP3,Intel(R) HD Graphics Family,2018_jun_21_1707,testMonitor,
125.4,109.3,112.1,112.6,36,0,109.6,114.6,116.4,,8.366,7.998,7.565,7.672,7.785,8.087,8.48,4.976,-4.739,-8.236,1.335,-1.922,7.547,4.635,-4.84,-7.975,109.7,112.4,-8.162,120.4,116.5,111.7,105.4,111.4,36,110.9,4,5,probe,5,0,60,norm,36,-5.023,up,norm,115.401427551,112.2,106.9,1.681,121.2,5,109.5,112.6,113.8,10,6,7.993,4.914,1.491,-1.564,-4.98,-7.523,113.1,2,55.4,-7.593,-8.428,-40,-8.168,-7.702,-4.744,-4.85,-4.574,-4.547,5.164,7.668,29,-1.668,1.827,5.047,8.439,-8.404,-7.948,-1.488,1.956,115.0,112.0,115.2,108.6,124.2,122.6,117.6,120.0,111.9,115.2,0,norm,2.0,1.435,-2.014,-1.777,-4.444,-4.392,-1.618,-1.103,-2.032,-1.701,1.246,-1.196,113.1,114.2,-5.181,-8.189,121.5,-1.837,8.408,4.357,-4.603,-8.007,1,4.985,5.084,4.493,5.209,1.54,1.402,1.142,1.186,1,5.058,5.229,-40,90.6720112698,norm,0,6,6,6,236.999,237.004,237.006323918,237.007,237.009,237.013,up,1,2.25009946058,7.74990053942,001,012,800_600,Intel(R) Core(TM) i7-2670QM CPU @ 2.20GHz,orientation_search,GRVLAPTOP3,Intel(R) HD Graphics Family,2018_jun_21_1707,testMonitor,
180.9,,177.9,167.5,36,0,172.8,171.0,176.4,173.0,7.947,8.259,8.016,7.604,7.953,7.566,8.472,4.367,-4.729,-8.211,1.793,-1.199,8.327,5.254,-4.966,-8.48,162.4,172.0,-8.011,181.1,167.1,169.0,167.8,178.5,36,172.9,3,5,probe,5,0,117,norm,36,-4.438,up,norm,172.401427551,164.6,176.4,1.743,169.3,5,182.4,169.1,171.0,10,6,8.29,4.825,2.098,-1.19,-4.643,-8.069,169.5,2,55.4,-8.35,-7.694,-40,-7.842,-8.292,-4.596,-5.242,-4.399,-4.329,4.607,7.522,23,-1.155,1.521,4.667,8.441,-7.667,-7.832,-2.012,1.923,172.6,172.3,182.4,172.1,169.5,172.0,177.9,168.2,169.6,171.6,1,norm,1.894,1.324,-1.403,-1.69,-4.657,-5.142,-1.314,-1.92,-1.332,-1.243,1.63,-1.743,167.5,169.6,-4.973,-7.641,163.9,-1.441,7.784,4.838,-4.899,-8.14,1,4.976,4.54,5.087,4.943,1.765,1.778,1.464,1.864,1,5.116,4.434,-40,90.6720112698,norm,0,7,7,7,239.272,239.278,239.280207532,239.281,239.283,239.286,up,1,1.27978073846,8.72021926154,001,012,800_600,Intel(R) Core(TM) i7-2670QM CPU @ 2.20GHz,orientation_search,GRVLAPTOP3,Intel(R) HD Graphics Family,2018_jun_21_1707,testMonitor,
323.5,301.9,301.1,302.1,36,10,300.6,306.2,306.8,305.5,7.846,7.962,8.054,7.605,7.716,8.457,7.987,4.451,-4.366,-7.731,1.445,-1.175,7.934,4.679,-4.614,-8.137,313.4,305.0,-8.328,317.1,304.8,286.2,291.7,,36,297.7,4,5,prime,10,0,102,norm,36,-4.522,down,norm,303.48770795,300.9,312.4,1.623,285.1,2,298.1,286.9,318.9,10,6,7.756,5.168,1.475,-1.382,-4.597,-7.74,314.7,6,405.5,-8.324,-8.303,10,-8.004,-7.94,-5.051,-5.001,-4.935,-4.685,4.68,7.501,26,-1.699,1.743,4.506,8.341,-7.779,-8.485,-1.818,1.553,320.4,308.5,283.5,307.9,306.4,303.4,291.2,295.2,320.8,290.7,0,norm,1.424,1.221,-1.675,-1.613,-5.127,-5.295,-1.308,-1.692,-1.13,-1.309,1.925,-1.238,305.5,304.1,-5.293,-8.168,304.3,-1.538,8.313,5.215,-4.433,-7.643,2,4.406,5.122,4.937,4.696,1.404,1.333,1.584,1.446,2,4.405,4.363,0,90.6720112698,norm,0,8,8,8,240.576,240.581,240.582989813,240.583,240.586,240.59,down,1,1.07955538787,8.92044461213,001,012,800_600,Intel(R) Core(TM) i7-2670QM CPU @ 2.20GHz,orientation_search,GRVLAPTOP3,Intel(R) HD Graphics Family,2018_jun_21_1707,testMonitor,
316.0,301.3,303.2,308.5,36,10,288.4,294.4,299.8,287.9,7.727,7.621,7.735,7.658,8.35,8.353,8.04,4.816,-4.312,-8.131,1.892,-1.29,8.036,4.572,-4.325,-7.53,309.4,294.8,-8.065,309.3,290.4,304.0,,301.5,36,303.9,5,5,prime,10,0,65,norm,36,-5.088,down,norm,303.48770795,321.7,314.8,1.77,298.6,2,285.7,302.6,289.8,10,6,8.168,4.626,1.69,-2.062,-4.835,-8.034,300.8,6,368.5,-8.015,-8.132,10,-7.748,-8.2,-5.294,-5.202,-5.139,-4.687,4.374,8.076,32,-1.814,1.548,5.238,7.608,-7.664,-7.823,-1.222,1.794,304.4,304.6,323.5,315.0,301.8,316.1,295.2,304.6,305.2,285.8,1,norm,2.088,1.35,-1.686,-1.23,-4.946,-4.482,-1.631,-2.033,-1.259,-1.347,1.213,-1.628,283.5,307.0,-4.817,-7.528,310.2,-1.888,7.738,4.352,-4.62,-8.183,2,4.871,5.008,5.216,4.456,1.808,1.736,1.339,1.966,2,5.005,4.683,0,90.6720112698,norm,0,9,9,9,241.678,241.684,241.685522462,241.686,241.688,241.692,down,1,2.14316159496,7.85683840504,001,012,800_600,Intel(R) Core(TM) i7-2670QM CPU @ 2.20GHz,orientation_search,GRVLAPTOP3,Intel(R) HD Graphics Family,2018_jun_21_1707,testMonitor,
303.0,285.0,304.3,289.0,36,10,320.3,313.7,318.3,315.6,8.449,8.169,7.658,8.441,8.469,7.753,8.151,5.047,-4.808,-7.661,1.38,-1.832,8.175,4.965,-4.331,-7.705,,315.5,-7.814,311.2,306.4,309.2,304.8,307.6,36,303.4,5,5,prime,10,0,106,norm,36,-4.754,up,norm,303.48770795,308.4,296.7,1.855,301.6,5,302.9,297.8,307.3,10,6,7.531,4.745,1.578,-1.576,-4.625,-8.376,294.3,6,409.5,-8.148,-7.504,10,-7.877,-8.391,-4.865,-5.011,-4.532,-4.53,4.311,7.931,35,-1.703,1.222,5.198,8.17,-7.877,-8.484,-1.3,1.383,303.4,303.9,302.7,302.9,290.9,312.9,314.4,283.5,300.5,318.2,2,norm,1.611,1.69,-1.889,-1.402,-4.798,-4.675,-1.524,-1.686,-1.106,-2.018,1.642,-1.104,294.3,303.7,-5.105,-7.675,323.5,-1.756,7.862,4.695,-5.123,-7.847,2,4.97,5.037,5.012,4.429,1.839,1.882,2.032,1.723,2,4.863,5.009,0,90.6720112698,norm,0,10,10,10,243.844,243.849,243.850976301,243.851,243.854,243.857,up,1,0.941667071357,9.05833292864,001,012,800_600,Intel(R) Core(TM) i7-2670QM CPU @ 2.20GHz,orientation_search,GRVLAPTOP3,Intel(R) HD Graphics Family,2018_jun_21_1707,testMonitor,
296.9,316.8,300.7,301.5,36,10,303.0,283.5,313.0,306.9,7.949,8.186,7.975,7.941,8.337,8.317,8.262,4.379,-5.215,-8.197,1.111,-1.592,7.678,4.505,-5.02,-8.102,309.5,294.0,-7.552,299.8,311.7,299.5,296.4,303.8,36,309.9,1,5,prime,10,0,94,norm,36,-4.647,up,norm,303.48770795,291.0,301.8,2.001,295.4,4,302.5,304.0,293.6,10,6,8.352,4.966,1.655,-2.025,-5.134,-7.946,,6,397.5,-8.191,-7.979,10,-7.916,-8.493,-4.302,-4.374,-4.611,-5.035,4.588,7.598,10,-1.766,1.73,4.373,7.754,-7.521,-8.467,-1.547,1.28,316.9,308.6,302.5,307.0,303.4,300.0,323.5,303.1,293.4,294.8,3,norm,1.721,1.965,-1.145,-1.533,-5.273,-4.598,-1.284,-1.848,-1.483,-1.961,1.744,-2.008,303.6,294.0,-5.151,-8.438,298.6,-1.11,7.817,4.93,-5.011,-8.142,2,4.658,4.894,4.308,4.35,1.539,1.205,1.369,1.451,2,4.592,5.128,0,90.6720112698,norm,0,11,11,11,244.81,244.815,244.816948643,244.817,244.82,244.823,up,1,1.03631198309,8.96368801691,001,012,800_600,Intel(R) Core(TM) i7-2670QM CPU @ 2.20GHz,orientation_search,GRVLAPTOP3,Intel(R) HD Graphics Family,2018_jun_21_1707,testMonitor,
307.3,301.4,305.7,289.5,36,10,306.5,297.4,304.5,314.5,7.712,7.788,7.676,8.459,8.024,8.461,8.156,4.94,-4.658,-8.011,1.248,-1.659,7.687,4.314,-4.762,-8.143,,304.0,-8.492,283.5,303.6,297.6,296.5,311.6,36,293.8,5,5,prime,10,0,60,norm,36,-4.646,up,norm,303.48770795,304.2,306.0,1.617,310.7,5,292.4,317.8,314.1,10,6,8.236,4.823,1.619,-1.184,-5.25,-8.14,302.9,6,363.5,-7.79,-7.915,10,-7.922,-8.241,-4.492,-4.409,-5.261,-5.107,4.619,7.644,35,-1.704,1.777,4.631,8.184,-8.039,-8.115,-1.687,1.934,292.3,301.4,307.3,313.4,290.3,322.5,295.6,304.6,305.9,284.0,4,norm,1.493,1.964,-1.349,-1.706,-5.14,-4.307,-2.007,-1.596,-1.894,-1.625,1.322,-1.271,323.5,300.2,-4.869,-7.9,299.6,-1.409,7.904,4.985,-4.542,-8.463,2,4.475,5.145,4.371,5.094,1.655,1.546,1.645,1.653,2,5.047,5.266,0,90.6720112698,norm,0,12,12,12,245.87,245.875,245.876244892,245.877,245.879,245.882,up,1,0.783857688256,9.21614231174,001,012,800_600,Intel(R) Core(TM) i7-2670QM CPU @ 2.20GHz,orientation_search,GRVLAPTOP3,Intel(R) HD Graphics Family,2018_jun_21_1707,testMonitor,
311.3,298.1,323.5,306.3,36,10,287.8,306.3,308.9,288.8,8.078,7.58,7.587,7.653,8.269,7.959,7.744,4.561,-4.37,-8.377,1.223,-1.935,7.506,4.956,-4.393,-7.536,311.8,314.1,-8.258,314.7,303.1,303.7,283.5,315.1,36,313.7,0,5,prime,10,0,93,norm,36,-4.333,up,norm,303.48770795,306.4,295.7,1.344,303.1,3,304.9,311.3,299.1,10,6,8.138,5.262,2.051,-1.968,-5.245,-7.649,293.9,6,396.5,-8.094,-8.346,10,-7.709,-8.245,-4.745,-4.626,-4.554,-4.726,4.511,8.206,3,-1.127,1.482,4.648,8.198,-7.62,-8.238,-1.58,1.293,310.4,297.6,,305.1,307.4,308.9,311.3,315.2,313.8,288.1,5,norm,1.607,1.64,-1.527,-1.956,-4.366,-4.905,-1.6,-1.348,-1.888,-2.019,1.97,-1.254,305.6,292.8,-4.888,-8.199,292.6,-1.522,7.943,4.924,-4.817,-8.314,2,4.828,4.963,5.092,4.469,1.757,1.323,1.513,1.909,2,4.415,4.5,0,90.6720112698,norm,0,13,13,13,246.676,246.681,246.682756711,246.683,246.686,246.689,up,1,1.23261961419,8.76738038581,001,012,800_600,Intel(R) Core(TM) i7-2670QM CPU @ 2.20GHz,orientation_search,GRVLAPTOP3,Intel(R) HD Graphics Family,2018_jun_21_1707,testMonitor,
394.8,399.5,388.1,390.1,36,80,395.8,400.4,395.8,395.5,7.791,7.756,8.184,8.28,8.318,7.511,7.762,4.45,-5.289,-8.173,1.75,-1.223,8.374,5.052,-4.63,-8.231,399.9,400.8,-7.637,393.0,407.0,402.8,391.8,399.6,36,402.2,2,5,probe,5,0,88,norm,36,-4.816,down,norm,396.974085652,397.7,388.4,1.127,398.0,1,400.1,,387.0,10,6,7.623,4.8,1.945,-1.637,-4.852,-7.861,397.7,1,309.0,-7.943,-7.641,10,-7.697,-8.42,-5.001,-4.549,-4.481,-5.02,5.209,7.991,13,-1.32,1.512,4.802,8.227,-8.212,-8.32,-1.813,1.392,398.1,400.2,397.1,396.6,391.9,404.7,403.5,396.0,396.0,400.2,0,norm,1.136,1.337,-1.778,-1.604,-4.748,-5.036,-1.79,-1.342,-1.432,-2.032,1.991,-1.194,404.4,399.9,-5.203,-7.596,394.3,-1.277,8.095,4.93,-5.262,-7.828,3,4.303,4.527,4.746,4.677,1.373,1.672,1.526,1.749,3,5.101,4.8,10,303.48770795,norm,0,14,14,14,247.932,247.937,247.93851842,247.939,247.942,247.945,down,1,1.07871440899,8.92128559101,001,012,800_600,Intel(R) Core(TM) i7-2670QM CPU @ 2.20GHz,orientation_search,GRVLAPTOP3,Intel(R) HD Graphics Family,2018_jun_21_1707,testMonitor,
202.3,207.2,193.8,189.5,36,10,191.1,199.6,193.8,191.8,8.235,7.813,8.229,8.047,7.767,7.771,7.539,4.365,-5.282,-8.409,1.698,-1.552,8.4,4.451,-5.194,-8.14,179.0,194.5,-7.722,199.7,193.6,202.0,192.6,203.6,36,197.9,2,5,prime,10,0,110,norm,36,-4.732,up,norm,195.427656286,194.6,196.3,1.442,188.9,3,192.9,204.3,188.3,10,5,8.094,5.149,2.029,-1.633,-4.97,-7.741,201.6,5,305.4,-7.548,-7.653,10,-8.293,-7.984,-4.715,-5.043,-4.779,-4.606,5.031,7.575,15,-2.055,1.594,5.047,7.61,-8.312,-8.452,-1.175,1.618,200.7,176.0,193.0,198.0,204.0,175.4,194.4,208.4,195.5,190.3,0,norm,1.757,1.408,-1.646,-1.586,-4.585,-4.829,-1.799,-1.711,-1.484,-1.272,2.041,-1.116,183.9,189.9,-5.136,-7.902,,-1.82,8.309,4.492,-4.383,-8.478,4,4.913,4.342,4.597,5.053,1.334,2.061,1.169,1.312,4,5.058,4.906,80,303.48770795,norm,0,15,15,15,249.034,249.039,249.040390801,249.041,249.043,249.047,up,1,1.07932051148,8.92067948852,001,012,800_600,Intel(R) Core(TM) i7-2670QM CPU @ 2.20GHz,orientation_search,GRVLAPTOP3,Intel(R) HD Graphics Family,2018_jun_21_1707,testMonitor,
199.9,200.8,199.6,196.5,36,10,207.2,189.4,185.3,199.7,8.298,7.965,8.464,8.451,8.091,8.312,8.226,4.433,-4.609,-8.198,1.457,-1.807,8.173,4.498,-5.228,-8.249,175.4,215.4,-8.205,196.4,200.4,180.6,204.4,199.0,36,201.7,1,5,prime,10,0,80,norm,36,-4.403,up,norm,195.427656286,203.1,205.6,1.819,199.3,4,202.2,210.6,206.5,10,5,8.168,4.739,1.858,-1.855,-4.574,-8.388,,5,275.4,-7.874,-8.3,10,-7.993,-7.677,-5.111,-4.321,-5.036,-4.54,4.59,8.072,10,-1.756,1.999,4.586,8.187,-8.172,-8.22,-1.442,1.73,213.8,176.1,181.8,194.8,193.5,203.5,186.8,198.1,196.8,207.5,1,norm,1.807,1.682,-1.139,-1.871,-5.166,-4.971,-1.255,-1.373,-1.883,-1.794,1.238,-1.331,207.8,197.3,-5.043,-8.331,189.0,-1.47,7.628,4.327,-4.566,-7.851,4,4.743,4.8,4.947,5.199,2.044,2.019,1.985,1.385,4,4.805,4.374,80,303.48770795,norm,0,16,16,16,250.135,250.14,250.142043714,250.142,250.145,250.148,up,1,0.992210322234,9.00778967777,001,012,800_600,Intel(R) Core(TM) i7-2670QM CPU @ 2.20GHz,orientation_search,GRVLAPTOP3,Intel(R) HD Graphics Family,2018_jun_21_1707,testMonitor,
197.7,192.3,179.4,206.6,36,10,186.3,193.2,195.0,188.6,7.772,7.837,7.69,8.459,7.649,8.228,7.575,4.836,-5.218,-8.101,1.888,-1.796,7.817,5.269,-4.739,-8.176,193.0,175.4,-8.357,207.5,205.6,192.7,196.7,206.8,36,191.3,0,5,prime,10,0,105,norm,36,-4.42,up,norm,195.427656286,191.5,199.3,1.106,203.1,5,196.2,186.9,202.2,10,5,8.143,4.324,1.147,-1.255,-4.968,-8.398,201.7,5,300.4,-7.744,-7.639,10,-7.827,-7.849,-4.38,-4.898,-4.36,-4.553,4.43,7.747,5,-2.008,1.335,5.086,7.742,-8.09,-7.796,-1.236,1.311,200.3,193.0,184.4,194.1,211.6,215.4,201.0,196.5,,190.0,2,norm,1.756,1.766,-1.181,-1.361,-4.875,-4.472,-1.906,-1.548,-1.296,-1.696,2.009,-1.73,186.7,182.1,-5.082,-8.167,196.1,-1.469,7.93,4.343,-4.999,-7.608,4,5.033,4.721,5.102,5.186,1.536,1.468,1.998,2.056,4,5.156,5.24,80,303.48770795,norm,0,17,17,17,251.15,251.155,251.156676093,251.157,251.16,251.164,up,1,1.24909318102,8.75090681898,001,012,800_600,Intel(R) Core(TM) i7-2670QM CPU @ 2.20GHz,orientation_search,GRVLAPTOP3,Intel(R) HD Graphics Family,2018_jun_21_1707,testMonitor,
192.4,186.1,198.3,197.1,36,10,183.1,180.4,189.6,196.7,8.129,7.998,8.143,7.519,8.48,7.95,8.119,4.429,-4.663,-8.136,1.669,-1.618,8.154,4.587,-4.851,-7.929,204.1,179.2,-8.002,202.9,183.9,195.5,194.9,189.2,36,192.0,2,5,prime,10,0,82,norm,36,-5.044,up,norm,195.427656286,175.4,203.8,1.358,203.6,3,193.1,215.4,190.9,10,5,8.144,4.577,1.38,-1.114,-4.857,-7.958,188.7,5,277.4,-8.436,-7.676,10,-7.829,-7.508,-5.09,-4.931,-4.736,-4.514,4.946,8.096,15,-1.739,1.441,4.815,8.018,-7.771,-8.049,-2.073,1.151,193.6,199.1,209.7,188.4,196.9,198.9,192.8,208.3,204.8,197.4,3,norm,1.403,1.808,-1.169,-1.333,-4.731,-5.19,-1.725,-1.79,-1.8,-1.396,1.146,-1.795,196.9,197.0,-4.32,-8.061,,-1.247,7.559,4.377,-4.311,-8.346,4,4.611,4.49,4.9,4.778,1.524,1.746,1.611,1.918,4,5.059,4.739,80,303.48770795,norm,0,18,18,18,252.423,252.428,252.429439024,252.43,252.432,252.436,up,1,2.02660780593,7.97339219407,001,012,800_600,Intel(R) Core(TM) i7-2670QM CPU @ 2.20GHz,orientation_search,GRVLAPTOP3,Intel(R) HD Graphics Family,2018_jun_21_1707,testMonitor,
200.8,184.7,188.4,199.8,36,10,178.4,194.3,194.9,199.1,8.049,7.748,7.615,7.657,8.333,7.964,8.286,5.037,-5.25,-7.944,1.51,-1.419,7.736,5.245,-5.227,-8.137,175.4,210.7,-7.825,181.1,211.8,197.3,196.3,203.6,36,190.9,0,5,prime,10,0,75,norm,36,-4.459,down,norm,195.427656286,193.8,194.4,1.55,189.8,2,184.1,181.4,201.6,10,5,7.717,4.666,1.176,-1.843,-4.452,-7.616,182.6,5,270.4,-8.33,-8.021,10,-7.781,-8.259,-4.3,-5.056,-4.42,-4.715,4.681,8.497,2,-1.453,1.491,4.468,7.654,-7.992,-8.036,-1.696,1.377,188.8,188.1,183.7,,198.9,202.4,203.4,192.4,180.0,192.8,4,norm,1.986,1.378,-1.672,-1.896,-4.548,-5.061,-1.775,-1.911,-1.163,-1.371,2.002,-1.512,203.4,215.4,-4.639,-8.329,199.7,-1.26,7.963,4.451,-4.744,-8.024,4,4.501,4.647,4.648,4.87,1.431,1.33,1.719,1.337,4,4.805,5.213,80,303.48770795,norm,0,19,19,19,254.472,254.477,254.478579554,254.479,254.482,254.485,down,1,0.681500145689,9.31849985431,001,012,800_600,Intel(R) Core(TM) i7-2670QM CPU @ 2.20GHz,orientation_search,GRVLAPTOP3,Intel(R) HD Graphics Family,2018_jun_21_1707,testMonitor,
309.0,321.3,320.0,317.0,36,40,313.2,308.4,315.8,311.1,7.846,8.281,7.723,8.185,8.01,8.176,7.711,4.768,-4.863,-8.235,1.917,-1.845,8.443,4.325,-4.747,-8.311,319.2,321.2,-7.739,315.3,309.1,319.9,322.8,317.0,36,314.8,2,5,probe,5,0,112,norm,36,-5.235,up,norm,316.356130371,317.3,,2.082,309.0,4,323.7,325.8,309.2,10,5,7.612,4.374,1.207,-1.662,-4.522,-8.239,322.3,2,204.4,-7.897,-8.344,10,-7.784,-8.196,-4.672,-4.545,-4.341,-5.27,4.37,7.895,16,-2.065,2.094,4.744,7.909,-7.684,-8.423,-1.712,1.724,315.5,313.0,313.9,315.2,314.7,312.3,313.7,321.2,316.0,310.5,0,norm,1.567,1.814,-2.097,-1.912,-4.9,-4.331,-1.366,-1.443,-1.486,-1.233,1.581,-2.093,315.7,306.4,-4.309,-7.812,326.4,-1.334,7.868,4.923,-4.584,-7.738,5,4.981,4.703,4.384,4.474,1.319,2.017,1.355,1.388,5,4.735,5.267,10,195.427656286,norm,0,20,20,20,255.176,255.181,255.182780059,255.183,255.186,255.189,up,1,0.895834889837,9.10416511016,001,012,800_600,Intel(R) Core(TM) i7-2670QM CPU @ 2.20GHz,orientation_search,GRVLAPTOP3,Intel(R) HD Graphics Family,2018_jun_21_1707,testMonitor,
303.1,297.0,300.4,299.1,36,40,306.7,297.5,300.6,304.1,8.478,8.036,7.721,7.967,8.201,8.499,7.752,4.566,-4.712,-8.339,1.37,-1.856,7.671,4.486,-5.047,-7.668,292.8,302.3,-7.588,298.3,302.6,294.0,305.8,302.3,36,310.0,1,5,probe,5,0,97,norm,36,-4.902,down,norm,301.356130371,306.2,296.9,1.434,304.6,0,308.0,299.9,291.4,10,5,8.254,5.153,1.536,-1.956,-4.63,-8.358,308.3,2,204.4,-7.841,-7.512,10,-7.787,-7.604,-4.997,-4.724,-4.626,-4.441,5.154,7.735,6,-1.332,1.748,4.92,8.077,-7.595,-8.263,-1.215,1.54,311.4,298.5,304.3,308.7,299.8,301.1,299.2,,303.0,307.7,1,norm,1.315,1.728,-1.25,-1.98,-5.213,-4.505,-1.314,-1.71,-1.826,-1.846,1.91,-1.704,309.6,296.9,-4.895,-8.213,301.7,-1.877,7.646,5.133,-5.252,-7.758,5,4.376,4.88,4.835,4.721,1.479,2.073,1.634,1.376,5,4.522,4.336,10,195.427656286,norm,0,21,21,21,256.095,256.1,256.102058694,256.102,256.105,256.108,down,1,2.00351800937,7.99648199063,001,012,800_600,Intel(R) Core(TM) i7-2670QM CPU @ 2.20GHz,orientation_search,GRVLAPTOP3,Intel(R) HD Graphics Family,2018_jun_21_1707,testMonitor,
337.8,336.1,331.7,348.6,36,20,343.5,352.8,331.6,329.4,8.047,7.919,8.105,7.668,8.225,7.541,7.686,4.82,-4.505,-8.228,2.062,-1.784,7.514,4.986,-4.628,-8.42,342.6,335.6,-7.773,353.0,318.6,350.8,358.6,349.5,36,327.5,1,5,prime,10,0,78,norm,36,-5.137,down,norm,338.58116483,336.8,343.1,1.635,353.6,1,323.2,332.0,340.0,10,6,7.781,5.259,1.715,-1.523,-4.785,-8.039,345.2,6,416.6,-7.525,-8.311,20,-7.88,-7.886,-4.552,-4.833,-5.044,-4.485,5.093,8.155,7,-1.143,1.47,5.013,8.347,-8.069,-7.721,-1.472,1.731,334.0,347.1,341.3,342.0,326.6,342.6,,330.8,352.6,337.5,0,norm,1.239,1.894,-1.301,-1.966,-4.761,-4.42,-1.705,-1.865,-1.519,-1.904,1.581,-1.943,344.4,349.9,-4.803,-8.038,330.3,-1.597,7.927,4.452,-4.325,-7.789,6,5.23,4.633,4.368,4.783,1.38,1.958,1.466,1.792,6,4.396,4.645,40,195.427656286,norm,0,22,22,22,258.122,258.128,258.129435568,258.13,258.132,258.142,down,1,0.921325748803,9.0786742512,001,012,800_600,Intel(R) Core(TM) i7-2670QM CPU @ 2.20GHz,orientation_search,GRVLAPTOP3,Intel(R) HD Graphics Family,2018_jun_21_1707,testMonitor,
338.4,338.9,345.2,344.8,36,20,343.1,352.5,,352.6,7.718,7.659,8.391,7.823,7.77,8.376,7.918,5.004,-4.666,-8.298,2.031,-1.733,8.102,5.02,-4.438,-8.284,337.1,355.5,-8.347,319.4,345.2,345.6,343.8,330.7,36,332.9,4,5,prime,10,0,64,norm,36,-5.029,up,norm,338.58116483,319.3,333.8,1.576,353.0,4,318.6,327.2,331.5,10,6,8.466,4.486,1.95,-1.811,-4.654,-8.377,319.5,6,402.6,-8.077,-8.183,20,-7.615,-8.076,-4.493,-4.307,-4.603,-4.339,4.325,7.656,28,-1.3,1.491,4.435,7.602,-8.468,-8.203,-1.174,1.489,342.8,346.8,334.9,347.4,349.0,342.7,354.4,358.6,334.4,351.7,1,norm,1.258,1.149,-1.249,-1.229,-4.576,-4.823,-1.475,-1.807,-1.362,-1.662,1.327,-1.147,337.7,327.9,-5.211,-8.042,346.7,-1.149,7.758,4.425,-4.705,-8.405,6,4.406,4.322,5.185,4.84,1.155,1.568,1.634,1.892,6,4.514,4.789,40,195.427656286,norm,0,23,23,23,259.072,259.078,259.079648311,259.08,259.083,259.086,up,1,0.788226949427,9.21177305057,001,012,800_600,Intel(R) Core(TM) i7-2670QM CPU @ 2.20GHz,orientation_search,GRVLAPTOP3,Intel(R) HD Graphics Family,2018_jun_21_1707,testMonitor,
343.1,318.6,325.8,343.6,36,20,341.4,330.6,355.2,338.1,8.067,7.52,8.449,7.772,7.901,7.61,7.896,4.66,-4.993,-8.052,1.352,-1.478,7.702,4.988,-4.863,-7.883,342.6,334.9,-8.373,347.0,344.4,349.8,327.0,346.1,36,323.1,1,5,prime,10,0,100,norm,36,-5.282,up,norm,338.58116483,342.6,346.0,1.456,327.4,4,338.6,349.6,330.9,10,6,7.535,5.164,1.95,-1.992,-5.274,-7.856,,6,438.6,-7.933,-8.401,20,-8.258,-7.593,-4.5,-4.336,-5.084,-4.593,4.717,7.924,10,-1.698,1.501,4.762,7.896,-7.592,-8.075,-1.691,1.113,340.2,348.6,351.8,353.5,347.9,335.1,358.6,332.2,330.8,319.3,2,norm,1.646,1.76,-1.416,-2.061,-5.177,-4.505,-1.864,-1.222,-1.181,-1.542,1.96,-2.079,351.8,352.4,-4.602,-8.013,320.1,-1.729,8.059,4.818,-4.301,-7.557,6,4.332,4.423,4.793,4.777,1.565,1.544,1.383,1.926,6,4.861,4.931,40,195.427656286,norm,0,24,24,24,259.884,259.889,259.890935639,259.891,259.894,259.897,up,1,0.935866605153,9.06413339485,001,012,800_600,Intel(R) Core(TM) i7-2670QM CPU @ 2.20GHz,orientation_search,GRVLAPTOP3,Intel(R) HD Graphics Family,2018_jun_21_1707,testMonitor,
340.1,331.4,334.5,346.5,36,20,318.6,352.0,331.2,358.6,8.259,8.302,7.884,8.055,7.719,8.073,7.917,4.923,-4.557,-8.366,1.905,-2.0,8.406,4.584,-4.327,-7.584,327.0,331.5,-7.691,340.6,331.7,327.9,327.4,341.7,36,354.0,2,5,prime,10,0,72,norm,36,-4.967,down,norm,338.58116483,329.3,346.2,1.689,340.3,0,338.8,347.0,,10,6,7.993,4.825,1.329,-1.854,-5.252,-7.581,325.2,6,410.6,-7.846,-7.988,20,-8.309,-8.004,-4.812,-5.268,-4.952,-4.94,5.012,8.1,12,-2.004,1.395,5.163,8.104,-8.315,-8.022,-1.717,1.553,336.1,322.2,332.0,343.8,344.5,333.2,344.6,341.6,328.1,349.1,3,norm,1.653,1.402,-1.148,-1.773,-4.41,-4.432,-1.492,-1.857,-1.108,-1.337,1.776,-1.327,348.6,318.6,-4.304,-8.131,336.9,-1.308,7.733,4.428,-4.656,-7.894,6,4.458,5.24,4.698,4.996,1.24,2.094,1.87,1.163,6,4.456,4.985,40,195.427656286,norm,0,25,25,25,260.843,260.848,260.849809858,260.85,260.853,260.857,down,1,0.847451287664,9.15254871234,001,012,800_600,Intel(R) Core(TM) i7-2670QM CPU @ 2.20GHz,orientation_search,GRVLAPTOP3,Intel(R) HD Graphics Family,2018_jun_21_1707,testMonitor,
352.8,339.9,352.6,336.8,36,20,336.3,358.6,321.0,336.0,8.234,7.971,8.255,7.981,7.934,8.295,8.471,4.841,-5.144,-7.578,1.275,-1.345,7.923,4.322,-4.551,-7.998,352.5,329.0,-7.639,344.7,337.4,334.3,339.5,352.9,36,327.4,0,5,prime,10,0,93,norm,36,-5.264,down,norm,338.58116483,349.2,345.3,1.677,339.2,0,341.7,332.4,347.9,10,6,7.619,4.58,1.116,-1.407,-5.159,-8.098,338.9,6,431.6,-8.029,-8.296,20,-8.384,-8.013,-4.615,-4.991,-4.842,-4.445,5.084,7.754,0,-1.795,1.584,4.341,7.563,-7.742,-8.443,-1.212,1.168,340.2,338.5,335.4,332.2,318.6,,336.1,328.5,322.7,338.2,4,norm,2.064,1.664,-1.944,-1.906,-5.149,-4.357,-1.658,-1.361,-1.564,-1.886,1.802,-1.691,325.0,335.7,-4.581,-7.939,335.1,-1.303,8.0,5.0,-4.606,-7.888,6,5.251,4.423,4.716,4.311,1.69,1.174,1.458,1.55,6,5.03,5.071,40,195.427656286,norm,0,26,26,26,261.714,261.719,261.72069882,261.721,261.724,261.727,down,1,2.39443170187,7.60556829813,001,012,800_600,Intel(R) Core(TM) i7-2670QM CPU @ 2.20GHz,orientation_search,GRVLAPTOP3,Intel(R) HD Graphics Family,2018_jun_21_1707,testMonitor,
343.3,332.1,332.6,337.5,36,20,345.1,342.4,325.3,339.4,7.56,7.678,8.466,8.042,7.71,8.219,7.9,4.887,-4.865,-7.926,1.17,-1.571,7.922,4.406,-4.436,-8.094,328.9,333.2,-7.943,342.2,358.6,343.3,328.0,343.3,36,330.9,2,5,prime,10,0,73,norm,36,-4.531,up,norm,338.58116483,344.7,,1.216,345.9,4,326.6,320.0,323.4,10,6,7.528,4.571,1.413,-1.207,-4.964,-7.518,354.9,6,411.6,-8.399,-8.221,20,-7.814,-7.683,-4.863,-4.772,-4.828,-5.206,4.414,7.737,16,-1.998,1.444,4.722,7.645,-8.165,-8.135,-1.418,1.4,330.4,332.0,338.6,329.6,343.9,349.1,351.3,332.5,329.1,318.6,5,norm,1.494,1.148,-1.976,-1.873,-5.225,-4.75,-1.966,-1.676,-2.079,-1.219,1.521,-1.665,322.8,337.0,-4.843,-7.949,326.8,-1.752,7.993,4.322,-4.384,-7.699,6,4.564,4.73,5.058,4.596,1.313,1.225,2.012,1.441,6,4.706,5.265,40,195.427656286,norm,0,27,27,27,264.132,264.137,264.138758713,264.139,264.142,264.145,up,1,0.975446778785,9.02455322122,001,012,800_600,Intel(R) Core(TM) i7-2670QM CPU @ 2.20GHz,orientation_search,GRVLAPTOP3,Intel(R) HD Graphics Family,2018_jun_21_1707,testMonitor,
468.6,472.8,471.2,474.7,36,0,461.8,471.2,,472.5,8.158,8.151,8.353,8.062,8.263,7.617,8.024,5.279,-4.745,-7.778,1.167,-1.911,8.184,5.23,-5.001,-8.258,473.2,472.9,-7.699,469.0,468.5,471.5,466.7,474.2,36,468.9,4,5,probe,5,0,113,norm,36,-4.72,up,norm,471.831566014,468.5,471.6,2.056,466.9,4,468.9,471.9,465.0,10,6,8.295,4.517,1.777,-1.971,-4.882,-8.398,476.9,2,358.8,-7.565,-7.822,20,-8.437,-8.0,-5.033,-4.391,-4.988,-5.095,5.077,7.881,28,-1.368,1.899,4.768,8.376,-8.236,-7.651,-1.903,1.88,462.3,474.4,474.0,479.7,464.3,470.1,476.3,470.5,481.8,471.7,0,norm,1.909,1.475,-1.774,-1.207,-4.856,-5.101,-1.3,-1.187,-1.641,-2.028,1.24,-1.467,466.8,471.0,-4.57,-8.011,470.9,-1.786,7.998,4.395,-4.848,-7.724,7,4.886,5.249,5.088,4.413,1.884,1.915,1.794,1.175,7,5.135,5.288,20,338.58116483,norm,0,28,28,28,265.13,265.136,265.137231316,265.138,265.14,265.144,up,1,1.71837200311,8.28162799689,001,012,800_600,Intel(R) Core(TM) i7-2670QM CPU @ 2.20GHz,orientation_search,GRVLAPTOP3,Intel(R) HD Graphics Family,2018_jun_21_1707,testMonitor,
463.8,455.4,460.1,455.5,36,0,469.8,460.0,457.5,468.2,8.231,7.916,8.347,7.694,8.057,8.482,7.825,4.409,-4.378,-8.095,1.308,-1.767,8.433,4.746,-4.974,-8.158,458.5,466.5,-8.383,468.2,457.0,465.4,462.9,457.7,36,462.5,2,5,probe,5,0,101,norm,36,-4.654,up,norm,459.831566014,455.6,461.5,1.267,451.6,3,458.0,463.0,464.5,10,6,7.989,4.347,1.919,-2.083,-4.934,-8.124,456.4,2,358.8,-8.305,-7.939,20,-7.815,-8.06,-5.297,-4.431,-5.204,-4.481,4.971,7.798,15,-1.15,1.614,4.61,7.703,-8.007,-8.17,-2.073,1.671,464.7,456.7,460.2,463.1,459.5,453.9,461.1,461.6,456.5,461.6,1,norm,1.101,1.757,-1.956,-1.512,-5.209,-4.341,-1.257,-1.871,-1.301,-1.516,1.757,-1.782,456.9,449.8,-4.379,-7.655,,-2.003,8.448,4.751,-4.699,-7.791,7,4.728,4.588,5.202,4.981,1.204,1.86,1.542,1.537,7,4.539,4.348,20,338.58116483,norm,0,29,29,29,266.871,266.877,266.878331696,266.879,266.881,266.884,up,1,2.02544696557,7.97455303443,001,012,800_600,Intel(R) Core(TM) i7-2670QM CPU @ 2.20GHz,orientation_search,GRVLAPTOP3,Intel(R) HD Graphics Family,2018_jun_21_1707,testMonitor,
319.1,318.0,319.7,336.1,36,-80,320.3,318.8,335.3,316.5,8.456,8.303,8.473,7.891,7.893,8.215,8.09,5.26,-5.162,-8.266,1.927,-1.485,7.808,4.428,-4.318,-7.706,314.4,336.0,-7.926,339.8,339.6,333.5,331.3,324.6,36,335.3,2,5,prime,10,0,106,norm,36,-4.886,up,norm,326.621026747,333.2,337.9,1.178,330.2,3,332.3,339.5,325.2,10,6,8.218,4.33,1.644,-1.526,-4.451,-8.298,327.4,6,432.6,-7.981,-7.629,-80,-8.017,-8.325,-4.595,-5.213,-4.311,-4.899,4.3,7.658,15,-1.34,1.493,4.395,7.845,-7.53,-7.662,-1.473,1.735,325.7,317.3,321.6,306.6,335.4,309.6,317.9,346.6,318.2,331.1,0,norm,1.149,1.241,-1.788,-1.181,-4.502,-5.198,-1.149,-1.524,-1.596,-1.482,2.059,-1.74,315.6,323.7,-4.661,-7.793,,-1.984,7.654,4.45,-5.225,-8.049,8,5.116,5.082,4.492,4.462,1.181,1.757,1.582,1.39,8,5.077,5.09,0,338.58116483,norm,0,30,30,30,268.92,268.925,268.926533187,268.927,268.929,268.933,up,1,1.25501692231,8.74498307769,001,012,800_600,Intel(R) Core(TM) i7-2670QM CPU @ 2.20GHz,orientation_search,GRVLAPTOP3,Intel(R) HD Graphics Family,2018_jun_21_1707,testMonitor,
317.0,325.5,325.3,309.5,36,-80,343.1,315.0,325.2,319.3,8.317,8.309,7.642,8.129,8.036,7.961,7.835,4.568,-4.375,-7.841,1.155,-1.387,7.617,4.43,-4.388,-8.211,320.8,319.2,-8.327,324.8,331.2,319.8,319.1,,36,316.8,4,5,prime,10,0,100,norm,36,-4.833,down,norm,326.621026747,339.0,313.4,1.433,318.3,2,335.7,329.7,331.0,10,6,7.522,4.998,1.147,-2.041,-5.081,-8.272,330.6,6,426.6,-7.543,-7.791,-80,-7.666,-8.156,-5.288,-4.676,-4.6,-5.291,4.31,8.5,26,-1.651,1.7,4.59,8.022,-7.573,-7.807,-1.549,1.42,317.8,306.6,335.9,316.9,346.6,316.1,340.2,319.6,345.7,321.7,1,norm,1.355,1.16,-1.725,-1.474,-4.636,-5.005,-1.783,-1.183,-1.811,-1.316,1.238,-1.167,346.6,329.6,-4.517,-7.789,326.6,-1.564,8.443,5.182,-4.88,-8.241,8,4.525,5.147,5.104,5.258,1.708,1.407,1.627,1.749,8,4.638,5.057,0,338.58116483,norm,0,31,31,31,270.198,270.203,270.204497953,270.205,270.208,270.211,down,1,0.865388746106,9.13461125389,001,012,800_600,Intel(R) Core(TM) i7-2670QM CPU @ 2.20GHz,orientation_search,GRVLAPTOP3,Intel(R) HD Graphics Family,2018_jun_21_1707,testMonitor,
324.5,328.1,325.0,322.3,36,-80,,320.6,318.7,333.8,8.272,7.72,7.904,8.251,7.548,7.955,8.207,4.655,-4.528,-7.996,2.027,-1.904,8.2,4.694,-4.366,-7.717,337.9,332.3,-7.81,340.2,311.6,332.1,335.5,323.4,36,316.6,4,5,prime,10,0,65,norm,36,-4.345,down,norm,326.621026747,334.3,317.2,1.189,332.1,0,340.5,318.7,332.9,10,6,7.904,4.546,1.379,-1.552,-4.313,-8.407,318.9,6,391.6,-7.669,-7.807,-80,-7.815,-8.18,-4.985,-5.117,-4.782,-4.919,4.961,8.086,24,-1.889,1.842,4.875,7.572,-7.86,-8.496,-1.817,1.575,319.6,322.6,337.9,338.4,325.8,309.7,306.6,331.5,333.6,337.0,2,norm,1.173,1.16,-1.424,-1.319,-4.704,-4.459,-1.763,-1.579,-1.122,-1.583,1.453,-1.928,346.6,323.1,-4.773,-7.626,310.1,-1.104,7.995,4.45,-4.812,-7.562,8,4.42,5.212,4.738,5.192,1.57,1.829,1.846,1.922,8,4.677,4.575,0,338.58116483,norm,0,32,32,32,271.086,271.091,271.093100238,271.093,271.096,271.1,down,1,1.26839507049,8.73160492951,001,012,800_600,Intel(R) Core(TM) i7-2670QM CPU @ 2.20GHz,orientation_search,GRVLAPTOP3,Intel(R) HD Graphics Family,2018_jun_21_1707,testMonitor,
324.5,326.8,308.4,338.6,36,-80,329.6,306.6,327.7,326.6,7.716,7.518,8.474,8.452,8.32,7.861,7.52,4.772,-4.615,-7.559,1.625,-1.248,7.904,4.963,-4.709,-7.572,339.0,337.6,-7.669,335.0,327.9,328.4,,336.5,36,323.9,5,5,prime,10,0,98,norm,36,-5.132,down,norm,326.621026747,308.8,326.0,1.632,323.6,2,328.1,346.6,325.1,10,6,7.94,5.05,1.136,-1.725,-5.15,-7.594,318.2,6,424.6,-8.454,-7.912,-80,-8.477,-8.163,-4.892,-4.922,-5.281,-4.786,4.851,8.279,32,-1.129,1.108,5.113,8.15,-7.951,-8.249,-1.68,1.244,312.6,335.8,337.1,314.9,327.9,331.8,337.5,311.3,326.6,327.3,3,norm,1.36,1.313,-1.212,-1.504,-4.542,-4.564,-1.941,-1.608,-1.802,-1.355,1.389,-1.341,322.1,321.6,-4.989,-8.341,321.6,-1.189,8.298,5.297,-5.134,-7.528,8,4.936,4.364,4.456,4.329,1.232,1.909,1.674,2.073,8,4.618,5.265,0,338.58116483,norm,0,33,33,33,272.381,272.387,272.388697076,272.389,272.392,272.395,down,1,3.85276098829,6.14723901171,001,012,800_600,Intel(R) Core(TM) i7-2670QM CPU @ 2.20GHz,orientation_search,GRVLAPTOP3,Intel(R) HD Graphics Family,2018_jun_21_1707,testMonitor,
325.1,318.4,316.3,324.8,36,-80,321.1,346.6,323.3,340.3,8.396,7.819,8.302,7.576,7.794,8.292,7.528,4.736,-5.101,-7.948,1.139,-1.387,8.119,4.568,-5.25,-7.855,315.5,333.9,-7.644,332.5,,330.1,330.4,333.7,36,344.9,5,5,prime,10,0,114,norm,36,-4.984,down,norm,326.621026747,323.5,315.0,1.865,323.3,0,339.2,325.6,317.0,10,6,8.24,4.992,1.342,-2.083,-4.46,-7.563,327.8,6,440.6,-7.893,-8.255,-80,-8.248,-8.371,-4.674,-4.731,-5.148,-4.938,4.419,7.742,30,-1.156,1.672,4.549,8.429,-7.578,-7.548,-1.117,1.361,333.7,316.7,327.8,318.0,328.4,331.8,316.6,325.5,306.6,320.0,4,norm,1.447,1.535,-1.885,-1.854,-4.987,-4.541,-1.468,-1.14,-1.242,-1.853,1.917,-1.481,323.1,334.4,-5.105,-7.846,330.7,-1.381,7.723,5.037,-5.189,-7.925,8,5.212,4.554,5.183,4.649,1.913,1.366,1.325,1.708,8,5.146,4.869,0,338.58116483,norm,0,34,34,34,276.258,276.264,276.26591556,276.266,276.269,276.272,down,1,1.14537821169,8.85462178831,001,012,800_600,Intel(R) Core(TM) i7-2670QM CPU @ 2.20GHz,orientation_search,GRVLAPTOP3,Intel(R) HD Graphics Family,2018_jun_21_1707,testMonitor,
324.4,316.7,336.0,338.7,36,-80,313.8,312.2,334.4,344.7,8.481,8.248,7.861,7.763,8.13,8.112,7.593,4.871,-5.075,-7.816,1.606,-2.086,7.644,4.975,-4.55,-7.585,346.6,329.9,-8.481,325.4,329.3,326.0,322.4,339.0,36,339.1,1,5,prime,10,0,114,norm,36,-5.065,up,norm,326.621026747,329.0,317.6,1.186,326.9,3,344.6,325.9,315.5,10,6,7.863,5.267,1.944,-1.895,-4.304,-7.647,308.7,6,440.6,-7.518,-7.515,-80,-8.001,-7.618,-4.356,-4.841,-5.04,-5.143,5.154,7.939,9,-1.966,1.707,4.857,7.595,-8.015,-7.995,-1.615,1.864,,306.6,335.7,334.1,321.8,337.4,326.7,331.4,333.7,332.4,5,norm,1.762,1.985,-1.84,-1.259,-4.624,-5.27,-1.693,-1.732,-1.861,-1.814,1.41,-1.754,309.1,316.1,-5.187,-8.258,321.1,-1.979,8.331,4.752,-5.099,-7.908,8,4.37,4.637,4.464,4.838,1.662,1.347,1.606,1.233,8,5.042,5.134,0,338.58116483,norm,0,35,35,35,277.428,277.434,277.435211006,277.435,277.438,277.442,up,1,1.396692212,8.603307788,001,012,800_600,Intel(R) Core(TM) i7-2670QM CPU @ 2.20GHz,orientation_search,GRVLAPTOP3,Intel(R) HD Graphics Family,2018_jun_21_1707,testMonitor,
320.0,309.8,314.1,324.6,36,30,327.3,313.2,311.5,,7.922,8.363,8.086,8.473,8.211,8.272,8.298,5.224,-4.34,-7.555,1.638,-1.712,7.728,5.243,-4.978,-7.632,309.8,323.2,-8.16,315.2,320.3,311.5,307.3,315.1,36,324.2,4,5,probe,5,0,79,norm,36,-5.167,up,norm,317.3024208,312.7,312.9,1.715,311.1,5,318.8,322.8,319.2,10,6,7.698,4.88,1.133,-1.27,-5.128,-7.996,319.2,2,238.3,-7.871,-8.099,-80,-7.929,-8.454,-4.359,-4.696,-4.761,-4.398,4.401,8.45,29,-1.85,1.751,4.644,8.214,-7.571,-7.635,-1.889,1.619,310.3,319.7,318.2,311.8,315.7,316.8,310.7,318.9,323.6,313.5,0,norm,1.581,1.459,-1.892,-1.712,-4.985,-4.879,-1.859,-1.913,-2.057,-1.635,1.108,-1.921,313.0,312.3,-4.591,-8.019,314.7,-1.272,8.395,4.95,-4.552,-7.779,9,5.192,5.042,5.215,4.991,1.582,1.942,1.561,1.115,9,4.346,5.091,-80,326.621026747,norm,0,36,36,36,278.849,278.854,278.856010501,278.856,278.859,278.862,up,1,1.47784177083,8.52215822917,001,012,800_600,Intel(R) Core(TM) i7-2670QM CPU @ 2.20GHz,orientation_search,GRVLAPTOP3,Intel(R) HD Graphics Family,2018_jun_21_1707,testMonitor,
327.7,325.6,330.3,318.4,36,30,322.0,315.2,315.3,319.2,7.901,8.141,7.864,7.766,8.294,8.219,7.656,4.886,-5.08,-7.878,1.495,-1.892,7.677,4.85,-5.03,-7.782,318.5,321.1,-7.845,319.3,319.8,326.5,317.4,314.7,36,319.4,0,5,probe,5,0,82,norm,36,-4.408,down,norm,320.3024208,327.1,328.3,1.889,320.3,0,314.8,320.3,314.9,10,6,7.535,5.126,1.719,-1.615,-5.28,-8.131,310.3,2,238.3,-7.682,-7.704,-80,-7.708,-8.488,-4.623,-4.818,-4.486,-4.313,4.447,7.974,0,-1.563,1.195,4.473,8.357,-8.055,-7.771,-1.514,1.862,328.0,318.1,325.3,317.3,328.6,,319.8,318.3,316.8,324.4,1,norm,2.079,1.53,-1.883,-1.969,-4.422,-5.259,-1.72,-1.922,-1.748,-1.382,1.44,-1.261,318.7,329.0,-5.046,-7.713,320.7,-1.107,8.325,4.485,-4.427,-8.418,9,4.424,5.025,5.112,4.442,1.827,1.547,1.64,1.174,9,5.176,5.119,-80,326.621026747,norm,0,37,37,37,280.35,280.355,280.357024252,280.357,280.36,280.364,down,1,1.20312464979,8.79687535021,001,012,800_600,Intel(R) Core(TM) i7-2670QM CPU @ 2.20GHz,orientation_search,GRVLAPTOP3,Intel(R) HD Graphics Family,2018_jun_21_1707,testMonitor,
145.6,150.6,137.3,147.7,36,30,141.6,141.8,146.1,152.5,7.948,8.403,7.898,7.898,7.958,7.502,8.161,4.47,-4.462,-8.094,1.105,-1.639,7.864,4.948,-4.566,-8.191,146.8,133.6,-8.279,145.3,147.0,146.0,145.9,143.8,36,146.8,1,5,prime,10,0,104,norm,36,-5.099,down,norm,145.036928786,165.0,146.4,1.577,162.7,0,144.9,142.7,137.9,10,5,7.658,4.635,1.159,-1.793,-5.077,-7.631,163.0,5,249.0,-7.851,-7.565,30,-8.03,-8.236,-4.94,-4.453,-4.632,-4.928,5.068,7.967,6,-1.153,1.726,4.415,7.881,-7.862,-7.636,-1.691,2.007,151.3,136.2,125.0,152.0,126.7,143.4,142.3,,138.4,131.6,0,norm,1.418,1.665,-1.665,-1.463,-5.168,-4.549,-1.906,-1.291,-1.626,-2.065,1.481,-1.238,151.7,142.8,-5.166,-7.535,153.2,-1.492,8.239,4.921,-5.039,-7.914,10,4.718,4.627,5.094,4.999,1.832,2.021,1.403,1.646,10,4.603,4.645,30,326.621026747,norm,0,38,38,38,281.577,281.583,281.584482189,281.585,281.587,281.591,down,1,1.81380232654,8.18619767346,001,012,800_600,Intel(R) Core(TM) i7-2670QM CPU @ 2.20GHz,orientation_search,GRVLAPTOP3,Intel(R) HD Graphics Family,2018_jun_21_1707,testMonitor,
149.7,152.0,152.5,156.9,36,30,,147.4,160.3,138.6,8.27,8.209,8.0,8.437,7.886,7.977,8.011,4.514,-4.995,-8.039,1.319,-1.419,7.523,4.993,-4.903,-8.458,144.3,151.5,-8.457,131.0,143.5,139.2,147.2,149.9,36,136.7,4,5,prime,10,0,72,norm,36,-4.368,down,norm,145.036928786,152.6,152.5,1.692,148.7,0,125.0,165.0,159.0,10,5,7.553,4.673,1.965,-1.876,-4.352,-8.08,156.2,5,217.0,-8.284,-7.623,30,-7.921,-8.218,-4.867,-5.028,-5.096,-5.123,5.077,7.94,24,-1.336,1.267,4.488,7.997,-7.753,-8.045,-1.492,1.796,150.1,129.6,145.6,138.4,129.5,151.1,154.9,151.3,128.9,139.1,1,norm,1.16,1.354,-1.439,-1.747,-5.064,-5.09,-1.558,-1.603,-1.907,-1.711,1.528,-1.6,150.3,127.4,-4.56,-7.91,149.6,-1.162,7.501,4.837,-4.745,-8.066,10,4.558,4.958,4.754,4.849,1.564,1.876,1.847,1.672,10,4.527,5.114,30,326.621026747,norm,0,39,39,39,283.415,283.42,283.421973877,283.422,283.425,283.428,down,1,1.04389713628,8.95610286372,001,012,800_600,Intel(R) Core(TM) i7-2670QM CPU @ 2.20GHz,orientation_search,GRVLAPTOP3,Intel(R) HD Graphics Family,2018_jun_21_1707,testMonitor,
149.0,160.3,150.5,143.8,36,30,156.5,152.8,160.0,150.0,8.126,8.019,7.931,7.621,7.659,8.018,7.957,4.37,-4.976,-8.107,1.905,-1.999,7.536,5.042,-5.074,-8.12,139.9,142.5,-8.03,151.7,145.5,143.6,165.0,155.5,36,148.8,1,5,prime,10,0,92,norm,36,-5.052,up,norm,145.036928786,145.4,153.6,1.76,134.1,5,,138.9,139.8,10,5,8.126,4.33,1.533,-1.992,-5.148,-8.104,152.0,5,237.0,-8.069,-7.568,30,-8.397,-8.28,-5.173,-4.919,-5.189,-4.472,5.019,8.477,11,-2.001,1.493,4.538,7.882,-8.138,-7.67,-1.664,1.695,145.9,150.8,125.0,147.6,133.7,146.4,146.7,147.8,145.1,158.2,2,norm,1.626,1.179,-1.669,-1.575,-4.527,-4.535,-1.864,-1.638,-2.075,-2.018,1.589,-1.402,154.0,149.7,-4.417,-7.694,136.7,-1.279,8.195,4.491,-5.021,-8.153,10,4.6,4.883,4.703,4.437,1.887,1.736,1.781,1.771,10,5.025,4.878,30,326.621026747,norm,0,40,40,40,284.482,284.488,284.489591194,284.49,284.493,284.496,up,1,1.03456138352,8.96543861648,001,012,800_600,Intel(R) Core(TM) i7-2670QM CPU @ 2.20GHz,orientation_search,GRVLAPTOP3,Intel(R) HD Graphics Family,2018_jun_21_1707,testMonitor,
142.0,143.0,145.0,150.1,36,30,153.1,148.9,151.2,158.2,7.716,7.638,8.244,7.574,7.961,7.561,7.999,4.908,-4.705,-8.158,1.265,-2.006,8.226,4.987,-4.564,-7.762,134.2,142.0,-7.878,152.1,132.5,146.8,146.9,146.8,36,146.5,1,5,prime,10,0,71,norm,36,-4.872,down,norm,145.036928786,149.9,161.4,1.173,144.2,0,134.6,151.7,147.9,10,5,7.92,4.782,1.687,-1.972,-5.183,-8.142,147.7,5,216.0,-8.028,-7.563,30,-8.288,-8.439,-4.962,-4.943,-4.576,-4.407,4.954,7.636,6,-1.124,2.043,4.334,8.18,-7.52,-8.461,-1.335,1.248,150.8,148.3,139.9,134.2,147.8,163.8,127.4,,125.0,165.0,3,norm,1.41,1.837,-1.963,-1.113,-4.816,-4.695,-1.289,-1.46,-1.385,-1.239,1.269,-1.921,131.2,160.7,-4.36,-8.35,141.1,-1.459,7.912,5.113,-4.631,-7.946,10,4.593,4.683,4.803,4.807,2.066,1.116,1.652,1.325,10,4.648,4.57,30,326.621026747,norm,0,41,41,41,285.541,285.546,285.54805767,285.548,285.551,285.555,down,1,0.993932437783,9.00606756222,001,012,800_600,Intel(R) Core(TM) i7-2670QM CPU @ 2.20GHz,orientation_search,GRVLAPTOP3,Intel(R) HD Graphics Family,2018_jun_21_1707,testMonitor,
161.6,130.8,150.3,135.5,36,30,152.9,160.2,146.4,146.9,7.502,7.847,7.845,8.499,8.35,7.834,7.712,4.489,-4.363,-7.537,1.52,-1.231,8.291,4.915,-4.851,-8.236,150.0,132.2,-8.411,148.9,149.3,165.0,125.0,142.4,36,153.9,0,5,prime,10,0,93,norm,36,-4.899,up,norm,145.036928786,149.5,144.9,1.856,160.8,5,147.4,138.2,144.2,10,5,8.417,4.409,2.051,-1.739,-5.144,-7.652,147.3,5,238.0,-8.267,-8.336,30,-8.051,-7.878,-4.994,-4.395,-4.776,-5.251,4.78,7.998,5,-1.241,1.328,5.143,7.88,-8.225,-7.714,-1.856,1.992,148.8,144.3,143.7,156.1,133.8,157.9,152.1,143.2,,152.9,4,norm,1.686,2.03,-1.87,-1.957,-4.322,-4.62,-1.869,-1.832,-1.545,-1.863,1.632,-1.181,135.5,153.9,-4.666,-8.093,137.9,-1.204,7.833,4.321,-4.441,-7.864,10,4.534,4.539,5.128,4.866,1.561,1.545,2.005,1.242,10,4.321,4.464,30,326.621026747,norm,0,42,42,42,286.559,286.565,286.567118613,286.567,286.57,286.574,up,1,1.27490483537,8.72509516463,001,012,800_600,Intel(R) Core(TM) i7-2670QM CPU @ 2.20GHz,orientation_search,GRVLAPTOP3,Intel(R) HD Graphics Family,2018_jun_21_1707,testMonitor,
278.2,277.6,283.7,280.5,36,-30,282.2,278.8,270.8,286.5,7.873,7.943,8.47,8.174,8.004,7.507,8.085,4.888,-4.583,-7.604,1.532,-1.574,8.397,5.059,-4.437,-8.165,276.7,273.5,-7.652,,272.8,269.7,271.5,279.6,36,279.3,5,5,probe,5,0,102,norm,36,-4.746,down,norm,277.421697189,269.7,275.5,1.839,277.5,1,286.4,272.9,270.2,10,5,8.291,5.028,2.07,-1.817,-5.21,-7.848,279.1,2,175.4,-7.579,-7.685,30,-8.111,-7.882,-4.881,-4.336,-4.712,-5.213,4.864,7.538,31,-1.875,1.674,4.977,7.795,-8.337,-7.784,-1.162,2.036,278.3,267.4,282.2,280.4,276.3,278.7,276.9,281.7,277.0,276.9,0,norm,1.849,1.922,-1.725,-2.082,-4.774,-4.984,-1.153,-1.526,-1.507,-1.927,1.914,-1.931,283.0,268.3,-4.633,-8.418,287.4,-1.981,7.777,5.031,-4.932,-7.603,11,4.591,4.961,4.912,4.675,1.283,1.883,1.904,1.107,11,4.678,5.06,30,145.036928786,norm,0,43,43,43,287.86,287.865,287.866944627,287.867,287.87,287.874,down,1,0.946077891174,9.05392210883,001,012,800_600,Intel(R) Core(TM) i7-2670QM CPU @ 2.20GHz,orientation_search,GRVLAPTOP3,Intel(R) HD Graphics Family,2018_jun_21_1707,testMonitor,
260.3,266.6,262.7,,36,-30,260.5,265.3,268.0,270.5,7.773,7.53,8.244,7.921,7.804,7.717,8.359,4.717,-5.063,-8.004,1.942,-1.589,7.596,4.343,-4.907,-7.572,266.3,259.8,-8.122,266.8,255.6,255.4,275.4,266.9,36,266.3,3,5,probe,5,0,90,norm,36,-5.092,up,norm,265.421697189,264.2,255.7,1.354,266.3,3,260.4,263.7,263.2,10,5,7.615,4.359,2.047,-1.147,-5.024,-7.775,255.9,2,175.4,-7.871,-8.024,30,-7.889,-7.732,-4.886,-4.906,-5.03,-5.063,4.628,7.856,21,-1.414,1.362,4.451,8.387,-7.823,-7.54,-1.531,1.752,256.5,267.2,264.8,262.9,257.9,261.8,267.5,269.7,266.3,258.8,1,norm,1.794,1.859,-1.99,-1.457,-4.322,-4.376,-1.437,-1.824,-1.203,-1.188,1.914,-1.115,263.6,256.5,-4.66,-8.363,270.5,-1.75,8.012,4.456,-4.67,-8.271,11,4.666,5.089,5.111,4.765,1.223,1.245,1.805,2.03,11,4.601,4.569,30,145.036928786,norm,0,44,44,44,288.831,288.837,288.839061111,288.839,288.844,288.848,up,1,1.12276143657,8.87723856343,001,012,800_600,Intel(R) Core(TM) i7-2670QM CPU @ 2.20GHz,orientation_search,GRVLAPTOP3,Intel(R) HD Graphics Family,2018_jun_21_1707,testMonitor,
161.9,140.2,170.7,164.3,36,60,159.0,134.3,160.9,162.9,7.585,7.79,7.657,8.013,8.265,8.089,8.156,4.301,-5.256,-8.208,1.574,-1.209,8.044,5.048,-5.193,-7.819,160.5,145.6,-7.824,147.9,150.5,146.4,170.0,161.9,36,155.0,1,5,prime,10,0,94,norm,36,-4.959,down,norm,154.289004122,164.2,174.3,1.306,149.9,0,171.4,144.7,145.6,10,6,7.79,4.996,1.819,-2.017,-4.945,-7.989,149.6,6,248.3,-7.854,-8.189,60,-7.978,-8.169,-5.197,-4.843,-5.225,-4.384,4.627,8.339,6,-1.328,2.046,4.309,8.093,-7.723,-7.969,-1.863,1.58,168.0,155.4,164.8,149.9,148.8,152.8,159.0,,166.4,151.3,0,norm,1.311,1.509,-1.613,-1.382,-4.394,-4.901,-1.149,-1.313,-1.236,-1.921,2.044,-1.528,134.5,166.3,-4.864,-8.358,156.9,-1.918,7.524,5.072,-4.738,-8.049,12,4.475,4.77,4.678,5.122,1.995,2.048,1.741,1.996,12,4.884,4.974,-30,145.036928786,norm,0,45,45,45,289.981,289.987,289.988722198,289.989,289.992,289.996,down,1,1.01009034569,8.98990965431,001,012,800_600,Intel(R) Core(TM) i7-2670QM CPU @ 2.20GHz,orientation_search,GRVLAPTOP3,Intel(R) HD Graphics Family,2018_jun_21_1707,testMonitor,
168.6,158.4,146.4,,36,60,135.2,148.8,163.0,140.9,7.83,8.485,8.048,7.65,8.062,8.448,8.049,5.055,-4.435,-7.903,1.323,-2.085,8.008,5.167,-5.03,-8.128,174.3,155.7,-7.726,162.6,166.9,148.2,158.2,147.8,36,160.9,3,5,prime,10,0,115,norm,36,-4.87,up,norm,154.289004122,141.4,140.6,1.8,152.4,3,146.5,156.0,166.4,10,6,7.886,4.376,1.722,-1.766,-5.253,-7.886,139.8,6,269.3,-8.119,-8.021,60,-7.754,-8.001,-4.922,-5.108,-5.07,-4.866,4.678,7.507,21,-2.021,1.41,4.339,7.816,-7.568,-7.575,-1.935,1.907,146.5,143.2,153.3,153.8,146.2,138.2,162.4,146.1,140.9,154.6,1,norm,1.25,1.567,-1.965,-1.179,-5.046,-4.587,-1.284,-1.851,-2.02,-1.694,1.358,-1.873,150.1,165.3,-5.227,-7.651,134.3,-1.226,7.611,4.913,-4.785,-7.96,12,4.575,5.296,5.14,5.246,1.501,1.498,1.68,1.539,12,5.262,4.947,-30,145.036928786,norm,0,46,46,46,291.016,291.022,291.023456353,291.024,291.027,291.03,up,1,1.10377006956,8.89622993044,001,012,800_600,Intel(R) Core(TM) i7-2670QM CPU @ 2.20GHz,orientation_search,GRVLAPTOP3,Intel(R) HD Graphics Family,2018_jun_21_1707,testMonitor,
153.8,157.1,151.6,134.3,36,60,149.0,135.8,150.0,167.7,7.834,8.225,8.402,7.686,8.301,7.662,8.113,4.38,-4.885,-7.639,1.566,-1.744,8.091,5.139,-4.637,-7.845,166.4,162.2,-8.07,150.3,168.5,168.1,139.6,163.8,36,147.5,1,5,prime,10,0,92,norm,36,-5.273,down,norm,154.289004122,138.3,161.2,1.298,164.1,1,153.4,151.3,138.0,10,6,7.776,4.989,1.799,-1.163,-4.784,-7.752,142.5,6,246.3,-7.676,-8.123,60,-7.9,-8.046,-4.803,-4.925,-4.542,-4.333,4.826,8.015,7,-1.847,1.192,4.617,7.586,-7.529,-7.754,-1.478,1.178,155.0,163.1,146.3,155.7,148.6,158.8,,155.7,174.3,169.5,2,norm,1.983,2.036,-1.955,-1.532,-4.435,-4.936,-1.86,-2.0,-1.368,-1.601,1.744,-1.112,165.3,167.3,-5.097,-8.219,140.7,-1.638,7.736,4.991,-5.223,-7.811,12,5.204,4.797,4.506,5.264,1.189,1.15,1.328,1.331,12,4.604,4.88,-30,145.036928786,norm,0,47,47,47,292.144,292.15,292.152057947,292.152,292.155,292.159,down,1,0.800950899161,9.19904910084,001,012,800_600,Intel(R) Core(TM) i7-2670QM CPU @ 2.20GHz,orientation_search,GRVLAPTOP3,Intel(R) HD Graphics Family,2018_jun_21_1707,testMonitor,
149.1,163.5,158.8,165.4,36,60,142.8,147.8,153.0,166.2,8.03,7.798,8.195,8.221,7.645,8.005,7.512,4.87,-4.644,-7.62,1.951,-1.687,8.027,4.994,-4.576,-8.009,138.9,160.7,-7.561,154.9,150.2,174.3,157.2,134.3,36,150.4,3,5,prime,10,0,102,norm,36,-5.245,down,norm,154.289004122,148.4,139.4,1.398,167.6,0,162.7,158.7,158.8,10,6,7.837,4.554,1.736,-1.411,-5.041,-7.606,155.7,6,256.3,-8.32,-8.283,60,-7.728,-8.04,-4.559,-4.63,-5.123,-4.606,4.642,8.024,18,-1.473,1.174,4.53,7.733,-8.255,-8.33,-2.025,1.724,157.3,156.1,154.4,171.1,142.6,165.4,145.9,153.0,154.1,153.8,3,norm,1.693,1.443,-1.859,-1.746,-4.615,-5.122,-1.67,-1.908,-1.934,-1.75,1.69,-1.411,150.2,,-4.557,-7.836,154.3,-1.41,7.729,4.626,-4.817,-7.72,12,4.937,4.818,4.389,4.795,1.907,1.914,2.023,1.197,12,4.759,4.643,-30,145.036928786,norm,0,48,48,48,292.97,292.977,292.978532391,292.979,292.982,292.986,down,1,1.05558538854,8.94441461146,001,012,800_600,Intel(R) Core(TM) i7-2670QM CPU @ 2.20GHz,orientation_search,GRVLAPTOP3,Intel(R) HD Graphics Family,2018_jun_21_1707,testMonitor,
159.9,163.4,163.0,165.0,36,60,155.0,,164.5,137.6,8.445,7.681,8.145,7.763,8.276,8.455,8.452,5.037,-4.759,-8.478,1.954,-1.52,7.899,5.13,-4.593,-8.034,167.3,150.4,-7.77,152.0,151.2,168.5,161.2,162.9,36,160.0,4,5,prime,10,0,102,norm,36,-4.478,down,norm,154.289004122,153.9,163.8,2.039,151.2,1,143.2,145.5,161.8,10,6,8.107,4.61,1.167,-1.611,-4.48,-8.202,151.7,6,256.3,-8.121,-7.939,60,-8.076,-7.984,-4.305,-5.249,-4.772,-4.603,5.249,7.813,25,-1.145,1.444,4.775,7.883,-7.559,-7.869,-1.126,1.204,151.6,140.4,154.0,174.3,147.5,157.7,154.8,148.1,134.3,141.1,4,norm,1.929,1.775,-1.677,-1.954,-5.245,-5.21,-1.692,-1.326,-1.389,-1.127,1.983,-1.644,148.7,161.1,-4.325,-7.536,147.4,-1.61,8.234,4.631,-4.378,-8.17,12,4.515,4.45,5.155,4.618,1.158,1.667,1.101,1.525,12,5.156,4.978,-30,145.036928786,norm,0,49,49,49,294.052,294.057,294.05909079,294.059,294.062,294.066,down,1,0.792262340583,9.20773765942,001,012,800_600,Intel(R) Core(TM) i7-2670QM CPU @ 2.20GHz,orientation_search,GRVLAPTOP3,Intel(R) HD Graphics Family,2018_jun_21_1707,testMonitor,
159.3,173.6,153.7,139.7,36,60,150.6,163.4,159.1,157.3,8.076,8.359,7.8,8.1,7.874,7.526,8.21,5.126,-5.063,-7.628,1.282,-1.831,7.585,4.834,-4.347,-8.49,141.9,163.6,-7.67,165.6,139.0,140.1,134.8,134.3,36,153.7,1,5,prime,10,0,98,norm,36,-5.111,down,norm,154.289004122,163.8,174.3,1.173,168.9,2,168.9,151.4,162.4,10,6,7.858,5.216,1.327,-1.621,-5.1,-7.869,152.5,6,252.3,-8.489,-7.944,60,-8.446,-8.123,-4.797,-5.061,-5.242,-4.563,4.773,7.864,8,-1.882,1.484,5.061,8.038,-7.527,-7.82,-2.046,1.319,159.0,,142.6,164.3,151.8,155.6,147.3,156.5,162.0,156.7,5,norm,1.96,2.057,-1.805,-2.082,-4.953,-5.019,-1.145,-1.626,-1.433,-1.379,1.386,-1.529,144.6,164.0,-5.247,-7.585,160.3,-2.085,8.355,5.022,-4.666,-7.829,12,4.549,4.3,4.751,4.75,1.73,1.746,1.33,2.018,12,5.041,5.193,-30,145.036928786,norm,0,50,50,50,294.869,294.875,294.876537203,294.877,294.88,294.884,down,1,0.76836425172,9.23163574828,001,012,800_600,Intel(R) Core(TM) i7-2670QM CPU @ 2.20GHz,orientation_search,GRVLAPTOP3,Intel(R) HD Graphics Family,2018_jun_21_1707,testMonitor,
306.6,293.6,297.4,304.7,36,-80,292.7,301.9,305.8,301.4,7.636,7.641,8.079,8.001,7.667,7.899,7.577,5.088,-4.791,-8.351,1.368,-1.277,7.773,4.395,-4.752,-8.298,312.1,297.7,-8.0,296.9,303.6,301.2,304.4,297.8,36,306.6,3,5,probe,5,0,86,norm,36,-4.615,down,norm,302.691546833,298.2,312.7,1.239,305.6,0,303.6,301.1,303.7,10,6,8.235,4.321,1.785,-1.364,-4.667,-8.347,295.2,1,216.7,-7.671,-8.139,60,-7.707,-8.209,-4.565,-4.382,-5.094,-4.678,5.263,8.129,18,-1.383,1.443,5.295,7.788,-7.5,-7.989,-1.89,1.365,297.0,296.8,297.8,300.5,308.6,305.1,305.7,299.8,305.9,308.5,0,norm,1.544,1.963,-1.938,-1.675,-5.159,-4.997,-1.431,-1.892,-1.394,-1.112,1.975,-1.168,302.9,,-5.232,-8.1,298.5,-1.791,7.559,5.099,-4.674,-8.165,13,4.786,4.951,4.829,4.875,1.977,2.067,1.559,2.074,13,4.366,4.976,60,154.289004122,norm,0,51,51,51,295.663,295.669,295.670983941,295.671,295.674,295.678,down,1,1.06333350766,8.93666649234,001,012,800_600,Intel(R) Core(TM) i7-2670QM CPU @ 2.20GHz,orientation_search,GRVLAPTOP3,Intel(R) HD Graphics Family,2018_jun_21_1707,testMonitor,
237.8,209.3,201.0,223.5,36,-10,203.8,222.4,219.5,233.4,7.853,7.592,8.009,8.409,8.252,7.638,8.15,4.89,-4.9,-7.731,1.793,-1.491,8.278,5.045,-5.124,-7.634,208.9,228.3,-8.217,220.8,217.8,214.8,208.0,225.7,36,,4,5,prime,10,0,82,norm,36,-4.317,up,norm,221.037746807,214.4,217.4,1.715,235.1,3,228.0,240.9,216.3,10,5,7.793,4.537,1.355,-1.345,-4.608,-7.561,234.1,5,303.0,-7.863,-8.109,-10,-8.473,-8.055,-4.501,-4.977,-4.82,-4.594,4.52,8.313,27,-1.497,1.784,4.724,8.263,-8.403,-7.625,-1.1,1.279,233.0,220.0,237.8,222.5,212.4,237.7,241.0,230.2,228.5,211.8,0,norm,1.768,1.721,-1.891,-1.601,-4.793,-5.215,-1.216,-1.446,-1.302,-1.843,1.405,-1.872,221.4,216.0,-5.018,-7.853,226.9,-1.25,8.365,4.763,-4.632,-8.444,14,4.417,5.015,4.546,4.79,1.907,1.163,1.37,1.763,14,5.051,4.991,-80,154.289004122,norm,0,52,52,52,296.752,296.758,296.759304934,296.76,296.762,296.766,down,0,0.897586890255,-10,001,012,800_600,Intel(R) Core(TM) i7-2670QM CPU @ 2.20GHz,orientation_search,GRVLAPTOP3,Intel(R) HD Graphics Family,2018_jun_21_1707,testMonitor,
222.0,201.0,222.1,213.7,36,-10,220.3,228.0,216.7,241.0,7.908,8.4,8.469,8.251,8.098,7.959,7.843,5.015,-4.713,-8.138,1.535,-1.666,8.419,4.357,-5.032,-7.685,221.3,237.4,-8.418,227.2,226.6,218.2,218.6,205.6,36,213.6,1,5,prime,10,0,118,norm,36,-5.276,up,norm,221.037746807,220.6,223.1,1.51,237.8,3,225.2,217.3,216.9,10,5,8.433,4.978,1.269,-2.063,-5.067,-7.852,223.8,5,339.0,-7.734,-8.05,-10,-7.976,-7.788,-4.589,-5.191,-4.497,-4.772,4.877,7.848,9,-1.291,1.401,4.404,8.433,-8.043,-8.477,-1.213,1.357,,208.5,233.7,225.5,216.3,221.0,232.8,211.9,229.5,211.9,1,norm,1.594,1.601,-1.683,-1.744,-4.557,-5.083,-1.309,-1.699,-1.639,-1.223,1.769,-1.491,224.6,221.2,-4.835,-8.137,219.4,-1.245,8.16,4.452,-4.775,-7.708,14,5.076,4.698,5.213,5.032,1.98,1.921,1.484,1.634,14,5.1,4.344,-80,154.289004122,norm,0,53,53,53,298.68,298.685,298.687094686,298.687,298.69,298.694,up,1,2.04644248657,7.95355751343,001,012,800_600,Intel(R) Core(TM) i7-2670QM CPU @ 2.20GHz,orientation_search,GRVLAPTOP3,Intel(R) HD Graphics Family,2018_jun_21_1707,testMonitor,
206.7,216.7,238.5,212.4,36,-10,224.5,225.8,206.5,231.9,7.836,8.462,7.674,7.952,7.628,7.547,8.08,4.847,-4.619,-7.738,1.64,-1.155,7.861,5.227,-5.197,-8.441,201.6,,-8.359,207.0,203.3,241.0,214.2,207.9,36,214.5,5,5,prime,10,0,98,norm,36,-5.263,up,norm,221.037746807,209.6,220.5,1.863,227.7,4,201.0,223.5,224.4,10,5,8.204,4.721,1.745,-1.486,-5.231,-8.044,214.0,5,319.0,-8.248,-8.339,-10,-7.757,-8.325,-5.271,-4.697,-4.622,-5.122,4.824,7.759,34,-1.316,1.598,5.018,7.857,-7.721,-7.603,-1.442,1.342,219.9,218.4,201.6,226.0,220.0,227.8,229.0,218.3,231.7,220.9,2,norm,1.973,1.823,-1.638,-1.166,-4.359,-4.473,-1.198,-1.729,-1.838,-1.622,1.694,-1.816,238.4,211.0,-4.782,-8.49,235.4,-1.233,8.186,5.017,-4.404,-8.213,14,5.129,5.106,4.525,4.865,1.159,1.515,2.048,1.989,14,4.608,5.262,-80,154.289004122,norm,0,54,54,54,300.75,300.756,300.758290249,300.759,300.761,300.765,up,1,0.842447906938,9.15755209306,001,012,800_600,Intel(R) Core(TM) i7-2670QM CPU @ 2.20GHz,orientation_search,GRVLAPTOP3,Intel(R) HD Graphics Family,2018_jun_21_1707,testMonitor,
221.8,222.4,201.0,214.0,36,-10,225.2,237.3,214.6,225.9,7.501,7.869,7.515,8.179,7.657,7.855,8.085,4.405,-4.425,-8.134,1.137,-1.259,7.947,4.994,-4.804,-8.363,207.0,238.8,-8.464,220.8,,224.1,220.4,235.7,36,226.1,5,5,prime,10,0,97,norm,36,-4.579,down,norm,221.037746807,216.6,212.4,1.885,235.9,0,220.3,224.3,223.7,10,5,8.289,4.975,1.454,-1.489,-4.785,-8.102,240.0,5,318.0,-8.368,-8.407,-10,-7.866,-8.294,-4.518,-4.529,-4.954,-4.791,5.112,8.351,30,-1.278,1.238,4.527,7.826,-8.019,-7.947,-1.888,1.894,232.9,238.9,236.5,232.5,240.3,224.1,220.2,224.5,241.0,214.9,3,norm,1.383,1.885,-1.6,-1.624,-4.66,-5.192,-1.51,-1.642,-1.181,-1.98,1.578,-1.592,214.3,212.6,-4.647,-8.048,231.0,-1.203,7.821,4.711,-4.61,-7.651,14,4.35,5.23,4.82,4.493,1.716,1.612,1.151,1.793,14,5.144,5.174,-80,154.289004122,norm,0,55,55,55,301.617,301.622,301.624095983,301.624,301.627,301.631,down,1,0.84876622188,9.15123377812,001,012,800_600,Intel(R) Core(TM) i7-2670QM CPU @ 2.20GHz,orientation_search,GRVLAPTOP3,Intel(R) HD Graphics Family,2018_jun_21_1707,testMonitor,
225.1,206.0,230.7,,36,-10,241.0,230.4,201.0,228.9,8.405,7.917,8.099,8.047,7.769,8.43,7.927,5.178,-4.796,-7.708,1.777,-1.736,8.022,5.16,-5.246,-7.937,235.8,205.8,-7.907,240.9,216.1,227.7,220.8,225.1,36,224.2,3,5,prime,10,0,66,norm,36,-4.374,up,norm,221.037746807,216.2,212.1,1.439,216.0,3,212.4,207.7,229.3,10,5,8.437,5.133,1.411,-1.915,-4.402,-8.396,226.8,5,287.0,-8.101,-7.574,-10,-8.139,-7.691,-5.202,-4.837,-4.986,-5.106,4.548,7.613,21,-1.14,1.613,4.544,7.975,-7.937,-8.298,-1.502,1.556,209.5,217.6,226.3,224.9,219.0,220.6,227.3,216.2,206.7,228.3,4,norm,1.894,1.525,-1.314,-1.644,-4.33,-5.229,-1.387,-1.786,-1.539,-1.836,1.353,-1.861,227.5,225.2,-5.041,-8.339,230.3,-1.874,7.846,5.27,-5.017,-8.186,14,5.269,4.948,4.705,4.925,1.286,1.359,1.97,1.345,14,4.437,4.343,-80,154.289004122,norm,0,56,56,56,302.489,302.496,302.497222108,302.498,302.5,302.504,up,1,1.83679359642,8.16320640358,001,012,800_600,Intel(R) Core(TM) i7-2670QM CPU @ 2.20GHz,orientation_search,GRVLAPTOP3,Intel(R) HD Graphics Family,2018_jun_21_1707,testMonitor,
306.0,,301.3,304.5,36,-20,302.4,309.0,306.6,307.7,8.132,7.605,8.077,8.333,8.442,8.271,8.408,4.56,-5.153,-7.831,1.477,-1.386,8.269,5.104,-4.367,-8.099,312.4,307.9,-8.118,305.7,306.2,307.5,308.5,312.7,36,316.7,3,5,probe,5,0,101,norm,36,-5.29,up,norm,309.140424867,309.2,309.4,2.068,309.4,5,302.7,311.5,315.7,10,5,8.204,4.75,1.973,-1.182,-4.478,-7.881,308.2,2,208.1,-8.185,-7.827,-10,-7.888,-7.57,-4.511,-4.446,-5.194,-4.562,4.976,8.217,23,-2.034,1.184,4.398,8.466,-7.961,-7.864,-1.522,1.644,308.6,305.7,310.1,299.1,314.3,318.0,314.2,319.1,311.8,316.1,0,norm,1.148,1.245,-1.503,-1.162,-4.597,-4.808,-1.886,-1.717,-1.733,-1.398,1.776,-1.612,311.9,315.8,-4.837,-7.638,302.8,-1.209,8.282,5.021,-5.068,-7.957,15,5.254,4.65,4.467,5.15,1.728,2.099,2.03,1.609,15,4.637,4.841,-10,221.037746807,norm,0,57,57,57,304.352,304.358,304.359830628,304.36,304.363,304.366,up,1,1.61005990048,8.38994009952,001,012,800_600,Intel(R) Core(TM) i7-2670QM CPU @ 2.20GHz,orientation_search,GRVLAPTOP3,Intel(R) HD Graphics Family,2018_jun_21_1707,testMonitor,
305.6,297.2,294.7,304.4,36,-20,304.1,,296.2,296.0,8.126,8.487,7.602,7.826,7.96,7.849,7.831,5.031,-4.707,-8.325,1.652,-1.883,7.922,4.547,-5.136,-7.995,302.2,301.9,-7.888,304.9,304.3,302.7,298.2,305.1,36,300.4,4,5,probe,5,0,94,norm,36,-4.302,down,norm,302.140424867,300.6,297.8,1.785,294.7,1,301.5,305.6,297.1,10,5,7.979,4.76,1.623,-1.471,-4.927,-8.439,303.8,2,208.1,-7.501,-8.476,-10,-8.033,-7.777,-4.67,-4.588,-5.297,-5.003,4.646,7.885,25,-2.03,2.016,4.732,8.42,-8.218,-7.91,-1.861,1.303,305.8,308.0,302.2,312.1,295.8,302.9,311.2,306.3,300.8,306.9,1,norm,1.286,1.505,-1.3,-2.1,-5.141,-4.421,-1.583,-2.016,-1.483,-1.893,1.264,-2.025,292.1,303.0,-4.561,-7.946,303.4,-1.364,7.707,4.929,-4.398,-8.365,15,4.578,5.285,4.359,5.005,1.446,1.737,2.023,1.417,15,4.915,4.301,-10,221.037746807,norm,0,58,58,58,305.987,305.993,305.994616988,305.995,305.998,306.002,down,1,0.864070076281,9.13592992372,001,012,800_600,Intel(R) Core(TM) i7-2670QM CPU @ 2.20GHz,orientation_search,GRVLAPTOP3,Intel(R) HD Graphics Family,2018_jun_21_1707,testMonitor,
189.2,185.0,196.8,183.5,36,40,178.4,177.2,174.2,182.8,7.929,7.73,7.503,7.875,8.155,8.384,7.986,4.766,-4.731,-8.454,1.289,-1.237,7.719,4.333,-4.319,-7.917,175.0,198.3,-8.159,180.6,180.2,172.3,175.6,170.3,36,202.6,2,5,prime,10,0,71,norm,36,-4.706,down,norm,188.970371856,187.1,176.8,1.292,,2,187.4,199.6,187.9,10,5,8.0,4.92,1.471,-2.074,-4.694,-8.229,185.3,5,260.0,-8.498,-8.017,40,-8.257,-7.732,-5.056,-5.224,-4.93,-5.241,4.91,7.664,14,-1.651,2.002,5.22,8.358,-7.522,-7.679,-1.48,1.93,196.4,180.4,203.0,182.7,209.0,196.6,174.8,181.5,185.6,189.4,0,norm,1.935,1.113,-2.008,-1.968,-4.681,-5.292,-2.079,-1.418,-1.966,-1.784,1.579,-1.586,169.0,185.9,-5.111,-8.078,182.4,-1.559,7.712,4.527,-4.82,-7.926,16,5.044,5.032,5.208,4.361,1.331,1.303,1.328,1.224,16,4.39,5.115,-20,221.037746807,norm,0,59,59,59,306.877,306.883,306.885138909,306.886,306.889,306.892,down,1,1.33369630997,8.66630369003,001,012,800_600,Intel(R) Core(TM) i7-2670QM CPU @ 2.20GHz,orientation_search,GRVLAPTOP3,Intel(R) HD Graphics Family,2018_jun_21_1707,testMonitor,
191.6,184.0,209.0,194.9,36,40,202.0,204.5,188.9,,7.719,8.088,8.105,7.885,8.353,8.159,8.173,5.038,-4.393,-7.514,1.273,-2.074,7.63,5.236,-4.592,-7.706,173.0,192.0,-7.859,188.0,179.4,182.9,185.4,185.0,36,202.7,4,5,prime,10,0,96,norm,36,-4.852,up,norm,188.970371856,172.0,169.0,1.696,201.2,5,193.8,197.4,182.8,10,5,8.458,4.786,1.231,-2.008,-5.16,-7.592,194.5,5,285.0,-7.702,-7.736,40,-8.079,-8.089,-4.538,-4.329,-5.193,-4.528,5.289,8.191,29,-1.807,1.98,4.85,8.043,-7.604,-8.428,-2.02,1.634,198.6,179.2,188.7,200.0,197.0,185.3,191.3,189.1,182.4,169.2,1,norm,1.912,1.373,-1.95,-1.942,-4.378,-5.28,-1.756,-1.336,-1.414,-1.351,1.255,-1.442,193.2,204.3,-4.374,-7.591,195.7,-1.939,7.789,5.256,-4.469,-7.745,16,4.557,4.952,4.749,4.323,1.82,1.738,1.913,1.876,16,4.847,4.306,-20,221.037746807,norm,0,60,60,60,308.236,308.242,308.244038903,308.244,308.247,308.251,up,1,1.70437934731,8.29562065269,001,012,800_600,Intel(R) Core(TM) i7-2670QM CPU @ 2.20GHz,orientation_search,GRVLAPTOP3,Intel(R) HD Graphics Family,2018_jun_21_1707,testMonitor,
175.6,199.3,196.0,174.1,36,40,190.8,195.6,194.2,180.5,8.03,7.543,7.614,7.818,7.872,8.088,7.816,5.257,-4.891,-7.684,1.326,-1.556,8.011,5.214,-4.325,-8.301,169.0,189.1,-8.114,195.2,194.4,192.0,174.5,177.8,36,206.2,2,5,prime,10,0,88,norm,36,-4.883,down,norm,188.970371856,184.5,184.5,1.54,,2,185.4,186.2,194.3,10,5,7.579,4.996,1.677,-1.783,-4.447,-8.214,196.1,5,277.0,-8.007,-7.761,40,-7.978,-7.953,-5.274,-4.896,-5.237,-4.937,5.138,7.514,14,-1.43,1.8,4.665,8.159,-7.963,-7.545,-1.399,1.897,186.5,191.0,183.1,209.0,175.5,193.2,199.2,200.0,196.9,187.7,2,norm,1.644,1.888,-2.022,-1.164,-5.296,-5.109,-1.808,-1.706,-1.642,-1.297,1.567,-1.175,192.9,204.5,-4.58,-7.509,198.7,-1.354,7.73,4.994,-4.407,-8.157,16,4.995,4.608,4.348,4.561,1.139,1.277,1.472,1.758,16,5.008,4.387,-20,221.037746807,norm,0,61,61,61,309.967,309.974,309.976269547,309.977,309.98,309.985,down,1,0.902341853011,9.09765814699,001,012,800_600,Intel(R) Core(TM) i7-2670QM CPU @ 2.20GHz,orientation_search,GRVLAPTOP3,Intel(R) HD Graphics Family,2018_jun_21_1707,testMonitor,
173.6,191.3,172.1,178.3,36,40,178.7,187.4,,193.6,8.18,8.231,8.362,7.728,8.307,7.618,7.711,5.183,-5.161,-7.88,1.949,-2.072,8.357,5.204,-4.413,-8.345,194.5,187.5,-8.113,186.1,194.4,180.1,188.8,198.7,36,192.0,4,5,prime,10,0,75,norm,36,-4.571,up,norm,188.970371856,198.7,190.2,1.948,172.2,4,181.2,169.0,180.2,10,5,7.651,4.447,1.194,-1.235,-4.608,-7.716,187.9,5,264.0,-7.711,-7.569,40,-7.734,-8.178,-4.527,-4.946,-4.843,-4.819,5.003,8.278,28,-1.877,1.281,4.776,8.219,-7.687,-8.454,-1.516,1.749,180.1,196.3,198.9,173.7,197.2,189.6,180.2,190.6,209.0,197.0,3,norm,1.451,1.737,-1.692,-1.118,-4.458,-4.444,-1.629,-1.281,-1.879,-1.29,1.664,-1.908,208.9,191.0,-4.696,-8.226,179.4,-1.871,8.025,5.144,-4.806,-7.657,16,4.979,4.549,4.631,5.016,1.275,1.887,1.469,1.8,16,4.603,5.192,-20,221.037746807,norm,0,62,62,62,310.899,310.905,310.907377453,310.908,310.911,310.916,up,1,0.811242033815,9.18875796619,001,012,800_600,Intel(R) Core(TM) i7-2670QM CPU @ 2.20GHz,orientation_search,GRVLAPTOP3,Intel(R) HD Graphics Family,2018_jun_21_1707,testMonitor,
209.0,189.9,185.9,197.0,36,40,181.1,178.5,197.4,191.8,7.861,7.733,7.707,7.559,7.763,8.16,7.817,4.438,-4.553,-8.427,1.38,-1.684,8.406,4.667,-4.855,-7.965,201.1,175.5,-8.169,195.6,180.5,177.7,,189.2,36,172.5,5,5,prime,10,0,110,norm,36,-5.25,down,norm,188.970371856,202.3,182.8,1.486,178.0,2,206.1,182.9,170.8,10,5,7.562,4.744,1.337,-2.068,-4.901,-8.016,188.5,5,299.0,-7.924,-8.346,40,-7.888,-7.853,-4.658,-4.986,-5.133,-4.872,4.606,7.925,32,-1.962,1.151,4.49,7.534,-8.339,-8.205,-1.894,1.803,187.5,184.8,206.1,178.2,187.0,171.7,196.6,193.0,169.0,191.2,4,norm,1.523,1.251,-2.057,-1.893,-5.102,-4.827,-1.846,-2.025,-1.786,-1.972,1.264,-1.749,179.0,192.0,-4.611,-7.988,189.5,-1.209,8.346,4.608,-4.359,-8.165,16,4.829,4.945,4.606,4.338,1.817,2.047,1.467,1.544,16,5.04,4.572,-20,221.037746807,norm,0,63,63,63,311.738,311.745,311.747365462,311.748,311.751,311.756,up,0,0.896088444269,-10,001,012,800_600,Intel(R) Core(TM) i7-2670QM CPU @ 2.20GHz,orientation_search,GRVLAPTOP3,Intel(R) HD Graphics Family,2018_jun_21_1707,testMonitor,
338.8,338.5,342.2,333.9,36,-40,339.1,339.3,342.7,341.9,8.39,7.517,8.12,7.827,8.439,7.931,8.387,4.86,-4.8,-8.281,1.333,-1.103,8.298,5.193,-5.058,-8.496,338.2,342.3,-7.617,341.4,343.8,334.0,345.6,343.5,36,337.7,1,5,probe,5,0,105,norm,36,-5.238,up,norm,340.5590941,335.1,336.3,1.525,341.1,3,346.3,338.4,335.1,10,5,8.016,4.497,1.491,-1.794,-4.713,-7.773,350.6,2,235.6,-8.02,-8.08,40,-8.401,-7.687,-4.549,-5.095,-4.778,-4.838,4.797,7.869,9,-1.351,2.069,5.105,8.466,-7.535,-7.768,-1.83,1.935,,342.0,331.7,333.5,339.7,336.1,330.6,346.8,337.4,336.2,0,norm,1.825,1.78,-1.11,-1.818,-5.194,-5.033,-1.568,-1.417,-1.749,-2.084,2.018,-1.471,341.9,339.4,-4.43,-7.881,336.9,-1.218,7.909,4.831,-4.401,-8.089,17,5.154,5.034,4.653,4.909,1.151,1.514,1.175,1.694,17,5.1,4.443,40,188.970371856,norm,0,64,64,64,313.671,313.678,313.679898037,313.68,313.684,313.688,up,1,0.821629360389,9.17837063961,001,012,800_600,Intel(R) Core(TM) i7-2670QM CPU @ 2.20GHz,orientation_search,GRVLAPTOP3,Intel(R) HD Graphics Family,2018_jun_21_1707,testMonitor,
324.8,,323.6,315.6,36,-40,325.0,317.9,319.9,322.5,7.925,7.519,8.344,8.215,7.59,7.631,7.65,5.145,-4.882,-7.729,1.338,-1.783,8.193,4.472,-5.146,-8.373,329.0,323.2,-8.056,327.0,324.7,327.5,329.6,324.7,36,327.1,3,5,probe,5,0,87,norm,36,-4.43,up,norm,322.5590941,327.3,323.5,1.675,319.6,5,322.8,325.2,321.6,10,5,8.435,4.434,1.777,-1.975,-5.031,-8.451,318.6,2,235.6,-8.369,-8.166,40,-7.687,-8.087,-4.516,-4.953,-4.371,-4.766,5.256,7.862,23,-1.655,1.486,5.213,8.472,-7.793,-7.604,-1.501,2.016,312.6,323.7,330.2,317.7,330.7,332.6,319.6,327.0,320.8,319.4,1,norm,1.924,2.073,-1.454,-1.243,-5.274,-5.186,-1.989,-1.206,-1.239,-1.547,1.515,-2.031,321.1,315.3,-4.776,-8.248,323.4,-1.664,7.939,4.316,-4.48,-8.206,17,4.446,5.022,5.291,4.86,1.663,1.685,1.286,1.16,17,4.635,4.303,40,188.970371856,norm,0,65,65,65,314.522,314.529,314.530657206,314.531,314.535,314.539,up,1,0.79422306813,9.20577693187,001,012,800_600,Intel(R) Core(TM) i7-2670QM CPU @ 2.20GHz,orientation_search,GRVLAPTOP3,Intel(R) HD Graphics Family,2018_jun_21_1707,testMonitor,
215.1,222.8,204.0,203.1,36,20,212.3,195.3,196.9,203.0,7.852,8.158,7.658,7.592,7.625,8.125,7.541,4.388,-4.525,-8.125,1.303,-1.233,7.909,4.494,-5.013,-7.793,200.9,225.6,-8.223,198.1,197.9,197.8,202.7,204.5,36,195.3,1,5,prime,10,0,99,norm,36,-5.006,up,norm,205.645562183,188.2,212.3,1.731,215.3,4,192.8,192.0,223.4,10,5,7.742,4.747,1.139,-1.859,-4.853,-7.988,,5,304.6,-7.911,-8.339,20,-7.954,-8.397,-4.72,-4.798,-4.508,-4.667,4.573,7.755,10,-1.867,1.25,5.174,7.893,-7.669,-7.769,-1.836,1.457,198.8,187.1,201.9,212.7,204.2,213.4,212.4,216.0,185.6,196.2,0,norm,1.37,1.191,-1.124,-1.866,-4.478,-4.802,-1.997,-1.769,-1.645,-1.861,2.021,-1.514,205.2,204.6,-5.205,-7.684,205.7,-1.225,8.329,4.871,-4.83,-7.739,18,4.789,4.554,5.101,4.685,1.257,1.162,1.396,1.124,18,5.114,4.386,-40,188.970371856,norm,0,66,66,66,315.345,378.131,378.132922759,378.133,378.136,378.139,up,1,2.32689096506,7.67310903494,001,012,800_600,Intel(R) Core(TM) i7-2670QM CPU @ 2.20GHz,orientation_search,GRVLAPTOP3,Intel(R) HD Graphics Family,2018_jun_21_1707,testMonitor,
197.1,218.8,194.0,203.4,36,20,225.6,193.9,211.2,204.6,8.245,8.161,7.935,8.291,8.06,8.093,7.83,5.005,-5.019,-8.412,1.723,-1.537,7.66,5.09,-4.733,-8.077,198.6,197.1,-8.434,214.2,,213.3,217.0,192.3,36,210.4,5,5,prime,10,0,73,norm,36,-4.425,down,norm,205.645562183,203.5,210.8,1.78,225.6,0,196.2,187.6,200.7,10,5,7.962,4.517,1.885,-1.786,-5.018,-7.514,211.5,5,278.6,-8.357,-8.44,20,-7.83,-8.446,-4.765,-5.036,-4.606,-4.429,4.642,7.519,30,-1.213,1.654,4.56,8.033,-7.973,-7.768,-1.507,1.458,216.5,205.9,215.0,209.4,201.8,194.5,185.6,198.0,213.4,202.5,1,norm,1.232,1.329,-1.822,-2.015,-4.89,-4.773,-1.733,-1.492,-1.747,-1.292,1.595,-1.132,208.6,207.4,-4.868,-7.542,215.4,-1.244,7.995,4.876,-4.585,-8.037,18,4.547,4.925,4.542,5.218,1.887,1.143,1.23,1.406,18,4.778,4.433,-40,188.970371856,norm,0,67,67,67,380.476,380.482,380.483249998,380.483,380.486,380.489,down,1,0.884960533295,9.1150394667,001,012,800_600,Intel(R) Core(TM) i7-2670QM CPU @ 2.20GHz,orientation_search,GRVLAPTOP3,Intel(R) HD Graphics Family,2018_jun_21_1707,testMonitor,
220.9,216.3,213.8,221.3,36,20,193.8,207.5,209.1,200.2,7.636,8.307,7.72,7.597,8.29,8.479,8.171,4.862,-4.43,-7.755,1.353,-1.487,7.858,4.989,-5.222,-7.915,213.9,217.4,-7.546,201.8,210.0,,210.4,203.4,36,194.3,5,5,prime,10,0,69,norm,36,-4.604,up,norm,205.645562183,192.4,185.6,1.48,195.3,3,217.0,206.6,213.9,10,5,7.818,5.123,1.133,-1.297,-4.887,-7.998,209.0,5,274.6,-8.083,-7.671,20,-8.441,-7.916,-4.34,-4.467,-4.827,-4.677,4.534,7.604,33,-1.971,1.441,4.441,7.555,-7.89,-7.577,-1.689,1.717,200.5,196.6,201.7,209.0,192.0,196.5,212.6,205.8,219.1,197.8,2,norm,1.801,1.704,-1.595,-1.673,-4.728,-5.237,-1.505,-1.474,-1.5,-1.806,1.115,-1.598,202.4,225.6,-5.104,-8.46,216.8,-1.979,8.291,4.37,-4.838,-7.951,18,4.544,4.768,4.866,4.842,1.418,1.118,1.628,1.249,18,4.63,4.533,-40,188.970371856,norm,0,68,68,68,381.384,381.389,381.39051585,381.391,381.394,381.397,up,1,0.995399131097,9.0046008689,001,012,800_600,Intel(R) Core(TM) i7-2670QM CPU @ 2.20GHz,orientation_search,GRVLAPTOP3,Intel(R) HD Graphics Family,2018_jun_21_1707,testMonitor,
196.8,192.5,205.2,189.6,36,20,192.9,201.6,200.9,213.7,7.829,8.308,7.822,7.558,8.184,8.347,7.747,4.517,-5.0,-7.622,1.147,-1.72,8.4,5.223,-4.917,-8.285,204.2,195.7,-7.997,197.8,194.6,,221.3,216.0,36,192.4,5,5,prime,10,0,95,norm,36,-5.009,up,norm,205.645562183,202.0,199.3,1.95,217.5,3,213.2,192.2,208.6,10,5,8.442,4.487,1.49,-1.453,-5.048,-7.821,223.2,5,300.6,-7.815,-7.991,20,-7.829,-8.216,-4.835,-5.266,-4.659,-4.744,4.939,7.907,33,-1.202,1.778,4.322,7.918,-7.891,-8.497,-1.798,1.744,189.6,203.3,185.6,197.2,210.9,190.5,225.6,210.1,207.5,209.9,3,norm,1.93,1.529,-1.488,-1.437,-4.84,-4.906,-1.553,-1.374,-1.746,-1.686,1.511,-1.909,193.3,188.2,-4.648,-7.657,199.9,-1.108,8.373,5.131,-4.304,-7.888,18,4.515,4.553,5.05,4.72,2.081,1.205,1.655,1.207,18,4.407,4.67,-40,188.970371856,norm,0,69,69,69,382.402,382.409,382.411106525,382.412,382.414,382.417,up,1,1.72713854251,8.27286145749,001,012,800_600,Intel(R) Core(TM) i7-2670QM CPU @ 2.20GHz,orientation_search,GRVLAPTOP3,Intel(R) HD Graphics Family,2018_jun_21_1707,testMonitor,
208.4,208.3,196.6,203.0,36,20,213.4,212.5,225.6,201.3,8.472,8.171,8.32,8.221,7.75,7.523,8.026,4.829,-4.347,-8.029,1.621,-1.109,8.217,4.629,-5.274,-7.684,218.2,216.5,-8.441,207.6,212.5,187.7,202.5,206.5,36,214.7,3,5,prime,10,0,105,norm,36,-4.798,down,norm,205.645562183,206.9,201.1,1.587,203.7,1,192.8,215.0,200.9,10,5,7.652,4.73,1.449,-1.642,-5.286,-7.637,204.9,5,310.6,-7.86,-8.284,20,-7.853,-7.565,-5.165,-4.447,-4.346,-4.967,4.885,8.077,19,-1.132,1.918,5.05,7.981,-8.338,-8.121,-1.86,1.604,189.6,185.6,196.8,194.1,196.7,198.4,207.7,200.6,203.8,198.7,4,norm,1.797,1.206,-1.62,-1.267,-5.103,-5.148,-2.081,-1.135,-1.746,-1.96,1.554,-1.208,,213.8,-4.895,-7.841,187.9,-1.373,7.891,4.458,-4.333,-8.292,18,4.567,4.465,4.815,4.925,1.554,1.91,1.69,2.037,18,4.766,4.826,-40,188.970371856,norm,0,70,70,70,384.155,384.159,384.161069635,384.161,384.164,384.167,down,1,0.712227393965,9.28777260604,001,012,800_600,Intel(R) Core(TM) i7-2670QM CPU @ 2.20GHz,orientation_search,GRVLAPTOP3,Intel(R) HD Graphics Family,2018_jun_21_1707,testMonitor,
334.5,334.4,335.4,336.3,36,-30,333.1,331.5,339.5,337.2,8.328,7.594,8.386,7.814,7.564,7.508,8.214,5.119,-4.871,-7.881,1.745,-1.55,8.103,4.841,-4.606,-8.075,342.9,338.1,-7.574,332.0,332.7,342.4,328.9,342.5,36,335.8,2,5,probe,5,0,111,norm,36,-4.649,down,norm,337.413313727,334.3,328.7,1.388,,2,333.3,336.3,343.8,10,5,7.699,5.142,1.251,-1.708,-5.264,-8.445,328.7,1,226.4,-8.03,-7.749,20,-7.864,-8.029,-5.023,-4.877,-4.87,-4.974,4.496,7.602,14,-2.092,1.821,4.981,8.229,-8.283,-8.413,-1.396,1.74,330.6,333.9,337.4,332.2,328.1,346.4,337.6,347.4,343.4,336.6,0,norm,1.529,1.135,-1.701,-1.345,-4.978,-5.279,-1.507,-1.989,-1.459,-1.722,1.738,-1.966,327.4,342.2,-4.959,-7.634,341.4,-1.933,7.574,4.391,-4.843,-7.717,19,4.751,5.112,4.541,4.333,1.882,1.543,1.734,1.325,19,5.228,4.716,20,205.645562183,norm,0,71,71,71,384.889,384.894,384.895338054,384.896,384.898,384.902,down,1,1.10555055399,8.89444944601,001,012,800_600,Intel(R) Core(TM) i7-2670QM CPU @ 2.20GHz,orientation_search,GRVLAPTOP3,Intel(R) HD Graphics Family,2018_jun_21_1707,testMonitor,
225.4,237.7,246.0,230.2,36,-60,235.3,237.6,236.6,234.1,7.94,7.725,7.765,8.15,7.638,7.512,7.721,4.9,-4.489,-7.543,1.924,-1.142,8.255,4.735,-4.317,-7.748,240.3,240.6,-8.062,246.8,232.1,222.9,234.2,219.9,36,243.9,1,5,prime,10,0,74,norm,36,-4.751,down,norm,239.85613641,236.4,240.9,1.49,229.5,2,240.9,241.9,249.0,10,6,8.309,4.986,2.099,-1.226,-5.121,-7.559,220.5,6,313.9,-7.632,-8.326,-60,-8.375,-8.445,-4.775,-4.344,-5.261,-5.213,5.188,7.773,8,-1.169,1.83,5.16,8.108,-7.799,-7.908,-1.296,1.306,245.1,,228.8,251.1,233.7,250.3,244.9,239.3,240.6,259.9,0,norm,1.98,1.204,-1.152,-1.219,-4.322,-4.724,-1.427,-2.056,-1.872,-1.148,1.101,-1.41,246.5,252.8,-5.008,-7.779,232.5,-2.009,7.636,4.723,-4.671,-8.349,20,4.837,4.538,5.097,4.35,1.885,1.352,1.69,1.442,20,4.518,4.709,-30,205.645562183,norm,0,72,72,72,386.017,386.023,386.024557891,386.025,386.028,386.031,down,1,1.44029376826,8.55970623174,001,012,800_600,Intel(R) Core(TM) i7-2670QM CPU @ 2.20GHz,orientation_search,GRVLAPTOP3,Intel(R) HD Graphics Family,2018_jun_21_1707,testMonitor,
236.0,237.3,252.7,243.1,36,-60,254.0,237.1,241.8,234.8,7.616,7.763,8.457,8.305,8.182,7.94,8.278,5.062,-5.101,-8.409,1.116,-1.163,7.645,4.795,-5.051,-8.117,234.2,248.4,-7.833,229.8,224.6,253.5,248.2,248.0,36,258.7,2,5,prime,10,0,88,norm,36,-5.298,down,norm,239.85613641,225.5,247.5,1.459,233.3,0,253.3,235.8,,10,6,8.31,5.204,1.629,-1.179,-4.974,-8.261,247.5,6,327.9,-7.896,-7.953,-60,-8.32,-7.727,-4.969,-4.397,-4.996,-4.806,5.286,7.932,12,-1.7,1.334,4.557,8.459,-7.77,-8.426,-1.552,1.865,237.7,252.8,238.4,244.6,246.5,259.9,241.3,219.9,227.7,247.5,1,norm,1.363,1.113,-1.299,-1.809,-4.454,-4.533,-1.331,-2.052,-1.436,-2.093,1.847,-1.838,230.2,229.8,-5.154,-8.07,239.9,-1.5,7.861,4.841,-4.752,-7.721,20,4.855,4.371,4.587,4.84,1.283,1.998,1.997,1.58,20,5.118,4.837,-30,205.645562183,norm,0,73,73,73,387.48,387.486,387.487044443,387.487,387.49,387.494,down,1,0.665895107847,9.33410489215,001,012,800_600,Intel(R) Core(TM) i7-2670QM CPU @ 2.20GHz,orientation_search,GRVLAPTOP3,Intel(R) HD Graphics Family,2018_jun_21_1707,testMonitor,
259.9,248.6,241.5,258.8,36,-60,242.3,220.5,240.4,223.2,8.303,8.104,7.595,8.475,8.051,7.552,7.518,5.299,-5.056,-7.797,1.172,-1.935,8.44,4.956,-4.613,-7.903,248.1,220.2,-8.082,243.8,229.3,250.2,234.7,254.9,36,250.6,2,5,prime,10,0,116,norm,36,-4.33,up,norm,239.85613641,247.6,249.5,1.969,233.0,3,232.1,245.5,223.6,10,6,7.528,4.613,1.103,-1.903,-4.827,-8.173,245.7,6,355.9,-7.749,-7.653,-60,-7.987,-7.805,-4.578,-4.404,-5.221,-4.799,4.305,8.443,15,-2.059,1.528,4.741,7.868,-7.964,-7.736,-1.266,1.588,239.8,239.2,236.1,235.8,245.9,232.7,244.9,219.9,228.5,242.3,2,norm,1.412,1.522,-1.277,-1.465,-4.45,-5.088,-1.975,-1.628,-1.303,-1.43,1.709,-1.683,241.7,250.7,-4.933,-7.757,,-1.543,8.329,4.732,-4.613,-8.314,20,4.486,4.344,4.86,4.953,1.239,1.126,1.658,1.903,20,4.301,4.91,-30,205.645562183,norm,0,74,74,74,388.169,388.174,388.175573603,388.176,388.179,388.182,up,1,1.14242101056,8.85757898944,001,012,800_600,Intel(R) Core(TM) i7-2670QM CPU @ 2.20GHz,orientation_search,GRVLAPTOP3,Intel(R) HD Graphics Family,2018_jun_21_1707,testMonitor,
248.6,236.5,254.5,234.6,36,-60,230.2,237.4,221.8,241.6,7.905,7.857,8.055,8.168,7.628,8.067,8.282,5.274,-4.752,-7.837,1.135,-1.755,7.801,4.654,-4.372,-8.269,259.9,236.7,-8.114,225.3,245.5,,246.4,236.8,36,244.4,5,5,prime,10,0,93,norm,36,-4.431,up,norm,239.85613641,238.0,234.6,1.247,240.2,3,242.2,219.9,220.6,10,6,7.791,4.681,1.295,-1.979,-5.062,-7.671,245.8,6,332.9,-8.124,-8.495,-60,-7.834,-7.964,-5.29,-5.159,-5.138,-4.421,4.378,8.17,33,-1.681,1.813,5.146,7.561,-7.516,-7.929,-1.648,1.243,242.1,241.2,247.3,236.0,236.4,232.0,247.6,230.5,232.2,242.8,3,norm,1.524,1.527,-1.951,-1.489,-5.244,-4.818,-1.349,-1.703,-2.028,-1.159,1.493,-1.359,233.0,245.5,-4.943,-8.216,229.3,-1.993,7.672,5.132,-4.387,-7.549,20,4.553,4.371,4.536,5.082,1.611,1.757,1.263,1.468,20,4.408,4.733,-30,205.645562183,norm,0,75,75,75,389.335,389.34,389.341990762,389.342,389.345,389.349,up,1,0.680994437679,9.31900556232,001,012,800_600,Intel(R) Core(TM) i7-2670QM CPU @ 2.20GHz,orientation_search,GRVLAPTOP3,Intel(R) HD Graphics Family,2018_jun_21_1707,testMonitor,
249.2,226.8,238.6,253.5,36,-60,236.2,240.2,253.4,244.8,7.564,8.119,8.064,7.763,7.628,8.417,8.116,4.973,-5.228,-8.098,1.188,-1.675,8.409,4.823,-4.622,-7.681,228.3,246.7,-7.732,240.6,234.2,237.4,259.9,240.3,36,246.5,2,5,prime,10,0,64,norm,36,-5.095,up,norm,239.85613641,246.4,,1.73,237.5,4,229.1,242.6,238.3,10,6,7.912,4.762,1.724,-2.065,-5.14,-7.824,251.9,6,303.9,-8.449,-7.917,-60,-8.0,-8.429,-5.102,-4.699,-4.893,-4.349,4.518,7.826,16,-1.463,1.928,4.736,8.267,-8.067,-8.226,-1.398,2.027,251.0,229.6,231.9,255.6,249.2,255.9,247.5,219.9,223.9,229.1,4,norm,1.785,1.938,-1.694,-2.063,-4.823,-4.399,-1.558,-1.107,-1.211,-1.184,1.997,-1.613,245.8,241.1,-4.978,-8.014,239.2,-2.023,8.418,4.415,-5.033,-8.208,20,5.235,5.222,4.692,5.176,1.951,1.571,1.465,1.25,20,5.208,4.561,-30,205.645562183,norm,0,76,76,76,390.04,390.046,390.047584649,390.048,390.051,390.054,up,1,1.11366009324,8.88633990676,001,012,800_600,Intel(R) Core(TM) i7-2670QM CPU @ 2.20GHz,orientation_search,GRVLAPTOP3,Intel(R) HD Graphics Family,2018_jun_21_1707,testMonitor,
250.6,234.3,228.7,240.6,36,-60,238.0,,248.5,245.9,8.488,7.71,8.254,8.469,7.905,7.645,8.396,4.913,-4.865,-7.946,1.916,-1.573,7.984,4.942,-4.979,-7.558,248.1,243.2,-7.616,231.1,231.2,231.1,250.0,219.9,36,245.3,4,5,prime,10,0,87,norm,36,-5.28,down,norm,239.85613641,245.1,234.0,1.812,227.0,1,244.3,259.9,237.3,10,6,8.423,4.807,2.058,-1.415,-4.922,-7.879,239.3,6,326.9,-7.84,-7.86,-60,-7.686,-7.507,-4.64,-5.255,-4.418,-4.967,4.582,8.286,25,-2.079,1.572,4.583,7.518,-8.387,-7.799,-1.805,1.237,243.0,231.4,236.1,240.3,236.5,225.8,238.9,242.0,242.5,233.1,5,norm,1.581,1.431,-1.178,-1.789,-4.733,-4.373,-2.095,-1.456,-1.113,-1.41,2.086,-1.394,233.4,257.0,-4.87,-8.012,233.0,-1.227,7.894,4.772,-4.378,-7.635,20,5.187,4.663,4.675,4.403,1.771,1.458,1.94,1.319,20,4.444,4.879,-30,205.645562183,norm,0,77,77,77,391.178,391.183,391.184597899,391.185,391.188,391.191,down,1,0.861560681226,9.13843931877,001,012,800_600,Intel(R) Core(TM) i7-2670QM CPU @ 2.20GHz,orientation_search,GRVLAPTOP3,Intel(R) HD Graphics Family,2018_jun_21_1707,testMonitor,
250.3,243.5,263.5,253.0,36,-10,248.7,251.8,244.2,247.5,7.69,8.471,7.516,8.042,7.789,8.291,7.55,4.549,-4.874,-7.852,1.754,-1.65,8.09,4.411,-4.938,-8.315,253.4,249.6,-7.567,248.7,252.5,247.7,249.0,249.6,36,243.6,1,5,probe,5,0,68,norm,36,-5.277,up,norm,253.535459985,251.9,262.8,1.637,256.2,5,,249.8,247.3,10,6,7.557,4.411,2.083,-1.101,-4.68,-8.06,252.1,1,185.5,-7.511,-7.719,-60,-7.801,-8.439,-5.231,-5.201,-5.257,-4.799,4.657,8.116,11,-2.013,1.455,4.938,7.953,-7.575,-7.984,-1.332,1.732,253.5,259.1,257.2,248.7,253.7,262.8,252.1,256.1,261.0,247.5,0,norm,1.278,1.916,-1.826,-1.913,-4.979,-4.458,-1.524,-1.154,-1.201,-1.869,1.753,-1.525,252.5,256.4,-4.374,-8.259,247.9,-1.734,7.88,4.655,-5.268,-8.231,21,4.952,4.843,4.864,4.878,1.471,1.203,1.642,1.192,21,4.632,5.151,-60,239.85613641,norm,0,78,78,78,392.062,392.068,392.069605594,392.07,392.073,392.076,up,1,0.973720460675,9.02627953932,001,012,800_600,Intel(R) Core(TM) i7-2670QM CPU @ 2.20GHz,orientation_search,GRVLAPTOP3,Intel(R) HD Graphics Family,2018_jun_21_1707,testMonitor,
240.3,242.4,233.9,235.8,36,60,240.7,252.6,257.2,233.4,7.839,8.341,8.438,7.627,7.664,7.949,7.537,4.575,-5.085,-8.012,1.442,-1.27,8.08,5.087,-5.18,-7.647,243.9,235.7,-8.275,237.7,242.1,236.4,221.9,257.9,36,240.6,0,5,prime,10,0,104,norm,36,-5.147,down,norm,238.062164313,241.6,225.8,1.549,244.2,1,250.8,230.0,238.4,10,5,8.485,4.337,1.924,-1.913,-5.0,-8.281,254.1,5,342.1,-8.387,-7.532,60,-8.315,-8.127,-4.521,-4.5,-4.657,-5.047,4.939,8.309,1,-1.814,1.404,4.301,7.891,-8.231,-7.588,-1.127,1.96,236.6,239.4,258.1,218.1,,238.8,249.7,240.9,239.4,237.9,0,norm,1.469,1.599,-1.711,-1.169,-5.086,-5.223,-1.493,-1.161,-1.828,-1.52,1.271,-1.638,236.3,228.4,-4.679,-7.774,249.7,-1.524,7.567,4.653,-4.536,-7.776,22,5.068,4.355,5.033,4.832,1.276,1.518,1.707,1.947,22,4.851,4.869,-10,239.85613641,norm,0,79,79,79,393.061,393.066,393.067878342,393.068,393.071,393.074,down,1,1.60601190165,8.39398809835,001,012,800_600,Intel(R) Core(TM) i7-2670QM CPU @ 2.20GHz,orientation_search,GRVLAPTOP3,Intel(R) HD Graphics Family,2018_jun_21_1707,testMonitor,
236.3,226.7,250.9,236.3,36,60,236.5,226.5,227.7,235.9,7.94,7.784,8.402,7.939,7.877,8.311,7.609,4.497,-4.838,-8.016,1.458,-1.944,8.372,5.001,-4.924,-7.909,243.2,229.8,-7.735,235.7,233.3,232.3,221.5,243.3,36,252.0,2,5,prime,10,0,81,norm,36,-4.747,up,norm,238.062164313,,239.1,1.372,258.1,5,225.4,218.1,249.9,10,5,7.597,4.708,1.667,-1.48,-5.042,-8.416,249.3,5,319.1,-7.937,-8.124,60,-7.532,-8.457,-5.089,-4.791,-4.381,-5.237,4.418,8.125,17,-1.645,1.778,4.907,7.946,-7.996,-8.169,-1.768,1.909,237.6,235.4,243.9,228.1,247.2,239.5,232.2,229.2,246.6,232.0,1,norm,1.241,1.759,-1.565,-1.416,-4.716,-4.557,-1.176,-1.611,-1.187,-1.262,1.173,-2.076,230.0,230.5,-4.69,-8.144,227.6,-1.23,8.12,4.494,-4.31,-8.408,22,4.806,4.313,4.377,4.79,1.307,1.875,1.139,1.523,22,4.312,4.418,-10,239.85613641,norm,0,80,80,80,394.69,394.695,394.696474333,394.697,394.7,394.704,up,1,0.738335095295,9.2616649047,001,012,800_600,Intel(R) Core(TM) i7-2670QM CPU @ 2.20GHz,orientation_search,GRVLAPTOP3,Intel(R) HD Graphics Family,2018_jun_21_1707,testMonitor,
223.8,238.1,225.5,236.8,36,60,252.0,251.3,218.1,227.4,8.207,8.14,7.954,8.465,8.235,7.741,8.018,4.753,-4.807,-8.219,1.695,-1.121,8.397,4.426,-4.842,-7.761,244.4,237.8,-7.964,247.0,232.6,230.8,229.7,230.3,36,244.1,2,5,prime,10,0,67,norm,36,-5.293,up,norm,238.062164313,221.8,243.6,1.89,239.0,3,242.4,225.2,233.3,10,5,8.417,4.48,1.229,-1.98,-5.01,-8.279,236.3,5,305.1,-7.55,-8.462,60,-7.929,-8.231,-5.164,-5.062,-5.006,-4.738,4.677,7.97,15,-1.755,1.173,4.661,8.273,-8.495,-7.556,-1.658,1.741,242.6,246.4,258.1,224.5,237.4,230.8,233.8,244.4,242.3,236.2,2,norm,1.408,2.087,-1.364,-1.599,-4.501,-4.332,-1.411,-1.38,-1.233,-1.404,1.136,-1.41,232.0,245.5,-5.262,-7.578,,-1.903,7.71,4.413,-4.849,-8.036,22,4.905,4.583,4.305,5.038,1.637,1.445,1.202,1.156,22,5.167,4.736,-10,239.85613641,norm,0,81,81,81,395.451,395.457,395.458347498,395.459,395.462,395.465,up,1,0.965032835999,9.034967164,001,012,800_600,Intel(R) Core(TM) i7-2670QM CPU @ 2.20GHz,orientation_search,GRVLAPTOP3,Intel(R) HD Graphics Family,2018_jun_21_1707,testMonitor,
237.7,226.3,235.0,238.6,36,60,250.8,234.2,246.8,223.3,8.423,7.69,8.478,7.875,8.01,8.111,7.555,4.459,-4.571,-7.721,2.034,-1.526,7.62,4.505,-5.001,-7.606,229.8,237.6,-8.117,,239.5,229.2,258.1,247.0,36,243.0,5,5,prime,10,0,69,norm,36,-5.251,down,norm,238.062164313,249.0,218.1,2.064,232.4,1,247.5,238.5,234.8,10,5,8.233,4.31,1.584,-1.107,-5.188,-7.639,242.4,5,307.1,-7.708,-7.777,60,-8.079,-8.433,-4.749,-5.216,-4.599,-5.295,4.821,8.306,31,-2.066,1.396,5.179,7.558,-8.288,-8.022,-1.344,1.466,243.4,243.4,230.0,230.7,245.6,242.0,230.0,232.9,236.9,240.6,3,norm,1.806,1.881,-1.445,-1.441,-4.356,-4.49,-1.969,-1.154,-1.442,-2.086,1.833,-1.875,242.1,218.6,-4.616,-8.432,254.0,-1.133,7.538,4.704,-5.099,-7.738,22,4.614,4.477,5.088,5.148,1.723,1.252,1.305,1.582,22,4.633,4.774,-10,239.85613641,norm,0,82,82,82,396.439,396.445,396.446722284,396.447,396.45,396.453,down,1,0.931446913267,9.06855308673,001,012,800_600,Intel(R) Core(TM) i7-2670QM CPU @ 2.20GHz,orientation_search,GRVLAPTOP3,Intel(R) HD Graphics Family,2018_jun_21_1707,testMonitor,
248.9,236.5,230.8,249.2,36,60,247.6,253.3,239.6,224.6,7.882,7.555,8.07,8.102,7.728,8.384,8.093,4.614,-5.156,-8.473,1.454,-1.395,7.686,4.791,-4.701,-8.038,230.5,218.1,-8.35,246.5,235.5,229.0,231.1,240.7,36,228.4,0,5,prime,10,0,115,norm,36,-4.561,up,norm,238.062164313,258.1,224.0,1.977,251.1,5,243.9,240.2,232.5,10,5,7.802,4.601,1.352,-1.428,-5.237,-7.742,236.9,5,353.1,-8.269,-8.316,60,-7.935,-8.129,-4.558,-4.702,-4.936,-4.908,4.535,7.634,5,-2.057,1.187,5.203,8.196,-7.505,-8.305,-1.153,1.497,244.6,231.0,243.1,240.5,231.1,228.7,228.8,233.7,,246.4,4,norm,1.973,1.802,-1.14,-1.109,-4.402,-4.756,-1.638,-1.618,-1.943,-1.953,1.843,-1.406,241.4,218.7,-4.334,-7.702,230.3,-1.475,8.03,4.683,-4.915,-7.996,22,4.78,4.975,5.081,5.071,1.304,1.578,1.755,1.974,22,4.795,4.781,-10,239.85613641,norm,0,83,83,83,397.394,397.4,397.401636757,397.402,397.405,397.408,up,1,0.901001236487,9.09899876351,001,012,800_600,Intel(R) Core(TM) i7-2670QM CPU @ 2.20GHz,orientation_search,GRVLAPTOP3,Intel(R) HD Graphics Family,2018_jun_21_1707,testMonitor,
385.0,384.1,384.1,383.4,36,-60,389.0,386.4,383.5,393.0,8.344,8.14,7.662,8.232,8.182,8.265,8.357,5.172,-4.735,-7.807,1.66,-1.24,8.26,5.132,-5.233,-8.28,377.3,393.7,-8.281,385.0,392.9,,382.6,380.2,36,381.9,5,5,probe,5,0,90,norm,36,-4.984,up,norm,384.30066205,382.6,387.6,1.833,374.3,3,386.0,377.3,384.9,10,5,8.352,4.914,1.941,-1.416,-4.681,-8.06,380.8,2,294.3,-7.581,-8.407,60,-7.801,-7.56,-4.696,-4.742,-5.002,-4.558,5.283,8.412,33,-1.984,1.662,4.805,8.232,-8.428,-7.746,-1.507,1.748,383.2,375.6,380.7,386.4,383.4,382.1,379.4,386.1,392.7,394.3,0,norm,1.72,1.306,-1.572,-1.289,-4.713,-4.821,-1.363,-1.283,-1.418,-2.096,1.498,-1.688,383.6,386.6,-4.694,-7.524,377.4,-1.105,7.747,4.705,-4.889,-7.592,23,4.466,4.36,5.08,4.328,1.832,1.471,1.646,1.707,23,4.571,4.562,60,238.062164313,norm,0,84,84,84,398.32,398.327,398.328647635,398.329,398.332,398.337,up,1,1.09098308143,8.90901691857,001,012,800_600,Intel(R) Core(TM) i7-2670QM CPU @ 2.20GHz,orientation_search,GRVLAPTOP3,Intel(R) HD Graphics Family,2018_jun_21_1707,testMonitor,
387.0,381.3,388.0,391.7,36,-60,393.8,394.1,384.3,391.1,8.327,8.107,8.265,7.543,8.27,8.187,8.163,4.973,-5.007,-8.07,1.727,-1.677,8.259,4.589,-4.446,-7.787,383.8,393.1,-8.229,387.5,401.3,391.3,392.8,393.7,36,392.0,2,5,probe,5,0,97,norm,36,-5.27,down,norm,391.30066205,397.3,400.3,1.199,,2,390.1,391.8,381.6,10,5,8.475,4.524,1.595,-1.276,-4.957,-7.772,389.8,2,294.3,-7.994,-7.673,60,-7.799,-7.81,-4.817,-4.657,-5.084,-4.599,5.145,7.861,14,-1.223,2.052,5.0,8.276,-7.749,-8.325,-1.544,1.365,390.8,392.3,397.7,385.3,394.3,390.6,393.1,393.7,387.0,394.7,1,norm,1.189,1.893,-1.91,-1.657,-4.71,-4.852,-1.646,-1.977,-1.297,-1.855,1.594,-1.373,387.5,396.6,-4.831,-7.907,389.0,-2.099,7.744,4.333,-4.701,-7.768,23,4.465,4.524,4.5,5.059,1.545,1.327,1.297,2.032,23,4.847,4.875,60,238.062164313,norm,0,85,85,85,399.439,399.446,399.447654318,399.448,399.451,399.456,down,1,0.971374031544,9.02862596846,001,012,800_600,Intel(R) Core(TM) i7-2670QM CPU @ 2.20GHz,orientation_search,GRVLAPTOP3,Intel(R) HD Graphics Family,2018_jun_21_1707,testMonitor,
146.3,119.4,132.8,125.0,36,-20,126.3,114.6,137.2,118.8,8.067,7.731,8.468,7.596,8.072,8.296,7.968,4.582,-5.075,-8.031,1.842,-1.56,7.97,5.012,-5.252,-7.528,124.1,141.6,-7.717,127.4,117.3,127.5,136.0,128.3,36,,4,5,prime,10,0,96,norm,36,-4.946,up,norm,126.291977383,124.2,134.9,1.467,115.5,3,129.6,120.7,125.3,10,6,8.223,4.389,1.507,-1.49,-4.748,-8.1,122.1,6,222.3,-8.206,-8.447,-20,-8.02,-7.815,-4.703,-4.374,-5.212,-4.603,4.657,7.537,27,-1.663,1.479,5.151,8.19,-8.424,-8.139,-1.505,1.136,128.7,137.8,133.2,125.5,136.4,135.8,122.8,125.0,113.5,115.8,0,norm,1.707,1.646,-1.689,-1.508,-4.843,-4.868,-1.85,-1.916,-1.76,-1.396,2.06,-1.68,108.2,134.7,-4.417,-7.986,106.3,-1.893,8.417,5.002,-4.558,-7.804,24,4.417,4.912,5.099,5.053,1.665,1.823,1.47,1.258,24,5.179,4.894,-60,238.062164313,norm,0,86,86,86,400.438,400.445,400.447097245,400.447,400.451,400.455,down,0,1.02300434451,-10,001,012,800_600,Intel(R) Core(TM) i7-2670QM CPU @ 2.20GHz,orientation_search,GRVLAPTOP3,Intel(R) HD Graphics Family,2018_jun_21_1707,testMonitor,
128.7,121.1,133.4,125.9,36,-20,,108.7,126.2,123.0,7.764,8.302,7.714,8.025,8.476,7.542,8.481,5.103,-4.351,-7.514,1.791,-1.265,8.375,4.537,-4.801,-8.291,120.3,119.5,-7.762,141.2,134.0,138.0,119.4,113.8,36,144.3,4,5,prime,10,0,84,norm,36,-5.252,down,norm,126.291977383,122.8,120.1,1.623,126.8,0,128.7,126.1,146.3,10,6,8.455,4.582,1.666,-1.119,-5.005,-7.974,128.4,6,210.3,-7.773,-7.776,-20,-7.579,-8.43,-5.061,-5.268,-4.588,-4.497,4.481,7.638,24,-1.225,1.969,4.948,7.703,-8.09,-7.946,-1.792,1.112,125.0,127.2,144.6,131.4,134.8,133.2,106.3,131.5,138.7,125.3,1,norm,1.815,1.879,-1.512,-1.374,-4.953,-4.97,-1.978,-1.878,-1.305,-1.784,1.894,-2.099,116.5,126.1,-5.047,-7.515,127.2,-1.405,8.382,4.833,-5.07,-7.522,24,4.302,4.358,5.273,4.582,1.801,2.08,1.292,1.743,24,5.016,4.748,-60,238.062164313,norm,0,87,87,87,402.494,402.501,402.503449368,402.504,402.507,402.512,down,1,1.03401551772,8.96598448228,001,012,800_600,Intel(R) Core(TM) i7-2670QM CPU @ 2.20GHz,orientation_search,GRVLAPTOP3,Intel(R) HD Graphics Family,2018_jun_21_1707,testMonitor,
124.5,135.5,132.1,123.1,36,-20,117.3,135.9,128.1,115.2,7.76,8.373,8.16,8.439,7.582,8.141,8.024,4.434,-4.44,-8.236,1.544,-1.347,8.362,4.826,-4.417,-7.883,131.2,128.8,-8.109,,133.4,118.7,114.4,135.5,36,142.5,5,5,prime,10,0,68,norm,36,-4.414,down,norm,126.291977383,115.8,127.8,1.34,135.1,1,146.3,135.7,133.5,10,6,7.869,4.713,1.565,-1.593,-4.789,-7.857,125.8,6,194.3,-7.607,-7.856,-20,-7.535,-7.603,-4.68,-4.469,-5.038,-4.921,5.165,7.829,31,-1.643,2.095,4.695,7.638,-8.246,-7.839,-1.706,1.946,130.3,127.9,130.7,110.9,133.2,133.8,113.1,130.8,127.0,106.3,2,norm,1.11,1.667,-1.784,-1.119,-4.364,-5.076,-1.952,-1.778,-2.094,-1.903,2.005,-1.82,115.7,122.0,-5.005,-7.967,145.5,-1.318,7.81,4.383,-5.072,-7.687,24,4.396,4.443,4.833,4.575,1.247,1.739,1.73,1.269,24,4.363,4.599,-60,238.062164313,norm,0,88,88,88,403.557,403.564,403.565885862,403.566,403.57,403.574,down,1,1.08605721458,8.91394278542,001,012,800_600,Intel(R) Core(TM) i7-2670QM CPU @ 2.20GHz,orientation_search,GRVLAPTOP3,Intel(R) HD Graphics Family,2018_jun_21_1707,testMonitor,
120.8,127.0,123.2,130.4,36,-20,130.4,115.5,106.3,123.5,7.621,8.092,7.515,8.242,8.145,7.684,7.935,5.095,-4.475,-8.192,1.53,-1.977,7.838,5.285,-4.77,-7.503,120.2,135.3,-7.618,146.3,127.1,120.5,131.7,121.7,36,143.1,1,5,prime,10,0,111,norm,36,-5.009,down,norm,126.291977383,125.6,134.1,2.095,128.2,0,123.5,133.9,127.5,10,6,7.519,4.886,1.976,-2.082,-5.076,-8.126,116.0,6,237.3,-7.687,-7.931,-20,-7.893,-7.939,-4.484,-4.89,-5.288,-4.744,4.665,8.221,6,-1.687,1.315,4.936,8.028,-7.536,-8.064,-1.288,1.663,117.6,118.7,137.4,136.4,123.7,136.9,119.1,,136.9,109.3,3,norm,1.218,1.541,-1.225,-1.526,-5.278,-4.318,-1.4,-1.715,-1.237,-1.5,1.992,-1.649,114.3,119.6,-4.613,-7.683,118.6,-1.211,7.726,4.706,-4.413,-8.128,24,4.765,4.556,4.344,4.664,1.437,1.855,1.749,1.176,24,4.807,4.681,-60,238.062164313,norm,0,89,89,89,404.671,404.678,404.679897103,404.68,404.684,404.688,down,1,0.762711342055,9.23728865795,001,012,800_600,Intel(R) Core(TM) i7-2670QM CPU @ 2.20GHz,orientation_search,GRVLAPTOP3,Intel(R) HD Graphics Family,2018_jun_21_1707,testMonitor,
108.8,116.7,136.4,131.4,36,-20,137.4,129.0,117.0,108.7,7.962,8.061,7.992,8.335,7.728,8.27,7.864,4.564,-4.911,-8.27,1.34,-1.32,7.877,5.142,-4.608,-7.612,120.2,128.2,-7.928,132.9,131.5,134.8,113.3,137.3,36,121.2,0,5,prime,10,0,68,norm,36,-5.055,down,norm,126.291977383,131.7,111.0,1.216,110.4,1,110.5,146.3,131.6,10,6,7.635,4.938,2.069,-1.263,-4.699,-8.458,135.4,6,194.3,-7.862,-8.057,-20,-7.804,-8.092,-5.027,-4.67,-4.923,-5.076,4.816,8.226,1,-2.051,2.036,4.538,7.98,-7.777,-7.752,-1.707,1.862,132.2,118.8,139.7,135.6,,117.9,123.2,129.2,117.7,106.3,4,norm,1.838,2.05,-1.857,-1.986,-4.364,-4.479,-1.184,-1.435,-1.818,-1.581,1.281,-1.663,120.4,119.3,-5.211,-8.258,120.8,-1.568,7.985,5.051,-4.991,-8.469,24,5.124,4.908,4.507,4.396,1.454,1.72,1.944,1.146,24,4.679,4.829,-60,238.062164313,norm,0,90,90,90,405.462,405.469,405.470851046,405.471,405.475,405.479,down,1,0.873664986888,9.12633501311,001,012,800_600,Intel(R) Core(TM) i7-2670QM CPU @ 2.20GHz,orientation_search,GRVLAPTOP3,Intel(R) HD Graphics Family,2018_jun_21_1707,testMonitor,
140.4,137.4,127.2,132.3,36,-20,,129.9,135.8,131.3,7.731,7.788,7.793,8.377,7.868,7.619,7.995,5.174,-4.316,-7.779,1.625,-1.362,7.533,4.531,-4.402,-8.098,111.4,117.7,-8.423,124.4,130.2,117.9,127.5,144.6,36,127.2,4,5,prime,10,0,103,norm,36,-4.588,down,norm,126.291977383,121.9,127.6,2.08,132.6,0,119.4,106.3,120.8,10,6,7.57,4.428,1.901,-1.196,-4.441,-7.977,120.1,6,229.3,-7.723,-7.775,-20,-7.809,-7.964,-4.519,-4.816,-5.098,-5.06,4.307,7.962,24,-1.825,1.965,4.693,8.291,-7.801,-7.774,-1.17,1.739,146.3,117.0,110.0,124.9,121.7,127.4,133.6,125.4,136.1,143.7,5,norm,1.761,1.502,-1.626,-1.227,-4.758,-4.58,-1.845,-1.915,-1.56,-2.043,1.723,-1.195,126.7,126.6,-4.969,-8.143,130.8,-1.394,8.31,4.306,-4.854,-8.014,24,4.62,4.911,4.87,4.997,1.49,1.95,2.013,1.315,24,4.991,4.858,-60,238.062164313,norm,0,91,91,91,406.364,406.37,406.372306626,406.373,406.376,406.38,down,1,0.858542776454,9.14145722355,001,012,800_600,Intel(R) Core(TM) i7-2670QM CPU @ 2.20GHz,orientation_search,GRVLAPTOP3,Intel(R) HD Graphics Family,2018_jun_21_1707,testMonitor,
191.6,204.9,197.2,204.1,36,80,194.1,189.5,194.2,193.0,7.523,8.291,7.725,7.949,7.788,8.156,8.311,4.945,-5.119,-8.358,1.446,-1.388,8.138,4.934,-4.559,-8.001,195.0,187.7,-8.301,203.9,190.0,193.3,202.9,191.9,36,206.4,0,5,probe,5,0,91,norm,36,-4.729,up,norm,197.701921775,197.4,202.4,1.522,199.5,3,204.4,198.8,207.0,10,6,7.572,5.269,1.453,-1.248,-4.511,-8.249,193.2,2,106.7,-8.055,-8.011,-20,-7.911,-7.504,-4.458,-4.913,-5.034,-5.205,4.804,7.762,3,-1.296,1.829,4.981,7.51,-7.997,-8.122,-1.774,1.382,207.7,203.7,,199.9,198.4,200.5,202.7,194.4,196.7,198.7,0,norm,1.301,2.054,-2.095,-1.649,-4.358,-5.045,-2.047,-1.633,-2.065,-1.882,1.555,-1.799,200.9,202.5,-4.802,-8.205,188.6,-1.464,7.501,4.369,-4.677,-7.654,25,4.504,4.947,4.863,4.423,1.382,1.26,1.613,1.516,25,4.676,5.089,-20,126.291977383,norm,0,92,92,92,407.25,407.256,407.258397648,407.259,407.262,407.267,up,1,1.40680357049,8.59319642951,001,012,800_600,Intel(R) Core(TM) i7-2670QM CPU @ 2.20GHz,orientation_search,GRVLAPTOP3,Intel(R) HD Graphics Family,2018_jun_21_1707,testMonitor,
175.4,189.0,182.8,177.1,36,80,181.1,176.9,182.2,173.0,7.614,7.572,8.428,8.293,7.793,7.658,8.395,4.7,-4.405,-8.176,1.355,-1.174,7.51,4.335,-4.472,-8.02,172.6,,-8.282,177.0,172.6,180.3,170.7,190.4,36,183.4,5,5,probe,5,0,74,norm,36,-4.363,up,norm,180.701921775,182.7,181.7,1.64,177.8,4,190.7,188.7,190.4,10,6,8.296,4.704,1.312,-1.817,-4.314,-8.304,181.6,2,106.7,-8.419,-7.585,-20,-7.837,-7.68,-4.948,-4.411,-4.619,-4.393,4.811,8.003,34,-1.486,2.057,4.543,7.592,-7.629,-8.227,-1.22,1.509,182.2,179.2,185.4,188.3,176.6,181.6,185.0,185.2,173.4,182.4,1,norm,1.149,1.88,-1.281,-1.117,-5.198,-4.858,-1.299,-1.66,-1.657,-1.177,1.599,-1.27,182.3,179.5,-4.346,-7.875,175.6,-1.552,7.897,4.927,-4.603,-7.891,25,4.419,5.033,5.236,4.509,1.555,1.598,1.549,1.739,25,4.545,4.691,-20,126.291977383,norm,0,93,93,93,408.684,408.691,408.69323089,408.694,408.697,408.701,up,1,0.922002360905,9.0779976391,001,012,800_600,Intel(R) Core(TM) i7-2670QM CPU @ 2.20GHz,orientation_search,GRVLAPTOP3,Intel(R) HD Graphics Family,2018_jun_21_1707,testMonitor,
148.7,156.9,151.3,174.1,36,80,171.6,159.1,171.4,168.2,8.262,7.938,8.062,7.673,7.973,7.86,8.112,4.695,-4.948,-7.663,1.844,-2.057,7.517,4.841,-4.603,-7.537,166.3,159.5,-7.905,156.3,175.1,158.3,164.1,165.2,36,160.1,2,5,prime,10,0,67,norm,36,-4.622,up,norm,167.621691536,174.7,147.6,1.451,178.5,3,187.6,173.6,165.7,10,5,8.322,5.251,1.827,-1.323,-4.87,-8.06,176.0,5,234.6,-8.061,-7.751,80,-8.012,-7.821,-4.319,-4.545,-4.908,-4.923,4.984,7.525,15,-2.038,1.691,4.493,7.549,-7.53,-8.345,-1.486,2.06,175.1,172.4,168.6,174.6,169.4,172.5,150.9,147.9,171.1,155.8,0,norm,1.195,2.097,-1.433,-1.647,-4.771,-5.171,-1.961,-1.997,-1.881,-1.551,1.82,-1.282,175.5,186.7,-5.028,-7.859,,-2.069,8.307,4.739,-4.709,-8.28,26,4.776,5.189,5.008,4.578,1.235,1.773,1.351,1.106,26,5.244,4.795,80,126.291977383,norm,0,94,94,94,409.635,409.642,409.643835405,409.644,409.648,409.652,up,1,0.938925134669,9.06107486533,001,012,800_600,Intel(R) Core(TM) i7-2670QM CPU @ 2.20GHz,orientation_search,GRVLAPTOP3,Intel(R) HD Graphics Family,2018_jun_21_1707,testMonitor,
