d_ori_22,d_ori_23,d_ori_20,d_ori_21,set_size,ctpd,d_ori_24,d_ori_25,d_ori_28,d_ori_29,stim_pos_x_30,stim_pos_x_31,stim_pos_x_32,stim_pos_x_33,stim_pos_x_34,stim_pos_x_35,stim_pos_y_11,stim_pos_y_10,stim_pos_y_13,stim_pos_y_12,stim_pos_y_15,stim_pos_y_14,stim_pos_y_17,stim_pos_y_16,stim_pos_y_19,stim_pos_y_18,d_ori_35,d_ori_34,stim_pos_x_3,d_ori_31,d_ori_30,d_ori_33,d_ori_32,d_ori_26,test_set_size,d_ori_27,targetCol,dsd_test,seq_type,dsd,blockRepN,targetDist,dtype_test,prime_set_size,stim_pos_y_25,correctResponse,dtype,distrMean,d_ori_17,d_ori_16,stim_pos_y_3,d_ori_14,targetRow,d_ori_11,d_ori_13,d_ori_12,dsd_prime,streak_length_prime,stim_pos_y_35,stim_pos_y_34,stim_pos_y_33,stim_pos_y_32,stim_pos_y_31,stim_pos_y_30,d_ori_10,nextProbe,targetOri,stim_pos_x_1,stim_pos_x_2,ctpd_prime,stim_pos_x_4,stim_pos_x_5,stim_pos_x_6,stim_pos_x_7,stim_pos_x_8,stim_pos_x_9,stim_pos_y_28,stim_pos_y_29,targetPos,stim_pos_y_20,stim_pos_y_21,stim_pos_y_22,stim_pos_y_23,stim_pos_y_24,stim_pos_x_0,stim_pos_y_26,stim_pos_y_27,d_ori_9,d_ori_8,d_ori_3,d_ori_2,d_ori_1,d_ori_0,d_ori_7,d_ori_6,d_ori_5,d_ori_4,trialN,dtype_prime,stim_pos_x_18,stim_pos_x_19,stim_pos_x_12,stim_pos_x_13,stim_pos_x_10,stim_pos_x_11,stim_pos_x_16,stim_pos_x_17,stim_pos_x_14,stim_pos_x_15,stim_pos_y_9,stim_pos_y_8,d_ori_19,d_ori_18,stim_pos_y_1,stim_pos_y_0,d_ori_15,stim_pos_y_2,stim_pos_y_5,stim_pos_y_4,stim_pos_y_7,stim_pos_y_6,totBlockN,stim_pos_x_27,stim_pos_x_26,stim_pos_x_25,stim_pos_x_24,stim_pos_x_23,stim_pos_x_22,stim_pos_x_21,stim_pos_x_20,blockN,stim_pos_x_29,stim_pos_x_28,prevDistrCTPD,prevDistrMean,prevDistrType,trials.thisRepN,trials.thisTrialN,trials.thisN,trials.thisIndex,timeStart,timeBeforeDraw,timeDraw,timeAfterSaving,timeAfterWritingToTemp,timeAfterPreparingNext,answer,correct,rt,trialScore,session,participant,resolution,cpu_info,expName,pc_name,graphic_card,date,monitorName,
66.2,78.2,91.2,81.3,36,0,84.9,69.7,86.3,63.2,8.177,7.961,7.574,7.812,7.747,7.833,7.576,4.859,-4.893,-7.794,1.162,-1.664,8.058,4.428,-4.882,-8.144,92.4,62.0,-7.503,89.8,87.1,79.2,80.5,80.8,36,95.7,2,5,prime,10,0,72,norm,36,-4.566,up,norm,78.105636201,71.0,75.9,1.242,88.9,3,87.4,70.8,98.1,10,5,7.706,4.611,1.408,-1.641,-4.676,-7.733,73.9,5,150.1,-7.762,-7.727,0,-8.287,-8.061,-4.331,-4.809,-4.976,-4.398,4.484,8.386,15,-1.871,1.115,4.54,7.921,-7.757,-7.926,-1.471,2.017,91.4,97.2,70.7,62.1,81.3,93.3,83.8,71.3,59.1,58.1,0,norm,2.029,1.141,-1.863,-1.592,-4.909,-5.247,-1.861,-1.399,-1.807,-1.614,1.15,-1.757,94.3,95.2,-4.915,-8.01,,-1.721,8.344,5.109,-4.638,-7.611,0,4.913,4.315,4.982,4.746,1.543,1.843,1.596,1.304,0,5.093,4.682,,,,0,0,0,0,351.622,351.632,351.637381608,351.638,351.638,351.642,up,1,1.24675965077,8.75324034923,001,24,800_600,Intel(R) Core(TM) i7-2670QM CPU @ 2.20GHz,orientation_search,GRVLAPTOP3,Intel(R) HD Graphics Family,2018_jul_31_1902,testMonitor,
86.4,75.3,78.7,73.2,36,0,94.1,83.4,94.0,98.1,7.884,7.877,7.73,7.677,7.694,7.824,8.221,4.84,-4.715,-7.719,1.232,-1.649,7.511,4.524,-4.634,-8.155,75.9,85.5,-8.082,88.3,66.2,64.2,95.6,90.7,36,85.9,2,5,prime,10,0,117,norm,36,-5.225,up,norm,78.105636201,84.7,69.1,1.945,77.3,3,76.5,74.9,66.9,10,5,8.045,4.45,1.748,-1.802,-4.978,-8.195,58.1,5,195.1,-7.867,-7.635,0,-7.985,-7.772,-5.129,-5.227,-5.292,-5.245,4.856,7.54,15,-1.131,1.895,4.524,8.422,-7.96,-7.905,-1.125,1.497,88.6,79.2,88.3,72.7,92.5,89.0,77.6,64.2,71.9,86.6,1,norm,1.274,1.473,-1.273,-1.783,-4.318,-4.679,-1.906,-1.687,-1.651,-1.473,1.653,-1.693,68.6,66.1,-4.836,-7.573,,-2.085,8.401,4.995,-4.95,-7.889,0,4.452,4.874,5.189,4.72,1.337,1.372,1.454,1.849,0,4.712,5.069,,,,0,1,1,1,352.9,352.906,352.908570716,352.909,352.911,352.914,up,1,2.09161093115,7.90838906885,001,24,800_600,Intel(R) Core(TM) i7-2670QM CPU @ 2.20GHz,orientation_search,GRVLAPTOP3,Intel(R) HD Graphics Family,2018_jul_31_1902,testMonitor,
72.1,83.7,86.3,70.3,36,0,79.7,79.4,90.3,74.8,7.926,7.753,7.826,8.119,7.725,8.323,8.384,5.15,-4.818,-7.768,2.063,-1.845,8.449,4.797,-4.372,-7.918,74.5,72.8,-7.905,84.8,71.3,74.3,68.3,73.9,36,74.4,1,5,prime,10,0,79,norm,36,-4.756,down,norm,78.105636201,92.0,85.5,1.395,82.4,2,86.7,79.1,86.1,10,5,8.309,4.37,1.401,-1.423,-4.879,-7.536,98.1,5,157.1,-8.088,-8.388,0,-8.385,-8.073,-4.972,-5.196,-5.151,-4.305,5.072,8.395,8,-1.506,1.533,5.289,8.292,-7.968,-8.277,-1.555,2.009,58.1,,69.1,59.4,79.2,71.6,92.1,80.6,91.8,74.4,2,norm,1.21,1.239,-1.91,-1.507,-5.015,-4.455,-1.514,-1.976,-1.665,-2.008,1.947,-2.093,66.7,68.6,-4.614,-7.601,62.3,-1.282,7.598,4.78,-5.267,-7.663,0,4.532,4.732,5.26,4.36,1.222,1.46,2.083,1.171,0,4.733,4.735,,,,0,2,2,2,355.017,355.023,355.025335826,355.026,355.028,355.032,down,1,1.03289309941,8.96710690059,001,24,800_600,Intel(R) Core(TM) i7-2670QM CPU @ 2.20GHz,orientation_search,GRVLAPTOP3,Intel(R) HD Graphics Family,2018_jul_31_1902,testMonitor,
88.9,85.6,80.7,61.4,36,0,58.1,68.6,82.8,79.3,7.657,7.853,7.746,7.902,8.188,7.514,7.765,5.245,-4.861,-8.206,1.724,-1.656,7.728,4.342,-4.945,-7.769,94.0,83.9,-7.54,91.7,61.2,90.5,73.3,79.0,36,98.1,2,5,prime,10,0,112,norm,36,-4.332,down,norm,78.105636201,85.8,82.9,1.455,58.8,1,72.4,,73.4,10,5,7.506,4.751,2.082,-1.183,-4.303,-7.96,74.4,5,190.1,-8.003,-7.96,0,-8.287,-7.542,-5.049,-5.166,-4.529,-4.715,5.261,7.725,13,-1.823,1.95,5.212,8.195,-8.266,-7.961,-1.914,1.327,83.0,74.1,71.9,59.9,60.5,82.7,81.7,90.6,83.4,72.7,3,norm,1.989,1.905,-1.555,-1.951,-5.186,-4.601,-1.721,-1.105,-1.384,-1.433,1.334,-1.756,70.1,81.4,-4.882,-7.902,78.9,-1.699,8.22,5.019,-4.513,-8.374,0,5.028,4.961,5.181,5.13,1.408,1.977,2.091,1.102,0,4.628,5.046,,,,0,3,3,3,356.077,356.083,356.085377955,356.086,356.088,356.092,up,0,1.22364468485,-10,001,24,800_600,Intel(R) Core(TM) i7-2670QM CPU @ 2.20GHz,orientation_search,GRVLAPTOP3,Intel(R) HD Graphics Family,2018_jul_31_1902,testMonitor,
80.1,80.4,85.2,74.6,36,0,87.9,91.0,81.9,82.5,8.081,8.006,7.824,8.353,7.536,7.734,7.634,4.98,-5.294,-7.565,1.359,-1.287,7.956,4.886,-4.399,-7.852,74.4,82.4,-8.434,93.4,87.8,90.4,68.9,62.2,36,,4,5,prime,10,0,92,norm,36,-5.04,up,norm,78.105636201,78.4,94.6,1.452,68.3,3,73.0,87.6,58.1,10,5,8.465,4.632,1.254,-1.489,-4.932,-7.84,81.9,5,170.1,-7.85,-8.16,0,-7.916,-8.295,-5.094,-4.403,-4.326,-5.002,4.451,8.022,27,-1.728,1.81,4.881,8.372,-7.794,-7.598,-1.867,2.086,90.9,72.1,67.3,75.6,95.0,70.2,64.9,65.0,98.1,92.3,4,norm,1.201,1.578,-1.871,-1.567,-4.35,-4.631,-1.76,-1.617,-1.48,-1.157,1.341,-1.672,90.6,78.3,-5.163,-8.442,67.0,-2.072,7.87,4.619,-5.096,-7.67,0,4.472,4.776,4.386,4.706,1.736,1.712,1.706,1.906,0,4.771,4.595,,,,0,4,4,4,358.327,358.333,358.334919751,358.335,358.338,358.341,up,1,1.63459385958,8.36540614042,001,24,800_600,Intel(R) Core(TM) i7-2670QM CPU @ 2.20GHz,orientation_search,GRVLAPTOP3,Intel(R) HD Graphics Family,2018_jul_31_1902,testMonitor,
158.1,159.2,157.5,157.6,36,-10,154.0,159.5,163.8,152.9,8.332,8.317,8.061,8.314,7.696,7.802,7.56,4.592,-4.536,-7.958,1.392,-2.07,8.203,5.03,-5.098,-8.432,157.1,154.5,-8.212,161.9,151.9,151.5,159.0,156.9,36,157.0,3,5,probe,5,0,72,norm,36,-5.013,down,norm,154.882700316,144.9,158.5,2.004,150.0,0,160.4,164.9,163.1,10,5,7.981,4.99,1.318,-1.508,-4.545,-7.933,146.7,2,82.9,-8.204,-8.01,0,-7.828,-8.17,-4.75,-4.435,-4.843,-5.289,5.094,8.316,18,-2.027,1.649,4.33,8.066,-7.546,-7.506,-1.648,1.56,152.7,150.2,156.5,152.4,152.3,153.9,159.5,154.7,158.8,160.8,0,norm,1.283,1.764,-1.956,-1.87,-4.623,-5.068,-1.889,-1.557,-1.557,-1.631,1.221,-1.538,154.1,,-4.884,-7.901,147.0,-1.254,7.927,4.408,-4.922,-7.989,1,4.903,4.446,4.618,4.5,2.045,1.768,1.965,1.227,1,4.734,4.596,0,78.105636201,norm,0,5,5,5,359.985,359.991,359.992766329,359.993,359.996,359.999,down,1,1.77575153641,8.22424846359,001,24,800_600,Intel(R) Core(TM) i7-2670QM CPU @ 2.20GHz,orientation_search,GRVLAPTOP3,Intel(R) HD Graphics Family,2018_jul_31_1902,testMonitor,
150.9,153.7,145.9,153.5,36,-10,157.8,146.9,155.8,151.7,7.968,8.027,8.251,7.789,8.108,8.213,8.176,4.659,-4.547,-8.486,1.104,-1.301,8.101,5.107,-5.107,-7.909,154.4,160.4,-8.367,156.1,155.5,153.4,155.0,157.9,36,159.6,1,5,probe,5,0,73,norm,36,-4.925,down,norm,155.882700316,158.3,152.4,1.116,155.8,0,155.4,160.1,159.5,10,5,8.133,4.772,1.514,-1.157,-5.255,-7.574,153.4,2,82.9,-8.488,-8.044,0,-8.133,-7.786,-5.127,-4.456,-5.299,-5.039,4.52,7.671,6,-1.815,1.762,5.248,8.299,-7.851,-8.276,-2.033,1.863,153.6,165.9,153.2,159.5,156.6,150.0,152.6,,154.3,160.1,1,norm,1.433,1.417,-1.384,-2.036,-4.858,-4.445,-1.619,-1.199,-1.821,-1.995,1.633,-1.972,155.9,154.4,-4.309,-8.167,149.7,-1.182,7.573,4.989,-4.847,-7.937,1,4.881,4.686,5.203,4.59,1.952,1.193,1.482,1.812,1,5.191,4.506,0,78.105636201,norm,0,6,6,6,361.785,361.791,361.793303613,361.794,361.796,361.8,down,1,1.85411389051,8.14588610949,001,24,800_600,Intel(R) Core(TM) i7-2670QM CPU @ 2.20GHz,orientation_search,GRVLAPTOP3,Intel(R) HD Graphics Family,2018_jul_31_1902,testMonitor,
263.1,271.7,271.8,262.2,36,60,264.4,263.6,272.1,259.6,8.097,8.263,8.378,8.286,7.61,8.099,7.614,4.785,-5.231,-7.849,1.745,-1.449,8.294,4.479,-5.135,-8.43,257.4,262.6,-7.998,239.5,250.2,272.2,267.0,257.3,36,271.0,0,5,prime,10,0,104,norm,36,-4.395,up,norm,259.534075139,246.2,256.5,1.609,279.5,5,270.8,263.4,264.9,10,6,8.38,5.252,1.902,-1.807,-4.345,-7.969,254.8,6,363.5,-7.867,-8.246,60,-7.562,-7.933,-4.333,-5.088,-4.96,-4.868,4.672,7.895,5,-1.277,1.143,4.691,8.463,-7.845,-8.102,-1.806,1.445,254.0,257.8,250.6,262.7,253.7,258.5,268.0,256.1,,248.8,0,norm,1.934,1.242,-1.567,-1.835,-4.668,-4.779,-1.465,-1.85,-1.393,-1.839,2.031,-1.178,253.2,251.6,-4.917,-7.827,246.0,-1.719,7.626,4.541,-5.12,-8.376,2,4.595,4.995,4.545,4.462,1.874,1.348,1.606,1.625,2,5.101,5.155,-10,78.105636201,norm,0,7,7,7,363.663,363.668,363.670347086,363.671,363.673,363.677,down,0,2.73428085657,-10,001,24,800_600,Intel(R) Core(TM) i7-2670QM CPU @ 2.20GHz,orientation_search,GRVLAPTOP3,Intel(R) HD Graphics Family,2018_jul_31_1902,testMonitor,
273.7,276.7,257.6,257.5,36,60,267.9,252.8,268.7,259.1,7.963,7.799,7.868,7.72,7.906,8.348,8.024,4.605,-4.908,-7.579,1.11,-1.689,8.193,5.039,-5.119,-8.308,278.3,243.9,-8.068,260.2,264.3,274.1,252.9,254.9,36,274.1,0,5,prime,10,0,61,norm,36,-4.768,up,norm,259.534075139,262.7,255.5,1.62,239.5,3,258.1,246.3,242.0,10,6,8.259,4.818,1.644,-1.146,-4.557,-8.43,258.5,6,320.5,-7.916,-8.137,60,-8.182,-8.163,-4.43,-4.92,-4.454,-4.808,5.221,7.583,3,-2.046,1.959,4.848,8.456,-8.421,-8.372,-1.117,1.547,273.9,279.5,,272.1,262.5,265.1,267.5,248.4,260.0,252.5,1,norm,1.108,1.971,-1.661,-1.752,-5.036,-5.267,-1.27,-1.308,-1.974,-1.809,1.722,-1.805,266.4,261.9,-4.865,-7.636,256.0,-1.888,8.083,5.171,-4.932,-7.827,2,4.654,4.477,4.493,4.558,1.89,1.405,1.273,1.888,2,5.17,4.908,-10,78.105636201,norm,0,8,8,8,367.423,367.428,367.430104323,367.43,367.433,367.436,up,1,1.66061097925,8.33938902075,001,24,800_600,Intel(R) Core(TM) i7-2670QM CPU @ 2.20GHz,orientation_search,GRVLAPTOP3,Intel(R) HD Graphics Family,2018_jul_31_1902,testMonitor,
250.0,255.1,259.6,259.2,36,60,253.2,275.4,261.6,246.9,8.028,8.142,7.917,8.093,7.804,7.6,7.965,5.074,-4.938,-8.252,1.987,-2.073,8.029,4.614,-4.778,-8.028,261.5,264.8,-8.085,263.2,252.2,256.9,251.0,266.6,36,260.2,1,5,prime,10,0,74,norm,36,-4.636,up,norm,259.534075139,258.1,239.5,2.068,275.1,4,263.7,252.3,246.5,10,6,8.262,4.376,1.247,-1.684,-4.609,-8.024,,6,333.5,-7.72,-7.725,60,-8.17,-7.805,-5.15,-4.645,-4.847,-4.706,4.32,8.162,10,-2.049,1.769,5.07,8.341,-7.525,-7.93,-1.864,1.334,255.1,264.6,269.6,273.0,251.1,258.3,253.8,264.7,250.9,266.8,2,norm,1.113,1.791,-1.303,-1.902,-5.089,-4.513,-1.86,-1.11,-1.111,-1.831,1.646,-1.66,278.3,279.3,-4.577,-8.269,273.3,-1.176,8.436,4.963,-4.64,-8.483,2,5.007,4.952,4.942,5.18,1.486,1.484,1.127,1.17,2,4.511,4.473,-10,78.105636201,norm,0,9,9,9,369.106,369.111,369.113299336,369.114,369.116,369.12,down,0,0.996793855556,-10,001,24,800_600,Intel(R) Core(TM) i7-2670QM CPU @ 2.20GHz,orientation_search,GRVLAPTOP3,Intel(R) HD Graphics Family,2018_jul_31_1902,testMonitor,
268.0,254.6,241.4,254.1,36,60,255.6,279.5,243.9,246.0,7.698,7.626,8.074,7.615,7.558,8.149,8.107,4.88,-5.25,-7.804,1.42,-1.221,7.925,5.207,-4.726,-7.52,257.5,254.8,-7.875,,249.1,252.2,255.4,273.9,36,257.4,5,5,prime,10,0,87,norm,36,-5.168,down,norm,259.534075139,251.4,266.7,1.459,246.3,1,256.9,270.4,252.8,10,6,8.215,5.106,1.458,-1.312,-4.958,-8.384,263.4,6,346.5,-7.96,-7.593,60,-8.46,-7.908,-4.351,-4.511,-5.075,-4.37,4.921,7.826,31,-1.845,1.433,5.182,7.92,-8.404,-7.995,-1.968,1.955,267.4,239.5,272.6,262.6,274.0,258.5,246.2,266.5,258.9,256.6,3,norm,2.031,1.705,-1.691,-1.633,-5.077,-4.707,-1.111,-2.093,-1.389,-1.901,1.364,-1.656,259.4,255.7,-5.008,-8.052,258.4,-1.96,8.016,4.654,-4.966,-7.61,2,4.463,4.464,5.102,5.185,1.832,1.487,1.313,1.997,2,4.332,4.582,-10,78.105636201,norm,0,10,10,10,371.128,371.134,371.135713862,371.136,371.139,371.142,down,1,1.43982922355,8.56017077645,001,24,800_600,Intel(R) Core(TM) i7-2670QM CPU @ 2.20GHz,orientation_search,GRVLAPTOP3,Intel(R) HD Graphics Family,2018_jul_31_1902,testMonitor,
266.4,255.1,262.5,254.1,36,60,276.2,241.0,266.0,269.2,7.822,8.061,8.241,8.454,7.777,8.414,8.422,5.292,-4.427,-7.954,2.012,-1.144,7.947,5.176,-4.538,-8.065,255.7,266.8,-8.289,279.5,258.9,254.9,259.5,262.7,36,267.5,0,5,prime,10,0,118,norm,36,-4.641,down,norm,259.534075139,263.6,259.4,1.804,260.1,1,270.8,239.5,267.8,10,6,7.971,4.703,1.486,-1.34,-5.145,-7.649,265.3,6,377.5,-8.458,-7.905,60,-8.363,-8.475,-4.808,-5.212,-5.272,-4.739,4.309,7.648,1,-1.491,1.298,4.994,8.432,-8.096,-7.986,-1.23,2.094,251.3,259.9,258.8,269.4,,260.8,265.8,249.8,259.2,256.2,4,norm,1.943,1.248,-1.722,-1.146,-4.588,-5.225,-1.598,-1.358,-2.082,-1.352,1.383,-1.239,258.3,267.8,-4.551,-8.492,254.7,-1.661,8.325,4.356,-4.71,-8.293,2,5.271,5.079,4.389,4.701,1.581,1.894,1.277,1.647,2,5.184,5.1,-10,78.105636201,norm,0,11,11,11,372.592,372.597,372.599546209,372.6,372.603,372.606,down,1,2.27129417379,7.72870582621,001,24,800_600,Intel(R) Core(TM) i7-2670QM CPU @ 2.20GHz,orientation_search,GRVLAPTOP3,Intel(R) HD Graphics Family,2018_jul_31_1902,testMonitor,
267.1,254.6,261.6,250.6,36,60,243.4,271.3,261.7,252.1,8.306,7.961,8.42,7.656,7.867,8.002,8.302,4.969,-5.079,-8.275,1.258,-1.299,8.36,4.799,-5.292,-7.846,262.1,268.4,-7.665,253.0,269.8,267.8,262.3,250.9,36,243.5,1,5,prime,10,0,83,norm,36,-4.553,down,norm,259.534075139,279.5,264.9,2.098,249.8,1,260.1,250.0,256.4,10,6,7.711,5.121,1.343,-1.215,-4.984,-8.217,268.7,6,342.5,-8.166,-8.453,60,-7.547,-7.664,-5.038,-4.849,-4.346,-4.337,4.477,8.369,7,-1.185,1.175,5.262,7.774,-8.255,-8.098,-1.79,1.836,255.4,255.4,263.0,256.3,239.5,264.5,,246.3,260.7,262.1,5,norm,1.846,1.382,-2.052,-1.799,-4.404,-4.514,-1.923,-1.471,-1.105,-1.933,1.375,-1.438,276.4,267.7,-4.334,-8.085,259.9,-1.729,7.88,5.282,-5.262,-8.469,2,5.285,4.993,4.351,5.082,1.728,1.475,1.163,1.944,2,5.174,4.81,-10,78.105636201,norm,0,12,12,12,374.887,374.892,374.894373744,374.895,374.897,374.901,down,1,1.98601876337,8.01398123663,001,24,800_600,Intel(R) Core(TM) i7-2670QM CPU @ 2.20GHz,orientation_search,GRVLAPTOP3,Intel(R) HD Graphics Family,2018_jul_31_1902,testMonitor,
432.7,420.3,429.4,422.6,36,80,429.7,430.7,423.6,432.6,7.727,7.526,8.244,8.497,8.375,7.768,7.593,5.162,-4.372,-8.258,1.469,-1.289,7.94,4.482,-4.329,-8.113,421.1,420.2,-7.893,426.9,421.0,435.3,429.8,429.5,36,,4,5,probe,5,0,111,norm,36,-4.632,up,norm,426.599236844,425.9,436.6,2.084,427.1,3,422.1,430.1,429.4,10,6,8.211,5.221,1.768,-2.068,-5.055,-7.765,424.8,1,315.6,-7.849,-8.189,60,-8.11,-8.311,-4.709,-5.257,-5.105,-4.615,4.414,7.503,27,-1.538,1.113,5.226,8.234,-7.696,-7.737,-1.315,1.186,428.0,429.2,430.8,421.3,424.0,425.8,416.6,431.3,425.9,427.4,0,norm,2.072,1.133,-2.083,-1.245,-4.725,-4.983,-1.707,-1.135,-1.318,-1.76,1.414,-1.587,422.0,421.0,-4.623,-8.065,425.7,-1.358,8.177,4.884,-4.933,-8.123,3,5.232,5.07,5.184,5.296,1.996,1.124,1.282,2.043,3,4.318,4.84,60,259.534075139,norm,0,13,13,13,376.896,376.902,376.903930539,376.904,376.907,376.911,up,1,0.957011701539,9.04298829846,001,24,800_600,Intel(R) Core(TM) i7-2670QM CPU @ 2.20GHz,orientation_search,GRVLAPTOP3,Intel(R) HD Graphics Family,2018_jul_31_1902,testMonitor,
304.7,314.4,292.1,313.1,36,20,306.1,296.7,313.3,309.2,7.976,8.444,7.571,7.938,7.924,8.212,7.567,5.213,-4.528,-8.154,1.841,-1.869,7.926,4.389,-5.0,-8.203,309.1,317.1,-7.765,313.9,310.4,306.5,308.5,310.6,36,312.0,3,5,prime,10,0,112,norm,36,-4.701,down,norm,302.582508341,282.6,300.3,1.517,293.8,0,315.1,300.2,300.1,10,5,8.116,4.519,1.457,-1.352,-4.46,-7.676,299.8,5,414.6,-8.24,-8.464,20,-8.068,-7.928,-4.463,-4.76,-4.831,-5.047,4.452,8.142,18,-1.258,1.963,4.821,7.594,-7.662,-8.13,-1.929,1.648,318.6,301.9,315.3,301.6,308.3,296.3,303.6,303.5,294.7,284.8,0,norm,1.718,1.395,-1.447,-1.495,-5.197,-4.536,-1.207,-1.404,-2.0,-2.036,1.673,-1.961,322.6,,-4.931,-7.962,307.3,-1.434,8.129,4.455,-4.744,-7.733,4,4.975,4.997,5.155,4.671,1.427,1.762,1.785,1.342,4,5.165,4.801,80,259.534075139,norm,0,14,14,14,377.878,377.883,377.884989725,377.885,377.888,377.891,down,1,1.90018785783,8.09981214217,001,24,800_600,Intel(R) Core(TM) i7-2670QM CPU @ 2.20GHz,orientation_search,GRVLAPTOP3,Intel(R) HD Graphics Family,2018_jul_31_1902,testMonitor,
300.3,306.5,307.1,308.2,36,20,311.9,285.2,306.0,282.6,8.251,7.99,8.472,8.241,7.561,8.067,8.468,4.836,-5.111,-7.916,2.074,-1.71,7.631,5.199,-4.588,-7.888,285.8,322.6,-7.783,299.2,296.5,297.2,306.3,292.5,36,292.1,0,5,prime,10,0,94,norm,36,-4.81,up,norm,302.582508341,292.5,309.5,1.309,296.2,5,306.7,318.6,314.0,10,5,8.434,5.083,1.768,-1.596,-4.654,-8.027,307.8,5,396.6,-8.281,-7.511,20,-8.315,-8.388,-5.048,-4.439,-4.385,-4.465,4.666,7.675,5,-1.152,1.923,4.598,8.494,-7.582,-8.225,-1.769,1.23,291.8,303.0,285.1,319.9,290.9,303.5,295.0,305.7,,301.5,1,norm,2.094,1.959,-1.196,-1.395,-4.766,-4.972,-1.787,-1.459,-1.26,-1.631,1.313,-1.885,308.8,305.8,-4.341,-8.013,298.4,-1.234,8.059,5.057,-4.609,-7.606,4,4.773,4.711,5.032,4.433,1.173,1.41,1.957,1.9,4,5.221,4.452,80,259.534075139,norm,0,15,15,15,379.802,379.807,379.809377295,379.81,379.813,379.816,up,1,1.54945872381,8.45054127619,001,24,800_600,Intel(R) Core(TM) i7-2670QM CPU @ 2.20GHz,orientation_search,GRVLAPTOP3,Intel(R) HD Graphics Family,2018_jul_31_1902,testMonitor,
295.5,298.2,287.3,307.7,36,20,308.5,296.8,315.2,308.1,7.512,8.309,7.778,7.815,7.564,7.647,8.13,4.811,-5.002,-7.638,1.437,-1.356,8.078,4.717,-4.687,-8.16,306.6,305.5,-8.137,290.2,296.3,318.8,312.2,297.7,36,,4,5,prime,10,0,71,norm,36,-5.03,up,norm,302.582508341,301.3,300.1,1.85,311.8,3,288.3,304.9,312.8,10,5,7.782,4.322,1.454,-1.196,-4.813,-7.568,297.5,5,373.6,-7.828,-7.752,20,-7.702,-8.319,-5.204,-4.719,-4.51,-4.904,4.338,8.045,27,-2.006,1.687,5.268,7.613,-7.999,-7.782,-1.159,2.04,306.4,295.4,297.0,322.6,315.7,315.2,293.6,282.6,301.0,308.6,2,norm,1.925,1.979,-1.436,-1.459,-4.824,-5.041,-1.147,-1.946,-1.219,-1.508,1.953,-1.55,306.8,307.1,-4.54,-7.835,306.6,-1.428,7.767,4.477,-4.414,-7.753,4,4.866,5.262,4.848,5.137,1.72,1.878,1.517,2.023,4,4.797,5.188,80,259.534075139,norm,0,16,16,16,381.375,381.38,381.382427284,381.383,381.385,381.389,up,1,1.48621838859,8.51378161141,001,24,800_600,Intel(R) Core(TM) i7-2670QM CPU @ 2.20GHz,orientation_search,GRVLAPTOP3,Intel(R) HD Graphics Family,2018_jul_31_1902,testMonitor,
299.6,303.8,303.8,303.7,36,20,298.4,293.7,307.9,313.7,8.391,8.166,7.821,8.311,7.814,8.458,8.488,4.486,-5.153,-8.408,1.94,-1.486,8.122,4.474,-4.431,-8.169,308.2,314.0,-8.418,289.2,303.1,286.6,286.1,,36,317.9,4,5,prime,10,0,113,norm,36,-5.129,down,norm,302.582508341,294.3,289.1,1.935,294.3,2,283.2,303.4,319.1,10,5,8.301,5.097,1.823,-1.634,-4.388,-7.527,318.5,5,415.6,-8.374,-7.922,20,-7.542,-7.978,-5.225,-4.942,-5.053,-4.473,4.626,8.459,26,-1.462,1.263,4.464,8.203,-7.978,-8.152,-1.182,1.156,301.5,298.1,308.0,313.3,310.8,282.6,297.1,297.5,309.5,315.1,3,norm,1.797,1.346,-2.013,-1.342,-5.241,-5.0,-1.631,-1.48,-1.886,-1.577,1.709,-1.956,290.8,304.8,-4.344,-7.853,322.6,-1.205,8.135,4.61,-5.062,-8.128,4,4.812,4.831,4.929,4.377,1.196,1.653,1.851,1.694,4,4.901,4.734,80,259.534075139,norm,0,17,17,17,382.885,382.891,382.892545597,382.893,382.896,382.899,down,1,0.88926473946,9.11073526054,001,24,800_600,Intel(R) Core(TM) i7-2670QM CPU @ 2.20GHz,orientation_search,GRVLAPTOP3,Intel(R) HD Graphics Family,2018_jul_31_1902,testMonitor,
300.6,292.9,285.7,303.1,36,20,322.6,300.9,291.8,310.8,7.946,7.698,7.693,8.311,7.707,7.619,7.712,5.14,-4.912,-8.174,1.397,-1.287,8.496,4.407,-5.258,-8.17,290.9,307.4,-8.127,293.5,301.4,313.0,297.6,306.8,36,313.3,0,5,prime,10,0,89,norm,36,-5.229,down,norm,302.582508341,302.1,295.6,1.231,291.6,0,308.1,301.4,304.4,10,5,7.539,4.399,1.54,-1.499,-4.435,-7.919,301.7,5,391.6,-7.559,-7.586,20,-7.961,-7.688,-4.475,-4.881,-4.303,-4.704,4.825,7.748,0,-1.502,2.044,5.127,8.35,-7.725,-7.714,-2.061,1.728,315.8,293.8,287.3,312.1,282.6,,311.3,294.2,293.9,297.2,4,norm,1.183,1.757,-1.856,-1.956,-5.093,-4.768,-1.685,-1.257,-1.171,-1.645,1.122,-1.372,297.2,300.0,-4.753,-7.552,299.7,-1.98,8.145,4.959,-4.93,-7.956,4,4.585,5.085,5.044,4.568,1.859,1.297,1.285,2.057,4,4.465,4.921,80,259.534075139,norm,0,18,18,18,383.798,383.804,383.805593055,383.806,383.809,383.812,down,1,1.11042660026,8.88957339974,001,24,800_600,Intel(R) Core(TM) i7-2670QM CPU @ 2.20GHz,orientation_search,GRVLAPTOP3,Intel(R) HD Graphics Family,2018_jul_31_1902,testMonitor,
430.0,440.3,439.4,431.2,36,-20,448.0,438.3,444.9,431.7,7.916,7.612,8.17,7.58,7.901,8.076,7.706,4.939,-5.292,-8.274,1.778,-1.605,8.46,5.23,-4.708,-7.883,440.1,439.6,-8.462,432.9,435.8,435.0,443.0,441.9,36,432.7,2,5,probe,5,0,119,norm,36,-5.22,up,norm,437.967653477,436.4,,1.384,435.7,4,437.8,440.2,436.1,10,5,7.994,4.852,1.258,-1.755,-4.511,-7.542,443.3,1,319.0,-7.733,-8.272,20,-8.07,-7.657,-5.233,-4.683,-5.096,-5.133,5.259,8.02,16,-1.763,1.125,4.839,7.987,-7.879,-7.658,-1.654,1.56,438.4,441.3,428.0,429.6,442.6,436.0,439.5,434.6,432.1,438.1,0,norm,1.746,1.959,-1.315,-1.403,-4.76,-4.399,-1.591,-1.705,-1.319,-1.717,1.958,-1.962,435.5,439.3,-4.903,-7.641,434.5,-1.175,7.829,4.996,-4.432,-7.733,5,4.457,4.809,5.023,4.883,1.289,1.557,1.993,1.857,5,4.382,4.507,20,302.582508341,norm,0,19,19,19,384.932,384.938,384.939545079,384.94,384.943,384.946,up,1,2.83035825605,7.16964174395,001,24,800_600,Intel(R) Core(TM) i7-2670QM CPU @ 2.20GHz,orientation_search,GRVLAPTOP3,Intel(R) HD Graphics Family,2018_jul_31_1902,testMonitor,
180.4,154.6,188.2,169.2,36,30,160.4,187.7,155.7,175.4,7.855,8.126,7.662,7.714,8.2,7.827,7.525,4.433,-4.749,-8.287,1.798,-2.057,8.446,4.501,-4.622,-7.703,170.5,,-8.074,175.2,174.8,164.2,156.8,164.2,36,150.6,5,5,prime,10,0,112,norm,36,-4.888,up,norm,170.612107371,179.7,168.7,1.426,180.7,4,166.3,159.8,177.2,10,5,7.901,4.698,1.796,-1.987,-5.034,-8.463,166.2,5,282.6,-7.769,-7.744,30,-8.484,-7.975,-5.079,-4.423,-4.964,-4.402,5.272,8.49,34,-1.463,1.974,4.513,8.245,-8.254,-8.211,-1.871,1.234,166.9,166.7,154.9,168.0,177.2,183.6,172.0,152.1,169.5,169.1,0,norm,1.441,2.095,-1.403,-2.07,-5.071,-5.298,-1.102,-1.33,-1.865,-1.745,1.86,-1.978,156.3,160.1,-5.063,-7.609,190.6,-1.774,7.743,4.377,-5.106,-7.88,6,4.631,4.537,4.34,5.245,1.636,1.101,1.353,1.152,6,4.952,5.18,-20,302.582508341,norm,0,20,20,20,387.788,387.795,387.796918347,387.797,387.801,387.805,down,0,3.6862008309,-10,001,24,800_600,Intel(R) Core(TM) i7-2670QM CPU @ 2.20GHz,orientation_search,GRVLAPTOP3,Intel(R) HD Graphics Family,2018_jul_31_1902,testMonitor,
158.8,187.2,180.4,168.1,36,30,174.1,165.1,172.1,171.7,8.196,8.443,8.353,8.082,7.935,8.474,7.764,4.575,-4.683,-8.399,1.759,-1.791,7.729,4.427,-4.643,-7.936,178.4,173.0,-8.077,175.6,171.3,173.7,179.8,173.9,36,,4,5,prime,10,0,69,norm,36,-4.482,up,norm,170.612107371,189.5,162.9,1.208,158.7,3,166.4,175.2,161.4,10,5,8.001,4.919,1.406,-1.729,-4.795,-7.563,172.5,5,239.6,-7.832,-8.059,30,-8.21,-8.34,-4.591,-4.84,-5.027,-4.645,4.91,7.769,27,-1.522,1.929,4.919,7.896,-8.424,-7.731,-1.86,1.622,181.4,164.9,179.9,156.9,178.4,190.6,168.5,166.4,185.4,163.1,1,norm,1.689,2.0,-1.63,-1.487,-4.698,-4.8,-2.05,-1.702,-1.834,-1.823,1.276,-1.499,157.3,150.6,-4.56,-7.91,177.2,-2.014,7.666,5.216,-5.255,-7.903,6,5.286,5.121,4.841,4.803,1.217,1.93,1.225,1.884,6,4.637,5.055,-20,302.582508341,norm,0,21,21,21,392.505,392.512,392.514066457,392.514,392.518,392.522,up,1,0.912960603091,9.08703939691,001,24,800_600,Intel(R) Core(TM) i7-2670QM CPU @ 2.20GHz,orientation_search,GRVLAPTOP3,Intel(R) HD Graphics Family,2018_jul_31_1902,testMonitor,
163.6,182.7,156.6,172.3,36,30,165.1,162.7,188.8,173.4,7.563,8.414,7.686,8.062,8.179,7.822,7.968,5.009,-4.412,-7.707,1.794,-1.715,8.335,4.428,-4.902,-8.417,171.7,187.3,-8.015,174.5,174.1,178.6,,150.6,36,181.4,5,5,prime,10,0,102,norm,36,-5.09,down,norm,170.612107371,159.1,164.7,1.865,177.7,2,162.2,171.4,171.2,10,5,8.23,4.476,2.096,-1.972,-4.608,-7.614,170.2,5,272.6,-8.129,-8.121,30,-7.574,-8.166,-4.617,-4.455,-4.455,-4.464,4.572,8.326,32,-1.838,1.203,4.485,7.802,-8.023,-7.557,-1.589,1.73,170.2,173.0,183.9,168.9,158.9,167.9,190.6,165.8,156.2,184.5,2,norm,1.539,1.451,-1.421,-1.958,-4.657,-4.738,-2.079,-1.482,-1.877,-1.269,1.622,-1.223,161.4,186.0,-4.884,-7.684,188.4,-1.351,8.0,4.353,-4.457,-7.666,6,5.194,4.512,4.48,5.026,1.693,1.266,1.872,1.225,6,4.63,4.618,-20,302.582508341,norm,0,22,22,22,393.446,393.453,393.455827259,393.456,393.46,393.464,down,1,2.18020156777,7.81979843223,001,24,800_600,Intel(R) Core(TM) i7-2670QM CPU @ 2.20GHz,orientation_search,GRVLAPTOP3,Intel(R) HD Graphics Family,2018_jul_31_1902,testMonitor,
176.2,170.1,156.8,173.7,36,30,160.3,183.1,169.7,160.3,8.138,7.886,7.849,7.67,8.191,7.89,7.878,5.245,-4.383,-7.619,1.757,-1.165,8.489,4.463,-5.186,-8.266,158.0,155.8,-8.069,189.8,163.5,168.5,173.2,171.7,36,177.4,1,5,prime,10,0,61,norm,36,-4.941,up,norm,170.612107371,166.5,168.7,1.371,154.5,5,,183.5,158.6,10,5,7.707,4.701,1.849,-1.45,-4.772,-7.914,173.3,5,231.6,-8.113,-7.656,30,-8.07,-8.268,-5.048,-5.288,-5.009,-4.912,4.968,8.011,11,-1.447,1.734,5.252,8.086,-7.846,-7.851,-1.336,1.316,181.4,175.7,166.6,182.8,171.1,150.6,169.2,161.0,159.5,190.6,3,norm,1.345,2.094,-1.726,-1.847,-5.139,-4.909,-1.788,-1.387,-1.352,-1.405,2.091,-1.177,152.4,190.4,-5.125,-8.167,187.9,-1.572,7.7,5.065,-4.95,-8.008,6,4.933,5.0,4.928,4.479,1.723,1.614,1.935,1.8,6,4.937,4.316,-20,302.582508341,norm,0,23,23,23,395.655,395.661,395.663925458,395.664,395.668,395.672,up,1,1.68180954307,8.31819045693,001,24,800_600,Intel(R) Core(TM) i7-2670QM CPU @ 2.20GHz,orientation_search,GRVLAPTOP3,Intel(R) HD Graphics Family,2018_jul_31_1902,testMonitor,
187.3,172.2,178.7,168.8,36,30,173.5,166.8,173.5,166.7,8.245,8.419,8.094,7.517,7.802,8.042,8.04,4.542,-5.218,-7.587,1.293,-1.988,7.917,5.073,-5.09,-7.909,169.6,150.6,-7.79,159.2,184.3,172.7,172.6,161.4,36,187.3,1,5,prime,10,0,100,norm,36,-4.745,up,norm,170.612107371,184.8,172.3,1.381,158.6,3,161.9,156.3,171.3,10,5,7.626,5.038,2.062,-1.588,-4.639,-8.041,172.4,5,270.6,-8.237,-8.181,30,-7.551,-7.811,-4.61,-4.635,-4.705,-4.642,4.765,8.028,9,-1.642,1.856,4.365,7.899,-8.479,-8.344,-1.667,1.395,,173.9,163.7,190.6,174.2,176.4,165.1,155.9,174.9,178.2,4,norm,1.594,1.77,-1.306,-1.976,-4.726,-4.711,-1.771,-1.487,-1.73,-1.568,1.548,-1.472,164.7,173.6,-4.547,-8.027,184.4,-1.46,8.248,4.509,-4.452,-8.376,6,5.163,4.85,4.494,5.17,1.532,1.87,1.577,1.132,6,5.09,4.496,-20,302.582508341,norm,0,24,24,24,397.365,397.371,397.373529836,397.374,397.377,397.382,up,1,2.76541958886,7.23458041114,001,24,800_600,Intel(R) Core(TM) i7-2670QM CPU @ 2.20GHz,orientation_search,GRVLAPTOP3,Intel(R) HD Graphics Family,2018_jul_31_1902,testMonitor,
285.0,289.8,292.7,287.9,36,60,292.9,296.3,291.9,294.9,8.457,8.494,8.02,8.436,7.548,8.425,8.468,4.693,-5.142,-7.793,1.101,-1.888,7.822,5.109,-5.186,-7.538,284.8,291.6,-8.445,285.5,293.6,292.0,281.1,289.8,36,288.9,2,5,probe,5,0,93,norm,36,-5.089,down,norm,291.111985123,292.5,292.9,1.413,282.4,1,289.7,,286.6,10,5,7.72,4.846,1.812,-1.37,-4.482,-7.777,291.2,1,198.1,-7.757,-8.247,30,-8.499,-8.269,-5.295,-4.854,-4.576,-4.32,4.355,7.945,13,-1.54,1.764,4.99,8.382,-8.381,-7.987,-1.962,1.576,289.3,288.6,291.3,288.0,284.6,298.1,290.5,289.7,288.4,290.5,0,norm,1.498,1.794,-1.405,-1.609,-5.276,-4.484,-1.659,-1.308,-2.011,-1.795,1.339,-1.78,288.2,283.6,-4.838,-8.017,288.5,-1.698,8.19,5.005,-4.349,-7.503,7,4.444,4.962,4.57,4.472,1.881,2.086,1.788,1.266,7,4.822,5.217,30,170.612107371,norm,0,25,25,25,400.158,400.166,400.16825861,400.169,400.172,400.177,down,1,1.06101667372,8.93898332628,001,24,800_600,Intel(R) Core(TM) i7-2670QM CPU @ 2.20GHz,orientation_search,GRVLAPTOP3,Intel(R) HD Graphics Family,2018_jul_31_1902,testMonitor,
69.5,45.5,40.1,48.6,36,10,57.9,57.2,51.9,49.9,8.347,7.56,8.484,7.519,7.557,8.441,8.417,5.021,-4.532,-7.58,1.113,-1.339,7.678,4.444,-4.617,-7.78,45.8,46.8,-7.736,66.6,63.1,59.3,53.4,38.1,36,67.7,1,5,prime,10,0,80,norm,36,-4.503,up,norm,58.1004007207,69.0,40.9,1.311,64.2,4,56.6,54.3,75.3,10,6,7.897,5.255,1.136,-1.6,-4.469,-8.312,,6,138.1,-8.409,-7.595,10,-8.012,-8.249,-5.153,-5.046,-5.078,-4.402,5.276,8.013,10,-1.507,2.017,4.925,7.533,-8.335,-7.703,-1.403,1.429,48.1,44.7,52.0,48.2,73.9,44.0,48.4,65.1,62.6,62.8,0,norm,1.204,1.754,-1.792,-1.282,-5.055,-5.014,-1.542,-1.772,-1.494,-1.149,1.989,-1.194,63.9,78.1,-4.659,-8.286,62.0,-1.703,7.845,4.782,-4.335,-7.539,8,5.07,4.484,4.704,4.977,1.873,1.892,1.285,1.665,8,5.067,5.077,60,170.612107371,norm,0,26,26,26,401.249,401.256,401.257985359,401.258,401.262,401.266,up,1,3.32337324126,6.67662675874,001,24,800_600,Intel(R) Core(TM) i7-2670QM CPU @ 2.20GHz,orientation_search,GRVLAPTOP3,Intel(R) HD Graphics Family,2018_jul_31_1902,testMonitor,
78.1,49.9,70.6,57.3,36,10,39.7,62.5,38.1,49.6,8.116,8.055,8.152,8.161,7.75,8.432,8.323,4.712,-4.719,-7.953,1.955,-1.369,7.928,4.396,-4.492,-8.3,64.8,63.5,-7.7,50.6,62.1,57.0,74.8,49.0,36,66.9,2,5,prime,10,0,118,norm,36,-4.353,down,norm,58.1004007207,75.3,56.2,1.649,,2,60.6,58.5,65.1,10,6,8.273,4.524,1.587,-1.24,-4.574,-8.488,67.4,6,176.1,-7.569,-8.4,10,-8.039,-7.844,-4.706,-4.826,-4.324,-4.742,4.601,8.264,14,-1.11,1.47,4.533,7.913,-8.403,-7.997,-2.026,1.784,61.1,51.9,57.2,47.6,55.6,52.5,61.6,49.6,52.2,61.7,1,norm,2.078,1.715,-1.957,-1.102,-4.985,-5.059,-1.276,-1.982,-1.85,-1.373,1.669,-1.464,54.1,59.0,-5.21,-7.876,68.4,-1.324,8.289,4.397,-4.739,-7.717,8,4.793,5.253,4.338,5.031,1.28,1.283,1.915,1.735,8,4.59,4.3,60,170.612107371,norm,0,27,27,27,404.6,404.607,404.609251963,404.61,404.613,404.618,down,1,4.33024501836,5.66975498164,001,24,800_600,Intel(R) Core(TM) i7-2670QM CPU @ 2.20GHz,orientation_search,GRVLAPTOP3,Intel(R) HD Graphics Family,2018_jul_31_1902,testMonitor,
49.6,64.7,65.2,54.0,36,10,58.6,46.8,64.3,70.1,7.63,7.559,8.327,8.432,7.908,7.689,7.99,4.505,-4.695,-8.367,1.618,-1.955,7.974,4.729,-5.161,-7.83,38.7,58.3,-7.678,78.1,69.0,75.7,68.7,,36,52.9,4,5,prime,10,0,79,norm,36,-5.266,down,norm,58.1004007207,60.3,56.2,1.224,64.2,2,40.7,66.5,68.7,10,6,8.363,4.348,2.092,-1.679,-4.404,-7.538,64.0,6,137.1,-8.451,-8.304,10,-7.505,-8.058,-5.199,-4.89,-5.118,-4.715,5.216,8.281,26,-1.571,2.059,4.791,8.281,-8.077,-8.197,-1.405,1.775,51.2,42.2,50.1,56.2,63.9,52.0,38.1,46.3,57.6,56.8,2,norm,2.052,1.189,-1.116,-1.15,-4.689,-4.47,-1.491,-1.933,-1.974,-1.827,1.103,-1.512,41.2,69.4,-4.818,-7.591,56.4,-1.578,8.213,4.834,-5.016,-8.044,8,4.304,5.185,4.773,4.942,1.446,1.127,1.938,1.404,8,4.347,4.946,60,170.612107371,norm,0,28,28,28,408.959,408.966,408.968675418,408.969,408.973,408.978,down,1,1.1426043176,8.8573956824,001,24,800_600,Intel(R) Core(TM) i7-2670QM CPU @ 2.20GHz,orientation_search,GRVLAPTOP3,Intel(R) HD Graphics Family,2018_jul_31_1902,testMonitor,
50.6,43.1,57.1,,36,10,60.2,38.1,67.8,64.9,8.125,8.007,8.262,7.789,8.319,7.898,8.42,4.942,-4.784,-7.988,1.747,-1.505,8.135,5.16,-4.98,-7.564,56.1,39.0,-8.248,64.0,68.2,55.0,63.3,67.1,36,60.7,3,5,prime,10,0,76,norm,36,-5.069,up,norm,58.1004007207,47.5,48.4,2.09,52.7,3,78.1,49.2,45.7,10,6,8.368,4.952,2.092,-1.652,-4.863,-7.822,43.3,6,134.1,-7.75,-7.656,10,-8.136,-7.788,-4.881,-4.732,-4.607,-4.336,5.281,7.947,21,-1.707,1.218,4.376,8.433,-8.222,-7.755,-1.205,2.0,64.0,49.8,41.9,56.3,63.9,58.6,60.8,62.6,60.3,51.6,3,norm,1.865,1.422,-2.086,-1.891,-5.276,-4.886,-2.064,-1.538,-1.386,-1.474,1.471,-1.162,50.2,67.8,-4.868,-7.702,50.2,-1.75,7.837,4.32,-5.056,-7.809,8,4.718,4.87,4.574,5.271,1.478,1.395,1.636,1.575,8,5.298,4.872,60,170.612107371,norm,0,29,29,29,410.131,410.138,410.14094988,410.141,410.145,410.15,up,1,0.982284020691,9.01771597931,001,24,800_600,Intel(R) Core(TM) i7-2670QM CPU @ 2.20GHz,orientation_search,GRVLAPTOP3,Intel(R) HD Graphics Family,2018_jul_31_1902,testMonitor,
69.2,56.9,66.4,47.9,36,10,59.4,65.0,56.8,40.9,8.255,7.917,7.75,7.944,8.466,7.938,8.172,4.695,-4.637,-8.272,1.575,-1.462,7.615,4.599,-4.983,-8.36,66.9,63.1,-7.509,59.0,58.5,63.6,50.6,46.8,36,53.5,0,5,prime,10,0,104,norm,36,-4.823,down,norm,58.1004007207,61.8,54.5,1.772,54.0,2,65.6,51.9,50.9,10,6,8.138,5.016,1.223,-1.634,-4.767,-7.552,57.4,6,162.1,-8.181,-8.37,10,-7.625,-8.096,-4.336,-4.877,-4.81,-4.945,4.417,8.497,2,-1.647,1.392,4.731,7.95,-7.727,-7.52,-1.146,1.684,69.5,66.9,58.2,,51.3,58.7,78.1,56.6,49.0,56.6,4,norm,1.344,1.588,-2.061,-1.533,-4.692,-4.443,-1.489,-1.3,-1.809,-1.128,1.493,-1.57,52.8,50.8,-4.42,-8.096,53.7,-1.612,7.8,5.196,-5.041,-8.112,8,4.602,4.807,4.798,4.762,1.3,1.863,1.207,2.062,8,4.469,4.892,60,170.612107371,norm,0,30,30,30,411.144,411.151,411.153558722,411.154,411.158,411.162,down,1,0.872632573322,9.12736742668,001,24,800_600,Intel(R) Core(TM) i7-2670QM CPU @ 2.20GHz,orientation_search,GRVLAPTOP3,Intel(R) HD Graphics Family,2018_jul_31_1902,testMonitor,
53.5,64.3,67.1,55.2,36,10,54.6,69.2,44.3,55.3,8.177,7.888,8.216,7.839,8.469,8.175,7.641,4.403,-4.502,-7.557,1.456,-1.887,7.5,5.261,-4.845,-8.358,52.2,55.9,-8.077,47.5,62.0,59.7,53.9,64.5,36,64.4,2,5,prime,10,0,115,norm,36,-5.005,up,norm,58.1004007207,62.7,,1.566,50.6,4,62.6,46.7,58.8,10,6,8.453,4.857,1.351,-1.497,-4.936,-8.37,48.3,6,173.1,-7.784,-7.545,10,-8.094,-8.359,-4.895,-5.3,-4.319,-4.959,4.537,7.53,16,-1.994,1.365,5.187,7.542,-8.497,-7.899,-1.989,1.278,77.0,58.8,54.1,73.9,39.3,40.3,38.8,78.1,76.7,64.1,5,norm,1.824,1.353,-1.162,-1.115,-4.813,-4.889,-1.957,-1.259,-1.201,-1.386,2.07,-1.858,59.4,73.5,-4.817,-8.468,38.1,-2.09,8.067,5.075,-4.409,-7.777,8,4.702,4.95,4.71,4.654,1.474,1.335,1.423,1.255,8,5.149,4.659,60,170.612107371,norm,0,31,31,31,412.046,412.054,412.056003863,412.056,412.06,412.065,up,1,0.932232491701,9.0677675083,001,24,800_600,Intel(R) Core(TM) i7-2670QM CPU @ 2.20GHz,orientation_search,GRVLAPTOP3,Intel(R) HD Graphics Family,2018_jul_31_1902,testMonitor,
134.8,127.9,129.1,138.2,36,-80,129.4,131.4,136.3,132.9,8.287,8.283,8.047,8.305,8.357,8.257,8.157,4.786,-5.203,-8.16,1.605,-1.741,7.964,4.795,-4.678,-8.286,127.4,131.7,-8.489,127.4,122.7,142.7,128.1,134.3,36,132.6,0,5,probe,5,0,66,norm,36,-4.606,up,norm,132.662734973,132.6,133.0,1.43,137.5,3,141.6,122.7,142.0,10,6,8.261,5.2,2.089,-1.678,-4.445,-7.964,134.5,2,66.7,-7.805,-8.134,10,-8.475,-8.049,-4.943,-4.792,-5.265,-5.159,4.524,7.834,3,-1.199,1.968,4.679,7.91,-7.599,-7.964,-1.194,1.58,130.7,133.4,,135.8,138.0,125.0,130.4,134.1,132.5,128.0,0,norm,2.041,2.043,-1.437,-1.12,-5.252,-4.722,-1.295,-1.297,-1.976,-1.385,1.114,-1.72,133.8,134.9,-4.361,-7.511,132.9,-1.816,8.233,5.186,-4.538,-8.357,9,4.807,4.316,4.863,5.204,1.527,2.028,1.486,1.27,9,4.808,4.386,10,58.1004007207,norm,0,32,32,32,413.011,413.017,413.020019958,413.02,413.024,413.029,up,1,1.38200094979,8.61799905021,001,24,800_600,Intel(R) Core(TM) i7-2670QM CPU @ 2.20GHz,orientation_search,GRVLAPTOP3,Intel(R) HD Graphics Family,2018_jul_31_1902,testMonitor,
140.5,136.4,137.9,135.6,36,-80,131.7,137.4,,145.5,7.565,8.053,7.951,8.236,7.719,7.754,7.729,4.71,-4.726,-7.866,1.76,-1.337,8.063,4.508,-4.371,-7.952,129.8,139.2,-7.751,138.4,133.3,136.1,136.9,142.6,36,143.2,4,5,probe,5,0,70,norm,36,-4.611,up,norm,136.662734973,132.3,146.2,1.405,143.0,4,126.7,135.7,136.0,10,6,7.666,4.642,2.045,-1.484,-4.563,-7.824,138.4,2,66.7,-8.039,-8.357,10,-7.55,-8.384,-5.297,-4.656,-4.469,-4.997,4.554,7.536,28,-1.246,1.267,4.651,8.27,-8.442,-7.745,-1.514,1.437,140.7,139.8,134.0,135.5,140.3,132.3,143.6,131.9,131.6,131.4,1,norm,1.815,1.971,-2.015,-1.702,-5.259,-4.417,-1.573,-1.651,-1.378,-1.53,1.629,-1.698,143.3,128.7,-4.365,-8.314,146.7,-1.74,7.708,5.073,-5.142,-7.714,9,5.164,4.591,5.088,4.84,1.786,1.327,2.087,1.968,9,4.754,5.144,10,58.1004007207,norm,0,33,33,33,414.422,414.429,414.431799387,414.432,414.436,414.441,up,1,0.744574046475,9.25542595352,001,24,800_600,Intel(R) Core(TM) i7-2670QM CPU @ 2.20GHz,orientation_search,GRVLAPTOP3,Intel(R) HD Graphics Family,2018_jul_31_1902,testMonitor,
177.4,185.6,186.1,193.5,36,10,174.6,176.7,,196.6,7.753,7.633,8.45,7.865,8.21,7.993,8.482,4.432,-5.111,-7.926,1.466,-1.534,8.457,4.512,-4.48,-8.099,164.6,187.9,-8.093,172.7,186.1,184.4,172.2,189.4,36,190.8,4,5,prime,10,0,109,norm,36,-4.335,up,norm,184.643138845,204.6,186.2,1.816,199.3,4,190.5,186.0,198.3,10,5,7.808,4.642,1.156,-1.319,-4.36,-8.238,173.9,5,293.6,-7.821,-8.356,10,-8.447,-7.89,-4.886,-4.689,-5.192,-4.382,4.914,8.062,28,-1.901,1.949,4.476,8.115,-7.801,-8.065,-2.091,2.012,179.9,181.2,185.2,168.1,177.0,173.9,189.0,177.3,199.9,187.4,0,norm,1.292,1.769,-1.121,-1.871,-4.489,-5.209,-1.295,-1.374,-2.082,-1.232,1.794,-1.441,191.3,189.0,-4.952,-8.172,182.0,-1.674,8.198,5.016,-5.205,-7.535,10,4.936,4.676,4.461,5.177,1.879,1.143,1.38,1.285,10,4.736,4.3,-80,58.1004007207,norm,0,34,34,34,415.196,415.204,415.206019296,415.206,415.21,415.215,up,1,1.88424585795,8.11575414205,001,24,800_600,Intel(R) Core(TM) i7-2670QM CPU @ 2.20GHz,orientation_search,GRVLAPTOP3,Intel(R) HD Graphics Family,2018_jul_31_1902,testMonitor,
176.3,193.7,168.0,188.1,36,10,175.7,179.7,168.5,177.6,7.74,7.93,8.192,8.492,7.577,8.18,7.752,4.785,-5.021,-8.164,1.681,-1.707,7.517,4.657,-5.285,-7.615,188.1,204.6,-8.35,202.1,183.5,195.6,189.3,194.3,36,,4,5,prime,10,0,104,norm,36,-5.214,up,norm,184.643138845,188.0,190.7,1.117,200.3,3,202.7,182.2,199.9,10,5,7.71,5.157,1.186,-1.542,-4.513,-8.103,184.1,5,288.6,-7.575,-8.118,10,-7.62,-8.077,-5.112,-5.042,-5.243,-4.808,4.839,7.946,27,-1.912,1.797,4.636,7.805,-7.72,-8.275,-1.474,1.738,200.8,170.9,165.4,191.2,184.6,179.8,180.7,167.1,189.9,179.5,1,norm,1.545,1.513,-1.899,-1.832,-4.922,-4.372,-1.214,-1.582,-1.815,-1.254,1.667,-1.642,187.3,190.4,-4.808,-8.255,174.2,-2.059,8.337,5.078,-4.936,-8.168,10,4.352,4.424,4.842,5.217,2.085,1.901,1.218,1.388,10,4.445,4.598,-80,58.1004007207,norm,0,35,35,35,417.11,417.117,417.119765792,417.12,417.124,417.129,up,1,1.46294839209,8.53705160791,001,24,800_600,Intel(R) Core(TM) i7-2670QM CPU @ 2.20GHz,orientation_search,GRVLAPTOP3,Intel(R) HD Graphics Family,2018_jul_31_1902,testMonitor,
178.5,194.7,185.9,,36,10,170.0,197.1,190.2,191.2,7.538,7.869,7.511,8.422,8.147,8.0,8.142,4.552,-4.884,-8.09,1.33,-1.836,7.544,4.56,-4.863,-8.396,189.4,172.5,-7.812,188.3,183.3,182.9,204.6,167.4,36,178.8,3,5,prime,10,0,74,norm,36,-4.919,up,norm,184.643138845,187.3,183.2,1.241,187.4,3,199.2,200.6,175.9,10,5,8.029,4.579,1.934,-1.379,-4.409,-8.326,169.6,5,258.6,-7.696,-8.285,10,-7.629,-8.379,-4.924,-5.138,-4.466,-5.273,5.003,7.855,21,-2.031,1.61,4.321,7.644,-7.606,-8.004,-1.176,1.79,194.4,177.5,183.1,181.3,198.0,183.8,190.6,194.0,164.6,183.6,2,norm,1.902,1.516,-1.955,-1.33,-5.157,-5.112,-1.477,-1.81,-1.979,-1.281,1.816,-1.808,182.7,172.5,-4.586,-8.479,184.2,-1.323,8.336,5.128,-4.507,-8.155,10,4.831,4.58,4.525,5.116,1.267,1.323,1.984,1.487,10,4.528,4.673,-80,58.1004007207,norm,0,36,36,36,418.602,418.609,418.612087342,418.612,418.616,418.621,down,0,4.05758405389,-10,001,24,800_600,Intel(R) Core(TM) i7-2670QM CPU @ 2.20GHz,orientation_search,GRVLAPTOP3,Intel(R) HD Graphics Family,2018_jul_31_1902,testMonitor,
193.9,174.2,193.8,178.5,36,10,193.5,204.6,175.0,193.4,7.63,7.655,8.38,7.975,8.206,7.752,8.449,4.342,-4.849,-8.437,1.548,-1.352,8.057,4.739,-5.095,-7.687,200.3,188.2,-7.716,181.8,185.3,190.9,176.7,188.6,36,179.9,0,5,prime,10,0,106,norm,36,-4.829,up,norm,184.643138845,178.9,179.3,1.464,192.4,5,164.6,198.4,176.0,10,5,7.902,4.533,1.774,-1.439,-4.325,-8.344,185.5,5,290.6,-8.153,-7.892,10,-7.858,-8.104,-4.365,-4.615,-4.993,-4.769,4.338,7.686,5,-1.632,1.754,4.79,8.021,-8.422,-8.164,-1.132,1.815,195.9,179.7,178.3,176.1,181.4,169.9,182.3,202.1,,183.1,3,norm,1.71,1.556,-1.558,-1.554,-4.421,-5.193,-1.169,-1.397,-1.664,-1.201,1.281,-1.504,171.7,179.8,-4.663,-7.657,183.6,-1.291,8.199,4.361,-4.495,-7.694,10,5.217,4.813,4.687,5.153,1.657,1.772,1.481,1.293,10,4.39,4.906,-80,58.1004007207,norm,0,37,37,37,423.692,423.7,423.702962345,423.703,423.708,423.713,up,1,1.93573889114,8.06426110886,001,24,800_600,Intel(R) Core(TM) i7-2670QM CPU @ 2.20GHz,orientation_search,GRVLAPTOP3,Intel(R) HD Graphics Family,2018_jul_31_1902,testMonitor,
178.7,192.9,179.2,194.4,36,10,188.8,196.1,186.6,,7.655,7.585,8.118,7.98,7.539,7.56,7.816,4.685,-5.026,-8.436,1.616,-1.947,7.799,4.389,-4.903,-7.588,186.7,195.0,-8.003,180.5,167.0,189.8,173.1,190.5,36,171.4,4,5,prime,10,0,69,norm,36,-5.245,up,norm,184.643138845,181.6,180.9,1.747,180.8,5,204.6,176.4,189.3,10,5,8.026,4.79,1.106,-1.131,-4.69,-7.692,166.4,5,253.6,-8.438,-7.541,10,-7.67,-8.28,-4.504,-4.408,-5.017,-4.579,4.665,7.62,29,-1.414,1.754,5.12,8.36,-7.715,-8.354,-1.141,1.458,169.8,188.7,190.4,164.6,179.1,180.2,178.7,189.7,174.5,172.2,4,norm,2.041,1.175,-1.667,-1.626,-4.845,-4.548,-1.87,-1.683,-1.96,-1.512,1.323,-1.803,189.2,172.4,-4.447,-7.588,184.0,-1.521,7.836,5.243,-4.332,-7.893,10,4.41,4.918,4.825,4.634,1.329,1.492,1.521,1.31,10,4.34,5.156,-80,58.1004007207,norm,0,38,38,38,425.661,425.668,425.671004099,425.671,425.675,425.68,up,1,2.13027751874,7.86972248126,001,24,800_600,Intel(R) Core(TM) i7-2670QM CPU @ 2.20GHz,orientation_search,GRVLAPTOP3,Intel(R) HD Graphics Family,2018_jul_31_1902,testMonitor,
283.1,275.0,276.4,287.4,36,-60,279.1,290.0,279.9,278.7,7.558,7.729,7.868,8.422,7.964,7.515,8.287,5.282,-4.782,-7.667,1.748,-1.462,8.149,4.444,-4.408,-7.933,285.3,283.4,-8.344,270.0,286.9,274.6,276.1,281.0,36,276.2,2,5,probe,5,0,83,norm,36,-4.535,down,norm,280.02941261,276.3,287.4,1.556,,2,278.4,278.7,283.1,10,5,8.422,4.855,1.597,-1.727,-4.66,-7.629,275.5,1,197.0,-7.893,-7.762,10,-7.742,-7.532,-5.081,-4.808,-5.115,-5.287,5.182,8.392,14,-1.724,1.782,4.859,7.85,-8.465,-7.567,-1.513,1.714,284.1,277.0,277.9,287.3,283.2,282.7,281.0,280.1,281.7,273.2,0,norm,2.088,1.28,-1.329,-1.999,-4.484,-4.941,-1.944,-1.309,-1.15,-1.215,1.815,-1.267,284.9,277.2,-4.882,-7.526,278.7,-1.808,7.519,5.228,-4.952,-7.932,11,5.065,4.726,4.875,5.226,1.11,1.203,1.358,2.011,11,4.485,5.121,10,184.643138845,norm,0,39,39,39,427.821,427.828,427.830544106,427.831,427.835,427.839,down,1,1.20051617712,8.79948382288,001,24,800_600,Intel(R) Core(TM) i7-2670QM CPU @ 2.20GHz,orientation_search,GRVLAPTOP3,Intel(R) HD Graphics Family,2018_jul_31_1902,testMonitor,
97.7,91.5,101.2,95.6,36,20,101.1,107.7,100.9,,8.128,8.443,7.978,7.977,8.052,7.794,7.631,5.189,-4.868,-8.342,1.868,-1.4,8.03,4.69,-4.994,-8.413,104.1,116.0,-8.182,90.2,89.1,80.4,97.5,93.2,36,81.0,4,5,prime,10,0,60,norm,36,-4.866,up,norm,96.0303843623,89.3,76.0,1.841,90.4,5,92.2,100.0,91.1,10,6,8.408,4.314,1.533,-1.272,-4.34,-8.364,102.1,6,156.0,-7.585,-8.273,20,-7.894,-7.951,-5.235,-5.12,-4.876,-4.581,4.669,8.33,29,-1.315,1.61,4.675,7.847,-7.634,-8.243,-1.677,1.768,84.7,103.9,93.2,93.1,96.0,92.5,87.6,98.6,86.4,101.2,0,norm,1.501,1.192,-2.046,-1.705,-4.513,-4.823,-1.258,-1.914,-1.954,-1.478,1.549,-1.275,108.1,91.4,-4.535,-8.447,95.1,-2.06,8.082,5.178,-5.256,-8.344,12,4.74,4.321,5.224,4.895,1.246,1.757,2.073,1.641,12,4.909,5.066,-60,184.643138845,norm,0,40,40,40,429.052,429.059,429.061807703,429.062,429.066,429.071,up,1,2.33512988247,7.66487011753,001,24,800_600,Intel(R) Core(TM) i7-2670QM CPU @ 2.20GHz,orientation_search,GRVLAPTOP3,Intel(R) HD Graphics Family,2018_jul_31_1902,testMonitor,
86.3,89.9,83.4,88.9,36,20,101.7,80.3,111.5,76.0,8.291,7.94,7.557,7.679,8.119,8.31,7.719,4.941,-4.488,-7.917,1.494,-1.616,8.488,4.889,-4.597,-7.522,84.3,94.4,-7.649,88.9,91.5,116.0,106.2,102.7,36,94.0,1,5,prime,10,0,99,norm,36,-4.538,up,norm,96.0303843623,96.7,86.7,1.3,89.0,4,106.2,106.6,94.1,10,6,7.832,4.781,1.243,-1.773,-4.783,-7.716,,6,195.0,-7.85,-7.956,20,-8.138,-7.983,-4.637,-4.436,-4.52,-4.687,4.678,8.063,10,-1.194,1.613,5.198,8.169,-8.024,-7.679,-1.742,1.985,92.0,91.0,105.0,80.9,109.3,89.8,101.2,101.2,108.8,105.6,1,norm,1.75,1.966,-1.919,-1.637,-4.753,-4.975,-2.014,-1.661,-2.088,-1.995,1.601,-1.667,89.3,98.4,-4.848,-8.163,102.5,-1.78,8.22,5.264,-5.175,-7.795,12,4.635,4.465,4.663,4.463,2.086,1.876,1.882,1.175,12,4.757,5.161,-60,184.643138845,norm,0,41,41,41,431.417,431.425,431.427092434,431.427,431.431,431.436,up,1,0.917102534513,9.08289746549,001,24,800_600,Intel(R) Core(TM) i7-2670QM CPU @ 2.20GHz,orientation_search,GRVLAPTOP3,Intel(R) HD Graphics Family,2018_jul_31_1902,testMonitor,
85.4,98.8,109.3,89.5,36,20,80.9,101.0,97.1,96.1,7.698,8.036,7.851,7.748,8.491,8.234,7.967,4.547,-4.864,-8.185,1.83,-1.802,7.632,4.381,-5.124,-7.746,76.5,92.6,-7.541,94.2,87.3,98.0,84.8,105.4,36,87.0,1,5,prime,10,0,102,norm,36,-5.131,up,norm,96.0303843623,83.0,104.5,1.401,100.5,5,,88.8,93.3,10,6,7.879,5.298,1.84,-1.51,-4.877,-8.277,106.4,6,198.0,-8.103,-8.455,20,-7.673,-8.19,-5.176,-4.574,-4.546,-4.621,4.72,8.135,11,-1.289,2.09,4.749,7.842,-7.634,-7.874,-1.951,2.064,115.9,98.7,97.6,110.6,99.0,76.0,93.2,85.1,79.0,99.5,2,norm,1.263,1.419,-1.253,-2.008,-5.283,-4.342,-2.038,-1.402,-1.871,-1.846,1.703,-1.995,116.0,86.1,-4.812,-8.181,88.2,-1.962,7.955,4.768,-4.683,-7.94,12,4.533,4.472,4.443,4.531,1.615,1.446,1.542,1.157,12,5.284,4.877,-60,184.643138845,norm,0,42,42,42,432.364,432.372,432.374080381,432.374,432.378,432.383,up,1,2.35432518971,7.64567481029,001,24,800_600,Intel(R) Core(TM) i7-2670QM CPU @ 2.20GHz,orientation_search,GRVLAPTOP3,Intel(R) HD Graphics Family,2018_jul_31_1902,testMonitor,
107.0,100.0,78.0,99.5,36,20,95.2,105.2,,76.0,7.964,7.863,8.299,7.787,8.302,7.994,8.106,5.027,-5.144,-8.189,1.464,-1.182,7.95,4.79,-4.677,-8.187,84.9,107.0,-7.51,90.2,96.9,89.4,85.2,97.5,36,100.0,4,5,prime,10,0,106,norm,36,-4.343,up,norm,96.0303843623,99.8,95.3,1.118,88.6,4,88.0,111.7,113.2,10,6,7.879,4.457,1.543,-1.766,-5.06,-7.561,99.8,6,202.0,-7.652,-8.116,20,-8.185,-7.655,-5.029,-4.899,-4.899,-4.36,4.818,7.91,28,-1.154,1.969,4.488,7.622,-8.408,-8.2,-2.027,1.342,87.5,99.3,116.0,78.9,107.6,114.0,94.5,80.0,97.7,87.3,3,norm,1.442,1.128,-1.875,-1.771,-5.222,-4.88,-1.309,-1.521,-1.982,-2.054,1.718,-2.081,107.8,95.2,-5.006,-7.619,99.2,-1.195,7.679,4.322,-4.452,-8.223,12,4.554,5.296,5.187,4.715,2.014,1.635,1.271,1.429,12,4.89,4.787,-60,184.643138845,norm,0,43,43,43,434.748,434.755,434.757628368,434.758,434.762,434.767,up,1,0.970975193704,9.0290248063,001,24,800_600,Intel(R) Core(TM) i7-2670QM CPU @ 2.20GHz,orientation_search,GRVLAPTOP3,Intel(R) HD Graphics Family,2018_jul_31_1902,testMonitor,
82.2,76.0,94.9,102.6,36,20,84.6,80.6,85.6,110.1,7.932,7.794,8.108,8.466,8.374,7.866,8.305,4.864,-4.419,-7.86,1.162,-1.798,8.036,4.815,-4.62,-8.331,107.5,82.9,-7.824,102.8,104.6,88.2,96.5,,36,88.6,4,5,prime,10,0,81,norm,36,-4.809,down,norm,96.0303843623,83.8,106.6,2.008,97.1,2,93.9,93.5,105.8,10,6,7.604,4.629,1.446,-1.789,-5.21,-7.823,96.8,6,177.0,-8.231,-7.714,20,-7.832,-7.816,-4.876,-4.993,-5.132,-4.673,4.705,8.381,26,-1.452,1.88,4.703,7.904,-7.505,-8.057,-1.296,1.988,89.6,106.1,91.4,80.0,103.9,85.7,116.0,102.2,107.4,96.1,4,norm,1.515,2.069,-1.632,-1.988,-4.973,-4.501,-1.246,-1.15,-1.909,-1.487,1.428,-1.208,110.8,84.4,-4.693,-7.769,86.8,-1.394,7.581,5.201,-4.508,-7.649,12,4.914,4.536,4.8,4.591,1.146,1.662,1.36,1.205,12,4.454,4.809,-60,184.643138845,norm,0,44,44,44,435.748,435.756,435.758674825,435.759,435.763,435.768,down,1,1.77203033556,8.22796966444,001,24,800_600,Intel(R) Core(TM) i7-2670QM CPU @ 2.20GHz,orientation_search,GRVLAPTOP3,Intel(R) HD Graphics Family,2018_jul_31_1902,testMonitor,
107.8,90.3,109.3,86.5,36,20,99.5,86.4,98.8,93.5,8.335,7.671,8.001,7.509,7.694,8.386,7.834,4.691,-5.058,-8.033,1.598,-1.463,8.269,4.593,-4.712,-8.264,82.8,92.8,-7.91,80.7,99.5,93.4,90.2,94.9,36,104.3,1,5,prime,10,0,117,norm,36,-5.172,up,norm,96.0303843623,84.7,92.6,1.837,95.7,5,,89.3,104.4,10,6,7.979,4.757,1.119,-1.97,-4.896,-7.922,96.1,6,213.0,-8.082,-7.821,20,-7.736,-7.916,-4.852,-4.372,-4.797,-5.002,4.652,8.003,11,-1.988,1.623,4.364,7.83,-8.361,-7.825,-1.652,1.649,106.9,95.2,109.9,116.0,93.4,105.9,92.7,88.9,112.5,113.6,5,norm,1.557,1.531,-1.682,-1.694,-4.387,-4.353,-2.098,-1.795,-1.999,-1.65,1.736,-1.151,93.2,92.7,-4.968,-7.678,108.0,-1.996,8.312,4.979,-4.308,-8.405,12,4.968,4.431,4.914,5.109,1.332,1.232,1.253,1.375,12,4.503,4.698,-60,184.643138845,norm,0,45,45,45,437.551,437.559,437.561199955,437.562,437.565,437.57,up,1,0.870794620438,9.12920537956,001,24,800_600,Intel(R) Core(TM) i7-2670QM CPU @ 2.20GHz,orientation_search,GRVLAPTOP3,Intel(R) HD Graphics Family,2018_jul_31_1902,testMonitor,
205.5,217.7,217.7,214.9,36,-60,217.6,215.1,209.8,218.6,8.322,8.257,8.035,8.356,7.685,7.962,8.436,4.505,-4.433,-8.226,1.238,-1.259,7.781,4.807,-4.601,-8.101,211.5,217.1,-7.588,208.7,207.4,206.3,206.1,202.5,36,205.7,2,5,probe,5,0,98,norm,36,-5.167,up,norm,212.549471714,,213.8,1.609,222.5,5,206.6,216.0,213.8,10,6,8.438,5.08,1.544,-1.189,-5.166,-7.668,208.7,1,114.5,-8.362,-8.432,20,-7.619,-8.113,-4.794,-4.537,-5.178,-4.661,4.774,8.007,17,-1.457,1.447,4.579,8.397,-8.345,-8.358,-1.602,1.975,209.1,213.8,209.7,215.2,217.4,211.8,212.8,214.5,215.6,212.4,0,norm,2.026,1.668,-1.513,-2.023,-4.324,-4.646,-1.195,-2.006,-1.371,-1.581,1.269,-1.909,209.3,206.3,-4.922,-7.588,216.1,-1.262,8.268,5.156,-4.459,-8.337,13,4.931,5.244,4.801,4.522,2.048,1.162,1.353,1.691,13,5.198,4.412,20,96.0303843623,norm,0,46,46,46,438.452,438.459,438.461304227,438.462,438.465,438.47,up,1,1.23056502575,8.76943497425,001,24,800_600,Intel(R) Core(TM) i7-2670QM CPU @ 2.20GHz,orientation_search,GRVLAPTOP3,Intel(R) HD Graphics Family,2018_jul_31_1902,testMonitor,
282.0,295.7,303.8,309.4,36,40,315.4,301.4,282.0,303.7,8.066,8.154,7.644,7.906,8.161,8.219,7.657,4.61,-4.728,-8.118,1.721,-1.338,7.662,5.141,-4.698,-7.885,303.7,282.0,-8.074,294.7,302.7,308.7,297.3,302.6,36,285.1,0,5,prime,10,0,80,norm,36,-4.609,down,norm,295.414074566,275.4,282.6,1.811,303.0,1,298.7,297.7,306.8,10,5,7.584,5.291,2.061,-1.994,-5.274,-8.454,298.4,5,375.4,-8.357,-8.395,40,-8.082,-7.691,-5.077,-5.02,-4.591,-4.743,4.313,8.213,1,-1.201,1.399,5.22,8.229,-8.297,-8.438,-1.283,2.062,289.6,308.2,291.5,291.5,,295.3,292.5,278.4,285.9,301.2,0,norm,1.681,1.889,-1.756,-1.207,-4.779,-4.442,-1.497,-1.422,-1.959,-2.015,1.463,-1.841,285.6,299.9,-5.204,-8.114,290.3,-1.515,8.215,4.519,-5.214,-7.507,14,5.209,4.334,4.546,4.591,2.032,1.923,1.531,1.252,14,4.761,5.074,-60,96.0303843623,norm,0,47,47,47,439.712,439.719,439.721545935,439.722,439.726,439.73,down,1,1.17229640912,8.82770359088,001,24,800_600,Intel(R) Core(TM) i7-2670QM CPU @ 2.20GHz,orientation_search,GRVLAPTOP3,Intel(R) HD Graphics Family,2018_jul_31_1902,testMonitor,
309.5,299.0,284.0,288.8,36,40,279.7,310.0,275.4,300.1,8.429,8.118,7.576,7.718,7.774,8.347,7.989,4.38,-4.466,-8.226,1.146,-1.884,8.28,4.556,-4.305,-8.358,297.9,280.5,-7.784,277.2,278.0,281.1,301.6,293.4,36,284.8,1,5,prime,10,0,87,norm,36,-4.414,up,norm,295.414074566,295.7,297.7,1.531,304.4,5,,302.0,294.7,10,5,7.754,5.001,1.155,-1.742,-4.945,-7.587,297.3,5,382.4,-8.484,-8.107,40,-7.853,-8.489,-4.45,-4.474,-4.741,-4.563,4.718,7.85,11,-1.302,1.701,5.265,7.881,-8.064,-7.561,-1.949,2.045,315.4,285.1,298.7,276.3,298.8,292.1,300.6,291.3,302.7,301.4,1,norm,1.823,1.312,-1.923,-1.643,-5.043,-4.593,-1.423,-1.81,-1.662,-2.008,1.956,-1.903,306.8,282.6,-4.421,-7.886,297.6,-1.116,7.605,5.272,-4.463,-8.069,14,4.866,4.788,4.434,4.533,1.17,2.033,1.435,1.435,14,4.61,4.503,-60,96.0303843623,norm,0,48,48,48,440.914,440.921,440.923967774,440.924,440.928,440.933,up,1,0.889439382343,9.11056061766,001,24,800_600,Intel(R) Core(TM) i7-2670QM CPU @ 2.20GHz,orientation_search,GRVLAPTOP3,Intel(R) HD Graphics Family,2018_jul_31_1902,testMonitor,
281.7,310.4,298.4,292.5,36,40,303.8,307.8,297.5,314.1,8.396,7.677,7.665,7.757,8.092,7.586,7.672,4.946,-5.165,-7.574,1.208,-1.91,8.213,4.693,-4.571,-8.227,306.8,308.1,-8.498,278.9,314.9,275.5,301.4,285.1,36,304.5,3,5,prime,10,0,118,norm,36,-4.655,down,norm,295.414074566,275.4,275.8,1.568,289.0,1,299.7,297.0,298.4,10,5,7.546,4.779,1.887,-1.457,-5.091,-8.364,289.6,5,413.4,-7.523,-8.423,40,-7.867,-7.902,-5.01,-4.511,-4.413,-4.712,4.927,8.153,19,-1.507,1.492,4.93,7.734,-7.635,-7.583,-1.351,1.782,284.5,296.5,299.2,313.4,297.6,298.8,291.2,291.0,281.4,307.1,2,norm,1.882,1.535,-1.124,-1.834,-4.625,-5.077,-1.784,-1.735,-2.054,-1.25,1.917,-1.126,,289.6,-4.405,-7.953,304.3,-1.108,8.336,4.931,-4.756,-7.745,14,4.855,4.916,5.193,4.413,1.665,2.074,1.69,1.679,14,5.15,4.509,-60,96.0303843623,norm,0,49,49,49,441.833,441.84,441.842975971,441.843,441.847,441.852,down,1,0.889204034713,9.11079596529,001,24,800_600,Intel(R) Core(TM) i7-2670QM CPU @ 2.20GHz,orientation_search,GRVLAPTOP3,Intel(R) HD Graphics Family,2018_jul_31_1902,testMonitor,
,294.2,307.6,294.2,36,40,298.2,300.9,286.5,288.7,8.103,8.319,8.229,7.683,7.743,7.631,7.818,4.738,-4.991,-8.052,1.871,-1.474,7.574,4.667,-4.848,-8.067,299.9,294.4,-7.576,290.4,292.3,301.3,315.4,291.9,36,289.8,3,5,prime,10,0,76,norm,36,-4.625,up,norm,295.414074566,292.5,285.8,1.223,297.4,4,291.0,305.0,299.8,10,5,8.449,5.132,1.198,-1.309,-5.133,-8.256,287.3,5,371.4,-7.677,-8.171,40,-7.591,-8.113,-5.284,-4.802,-4.563,-4.705,4.7,7.736,22,-1.505,1.665,5.183,7.583,-8.056,-7.879,-2.027,1.998,304.5,291.3,301.7,307.5,287.3,275.4,301.0,279.7,302.3,306.8,3,norm,1.892,1.517,-1.152,-1.286,-4.649,-5.2,-1.211,-1.588,-1.854,-1.649,1.622,-1.556,299.8,283.7,-4.831,-8.097,292.7,-1.573,8.336,4.846,-4.6,-7.648,14,4.337,4.315,5.168,4.88,1.678,1.935,1.95,1.707,14,4.802,4.759,-60,96.0303843623,norm,0,50,50,50,442.752,442.76,442.763282782,442.764,442.768,442.773,up,1,0.797679958043,9.20232004196,001,24,800_600,Intel(R) Core(TM) i7-2670QM CPU @ 2.20GHz,orientation_search,GRVLAPTOP3,Intel(R) HD Graphics Family,2018_jul_31_1902,testMonitor,
314.4,302.5,281.8,310.0,36,40,302.3,294.2,292.9,295.7,8.061,7.976,8.038,8.1,7.643,8.421,8.174,4.5,-5.206,-7.627,1.982,-1.589,7.924,4.758,-5.135,-7.776,307.1,293.4,-8.077,297.7,305.9,294.7,290.8,288.4,36,298.7,0,5,prime,10,0,95,norm,36,-4.613,up,norm,295.414074566,304.3,292.5,1.291,302.9,4,301.5,295.6,303.9,10,5,7.926,4.764,2.046,-1.356,-4.861,-7.957,300.7,5,390.4,-7.82,-8.11,40,-8.494,-7.877,-5.114,-4.542,-4.579,-4.919,4.903,8.043,4,-1.856,1.157,5.204,8.354,-8.149,-8.287,-1.198,2.028,309.8,294.3,306.9,295.0,315.4,298.0,275.4,306.4,301.5,,4,norm,1.385,1.417,-1.869,-1.631,-4.648,-5.235,-1.519,-1.49,-1.495,-1.964,1.635,-1.771,296.2,304.6,-4.817,-8.214,290.6,-1.44,8.184,5.133,-5.297,-8.296,14,4.354,4.539,5.185,4.393,1.345,1.545,1.137,1.713,14,4.471,5.274,-60,96.0303843623,norm,0,51,51,51,443.581,443.588,443.590393801,443.591,443.594,443.599,up,1,0.839290258802,9.1607097412,001,24,800_600,Intel(R) Core(TM) i7-2670QM CPU @ 2.20GHz,orientation_search,GRVLAPTOP3,Intel(R) HD Graphics Family,2018_jul_31_1902,testMonitor,
451.8,447.8,449.5,444.9,36,-40,452.9,446.4,447.2,446.0,7.614,8.07,8.037,8.235,7.783,7.824,8.412,4.478,-4.485,-7.822,2.069,-1.13,8.256,4.713,-5.03,-8.284,441.9,448.3,-8.497,439.8,446.9,441.2,447.6,435.3,36,443.0,1,5,probe,5,0,107,norm,36,-4.779,up,norm,445.325425274,446.0,446.1,1.226,444.3,4,444.6,442.5,435.9,10,5,7.838,4.805,1.625,-1.214,-4.318,-7.805,,2,338.3,-7.617,-8.182,40,-7.826,-7.898,-5.062,-4.751,-5.261,-4.469,5.176,7.633,10,-1.814,1.147,5.061,8.1,-8.118,-7.944,-1.887,1.23,447.4,450.7,447.9,441.8,440.4,452.0,447.3,450.6,449.0,444.4,0,norm,1.618,1.716,-2.078,-1.998,-4.363,-4.618,-2.025,-1.145,-1.662,-1.83,1.29,-1.596,449.6,450.2,-4.47,-8.306,442.0,-1.178,8.251,4.977,-4.631,-8.4,15,4.331,4.346,4.596,5.067,1.153,1.807,1.972,2.011,15,4.684,5.083,40,295.414074566,norm,0,52,52,52,444.45,444.457,444.45915061,444.459,444.463,444.468,up,1,2.41194519949,7.58805480051,001,24,800_600,Intel(R) Core(TM) i7-2670QM CPU @ 2.20GHz,orientation_search,GRVLAPTOP3,Intel(R) HD Graphics Family,2018_jul_31_1902,testMonitor,
434.7,444.3,440.8,428.3,36,-40,438.0,433.8,,442.8,8.21,7.809,8.092,8.079,8.346,7.91,7.854,4.372,-4.997,-8.271,1.365,-1.828,8.239,4.868,-5.113,-8.35,425.2,439.8,-7.878,435.4,433.2,441.1,434.4,435.8,36,432.5,4,5,probe,5,0,96,norm,36,-5.003,up,norm,434.325425274,434.1,433.4,1.658,428.4,4,428.6,430.3,432.1,10,5,7.651,4.432,1.795,-1.819,-4.815,-7.685,433.3,2,338.3,-8.461,-8.082,40,-8.404,-7.777,-4.705,-5.218,-4.386,-4.509,4.589,7.685,28,-1.877,2.084,5.159,7.901,-7.875,-8.302,-1.892,1.61,438.2,433.5,438.5,432.6,440.7,443.9,431.8,442.7,442.4,424.3,1,norm,1.324,1.365,-1.351,-1.858,-4.437,-4.357,-1.805,-1.226,-1.189,-1.2,1.692,-1.614,439.8,436.4,-4.443,-7.965,426.4,-1.601,7.861,5.029,-4.439,-8.186,15,4.988,4.882,5.041,4.692,1.769,1.666,2.051,1.933,15,4.519,4.382,40,295.414074566,norm,0,53,53,53,446.891,446.899,446.901169407,446.902,446.905,446.91,up,1,0.666078141956,9.33392185804,001,24,800_600,Intel(R) Core(TM) i7-2670QM CPU @ 2.20GHz,orientation_search,GRVLAPTOP3,Intel(R) HD Graphics Family,2018_jul_31_1902,testMonitor,
186.4,184.4,192.2,187.3,36,-40,181.4,181.2,192.5,182.7,8.045,7.568,8.29,8.291,8.475,8.127,8.06,4.791,-5.059,-8.224,1.399,-1.731,8.285,5.04,-4.396,-7.671,162.7,179.6,-7.76,169.9,172.8,177.5,188.1,193.5,36,169.7,1,5,prime,10,0,61,norm,36,-5.153,down,norm,178.407727946,182.8,191.1,2.023,192.8,1,168.4,163.1,186.8,10,6,7.88,4.361,1.855,-1.452,-4.813,-8.075,173.4,6,239.4,-8.031,-8.151,-40,-7.846,-7.914,-4.352,-4.802,-4.633,-4.405,4.563,8.303,7,-1.128,1.925,4.765,8.17,-8.001,-7.986,-1.369,1.961,187.8,184.8,198.4,169.5,162.6,174.9,,172.8,181.7,171.8,0,norm,1.219,1.601,-1.101,-1.998,-4.327,-4.73,-1.832,-1.859,-1.837,-1.76,1.484,-1.505,174.9,171.8,-4.784,-8.018,158.4,-1.716,8.094,5.239,-5.205,-7.888,16,4.548,4.919,4.982,4.362,2.061,1.831,1.28,1.671,16,4.44,5.295,-40,295.414074566,norm,0,54,54,54,447.587,447.594,447.597005015,447.597,447.601,447.606,down,1,1.30156296039,8.69843703961,001,24,800_600,Intel(R) Core(TM) i7-2670QM CPU @ 2.20GHz,orientation_search,GRVLAPTOP3,Intel(R) HD Graphics Family,2018_jul_31_1902,testMonitor,
176.3,170.1,,168.2,36,-40,195.0,164.1,168.7,162.2,8.03,7.874,8.151,7.641,7.852,7.737,7.93,5.247,-4.588,-7.607,1.957,-1.761,7.593,5.285,-4.498,-7.553,179.0,190.1,-7.753,180.6,171.0,178.7,179.6,188.0,36,195.3,3,5,prime,10,0,94,norm,36,-4.716,down,norm,178.407727946,165.7,198.4,1.492,183.4,2,188.5,175.0,190.5,10,6,7.685,4.784,1.5,-1.558,-4.749,-8.014,178.4,6,272.4,-7.556,-7.558,-40,-7.662,-7.699,-4.338,-4.8,-5.21,-4.548,4.384,8.137,20,-2.082,1.28,5.065,8.492,-8.226,-8.374,-1.545,1.869,175.8,164.1,158.4,194.1,174.4,184.7,180.5,180.6,181.1,165.6,1,norm,1.357,1.699,-1.685,-1.164,-5.169,-4.885,-1.155,-1.195,-1.337,-1.584,1.642,-1.738,189.2,166.6,-4.787,-7.584,179.5,-1.339,8.083,5.179,-4.409,-8.016,16,5.105,4.449,4.452,4.426,1.38,1.261,1.493,1.921,16,4.746,5.049,-40,295.414074566,norm,0,55,55,55,448.918,448.926,448.928461326,448.929,448.933,448.938,down,1,1.98598934492,8.01401065508,001,24,800_600,Intel(R) Core(TM) i7-2670QM CPU @ 2.20GHz,orientation_search,GRVLAPTOP3,Intel(R) HD Graphics Family,2018_jul_31_1902,testMonitor,
195.5,184.4,188.9,184.5,36,-40,190.2,158.4,167.6,181.9,7.801,8.303,8.046,7.824,7.609,7.822,8.242,4.312,-5.189,-8.423,2.079,-1.254,7.709,5.212,-4.811,-8.163,172.1,181.0,-8.149,177.0,,175.2,170.9,164.9,36,170.1,5,5,prime,10,0,111,norm,36,-4.968,down,norm,178.407727946,193.0,175.5,1.642,164.5,0,163.9,182.9,174.4,10,6,8.32,5.013,1.593,-1.558,-5.249,-8.083,172.7,6,289.4,-7.824,-7.612,-40,-8.282,-7.584,-5.008,-5.149,-4.438,-4.485,5.022,7.809,30,-1.808,1.197,4.67,7.728,-8.011,-7.666,-2.043,1.558,185.2,177.8,186.5,181.8,179.9,189.9,162.2,176.5,170.7,175.9,2,norm,1.613,1.418,-2.001,-1.377,-4.436,-4.966,-1.496,-1.865,-1.776,-1.771,1.77,-1.606,198.4,178.1,-4.354,-8.246,174.7,-1.993,7.6,4.432,-4.869,-8.009,16,4.872,4.631,4.938,4.852,1.288,1.24,1.436,1.137,16,5.042,4.88,-40,295.414074566,norm,0,56,56,56,450.935,450.942,450.944852074,450.945,450.949,450.954,down,1,2.2642986524,7.7357013476,001,24,800_600,Intel(R) Core(TM) i7-2670QM CPU @ 2.20GHz,orientation_search,GRVLAPTOP3,Intel(R) HD Graphics Family,2018_jul_31_1902,testMonitor,
191.6,193.6,188.2,185.2,36,-40,181.2,172.4,181.7,183.6,8.17,8.485,8.189,7.644,7.912,8.106,7.6,4.853,-5.279,-8.172,1.149,-1.113,8.242,4.358,-5.103,-7.661,171.8,177.1,-8.155,177.8,187.9,178.6,188.4,,36,176.0,4,5,prime,10,0,94,norm,36,-5.102,down,norm,178.407727946,174.1,179.9,1.637,177.2,2,170.3,178.9,177.7,10,6,8.295,5.216,1.511,-1.932,-4.872,-7.876,196.0,6,272.4,-7.664,-8.147,-40,-7.915,-7.866,-5.0,-4.33,-4.704,-4.913,5.074,7.847,26,-2.033,1.672,4.313,8.267,-8.315,-7.937,-1.293,1.3,179.8,177.5,184.7,198.4,165.7,181.8,169.6,172.7,158.4,161.9,3,norm,1.108,1.308,-1.795,-1.284,-5.081,-5.138,-1.72,-1.733,-1.273,-1.932,1.466,-1.764,183.3,168.1,-4.796,-7.595,161.2,-1.715,8.17,5.223,-4.678,-8.172,16,5.026,4.615,4.403,4.312,1.109,1.811,1.578,1.129,16,4.836,5.291,-40,295.414074566,norm,0,57,57,57,453.229,453.236,453.238594863,453.239,453.243,453.248,down,1,1.67874628826,8.32125371174,001,24,800_600,Intel(R) Core(TM) i7-2670QM CPU @ 2.20GHz,orientation_search,GRVLAPTOP3,Intel(R) HD Graphics Family,2018_jul_31_1902,testMonitor,
189.8,178.2,160.4,167.8,36,-40,185.7,174.0,179.3,166.8,7.967,7.516,7.989,8.316,8.382,8.053,8.375,4.723,-4.42,-8.131,2.064,-1.27,7.637,4.441,-4.796,-7.662,174.3,164.3,-7.675,177.8,182.3,194.2,184.8,,36,182.6,4,5,prime,10,0,109,norm,36,-4.79,down,norm,178.407727946,158.4,195.5,1.511,166.1,2,166.9,179.1,173.7,10,6,8.103,4.969,1.362,-1.593,-4.52,-8.238,168.7,6,287.4,-8.453,-8.416,-40,-7.85,-7.702,-5.22,-5.057,-4.685,-4.823,4.394,7.967,26,-2.045,1.745,4.543,7.507,-7.56,-7.804,-1.35,1.51,191.9,173.9,166.6,172.0,176.1,176.0,182.1,169.2,182.8,173.0,4,norm,1.606,1.35,-1.302,-1.264,-4.44,-4.465,-1.884,-1.539,-1.135,-1.491,1.996,-1.324,178.9,198.4,-5.02,-7.716,177.0,-1.541,7.706,4.821,-4.646,-7.964,16,4.769,4.717,5.146,4.397,2.077,1.449,1.567,1.935,16,4.407,5.293,-40,295.414074566,norm,0,58,58,58,454.937,454.944,454.946822177,454.947,454.951,454.956,up,0,2.20834195263,-10,001,24,800_600,Intel(R) Core(TM) i7-2670QM CPU @ 2.20GHz,orientation_search,GRVLAPTOP3,Intel(R) HD Graphics Family,2018_jul_31_1902,testMonitor,
175.4,180.2,184.3,190.6,36,-40,173.1,,175.6,186.2,8.49,7.936,7.725,8.047,8.03,8.067,8.352,4.675,-4.78,-8.36,2.022,-1.442,8.102,4.409,-4.754,-7.638,184.7,171.5,-8.264,187.0,175.3,160.9,187.7,164.7,36,177.0,4,5,prime,10,0,102,norm,36,-4.625,down,norm,178.407727946,184.0,166.6,1.249,181.7,1,158.4,170.2,170.0,10,6,7.912,5.151,1.27,-1.53,-5.185,-8.06,183.5,6,280.4,-8.149,-8.064,-40,-7.711,-7.648,-4.732,-4.509,-4.819,-4.39,4.757,8.207,25,-1.371,1.428,5.146,8.304,-7.808,-7.6,-1.53,1.933,181.4,162.1,184.1,181.1,182.0,164.6,193.1,191.8,179.7,198.4,5,norm,1.504,1.431,-1.292,-1.984,-4.77,-5.209,-1.892,-1.519,-1.657,-1.439,1.485,-1.924,182.7,198.1,-4.46,-7.996,173.1,-1.545,7.538,4.622,-4.775,-7.984,16,4.668,4.513,5.102,5.166,2.043,1.51,1.742,1.194,16,5.138,5.133,-40,295.414074566,norm,0,59,59,59,458.179,458.196,458.201395929,458.202,458.209,458.219,down,1,0.73965742912,9.26034257088,001,24,800_600,Intel(R) Core(TM) i7-2670QM CPU @ 2.20GHz,orientation_search,GRVLAPTOP3,Intel(R) HD Graphics Family,2018_jul_31_1902,testMonitor,
214.7,217.1,213.9,212.1,36,-30,221.2,219.4,217.0,207.4,7.555,8.179,7.718,8.235,8.112,7.898,7.548,4.44,-4.9,-7.602,1.242,-1.232,8.297,4.994,-5.149,-7.906,217.1,220.6,-7.619,209.4,213.8,212.4,210.3,211.1,36,221.1,0,5,probe,5,0,76,norm,36,-4.672,up,norm,214.416556697,210.0,214.6,1.524,214.0,5,205.4,214.0,220.7,10,6,8.46,4.889,1.383,-2.083,-4.903,-8.174,213.3,1,138.4,-8.19,-7.653,-40,-7.888,-8.029,-4.958,-5.224,-4.324,-4.586,4.765,8.094,5,-1.355,1.878,4.828,7.689,-7.951,-8.379,-1.758,1.674,213.3,222.1,212.7,214.8,218.0,224.4,215.3,210.4,,221.4,0,norm,1.904,1.786,-1.554,-1.817,-4.463,-4.78,-1.724,-1.258,-1.726,-1.823,1.556,-1.142,204.4,212.3,-5.174,-7.651,217.3,-1.221,8.063,4.658,-5.014,-8.474,17,5.028,4.679,4.915,4.372,1.954,1.641,1.304,1.17,17,4.385,4.72,-40,178.407727946,norm,0,60,60,60,458.97,458.978,458.980228932,458.981,458.984,458.989,up,1,0.920869497408,9.07913050259,001,24,800_600,Intel(R) Core(TM) i7-2670QM CPU @ 2.20GHz,orientation_search,GRVLAPTOP3,Intel(R) HD Graphics Family,2018_jul_31_1902,testMonitor,
138.0,143.3,143.8,145.0,36,0,143.8,142.2,139.0,138.8,8.078,7.95,7.709,7.872,7.867,8.231,7.634,5.267,-5.149,-8.43,1.908,-1.461,7.749,4.409,-4.68,-8.018,156.5,143.8,-8.326,157.7,129.9,156.9,164.8,146.5,36,141.3,2,5,prime,10,0,79,norm,36,-4.758,down,norm,144.83852353,146.0,154.2,1.73,,2,139.7,132.1,133.0,10,6,8.394,5.095,1.349,-1.283,-4.408,-7.584,146.8,6,223.8,-7.622,-8.297,0,-7.866,-8.028,-5.054,-4.792,-4.74,-4.69,4.718,7.712,14,-1.199,1.257,4.988,8.272,-7.568,-7.802,-1.113,1.71,151.4,150.9,124.8,147.6,157.7,146.8,133.2,142.7,149.5,157.3,0,norm,1.94,1.633,-1.383,-1.984,-4.539,-4.627,-1.594,-1.508,-1.528,-1.619,1.452,-1.354,134.9,141.3,-4.444,-8.344,139.1,-1.622,8.088,4.459,-4.489,-7.699,18,4.431,5.137,4.658,4.777,1.666,1.146,1.52,1.186,18,5.212,4.824,-30,178.407727946,norm,0,61,61,61,459.921,471.634,471.639384398,471.64,471.648,471.658,down,1,1.65319099161,8.34680900839,001,24,800_600,Intel(R) Core(TM) i7-2670QM CPU @ 2.20GHz,orientation_search,GRVLAPTOP3,Intel(R) HD Graphics Family,2018_jul_31_1902,testMonitor,
164.8,154.5,151.3,142.0,36,0,139.2,158.7,151.1,153.4,7.899,8.099,7.959,8.455,7.984,8.446,7.914,4.862,-4.925,-7.69,1.639,-1.519,8.359,5.067,-4.875,-7.947,129.0,148.6,-7.536,143.1,146.7,129.7,138.4,149.3,36,155.1,1,5,prime,10,0,108,norm,36,-5.06,up,norm,144.83852353,151.0,124.8,1.501,133.3,4,139.5,132.3,142.7,10,6,7.901,4.513,1.245,-1.789,-4.493,-8.053,,6,252.8,-8.028,-8.383,0,-7.78,-8.474,-5.022,-4.3,-4.467,-5.282,4.903,7.624,10,-1.829,2.096,5.172,8.334,-8.117,-8.467,-1.591,1.177,133.7,138.1,160.4,146.6,143.7,138.2,149.8,132.5,152.8,143.7,1,norm,1.61,1.787,-1.361,-2.1,-4.921,-5.219,-1.556,-1.216,-1.27,-2.05,1.248,-1.258,150.4,143.2,-4.376,-8.037,142.5,-1.269,7.661,5.297,-5.202,-8.33,18,4.539,4.59,4.563,4.588,1.973,1.972,1.405,2.084,18,4.415,4.906,-30,178.407727946,norm,0,62,62,62,473.322,473.329,473.331328365,473.332,473.336,473.341,up,1,0.676286812173,9.32371318783,001,24,800_600,Intel(R) Core(TM) i7-2670QM CPU @ 2.20GHz,orientation_search,GRVLAPTOP3,Intel(R) HD Graphics Family,2018_jul_31_1902,testMonitor,
134.3,139.5,,156.3,36,0,147.5,136.3,124.8,129.4,8.314,8.392,8.212,7.93,7.972,7.79,8.158,5.091,-5.293,-7.622,1.242,-1.492,7.946,5.213,-4.314,-7.587,162.4,150.8,-8.108,129.9,144.6,149.6,133.2,150.4,36,133.5,3,5,prime,10,0,109,norm,36,-5.148,down,norm,144.83852353,143.3,161.5,1.711,142.2,2,136.3,150.3,164.8,10,6,8.226,5.228,2.069,-1.916,-5.118,-7.803,149.8,6,253.8,-7.575,-7.524,0,-7.784,-8.252,-4.364,-4.364,-4.904,-4.806,4.562,8.189,20,-1.809,1.729,4.612,8.022,-8.47,-7.65,-2.034,1.972,135.0,163.6,153.6,150.1,154.2,140.5,156.1,144.6,160.1,157.3,2,norm,1.836,1.279,-1.204,-1.102,-4.494,-5.026,-1.14,-1.843,-2.072,-1.567,1.681,-1.737,154.5,135.3,-4.674,-8.06,150.7,-1.732,8.189,4.753,-4.944,-7.836,18,5.258,4.542,4.514,5.261,1.918,1.456,1.441,1.847,18,4.503,5.233,-30,178.407727946,norm,0,63,63,63,474.028,474.035,474.037652818,474.038,474.042,474.047,down,1,0.603066149961,9.39693385004,001,24,800_600,Intel(R) Core(TM) i7-2670QM CPU @ 2.20GHz,orientation_search,GRVLAPTOP3,Intel(R) HD Graphics Family,2018_jul_31_1902,testMonitor,
139.0,142.5,162.5,153.2,36,0,128.1,158.5,148.2,135.5,7.897,8.466,7.742,8.181,8.138,8.197,8.447,4.561,-4.391,-7.675,1.193,-1.555,7.576,4.436,-4.641,-7.524,148.8,137.2,-8.103,137.7,149.4,144.1,141.2,157.5,36,142.3,2,5,prime,10,0,76,norm,36,-4.464,up,norm,144.83852353,143.8,147.0,1.523,133.5,3,127.2,124.8,164.8,10,6,8.441,4.409,1.839,-2.048,-4.807,-7.654,149.6,6,220.8,-8.209,-8.167,0,-8.266,-8.071,-4.789,-4.897,-4.449,-4.568,5.19,8.353,15,-1.814,1.19,4.885,8.098,-7.757,-7.64,-1.251,1.294,155.8,146.0,131.9,143.2,141.7,143.6,125.6,149.6,147.7,154.9,3,norm,1.736,1.298,-1.427,-1.424,-5.233,-4.997,-1.146,-1.974,-2.014,-1.571,1.235,-1.377,150.4,146.9,-4.594,-7.503,,-1.35,8.135,5.065,-4.653,-7.578,18,5.178,4.435,4.956,4.734,1.848,1.935,1.862,1.517,18,4.666,4.881,-30,178.407727946,norm,0,64,64,64,474.66,474.668,474.67049698,474.671,474.675,474.68,up,1,0.727120965406,9.27287903459,001,24,800_600,Intel(R) Core(TM) i7-2670QM CPU @ 2.20GHz,orientation_search,GRVLAPTOP3,Intel(R) HD Graphics Family,2018_jul_31_1902,testMonitor,
153.1,147.1,139.1,157.4,36,0,124.8,127.5,126.4,140.7,8.337,7.689,8.124,8.343,7.919,8.272,7.849,4.573,-5.048,-7.608,1.182,-1.817,7.951,5.046,-4.887,-8.063,145.6,134.4,-7.965,129.0,137.9,154.2,,134.0,36,125.4,5,5,prime,10,0,93,norm,36,-4.355,down,norm,144.83852353,150.2,148.3,1.518,164.8,2,132.6,144.9,140.8,10,6,8.303,5.028,1.951,-1.108,-4.593,-7.663,143.1,6,237.8,-7.899,-7.596,0,-7.928,-7.522,-4.515,-4.317,-4.497,-4.797,4.868,8.115,32,-1.226,1.674,4.47,8.4,-7.933,-7.517,-1.146,1.83,144.7,146.2,137.6,145.7,156.5,144.3,126.8,160.1,149.8,140.1,4,norm,1.24,1.223,-1.209,-2.049,-5.06,-4.925,-1.671,-1.4,-1.453,-1.873,1.996,-2.007,142.5,148.9,-4.528,-7.79,142.3,-1.427,8.487,4.99,-4.561,-8.417,18,4.625,4.691,4.515,5.165,1.396,1.884,1.52,1.829,18,4.84,5.223,-30,178.407727946,norm,0,65,65,65,475.417,475.425,475.427346927,475.428,475.432,475.436,down,1,0.654577394576,9.34542260542,001,24,800_600,Intel(R) Core(TM) i7-2670QM CPU @ 2.20GHz,orientation_search,GRVLAPTOP3,Intel(R) HD Graphics Family,2018_jul_31_1902,testMonitor,
144.5,142.9,158.7,152.8,36,0,157.1,132.5,141.5,153.3,7.907,8.008,7.766,7.734,7.685,7.659,7.846,5.17,-4.541,-8.143,1.928,-1.55,7.944,5.257,-4.925,-7.988,151.1,149.3,-8.447,147.3,146.3,149.5,124.8,144.5,36,155.5,1,5,prime,10,0,77,norm,36,-4.839,up,norm,144.83852353,155.6,156.8,1.483,147.7,3,140.3,138.8,147.9,10,6,8.353,4.311,1.92,-1.192,-4.979,-7.938,143.2,6,221.8,-8.04,-7.881,0,-8.429,-7.985,-5.064,-4.641,-5.19,-4.91,4.664,7.889,9,-1.683,1.339,4.779,8.22,-8.072,-8.419,-1.256,1.798,,140.6,141.0,144.8,141.7,152.0,138.9,150.5,145.7,164.8,5,norm,1.402,1.148,-1.508,-1.477,-4.53,-4.472,-1.115,-1.336,-2.087,-1.861,1.736,-2.054,163.2,131.3,-5.278,-8.459,145.9,-2.044,7.995,4.875,-5.209,-7.553,18,5.237,4.902,4.91,4.429,1.786,1.995,1.377,1.148,18,5.278,4.816,-30,178.407727946,norm,0,66,66,66,476.102,476.109,476.111365189,476.112,476.115,476.12,up,1,0.542420242142,9.45757975786,001,24,800_600,Intel(R) Core(TM) i7-2670QM CPU @ 2.20GHz,orientation_search,GRVLAPTOP3,Intel(R) HD Graphics Family,2018_jul_31_1902,testMonitor,
242.9,234.2,242.5,238.8,36,40,239.3,,233.7,234.8,8.075,8.287,8.305,7.636,8.181,8.138,8.384,5.09,-5.108,-7.533,1.151,-1.183,7.605,4.51,-4.342,-8.058,236.7,225.3,-8.258,237.7,228.3,235.4,244.8,236.3,36,229.5,4,5,probe,5,0,93,norm,36,-5.057,down,norm,235.303391569,227.6,234.7,1.183,234.6,1,231.6,233.3,229.3,10,6,7.706,4.761,1.545,-1.684,-5.005,-7.622,238.1,2,142.3,-7.88,-7.856,0,-8.03,-7.795,-5.234,-4.582,-4.616,-5.256,4.779,7.547,25,-1.685,1.764,4.452,8.413,-7.757,-8.196,-1.308,1.785,236.3,238.1,239.7,243.9,230.7,233.9,235.0,233.8,234.2,226.3,0,norm,1.257,1.54,-1.408,-1.456,-4.71,-5.024,-1.663,-1.187,-2.007,-1.1,1.747,-1.677,237.5,240.8,-4.371,-8.225,245.3,-1.515,8.243,4.404,-4.943,-8.095,19,4.609,5.04,4.867,5.108,1.803,2.052,1.758,1.268,19,4.675,5.299,0,144.83852353,norm,0,67,67,67,476.673,476.683,476.685654955,476.686,476.69,476.695,down,1,0.904276088913,9.09572391109,001,24,800_600,Intel(R) Core(TM) i7-2670QM CPU @ 2.20GHz,orientation_search,GRVLAPTOP3,Intel(R) HD Graphics Family,2018_jul_31_1902,testMonitor,
217.3,227.5,209.3,219.5,36,40,219.2,221.7,222.1,225.6,8.033,7.717,7.971,7.678,7.979,8.031,7.868,4.633,-4.989,-7.892,1.465,-1.808,7.805,4.325,-4.383,-7.658,223.3,219.1,-8.266,213.0,220.2,220.8,216.6,217.6,36,225.8,0,5,probe,5,0,77,norm,36,-4.33,up,norm,219.303391569,219.0,229.3,1.765,217.6,3,222.5,222.4,221.2,10,6,8.383,5.057,1.555,-2.043,-4.404,-8.335,216.4,2,142.3,-7.511,-8.283,0,-7.82,-7.57,-4.473,-4.551,-4.63,-4.609,5.073,8.016,3,-1.364,1.917,5.065,8.291,-8.472,-7.749,-1.601,1.729,218.2,211.2,,223.4,220.5,215.9,219.2,225.1,220.9,218.9,1,norm,1.98,1.597,-2.099,-2.079,-4.916,-5.11,-1.961,-1.142,-1.953,-1.445,1.751,-1.406,213.0,223.2,-5.057,-8.005,217.6,-1.58,8.377,4.705,-4.758,-8.086,19,4.846,4.861,4.549,4.597,1.298,1.4,1.586,1.691,19,5.216,4.77,0,144.83852353,norm,0,68,68,68,477.609,477.617,477.619111815,477.619,477.623,477.628,up,1,0.620660252818,9.37933974718,001,24,800_600,Intel(R) Core(TM) i7-2670QM CPU @ 2.20GHz,orientation_search,GRVLAPTOP3,Intel(R) HD Graphics Family,2018_jul_31_1902,testMonitor,
61.9,80.2,70.5,69.0,36,80,59.1,90.3,77.1,68.9,8.06,7.915,8.196,8.368,7.792,8.367,8.018,4.698,-4.508,-7.962,1.707,-1.846,7.618,4.316,-4.68,-7.544,92.1,79.9,-8.411,57.0,74.9,69.2,71.5,81.8,36,,4,5,prime,10,0,106,norm,36,-4.629,up,norm,72.0587354235,52.1,57.0,1.857,67.4,3,74.5,84.5,54.3,10,5,8.335,4.562,1.106,-1.886,-4.595,-7.858,65.0,5,178.1,-7.862,-7.75,80,-7.828,-8.319,-4.608,-4.386,-4.665,-5.03,5.181,7.964,27,-1.161,2.024,5.068,7.723,-8.236,-8.435,-1.721,1.888,80.7,70.9,77.9,74.6,64.3,63.6,62.2,80.8,71.6,81.6,0,norm,2.009,1.672,-1.533,-1.534,-5.023,-4.952,-1.598,-1.226,-1.207,-1.578,1.34,-1.896,87.9,65.8,-4.865,-8.104,66.3,-2.031,8.145,5.006,-4.584,-8.306,20,5.019,4.45,4.88,4.978,1.942,1.403,1.751,1.929,20,4.995,4.776,40,144.83852353,norm,0,69,69,69,478.259,478.266,478.26891735,478.269,478.273,478.278,up,1,0.695062789724,9.30493721028,001,24,800_600,Intel(R) Core(TM) i7-2670QM CPU @ 2.20GHz,orientation_search,GRVLAPTOP3,Intel(R) HD Graphics Family,2018_jul_31_1902,testMonitor,
86.7,92.1,60.9,58.8,36,80,52.1,,69.2,65.6,7.981,7.967,8.419,7.95,7.686,8.29,7.578,4.629,-4.831,-7.89,1.659,-1.586,7.821,5.035,-4.416,-8.127,64.0,87.5,-7.541,73.9,86.3,73.7,64.1,73.3,36,75.1,4,5,prime,10,0,116,norm,36,-4.641,down,norm,72.0587354235,85.2,73.9,1.166,64.4,1,84.6,58.2,72.1,10,5,8.482,4.329,1.262,-1.644,-5.011,-8.355,56.3,5,188.1,-8.414,-7.982,80,-7.867,-7.948,-4.876,-4.429,-4.367,-5.144,4.721,7.883,25,-1.317,2.064,5.083,8.012,-8.417,-8.332,-1.175,1.639,64.0,72.2,71.9,72.6,70.9,65.3,72.5,52.7,76.8,79.9,1,norm,1.394,1.663,-1.905,-1.889,-5.175,-5.1,-1.75,-1.846,-1.297,-2.022,1.568,-2.074,87.9,74.0,-4.78,-7.66,67.7,-1.136,7.893,4.901,-5.014,-7.953,20,5.038,5.041,4.453,5.279,1.858,1.729,1.759,1.957,20,4.393,5.123,40,144.83852353,norm,0,70,70,70,478.984,478.991,478.993315941,478.994,478.998,479.002,down,1,0.951409120564,9.04859087944,001,24,800_600,Intel(R) Core(TM) i7-2670QM CPU @ 2.20GHz,orientation_search,GRVLAPTOP3,Intel(R) HD Graphics Family,2018_jul_31_1902,testMonitor,
71.1,92.1,80.4,74.4,36,80,,59.8,56.6,73.3,8.268,7.935,7.542,7.839,8.077,7.804,8.396,4.496,-5.089,-8.367,1.281,-1.339,7.796,4.579,-4.883,-8.4,69.7,78.9,-7.827,80.0,70.9,59.9,70.2,73.5,36,87.2,4,5,prime,10,0,106,norm,36,-5.207,down,norm,72.0587354235,69.9,83.7,1.544,80.5,0,66.4,68.6,62.0,10,5,7.707,5.137,1.239,-1.779,-4.565,-7.672,74.7,5,178.1,-8.138,-8.168,80,-7.973,-7.849,-5.249,-4.695,-4.843,-4.658,5.005,8.438,24,-1.868,1.872,5.287,7.843,-8.413,-7.972,-1.219,1.699,52.1,84.5,87.2,66.7,77.0,65.6,82.4,89.0,71.8,77.4,2,norm,1.577,1.926,-1.297,-1.646,-4.711,-4.855,-1.413,-1.809,-1.152,-1.108,1.984,-1.466,70.6,79.0,-4.886,-7.913,70.4,-1.224,8.421,4.417,-5.006,-8.02,20,5.188,4.598,4.957,5.083,1.846,1.157,1.58,1.344,20,4.978,5.179,40,144.83852353,norm,0,71,71,71,479.965,479.972,479.974419488,479.975,479.979,479.983,down,1,0.9144366623,9.0855633377,001,24,800_600,Intel(R) Core(TM) i7-2670QM CPU @ 2.20GHz,orientation_search,GRVLAPTOP3,Intel(R) HD Graphics Family,2018_jul_31_1902,testMonitor,
82.3,85.9,62.8,77.4,36,80,62.0,74.3,56.0,59.1,8.197,8.124,7.839,7.809,8.234,7.786,8.451,5.121,-4.781,-7.661,1.908,-2.09,7.974,5.273,-5.298,-7.744,80.8,86.5,-8.123,55.3,67.9,66.0,84.3,88.9,36,52.1,1,5,prime,10,0,66,norm,36,-5.09,down,norm,72.0587354235,57.7,75.0,1.805,58.5,1,87.6,72.6,75.3,10,5,8.31,4.828,1.579,-1.715,-4.657,-8.342,69.6,5,138.1,-7.632,-8.398,80,-8.46,-8.141,-4.986,-4.572,-4.677,-5.044,5.264,8.354,7,-1.142,1.412,5.113,8.41,-8.196,-8.458,-1.3,1.114,80.4,76.4,80.1,69.9,78.6,78.9,,88.9,92.1,89.8,3,norm,2.091,1.695,-1.978,-1.13,-4.923,-4.468,-2.078,-1.789,-1.514,-1.159,1.342,-1.994,81.0,69.9,-4.415,-7.579,63.4,-2.09,7.872,4.849,-4.683,-8.206,20,4.932,5.266,4.988,4.891,1.533,1.772,1.345,1.818,20,4.988,4.801,40,144.83852353,norm,0,72,72,72,480.911,480.919,480.922515063,480.923,480.927,480.933,down,1,0.904586150071,9.09541384993,001,24,800_600,Intel(R) Core(TM) i7-2670QM CPU @ 2.20GHz,orientation_search,GRVLAPTOP3,Intel(R) HD Graphics Family,2018_jul_31_1902,testMonitor,
85.2,58.3,52.1,79.8,36,80,72.6,63.1,80.3,74.0,7.839,8.153,8.03,7.804,7.545,7.692,7.605,4.814,-5.099,-7.54,1.42,-1.806,7.751,5.016,-4.549,-8.105,79.7,70.9,-8.254,67.5,69.8,77.0,75.9,72.9,36,74.0,1,5,prime,10,0,97,norm,36,-5.029,down,norm,72.0587354235,64.0,66.8,1.615,92.1,1,65.0,77.3,74.4,10,5,8.191,4.929,2.066,-1.289,-4.804,-8.28,66.1,5,169.1,-8.227,-7.602,80,-8.232,-8.363,-5.242,-4.351,-4.782,-4.941,5.072,7.703,7,-1.68,1.773,4.785,8.008,-8.116,-8.029,-1.699,1.539,65.6,57.1,61.3,82.8,91.7,66.8,,81.3,59.1,77.9,4,norm,1.753,2.072,-1.879,-1.562,-4.469,-5.156,-1.182,-1.563,-1.724,-2.016,1.775,-1.95,84.1,65.8,-4.971,-8.399,62.6,-1.364,8.27,4.695,-5.018,-7.627,20,4.41,4.368,4.396,4.358,2.081,1.592,1.544,1.867,20,5.238,5.162,40,144.83852353,norm,0,73,73,73,481.851,481.859,481.862596211,481.863,481.868,481.874,down,1,0.689311248636,9.31068875136,001,24,800_600,Intel(R) Core(TM) i7-2670QM CPU @ 2.20GHz,orientation_search,GRVLAPTOP3,Intel(R) HD Graphics Family,2018_jul_31_1902,testMonitor,
257.3,260.3,254.8,267.3,36,-30,252.1,254.7,256.0,255.4,8.378,7.833,7.737,7.982,8.444,7.692,8.066,4.943,-5.044,-8.139,1.572,-1.394,8.39,5.083,-4.738,-8.098,263.9,255.9,-7.597,255.3,262.4,261.4,252.3,261.6,36,254.7,1,5,probe,5,0,100,norm,36,-4.34,up,norm,257.317832301,247.3,261.4,1.134,257.6,5,,256.6,254.1,10,5,7.995,4.964,1.983,-1.478,-5.079,-8.321,259.6,1,157.3,-8.226,-7.989,80,-8.115,-8.285,-4.764,-5.262,-4.582,-4.812,5.111,8.137,11,-2.081,1.139,4.993,8.212,-8.388,-8.113,-1.681,1.748,256.8,258.1,265.3,258.6,254.8,264.9,259.6,262.3,256.6,262.3,0,norm,1.909,1.952,-1.72,-1.469,-4.895,-4.995,-1.582,-1.167,-1.309,-1.452,1.686,-1.6,259.8,262.4,-4.683,-8.458,252.7,-1.687,7.653,4.395,-4.432,-7.501,21,4.346,4.879,5.266,4.724,1.646,1.344,1.693,2.009,21,4.943,5.295,80,72.0587354235,norm,0,74,74,74,482.576,482.585,482.588213567,482.589,482.593,482.599,up,1,0.683650764666,9.31634923533,001,24,800_600,Intel(R) Core(TM) i7-2670QM CPU @ 2.20GHz,orientation_search,GRVLAPTOP3,Intel(R) HD Graphics Family,2018_jul_31_1902,testMonitor,
235.7,239.5,214.6,229.0,36,-10,219.1,,227.3,238.0,8.005,8.391,7.914,7.607,7.91,8.404,7.782,4.723,-4.793,-7.696,1.283,-1.152,7.594,5.156,-4.328,-8.071,233.5,239.7,-8.445,229.7,208.7,233.4,222.4,226.3,36,233.0,4,5,prime,10,0,62,norm,36,-5.256,down,norm,227.341457222,235.2,226.8,1.966,231.1,1,216.7,213.3,231.6,10,6,8.389,4.817,1.624,-2.009,-4.515,-7.607,237.9,6,289.3,-8.121,-7.877,-10,-7.955,-8.235,-5.251,-4.769,-5.247,-4.314,4.823,7.87,25,-1.504,1.856,4.842,8.308,-8.086,-8.405,-1.316,1.319,233.4,229.4,213.4,227.5,247.3,237.5,208.6,230.8,219.4,224.4,0,norm,1.825,1.517,-2.06,-1.572,-4.857,-4.368,-1.42,-1.866,-1.636,-2.068,1.305,-1.628,207.3,241.6,-5.071,-7.641,208.3,-1.572,8.228,5.119,-4.741,-8.334,22,4.576,4.334,4.978,5.29,2.02,1.624,1.54,1.936,22,5.053,4.971,-30,72.0587354235,norm,0,75,75,75,483.295,483.304,483.306878361,483.307,483.312,483.318,down,1,0.733361880128,9.26663811987,001,24,800_600,Intel(R) Core(TM) i7-2670QM CPU @ 2.20GHz,orientation_search,GRVLAPTOP3,Intel(R) HD Graphics Family,2018_jul_31_1902,testMonitor,
225.5,214.8,220.8,225.7,36,-10,226.2,223.0,,239.0,7.852,8.082,8.278,7.884,8.222,7.631,8.457,4.452,-5.201,-8.088,1.847,-2.041,8.12,4.802,-4.802,-8.326,213.8,229.7,-7.748,238.7,239.7,231.2,212.2,223.0,36,223.5,4,5,prime,10,0,105,norm,36,-4.785,up,norm,227.341457222,231.6,228.1,1.878,216.5,4,247.3,244.0,213.1,10,6,8.109,4.385,1.763,-1.174,-4.961,-7.723,223.7,6,332.3,-7.925,-7.951,-10,-8.498,-8.497,-4.354,-4.754,-4.409,-5.278,5.193,7.962,28,-1.464,1.261,4.779,7.551,-7.993,-7.686,-1.768,1.164,229.6,222.5,221.7,227.8,235.1,233.1,237.0,207.3,235.5,228.0,1,norm,1.941,2.043,-1.222,-1.329,-5.256,-5.286,-1.169,-2.027,-1.192,-1.417,1.698,-1.548,235.7,222.5,-4.697,-7.794,223.4,-1.676,7.723,4.469,-5.052,-8.382,22,5.205,5.047,5.126,5.298,1.77,1.98,1.888,1.814,22,4.536,5.02,-30,72.0587354235,norm,0,76,76,76,484.064,484.073,484.076062578,484.076,484.081,484.087,up,1,0.617521350556,9.38247864944,001,24,800_600,Intel(R) Core(TM) i7-2670QM CPU @ 2.20GHz,orientation_search,GRVLAPTOP3,Intel(R) HD Graphics Family,2018_jul_31_1902,testMonitor,
235.6,228.2,227.6,237.3,36,-10,214.0,235.4,222.8,229.8,8.414,7.897,8.475,8.186,8.017,8.419,7.87,4.364,-5.073,-7.754,1.586,-1.193,7.986,4.358,-4.811,-7.931,225.2,221.7,-8.263,235.0,226.4,216.4,233.8,219.0,36,207.3,1,5,prime,10,0,112,norm,36,-4.455,up,norm,227.341457222,215.8,237.6,1.864,219.1,5,,224.3,240.0,10,6,8.203,4.926,1.281,-1.875,-4.316,-8.274,241.0,6,339.3,-8.36,-8.094,-10,-7.977,-8.336,-4.615,-5.156,-5.283,-4.93,4.352,7.921,11,-1.628,1.295,5.3,8.073,-8.371,-7.625,-1.197,1.84,226.2,217.8,222.8,234.2,247.3,222.5,224.0,221.5,222.4,232.9,2,norm,1.675,1.54,-1.646,-1.76,-4.66,-4.983,-1.918,-1.905,-1.357,-1.338,2.099,-1.24,236.7,221.6,-5.097,-8.343,222.6,-1.446,8.102,4.524,-4.745,-8.314,22,4.364,4.859,5.147,4.681,2.034,1.538,1.656,1.496,22,5.296,4.807,-30,72.0587354235,norm,0,77,77,77,484.718,484.727,484.729918987,484.73,484.735,484.741,up,1,0.624922659823,9.37507734018,001,24,800_600,Intel(R) Core(TM) i7-2670QM CPU @ 2.20GHz,orientation_search,GRVLAPTOP3,Intel(R) HD Graphics Family,2018_jul_31_1902,testMonitor,
229.6,232.7,217.0,233.2,36,-10,221.1,207.3,232.1,227.7,8.181,8.156,7.796,8.152,7.773,8.156,7.781,5.262,-4.475,-8.019,1.585,-1.703,8.203,4.531,-4.919,-7.514,218.2,228.3,-7.672,237.9,247.3,,220.0,217.8,36,225.7,5,5,prime,10,0,92,norm,36,-5.278,up,norm,227.341457222,228.3,224.7,1.836,228.9,3,239.7,210.9,223.1,10,6,8.214,4.452,1.624,-1.134,-4.772,-7.581,227.3,6,319.3,-8.093,-8.11,-10,-8.184,-8.328,-4.561,-4.995,-4.595,-5.044,4.384,8.133,33,-1.908,1.168,5.018,7.557,-8.339,-7.502,-1.97,1.851,239.5,224.7,223.0,233.6,219.6,244.5,243.7,236.3,230.0,209.0,3,norm,1.862,1.856,-1.752,-1.451,-5.266,-4.831,-1.474,-1.272,-1.838,-1.225,1.377,-1.132,244.7,221.3,-4.612,-8.078,230.4,-1.599,8.417,4.899,-5.209,-8.196,22,5.174,5.157,4.866,4.586,1.649,1.251,1.506,1.837,22,4.539,4.436,-30,72.0587354235,norm,0,78,78,78,485.381,485.391,485.39455329,485.395,485.401,485.408,up,1,0.649689261758,9.35031073824,001,24,800_600,Intel(R) Core(TM) i7-2670QM CPU @ 2.20GHz,orientation_search,GRVLAPTOP3,Intel(R) HD Graphics Family,2018_jul_31_1902,testMonitor,
213.6,227.0,216.3,212.8,36,-10,212.8,209.7,235.0,219.3,7.98,8.069,8.444,7.99,7.503,8.45,7.613,4.465,-4.507,-8.003,1.531,-1.599,8.262,4.879,-4.383,-7.825,243.0,234.5,-8.455,221.5,247.3,222.4,,215.3,36,222.7,5,5,prime,10,0,65,norm,36,-4.514,down,norm,227.341457222,228.2,230.1,2.017,207.3,2,211.3,231.2,219.8,10,6,8.203,4.793,1.645,-1.429,-5.154,-8.411,243.0,6,292.3,-8.079,-7.664,-10,-8.26,-7.688,-4.378,-4.603,-4.951,-4.552,4.378,7.701,32,-1.196,1.36,4.318,8.24,-8.232,-7.531,-1.545,1.195,231.4,232.7,244.0,230.1,225.0,227.9,216.3,230.5,228.9,224.5,4,norm,1.199,1.302,-1.479,-1.925,-5.163,-4.385,-1.262,-1.892,-1.303,-1.245,1.561,-1.527,228.9,232.0,-5.149,-8.356,216.6,-1.564,8.447,4.315,-4.395,-7.894,22,4.332,4.621,4.314,4.447,1.494,1.485,2.031,2.091,22,4.44,5.179,-30,72.0587354235,norm,0,79,79,79,486.074,486.085,486.088715315,486.089,486.095,486.103,down,1,0.595576585336,9.40442341466,001,24,800_600,Intel(R) Core(TM) i7-2670QM CPU @ 2.20GHz,orientation_search,GRVLAPTOP3,Intel(R) HD Graphics Family,2018_jul_31_1902,testMonitor,
232.1,,222.3,230.5,36,-10,224.6,232.8,235.3,222.7,8.045,7.936,7.603,7.62,8.153,8.081,7.902,4.868,-4.827,-7.642,1.325,-1.272,8.492,4.736,-4.478,-8.03,209.0,228.4,-8.368,208.1,234.5,229.6,229.0,222.7,36,232.5,3,5,prime,10,0,100,norm,36,-4.454,up,norm,227.341457222,225.3,238.6,1.104,218.2,5,212.1,236.7,227.8,10,6,8.193,4.775,1.968,-1.457,-4.353,-8.17,213.2,6,327.3,-8.219,-7.784,-10,-8.174,-8.195,-4.671,-4.905,-4.354,-5.194,5.142,8.414,23,-1.41,1.807,4.312,7.959,-8.34,-8.412,-1.869,2.014,247.3,222.5,215.6,221.7,243.6,221.2,231.9,232.3,223.6,207.3,5,norm,1.968,1.628,-1.656,-1.879,-5.163,-5.047,-1.199,-1.217,-1.629,-1.106,1.459,-1.704,229.7,215.2,-4.461,-7.638,208.3,-1.292,7.993,5.23,-4.965,-8.204,22,4.955,4.479,5.226,5.22,1.245,1.653,1.975,1.934,22,5.127,5.107,-30,72.0587354235,norm,0,80,80,80,486.715,486.727,486.731023347,486.732,486.737,486.745,up,1,0.517012971672,9.48298702833,001,24,800_600,Intel(R) Core(TM) i7-2670QM CPU @ 2.20GHz,orientation_search,GRVLAPTOP3,Intel(R) HD Graphics Family,2018_jul_31_1902,testMonitor,
315.5,315.7,319.7,,36,-80,320.5,319.6,315.7,323.4,8.318,8.218,8.089,7.709,7.978,7.632,7.996,4.828,-5.037,-8.381,1.572,-1.741,8.176,4.346,-4.417,-7.716,318.6,329.3,-7.511,315.7,320.6,324.6,323.3,318.1,36,316.2,3,5,probe,5,0,103,norm,36,-4.835,up,norm,319.335766239,328.9,318.2,1.397,318.6,3,319.1,322.5,310.3,10,6,8.322,4.708,1.705,-1.31,-4.755,-7.808,315.8,1,216.3,-8.426,-7.61,-10,-7.668,-8.419,-4.704,-5.039,-5.173,-4.917,4.322,8.055,21,-2.037,1.805,4.731,8.256,-8.199,-8.402,-1.928,1.347,314.2,320.0,318.6,326.8,315.8,320.3,317.5,309.3,320.1,312.4,0,norm,1.932,1.805,-1.251,-2.077,-4.817,-4.458,-1.965,-1.812,-1.421,-1.845,1.514,-1.478,323.9,312.0,-4.683,-8.452,312.7,-1.205,7.989,5.184,-4.357,-8.345,23,4.957,4.858,5.253,5.077,1.51,2.061,1.973,2.005,23,5.23,4.348,-10,227.341457222,norm,0,81,81,81,487.279,487.291,487.295496689,487.296,487.303,487.312,up,1,0.750916291421,9.24908370858,001,24,800_600,Intel(R) Core(TM) i7-2670QM CPU @ 2.20GHz,orientation_search,GRVLAPTOP3,Intel(R) HD Graphics Family,2018_jul_31_1902,testMonitor,
266.4,276.0,296.4,291.6,36,-20,272.2,278.0,284.3,292.6,8.31,7.884,8.421,7.537,8.428,8.457,8.365,5.198,-4.351,-8.035,1.482,-1.881,7.73,4.946,-4.389,-7.868,268.5,272.6,-8.026,278.9,271.3,291.4,288.7,299.6,36,277.9,1,5,prime,10,0,74,norm,36,-4.998,down,norm,286.393016746,286.1,282.9,1.228,306.4,0,305.2,277.6,275.7,10,5,7.714,4.392,1.804,-1.25,-4.571,-8.136,278.5,5,360.4,-8.01,-8.307,-20,-8.452,-7.793,-4.466,-4.635,-4.942,-5.121,4.671,8.449,6,-1.193,1.668,5.269,8.494,-7.643,-8.261,-1.281,1.372,271.4,297.6,281.7,280.0,287.3,275.0,285.8,,289.4,287.6,0,norm,1.642,1.872,-1.84,-1.376,-4.773,-4.917,-1.398,-1.496,-1.754,-1.269,1.284,-1.829,281.3,285.3,-4.842,-7.727,299.6,-1.938,8.127,5.242,-4.494,-8.182,24,4.308,4.625,4.344,4.938,1.351,1.618,1.37,1.954,24,4.387,4.941,-80,227.341457222,norm,0,82,82,82,488.084,488.098,488.102363609,488.103,488.11,488.12,down,1,1.00625679135,8.99374320865,001,24,800_600,Intel(R) Core(TM) i7-2670QM CPU @ 2.20GHz,orientation_search,GRVLAPTOP3,Intel(R) HD Graphics Family,2018_jul_31_1902,testMonitor,
297.4,296.8,284.2,282.7,36,-20,267.0,276.4,266.4,271.6,8.396,8.376,8.036,7.9,8.233,8.034,8.067,4.51,-4.314,-7.764,1.113,-1.288,8.218,4.614,-5.294,-7.806,300.8,290.9,-7.977,282.3,292.0,284.3,274.1,278.2,36,294.5,2,5,prime,10,0,114,norm,36,-4.351,up,norm,286.393016746,279.1,,2.083,294.6,4,281.9,288.7,274.5,10,5,7.517,5.261,1.348,-1.615,-5.149,-8.401,294.1,5,400.4,-7.934,-8.067,-20,-8.133,-8.22,-4.87,-4.606,-4.783,-4.663,4.35,7.878,16,-1.156,1.104,5.256,8.103,-7.669,-8.012,-1.673,1.983,277.2,293.2,296.9,297.3,280.7,289.9,306.4,279.0,291.1,287.9,1,norm,1.214,1.861,-1.607,-1.299,-4.745,-5.187,-1.407,-1.122,-1.808,-1.514,1.543,-1.882,293.7,302.3,-4.788,-7.799,302.0,-1.969,7.694,4.549,-4.945,-7.826,24,4.992,4.575,4.691,4.327,1.474,1.606,1.895,1.375,24,5.219,4.482,-80,227.341457222,norm,0,83,83,83,489.165,489.195,489.204296215,489.205,489.22,489.239,up,1,0.583044324267,9.41695567573,001,24,800_600,Intel(R) Core(TM) i7-2670QM CPU @ 2.20GHz,orientation_search,GRVLAPTOP3,Intel(R) HD Graphics Family,2018_jul_31_1902,testMonitor,
295.1,291.0,287.9,290.4,36,-20,306.4,277.1,296.5,270.3,8.308,8.462,7.866,8.142,7.954,8.285,7.654,5.035,-4.733,-8.363,1.953,-1.678,8.005,4.734,-4.763,-8.34,286.9,292.2,-7.851,279.3,266.4,287.0,272.7,287.5,36,275.2,1,5,prime,10,0,71,norm,36,-5.058,down,norm,286.393016746,279.8,283.2,2.086,295.0,0,297.5,287.8,276.7,10,5,7.804,4.675,1.859,-1.774,-4.818,-7.775,297.3,5,357.4,-7.677,-7.534,-20,-7.952,-7.861,-4.368,-4.854,-4.972,-4.584,4.739,8.413,6,-1.146,1.435,5.057,7.901,-8.273,-8.497,-1.663,1.59,287.3,287.4,295.8,297.5,288.2,280.3,285.0,,282.2,289.5,2,norm,1.366,1.937,-1.655,-1.572,-5.107,-5.153,-1.57,-1.525,-1.248,-1.383,1.595,-1.618,282.0,279.3,-5.285,-8.046,294.6,-2.088,7.775,4.718,-5.126,-8.172,24,4.665,4.99,4.926,5.178,1.193,1.832,1.11,1.71,24,4.609,4.487,-80,227.341457222,norm,0,84,84,84,489.86,489.888,489.897286638,489.898,489.912,489.932,down,1,0.652618032203,9.3473819678,001,24,800_600,Intel(R) Core(TM) i7-2670QM CPU @ 2.20GHz,orientation_search,GRVLAPTOP3,Intel(R) HD Graphics Family,2018_jul_31_1902,testMonitor,
270.1,287.0,282.8,305.6,36,-20,282.9,286.6,288.9,293.5,8.359,7.927,8.431,7.822,7.544,8.009,7.768,4.792,-5.062,-7.964,1.808,-1.942,7.766,4.313,-4.423,-8.385,266.4,304.3,-7.801,290.3,304.4,290.3,306.4,285.4,36,305.4,0,5,prime,10,0,118,norm,36,-5.063,up,norm,286.393016746,287.3,300.9,1.67,283.1,3,278.7,279.0,282.3,10,5,7.745,4.578,1.97,-1.398,-4.694,-7.725,295.7,5,404.4,-7.759,-8.243,-20,-7.625,-8.147,-5.259,-5.07,-4.835,-5.098,4.342,8.286,3,-1.689,1.231,5.239,7.608,-7.54,-8.012,-2.001,1.116,285.8,270.4,,284.4,285.2,296.1,297.2,290.5,269.8,298.9,3,norm,1.679,1.434,-2.07,-1.992,-5.22,-4.646,-1.504,-1.883,-1.298,-1.85,1.39,-1.195,286.3,283.5,-4.982,-7.79,287.4,-1.104,7.725,4.903,-5.211,-8.058,24,4.927,5.135,4.942,5.132,1.885,1.932,1.496,1.928,24,4.437,4.301,-80,227.341457222,norm,0,85,85,85,490.624,490.651,490.66053253,490.662,490.675,490.695,up,1,0.634620476274,9.36537952373,001,24,800_600,Intel(R) Core(TM) i7-2670QM CPU @ 2.20GHz,orientation_search,GRVLAPTOP3,Intel(R) HD Graphics Family,2018_jul_31_1902,testMonitor,
293.9,271.8,287.1,289.3,36,-20,273.6,287.2,266.4,291.6,8.106,7.941,7.871,8.367,7.682,8.054,8.315,5.069,-5.087,-7.605,1.669,-1.76,7.953,5.22,-4.352,-8.019,293.4,294.1,-7.529,279.2,291.9,274.3,279.1,284.0,36,282.0,2,5,prime,10,0,87,norm,36,-4.804,down,norm,286.393016746,286.1,290.5,1.289,,2,299.4,286.0,285.8,10,5,8.464,5.275,1.428,-1.757,-4.516,-8.434,266.7,5,373.4,-7.851,-7.704,-20,-8.141,-8.459,-4.882,-5.29,-4.603,-5.255,4.788,8.441,14,-1.527,1.212,4.362,8.158,-8.418,-7.795,-1.805,1.543,293.4,281.4,278.8,282.2,283.0,288.4,299.0,284.7,280.4,284.2,4,norm,1.707,1.676,-1.557,-1.139,-5.127,-5.244,-1.766,-1.647,-1.452,-1.115,1.886,-1.186,306.4,288.7,-5.205,-7.545,294.4,-1.19,7.839,4.853,-4.837,-8.134,24,4.755,5.227,4.533,5.039,1.769,1.703,2.027,1.438,24,4.568,4.402,-80,227.341457222,norm,0,86,86,86,491.368,491.395,491.403887345,491.405,491.419,491.438,down,1,0.716563943337,9.28343605666,001,24,800_600,Intel(R) Core(TM) i7-2670QM CPU @ 2.20GHz,orientation_search,GRVLAPTOP3,Intel(R) HD Graphics Family,2018_jul_31_1902,testMonitor,
361.1,352.8,357.4,,36,30,350.7,355.7,365.4,361.1,7.895,7.836,7.663,8.046,8.489,7.782,7.74,4.717,-5.091,-7.615,1.602,-1.289,7.759,5.26,-4.478,-8.049,365.4,353.8,-7.642,358.4,362.6,363.2,366.0,353.2,36,362.4,3,5,probe,5,0,90,norm,36,-4.469,up,norm,360.722125843,368.9,354.1,1.115,367.5,3,365.6,366.9,365.4,10,5,8.498,4.903,1.196,-1.624,-4.978,-7.616,370.7,1,270.7,-7.914,-8.468,-20,-8.111,-8.177,-4.882,-4.539,-4.358,-4.817,4.916,7.544,21,-1.675,1.678,5.045,7.868,-7.812,-7.916,-1.636,1.57,363.7,354.2,362.4,358.6,356.6,354.8,360.8,357.2,367.3,359.0,0,norm,1.145,1.148,-1.699,-1.314,-4.38,-4.63,-1.917,-2.041,-1.829,-1.777,1.7,-1.93,364.0,354.4,-4.696,-7.666,368.2,-1.451,7.675,4.499,-4.744,-8.22,25,5.257,5.133,5.018,4.744,1.589,1.65,1.582,1.578,25,4.386,4.908,-20,286.393016746,norm,0,87,87,87,492.196,492.224,492.232494503,492.234,492.248,492.267,up,1,0.657065822154,9.34293417785,001,24,800_600,Intel(R) Core(TM) i7-2670QM CPU @ 2.20GHz,orientation_search,GRVLAPTOP3,Intel(R) HD Graphics Family,2018_jul_31_1902,testMonitor,
127.0,156.8,136.5,157.9,36,30,136.2,134.9,134.2,161.6,7.568,8.324,8.447,7.582,7.842,8.492,8.129,5.126,-4.579,-8.009,1.852,-1.818,7.65,4.764,-4.924,-8.174,144.3,154.1,-8.314,128.6,,129.0,146.6,145.6,36,137.1,5,5,prime,10,0,85,norm,36,-4.327,down,norm,141.560103199,132.5,142.5,1.935,141.8,0,144.5,153.2,140.5,10,6,7.686,4.349,2.059,-1.351,-4.909,-7.682,143.5,6,226.6,-8.119,-8.064,30,-8.377,-7.979,-5.107,-4.535,-5.179,-4.568,5.291,8.135,30,-1.493,2.084,5.28,7.964,-8.466,-8.284,-1.236,1.883,147.1,137.8,135.2,123.3,158.3,130.0,134.8,136.1,128.7,142.6,0,norm,1.321,1.195,-1.865,-1.685,-4.675,-4.426,-1.522,-1.228,-1.544,-1.943,1.162,-1.845,146.7,147.9,-5.272,-8.264,121.6,-2.072,7.787,4.851,-5.28,-7.517,26,4.979,4.514,4.564,5.173,1.205,1.231,1.135,1.94,26,4.707,4.411,30,286.393016746,norm,0,88,88,88,492.964,492.991,492.999467666,493.001,493.015,493.034,down,1,0.756596387691,9.24340361231,001,24,800_600,Intel(R) Core(TM) i7-2670QM CPU @ 2.20GHz,orientation_search,GRVLAPTOP3,Intel(R) HD Graphics Family,2018_jul_31_1902,testMonitor,
145.2,141.9,154.5,133.0,36,30,132.7,154.0,134.8,146.3,8.112,7.957,8.399,8.371,8.397,7.577,8.387,5.041,-4.832,-8.277,1.159,-1.269,7.836,5.074,-4.436,-7.839,139.7,145.6,-8.35,151.4,133.7,139.5,121.6,139.9,36,153.1,2,5,prime,10,0,96,norm,36,-4.74,down,norm,141.560103199,142.9,152.5,1.235,124.1,1,142.1,,158.3,10,6,8.266,4.494,1.817,-1.595,-4.859,-8.344,161.6,6,237.6,-8.321,-7.729,30,-7.904,-8.371,-4.51,-4.642,-4.619,-4.825,4.728,8.299,13,-1.256,1.711,4.364,7.868,-8.003,-8.19,-1.927,1.153,141.2,126.2,132.9,145.2,145.0,158.6,142.0,145.7,140.6,141.9,1,norm,1.987,1.471,-1.382,-1.747,-4.746,-5.045,-2.036,-2.012,-1.38,-1.151,1.158,-1.929,139.2,156.7,-4.581,-8.407,150.7,-1.179,8.192,4.334,-5.192,-7.99,26,4.678,5.259,4.388,4.595,1.171,1.53,1.717,1.885,26,4.692,4.823,30,286.393016746,norm,0,89,89,89,493.829,493.856,493.864795591,493.866,493.88,493.899,down,1,0.776776512677,9.22322348732,001,24,800_600,Intel(R) Core(TM) i7-2670QM CPU @ 2.20GHz,orientation_search,GRVLAPTOP3,Intel(R) HD Graphics Family,2018_jul_31_1902,testMonitor,
147.5,145.6,133.5,121.6,36,30,126.7,137.2,,151.8,8.14,8.434,8.489,8.167,7.59,7.617,8.491,4.747,-5.217,-8.038,1.762,-1.578,7.75,4.35,-5.09,-7.844,150.2,131.9,-7.709,152.6,151.7,141.8,145.7,150.8,36,139.3,4,5,prime,10,0,112,norm,36,-5.134,up,norm,141.560103199,151.3,143.6,1.722,151.0,4,141.6,151.1,129.1,10,6,7.717,5.044,1.785,-1.522,-4.505,-7.55,161.6,6,253.6,-7.866,-8.118,30,-8.033,-8.383,-4.686,-5.208,-4.331,-4.867,5.183,8.365,28,-1.401,1.339,5.266,8.338,-8.343,-7.562,-1.918,1.673,135.8,140.2,152.2,141.0,135.8,137.7,140.3,142.8,133.5,130.5,2,norm,1.688,1.787,-1.529,-1.645,-4.69,-4.7,-1.306,-1.212,-1.627,-1.47,1.827,-1.312,147.1,128.3,-4.651,-7.905,138.1,-1.848,8.243,4.411,-4.748,-8.005,26,5.21,5.131,4.565,4.696,1.977,1.946,1.981,1.558,26,4.742,4.457,30,286.393016746,norm,0,90,90,90,494.717,494.744,494.754043053,494.755,494.769,494.788,up,1,0.625188826773,9.37481117323,001,24,800_600,Intel(R) Core(TM) i7-2670QM CPU @ 2.20GHz,orientation_search,GRVLAPTOP3,Intel(R) HD Graphics Family,2018_jul_31_1902,testMonitor,
145.3,139.8,144.5,,36,30,145.1,143.0,156.3,147.5,7.843,8.341,8.392,8.49,8.315,8.176,7.849,4.476,-5.089,-7.85,1.686,-1.644,8.209,4.662,-4.726,-8.261,144.2,137.3,-7.774,137.3,130.9,144.6,152.2,150.4,36,151.5,3,5,prime,10,0,118,norm,36,-5.055,up,norm,141.560103199,121.6,127.5,1.209,141.9,3,149.9,145.2,138.0,10,6,8.479,4.516,1.726,-1.482,-5.073,-8.173,133.7,6,259.6,-7.738,-8.064,30,-7.546,-8.432,-4.495,-5.094,-5.261,-5.02,4.353,8.234,21,-1.761,1.305,4.468,8.21,-7.967,-7.647,-1.96,1.596,136.0,132.4,149.7,131.7,144.6,126.0,131.5,133.7,146.1,125.6,3,norm,1.613,1.131,-1.684,-1.56,-5.236,-4.862,-1.11,-1.758,-1.958,-1.593,1.399,-2.032,147.9,122.6,-4.614,-8.2,150.4,-1.921,7.643,4.985,-4.807,-8.271,26,4.506,4.627,4.381,4.301,1.537,1.746,1.59,1.834,26,5.213,5.08,30,286.393016746,norm,0,91,91,91,495.452,495.479,495.488442984,495.49,495.503,495.522,down,0,1.08108332754,-10,001,24,800_600,Intel(R) Core(TM) i7-2670QM CPU @ 2.20GHz,orientation_search,GRVLAPTOP3,Intel(R) HD Graphics Family,2018_jul_31_1902,testMonitor,
139.0,141.0,128.8,147.7,36,30,142.8,135.0,131.4,136.8,8.067,8.014,8.306,8.208,8.424,7.994,8.239,4.739,-4.883,-8.483,1.685,-1.771,7.591,4.857,-4.587,-7.827,121.6,132.8,-7.814,156.2,139.4,135.2,159.5,161.6,36,,4,5,prime,10,0,65,norm,36,-5.06,up,norm,141.560103199,143.4,136.2,1.394,129.9,3,138.4,136.5,132.2,10,6,8.468,4.991,1.365,-1.393,-4.866,-7.925,146.0,6,206.6,-8.257,-8.175,30,-8.481,-7.525,-4.419,-5.187,-4.691,-4.324,5.19,8.404,27,-2.002,1.684,4.75,7.544,-7.74,-7.856,-1.42,1.789,129.9,131.7,148.3,130.3,144.5,159.7,145.8,141.6,150.9,135.4,4,norm,1.411,1.692,-1.516,-1.93,-4.557,-5.024,-1.187,-1.546,-1.759,-1.54,1.602,-1.749,149.4,133.4,-4.767,-8.467,141.9,-1.261,7.901,4.837,-5.17,-7.744,26,4.993,4.815,4.876,4.418,2.013,2.038,1.824,2.029,26,4.656,4.971,30,286.393016746,norm,0,92,92,92,497.65,497.678,497.687138486,497.688,497.702,497.721,up,1,0.686967111571,9.31303288843,001,24,800_600,Intel(R) Core(TM) i7-2670QM CPU @ 2.20GHz,orientation_search,GRVLAPTOP3,Intel(R) HD Graphics Family,2018_jul_31_1902,testMonitor,
143.3,147.0,138.1,147.8,36,30,137.2,121.6,141.5,,8.498,8.093,7.629,8.107,8.182,7.815,7.503,5.257,-5.227,-7.836,1.383,-1.161,8.191,4.927,-5.244,-8.03,143.1,149.7,-7.592,134.6,148.7,160.5,148.1,137.1,36,139.0,4,5,prime,10,0,96,norm,36,-4.663,up,norm,141.560103199,134.4,141.7,1.99,137.9,5,128.9,143.9,161.6,10,6,7.518,4.761,1.752,-2.002,-4.344,-7.65,138.3,6,237.6,-7.89,-7.642,30,-8.477,-8.389,-4.436,-4.585,-5.054,-5.144,4.683,7.961,29,-1.904,1.398,5.162,8.104,-8.134,-7.537,-1.537,1.991,127.9,147.6,128.4,127.1,129.9,138.2,134.9,124.5,132.0,148.2,5,norm,1.292,1.246,-1.895,-1.593,-4.758,-5.291,-1.472,-1.288,-1.226,-2.033,1.102,-1.83,148.2,153.8,-4.327,-7.584,151.0,-1.525,7.735,4.459,-4.309,-7.643,26,5.279,4.465,4.528,4.343,1.879,1.216,1.767,2.031,26,4.482,5.182,30,286.393016746,norm,0,93,93,93,498.449,498.476,498.484942188,498.486,498.501,498.52,up,1,0.643002867604,9.3569971324,001,24,800_600,Intel(R) Core(TM) i7-2670QM CPU @ 2.20GHz,orientation_search,GRVLAPTOP3,Intel(R) HD Graphics Family,2018_jul_31_1902,testMonitor,
276.9,272.7,288.7,277.8,36,-20,283.1,279.6,282.9,287.1,7.863,7.863,7.986,8.405,8.202,7.98,8.193,5.032,-5.011,-7.865,2.087,-1.204,7.775,4.468,-4.422,-8.462,273.2,282.0,-7.857,277.2,276.8,277.0,274.9,277.5,36,276.8,1,5,probe,5,0,104,norm,36,-4.782,up,norm,278.688105745,275.7,268.7,1.673,282.6,5,,277.6,279.7,10,6,8.04,4.491,1.407,-1.508,-4.304,-7.921,278.4,1,174.7,-7.826,-7.856,30,-8.224,-7.809,-5.189,-5.109,-4.394,-4.88,4.999,7.757,11,-1.152,2.075,4.568,7.938,-7.683,-7.917,-1.655,1.742,279.1,274.7,281.8,280.8,274.2,278.7,271.3,278.1,274.6,282.1,0,norm,1.502,1.6,-1.789,-1.502,-4.85,-4.758,-1.268,-1.574,-2.06,-1.965,1.153,-1.509,278.4,274.8,-5.016,-7.582,279.4,-1.404,8.4,4.552,-4.656,-7.749,27,4.372,5.092,5.264,4.981,1.471,1.712,1.446,1.54,27,4.64,4.651,30,141.560103199,norm,0,94,94,94,499.204,499.232,499.240999237,499.242,499.256,499.276,up,1,0.661254449537,9.33874555046,001,24,800_600,Intel(R) Core(TM) i7-2670QM CPU @ 2.20GHz,orientation_search,GRVLAPTOP3,Intel(R) HD Graphics Family,2018_jul_31_1902,testMonitor,
338.7,327.2,332.2,344.2,36,-80,342.2,328.2,342.1,327.3,7.513,7.623,7.708,8.181,7.997,7.664,8.098,4.459,-5.044,-7.622,1.545,-1.693,8.172,4.706,-4.471,-8.227,339.8,337.2,-8.056,337.4,333.4,327.4,345.9,326.1,36,359.5,0,5,prime,10,0,98,norm,36,-4.612,up,norm,339.500619769,339.3,327.5,1.89,348.4,5,330.7,346.2,328.2,10,6,7.647,4.542,2.046,-2.059,-4.835,-7.699,343.0,6,437.5,-7.865,-8.449,-80,-7.757,-7.662,-4.68,-4.871,-4.704,-5.097,4.318,7.508,5,-2.013,1.157,4.765,7.907,-8.318,-7.79,-1.272,1.933,339.2,337.2,319.5,337.4,328.4,337.9,337.4,352.7,,336.7,0,norm,1.718,1.417,-1.853,-1.977,-4.366,-5.075,-1.301,-1.633,-1.751,-1.847,1.162,-1.436,337.4,326.0,-4.483,-8.082,346.2,-1.405,7.598,4.525,-5.066,-8.124,28,4.45,4.371,4.3,4.511,1.15,1.317,1.58,1.434,28,5.14,4.383,-20,141.560103199,norm,0,95,95,95,499.976,500.004,500.013027705,500.014,500.028,500.048,down,0,1.31463969633,-10,001,24,800_600,Intel(R) Core(TM) i7-2670QM CPU @ 2.20GHz,orientation_search,GRVLAPTOP3,Intel(R) HD Graphics Family,2018_jul_31_1902,testMonitor,
