d_ori_22,d_ori_23,d_ori_20,d_ori_21,set_size,ctpd,d_ori_24,d_ori_25,d_ori_28,d_ori_29,stim_pos_x_30,stim_pos_x_31,stim_pos_x_32,stim_pos_x_33,stim_pos_x_34,stim_pos_x_35,stim_pos_y_11,stim_pos_y_10,stim_pos_y_13,stim_pos_y_12,stim_pos_y_15,stim_pos_y_14,stim_pos_y_17,stim_pos_y_16,stim_pos_y_19,stim_pos_y_18,d_ori_35,d_ori_34,stim_pos_x_3,d_ori_31,d_ori_30,d_ori_33,d_ori_32,d_ori_26,test_set_size,d_ori_27,targetCol,dsd_test,seq_type,dsd,blockRepN,targetDist,dtype_test,prime_set_size,stim_pos_y_25,correctResponse,dtype,distrMean,d_ori_17,d_ori_16,stim_pos_y_3,d_ori_14,targetRow,d_ori_11,d_ori_13,d_ori_12,dsd_prime,streak_length_prime,stim_pos_y_35,stim_pos_y_34,stim_pos_y_33,stim_pos_y_32,stim_pos_y_31,stim_pos_y_30,d_ori_10,nextProbe,targetOri,stim_pos_x_1,stim_pos_x_2,ctpd_prime,stim_pos_x_4,stim_pos_x_5,stim_pos_x_6,stim_pos_x_7,stim_pos_x_8,stim_pos_x_9,stim_pos_y_28,stim_pos_y_29,targetPos,stim_pos_y_20,stim_pos_y_21,stim_pos_y_22,stim_pos_y_23,stim_pos_y_24,stim_pos_x_0,stim_pos_y_26,stim_pos_y_27,d_ori_9,d_ori_8,d_ori_3,d_ori_2,d_ori_1,d_ori_0,d_ori_7,d_ori_6,d_ori_5,d_ori_4,trialN,dtype_prime,stim_pos_x_18,stim_pos_x_19,stim_pos_x_12,stim_pos_x_13,stim_pos_x_10,stim_pos_x_11,stim_pos_x_16,stim_pos_x_17,stim_pos_x_14,stim_pos_x_15,stim_pos_y_9,stim_pos_y_8,d_ori_19,d_ori_18,stim_pos_y_1,stim_pos_y_0,d_ori_15,stim_pos_y_2,stim_pos_y_5,stim_pos_y_4,stim_pos_y_7,stim_pos_y_6,totBlockN,stim_pos_x_27,stim_pos_x_26,stim_pos_x_25,stim_pos_x_24,stim_pos_x_23,stim_pos_x_22,stim_pos_x_21,stim_pos_x_20,blockN,stim_pos_x_29,stim_pos_x_28,prevDistrCTPD,prevDistrMean,prevDistrType,trials.thisRepN,trials.thisTrialN,trials.thisN,trials.thisIndex,timeStart,timeBeforeDraw,timeDraw,timeAfterSaving,timeAfterWritingToTemp,timeAfterPreparingNext,answer,correct,rt,trialScore,session,participant,resolution,cpu_info,expName,pc_name,graphic_card,date,monitorName,
274.9,257.8,270.7,254.4,36,-40,262.9,259.8,274.7,263.6,8.18,8.256,8.214,8.065,8.233,7.847,7.826,4.331,-4.978,-8.314,1.138,-1.626,7.897,4.714,-4.57,-7.67,273.4,273.9,-8.143,271.7,284.2,272.6,269.1,281.0,36,259.7,1,5,prime,10,0,112,norm,36,-5.047,down,norm,269.630879675,274.2,273.9,1.616,271.6,1,279.2,289.6,273.5,10,6,8.046,5.27,1.165,-1.434,-4.943,-7.737,280.6,6,381.6,-8.458,-8.446,-40,-8.028,-7.806,-4.882,-4.624,-4.918,-4.305,4.421,8.212,7,-1.898,1.393,4.891,8.426,-8.228,-8.226,-2.047,1.845,273.9,263.5,267.9,274.3,272.0,275.2,,271.6,249.6,262.1,0,norm,1.129,1.971,-1.536,-1.397,-4.701,-5.139,-1.769,-1.421,-2.004,-1.732,1.783,-1.826,280.8,286.8,-4.74,-8.244,255.6,-1.744,8.321,4.978,-4.57,-7.534,0,4.75,5.204,4.987,4.537,1.853,2.012,1.436,1.768,0,4.858,5.118,,,,0,0,0,0,260.284,260.294,260.30288099,260.303,260.303,260.306,down,1,2.71159000181,7.28840999819,001,023,800_600,Intel(R) Core(TM) i5-4200U CPU @ 1.60GHz,orientation_search,GRVLAPTOP8,Intel(R) HD Graphics 4400,2018_jul_31_1858,testMonitor,
268.6,262.5,283.0,270.1,36,-40,262.2,289.6,287.6,252.6,7.717,8.418,8.443,8.499,8.069,7.974,7.512,4.75,-4.989,-7.965,1.591,-1.328,7.725,4.702,-4.436,-7.872,265.4,267.7,-8.294,283.4,266.6,266.5,278.3,262.8,36,258.3,1,5,prime,10,0,79,norm,36,-4.897,down,norm,269.630879675,267.8,274.1,1.632,254.7,0,271.6,257.1,249.6,10,6,7.945,4.564,1.287,-1.647,-4.602,-8.46,270.4,6,348.6,-7.921,-8.121,-40,-7.821,-7.852,-4.347,-5.046,-4.966,-5.01,5.127,8.445,6,-1.271,1.103,4.811,8.097,-8.212,-7.644,-1.202,1.563,273.1,275.0,261.8,256.0,274.4,257.6,279.8,,274.0,265.1,1,norm,1.125,1.646,-1.605,-1.136,-5.047,-4.384,-1.383,-1.206,-1.687,-1.686,1.481,-1.976,276.5,273.4,-4.946,-8.075,277.6,-1.194,8.321,5.063,-4.599,-7.973,0,4.584,4.768,5.14,5.035,1.656,1.695,1.932,1.362,0,4.755,5.003,,,,0,1,1,1,263.044,263.061,263.067823876,263.068,263.072,263.078,down,1,2.38538871183,7.61461128817,001,023,800_600,Intel(R) Core(TM) i5-4200U CPU @ 1.60GHz,orientation_search,GRVLAPTOP8,Intel(R) HD Graphics 4400,2018_jul_31_1858,testMonitor,
267.7,263.9,265.2,272.6,36,-40,268.2,270.9,249.6,289.6,8.453,7.843,7.867,7.559,8.361,7.869,8.365,4.817,-4.811,-8.379,1.567,-1.566,7.718,4.554,-5.17,-7.753,,255.0,-7.853,270.7,274.5,273.4,268.1,258.3,36,257.7,5,5,prime,10,0,86,norm,36,-4.899,up,norm,269.630879675,272.3,261.6,2.051,272.7,5,265.9,269.1,255.5,10,6,7.755,5.17,1.483,-1.497,-4.385,-7.529,283.2,6,355.6,-7.764,-7.736,-40,-7.793,-8.259,-4.522,-4.841,-4.657,-4.731,5.236,7.563,35,-1.984,1.165,4.724,8.218,-8.329,-8.399,-1.24,1.501,262.9,277.5,266.6,282.7,274.2,272.2,266.6,274.4,274.2,269.4,2,norm,1.461,1.871,-1.496,-1.381,-4.682,-5.116,-1.901,-1.958,-1.241,-1.726,1.623,-1.874,262.7,255.9,-4.497,-7.511,265.8,-1.43,7.57,4.746,-4.31,-7.565,0,5.079,4.707,4.47,4.89,1.372,1.704,1.144,2.031,0,4.73,4.993,,,,0,2,2,2,265.486,265.498,265.501455176,265.502,265.505,265.509,up,1,2.53239986684,7.46760013316,001,023,800_600,Intel(R) Core(TM) i5-4200U CPU @ 1.60GHz,orientation_search,GRVLAPTOP8,Intel(R) HD Graphics 4400,2018_jul_31_1858,testMonitor,
283.0,280.2,277.0,278.7,36,-40,273.9,278.0,278.6,278.8,7.896,8.191,7.542,8.048,8.071,7.99,8.108,5.063,-4.56,-7.836,1.622,-1.413,7.955,4.887,-5.262,-7.527,263.7,257.6,-8.357,281.7,278.8,264.2,287.0,265.3,36,289.6,2,5,prime,10,0,71,norm,36,-4.609,up,norm,269.630879675,249.6,269.1,1.965,286.7,3,279.5,277.6,251.3,10,6,7.521,4.707,1.233,-1.688,-5.108,-7.905,275.3,6,340.6,-8.409,-7.651,-40,-7.85,-8.012,-4.325,-5.299,-4.947,-4.96,4.429,7.709,15,-1.126,2.002,4.936,8.155,-8.408,-8.088,-2.074,1.81,253.7,265.7,254.1,261.3,271.5,261.0,253.3,280.2,257.3,286.9,3,norm,1.18,1.236,-1.34,-2.081,-4.693,-5.179,-1.569,-1.903,-1.907,-1.242,1.579,-1.903,279.0,269.5,-5.134,-7.906,,-2.091,7.58,5.11,-5.091,-8.39,0,4.932,4.873,5.138,4.523,2.012,1.428,1.461,1.739,0,4.459,4.78,,,,0,3,3,3,268.061,268.074,268.080198004,268.081,268.085,268.089,up,1,2.66320774166,7.33679225834,001,023,800_600,Intel(R) Core(TM) i5-4200U CPU @ 1.60GHz,orientation_search,GRVLAPTOP8,Intel(R) HD Graphics 4400,2018_jul_31_1858,testMonitor,
255.8,251.7,278.7,282.6,36,-40,,264.9,253.4,272.2,8.033,7.561,8.341,8.053,7.593,8.076,7.502,5.273,-4.89,-7.879,1.139,-1.495,8.472,5.248,-5.02,-7.608,276.8,287.5,-7.955,287.5,275.9,254.9,257.9,250.7,36,273.7,4,5,prime,10,0,112,norm,36,-5.207,down,norm,269.630879675,287.4,269.2,1.555,278.9,0,267.1,289.6,284.4,10,6,7.969,4.978,2.042,-1.571,-5.163,-7.647,262.3,6,381.6,-8.062,-8.444,-40,-7.516,-7.923,-4.304,-5.042,-5.061,-4.862,4.623,7.823,24,-2.069,1.802,4.546,8.304,-7.641,-7.605,-1.783,2.026,287.2,251.1,265.7,274.8,265.7,260.8,270.8,271.1,262.3,265.5,4,norm,1.506,1.854,-1.898,-1.471,-5.044,-4.57,-2.078,-1.582,-2.052,-1.216,1.386,-1.165,273.2,249.6,-4.875,-7.714,272.7,-1.956,8.21,4.351,-4.349,-8.499,0,4.396,4.7,4.394,5.054,1.701,1.104,1.786,1.788,0,4.333,4.825,,,,0,4,4,4,270.773,270.785,270.788442127,270.789,270.792,270.795,up,0,2.40251659329,-10,001,023,800_600,Intel(R) Core(TM) i5-4200U CPU @ 1.60GHz,orientation_search,GRVLAPTOP8,Intel(R) HD Graphics 4400,2018_jul_31_1858,testMonitor,
272.3,272.5,262.8,277.2,36,-40,267.0,270.2,263.7,276.3,8.281,8.271,7.709,8.499,7.604,7.576,8.449,4.585,-4.397,-7.628,1.428,-1.528,7.578,4.652,-4.765,-8.268,269.1,257.7,-7.708,281.8,268.2,270.7,264.6,258.9,36,275.9,0,5,prime,10,0,86,norm,36,-5.183,down,norm,269.630879675,268.9,274.7,1.68,270.8,2,272.8,271.2,289.6,10,6,7.928,4.431,1.803,-1.888,-4.739,-8.04,269.3,6,355.6,-7.973,-8.267,-40,-8.349,-7.623,-4.448,-4.903,-4.695,-4.955,4.559,8.081,2,-1.72,1.574,4.712,8.241,-8.256,-7.743,-1.865,1.379,270.7,249.6,273.1,,260.3,253.1,277.8,272.7,263.4,274.3,5,norm,1.407,1.473,-1.583,-1.622,-4.632,-4.932,-1.7,-1.296,-1.904,-1.449,1.565,-1.137,265.1,265.5,-4.487,-8.023,271.0,-1.586,7.611,4.751,-5.008,-7.784,0,4.965,4.849,4.899,4.934,1.936,1.266,1.471,1.482,0,4.791,4.39,,,,0,5,5,5,274.229,274.235,274.242073284,274.242,274.245,274.248,down,1,1.8107552725,8.1892447275,001,023,800_600,Intel(R) Core(TM) i5-4200U CPU @ 1.60GHz,orientation_search,GRVLAPTOP8,Intel(R) HD Graphics 4400,2018_jul_31_1858,testMonitor,
326.7,327.3,327.0,317.8,36,0,326.0,,329.8,326.2,8.235,7.999,8.074,8.032,8.248,8.312,8.112,4.867,-4.575,-8.076,1.101,-1.108,7.713,5.272,-4.469,-8.48,325.0,320.6,-8.011,329.0,318.4,330.5,334.5,328.4,36,329.5,4,5,probe,5,0,101,norm,36,-5.02,down,norm,325.56733589,328.5,319.3,1.902,327.2,1,326.1,318.5,324.3,10,6,8.423,4.737,1.152,-1.294,-4.816,-8.057,323.4,2,224.6,-8.421,-8.313,-40,-7.939,-8.426,-4.886,-4.775,-4.88,-5.076,4.492,8.438,25,-1.379,1.836,4.377,8.097,-7.591,-7.76,-1.867,2.015,324.5,320.7,323.2,330.5,324.7,322.5,316.1,323.1,327.8,335.6,0,norm,1.896,2.03,-1.342,-1.847,-4.862,-4.314,-1.171,-1.784,-1.851,-1.866,1.891,-1.636,318.0,330.6,-5.249,-7.743,320.9,-1.332,8.138,4.728,-4.305,-8.489,1,4.383,5.177,5.159,4.347,1.712,1.267,1.812,1.986,1,5.143,4.481,-40,269.630879675,norm,0,6,6,6,276.079,276.089,276.104850765,276.105,276.108,276.112,down,1,1.52671794217,8.47328205783,001,023,800_600,Intel(R) Core(TM) i5-4200U CPU @ 1.60GHz,orientation_search,GRVLAPTOP8,Intel(R) HD Graphics 4400,2018_jul_31_1858,testMonitor,
294.4,284.8,283.0,287.7,36,0,277.4,286.4,283.8,295.6,7.614,7.682,7.717,7.584,7.921,8.223,7.714,5.182,-4.579,-7.802,1.76,-1.431,7.765,4.927,-4.623,-8.01,285.3,281.4,-8.26,282.0,287.0,290.0,285.0,287.5,36,285.2,0,5,probe,5,0,61,norm,36,-4.473,up,norm,285.56733589,286.7,288.6,1.953,284.3,3,281.1,289.5,291.6,10,6,7.695,4.406,1.508,-1.111,-5.13,-8.249,278.2,2,224.6,-8.375,-8.026,-40,-7.843,-7.899,-4.973,-5.293,-5.196,-4.363,4.593,8.389,3,-1.712,2.016,4.521,7.694,-8.09,-8.32,-1.977,1.5,285.8,275.6,,289.0,286.8,283.9,286.1,290.8,286.7,278.7,1,norm,1.335,1.355,-1.874,-1.344,-4.821,-4.359,-1.645,-1.727,-1.654,-1.572,1.329,-2.03,294.4,294.4,-4.361,-7.668,294.7,-1.2,8.418,4.885,-5.088,-7.83,1,4.622,4.327,4.956,5.103,1.106,1.134,1.71,2.032,1,5.109,4.528,-40,269.630879675,norm,0,7,7,7,277.659,277.676,277.679384694,277.68,277.683,277.686,up,1,1.08329265147,8.91670734853,001,023,800_600,Intel(R) Core(TM) i5-4200U CPU @ 1.60GHz,orientation_search,GRVLAPTOP8,Intel(R) HD Graphics 4400,2018_jul_31_1858,testMonitor,
63.6,80.7,77.1,50.8,36,-80,84.8,66.2,81.3,65.6,7.586,8.009,8.168,7.806,7.61,7.974,7.502,4.936,-4.987,-8.416,1.103,-1.973,7.503,5.19,-5.164,-8.182,74.0,54.0,-8.373,69.8,50.9,68.2,53.0,69.4,36,72.9,0,5,prime,10,0,100,norm,36,-4.776,down,norm,64.7831495688,65.2,74.6,1.964,59.1,1,78.4,72.8,55.6,10,6,8.122,4.652,1.928,-1.486,-4.815,-7.786,49.9,6,164.8,-7.807,-7.727,-80,-8.42,-7.987,-4.617,-4.686,-4.442,-5.274,4.399,8.225,1,-1.983,1.387,4.597,8.15,-7.935,-7.636,-1.675,1.939,71.5,59.6,57.6,65.1,,59.9,84.1,44.8,71.5,63.6,0,norm,1.205,2.082,-1.436,-1.25,-4.961,-4.649,-1.424,-1.924,-2.011,-1.571,1.543,-1.642,69.8,66.8,-4.796,-8.034,54.2,-2.075,8.017,4.386,-4.581,-7.512,2,4.987,4.636,5.146,4.998,1.773,1.873,1.432,1.554,2,5.102,4.404,0,269.630879675,norm,0,8,8,8,278.789,278.803,278.808473667,278.809,278.816,278.821,down,1,3.45845586234,6.54154413766,001,023,800_600,Intel(R) Core(TM) i5-4200U CPU @ 1.60GHz,orientation_search,GRVLAPTOP8,Intel(R) HD Graphics 4400,2018_jul_31_1858,testMonitor,
64.1,84.2,75.6,73.6,36,-80,62.5,50.0,44.8,64.6,7.632,7.917,8.037,7.559,8.242,8.07,7.659,5.104,-4.635,-8.334,1.563,-1.702,7.612,4.399,-5.072,-8.077,59.6,68.8,-8.315,67.8,60.6,55.5,69.4,66.0,36,57.6,2,5,prime,10,0,65,norm,36,-5.221,down,norm,64.7831495688,62.6,55.9,1.386,,2,53.3,61.2,68.1,10,6,8.439,5.253,1.595,-1.419,-4.832,-8.049,51.6,6,129.8,-8.439,-7.827,-80,-7.636,-8.053,-4.987,-4.346,-4.355,-4.645,4.649,7.561,14,-1.23,1.114,4.582,8.16,-8.153,-8.214,-1.568,1.385,78.7,67.3,63.1,66.6,78.9,84.8,51.8,73.1,65.6,58.3,1,norm,1.789,1.693,-2.034,-1.417,-4.836,-4.701,-1.227,-1.947,-1.322,-1.663,1.174,-1.514,70.0,68.6,-5.264,-7.843,61.1,-1.992,8.26,5.028,-4.718,-8.172,2,4.568,4.916,4.851,4.423,1.476,1.22,1.303,1.175,2,5.073,4.401,0,269.630879675,norm,0,9,9,9,282.298,282.307,282.325952736,282.326,282.33,282.335,down,1,1.47395051955,8.52604948045,001,023,800_600,Intel(R) Core(TM) i5-4200U CPU @ 1.60GHz,orientation_search,GRVLAPTOP8,Intel(R) HD Graphics 4400,2018_jul_31_1858,testMonitor,
62.6,58.6,75.6,77.4,36,-80,67.4,,74.4,84.8,8.123,7.599,7.509,8.072,8.454,7.55,7.629,4.465,-4.637,-7.693,1.504,-1.976,7.715,4.705,-4.884,-7.638,64.9,63.0,-8.324,65.8,68.8,52.0,68.2,46.9,36,72.8,4,5,prime,10,0,95,norm,36,-4.863,down,norm,64.7831495688,67.3,78.5,1.448,77.4,1,62.7,50.6,79.9,10,6,7.985,4.804,2.016,-1.352,-4.841,-8.426,44.8,6,159.8,-8.257,-8.051,-80,-8.227,-7.503,-4.967,-5.154,-4.868,-4.778,4.364,7.99,25,-1.994,2.041,4.621,8.489,-7.876,-8.345,-1.609,1.56,62.0,48.3,84.0,55.7,71.7,66.6,78.0,63.6,68.5,57.5,2,norm,1.231,1.53,-1.233,-1.637,-4.306,-5.218,-1.419,-1.507,-1.187,-1.901,1.41,-1.543,51.7,67.0,-4.642,-8.129,63.6,-1.175,8.426,4.496,-4.526,-8.063,2,5.146,4.726,4.809,4.58,1.242,1.391,1.151,1.61,2,4.571,4.532,0,269.630879675,norm,0,10,10,10,283.83,283.844,283.849939267,283.851,283.856,283.86,up,0,3.308889113,-10,001,023,800_600,Intel(R) Core(TM) i5-4200U CPU @ 1.60GHz,orientation_search,GRVLAPTOP8,Intel(R) HD Graphics 4400,2018_jul_31_1858,testMonitor,
67.9,66.6,72.1,59.3,36,-80,64.3,60.6,59.5,69.3,7.7,8.33,8.434,8.418,7.985,7.829,8.425,4.427,-4.783,-7.894,1.397,-1.833,7.855,4.628,-4.474,-8.491,51.6,48.8,-7.638,59.9,65.7,63.8,45.3,60.5,36,74.6,2,5,prime,10,0,107,norm,36,-4.503,up,norm,64.7831495688,,71.6,1.626,65.1,5,57.8,59.6,62.0,10,6,8.213,4.835,1.812,-1.124,-5.014,-7.714,49.6,6,171.8,-8.432,-7.516,-80,-7.54,-8.435,-4.573,-5.272,-4.89,-4.999,4.55,8.334,17,-1.999,1.583,4.658,8.27,-7.643,-7.885,-1.759,1.88,60.3,55.5,44.8,65.5,57.9,61.4,62.2,84.8,59.7,53.2,3,norm,1.685,1.731,-1.183,-1.582,-5.091,-5.109,-1.648,-1.944,-1.124,-1.206,1.276,-1.913,66.8,53.1,-5.08,-7.773,80.1,-1.422,8.023,4.639,-4.895,-7.766,2,4.439,4.695,5.09,5.277,1.489,2.084,1.993,1.722,2,5.139,4.869,0,269.630879675,norm,0,11,11,11,288.206,288.211,288.214079107,288.214,288.217,288.219,up,1,1.76089597076,8.23910402924,001,023,800_600,Intel(R) Core(TM) i5-4200U CPU @ 1.60GHz,orientation_search,GRVLAPTOP8,Intel(R) HD Graphics 4400,2018_jul_31_1858,testMonitor,
54.4,48.7,44.8,73.3,36,-80,47.0,84.8,69.9,68.8,7.527,8.045,8.097,8.024,7.991,8.469,7.801,4.474,-5.102,-7.679,1.1,-1.111,8.376,4.314,-5.276,-8.063,52.5,59.9,-7.941,68.4,,84.1,60.6,83.7,36,50.1,5,5,prime,10,0,93,norm,36,-5.279,down,norm,64.7831495688,74.2,69.5,1.152,49.9,0,72.3,65.4,53.5,10,6,7.527,4.876,1.422,-1.248,-5.022,-7.546,63.7,6,157.8,-8.346,-7.821,-80,-8.275,-8.459,-4.681,-4.688,-4.45,-5.062,4.747,7.807,30,-1.444,1.892,5.066,8.459,-7.687,-7.523,-1.358,1.455,48.3,62.6,74.8,62.0,60.7,63.1,59.0,74.7,70.5,62.5,4,norm,1.366,1.506,-1.315,-1.551,-4.697,-4.379,-1.631,-1.934,-1.141,-1.204,1.764,-1.525,63.6,61.6,-4.544,-8.107,52.4,-1.191,8.026,5.224,-5.212,-8.246,2,4.579,4.331,4.974,5.032,1.377,1.768,1.533,1.235,2,4.679,4.811,0,269.630879675,norm,0,12,12,12,290.0,290.015,290.018604477,290.019,290.022,290.025,down,1,1.21918583325,8.78081416675,001,023,800_600,Intel(R) Core(TM) i5-4200U CPU @ 1.60GHz,orientation_search,GRVLAPTOP8,Intel(R) HD Graphics 4400,2018_jul_31_1858,testMonitor,
62.2,60.5,66.7,63.2,36,-80,55.9,,62.5,58.8,8.261,7.537,8.213,7.856,8.324,7.661,8.399,4.568,-4.628,-8.053,1.455,-1.763,7.757,4.305,-4.984,-7.955,68.9,57.8,-7.525,70.8,44.8,77.6,53.9,84.8,36,48.7,4,5,prime,10,0,86,norm,36,-4.561,down,norm,64.7831495688,71.1,68.1,2.075,70.4,1,70.5,57.4,51.3,10,6,7.859,4.806,1.701,-1.916,-4.383,-8.003,56.2,6,150.8,-7.638,-8.311,-80,-8.341,-8.357,-4.31,-4.439,-5.078,-4.849,4.344,7.552,25,-1.806,1.481,4.676,8.436,-7.615,-8.405,-1.552,1.151,77.9,59.2,77.3,47.4,55.3,57.9,72.0,51.5,50.9,72.4,5,norm,2.006,1.561,-1.316,-1.901,-4.457,-5.273,-1.154,-1.27,-1.493,-1.503,1.373,-1.84,59.8,65.5,-5.008,-8.04,56.0,-1.864,8.151,4.43,-5.286,-8.147,2,5.073,4.754,5.081,5.058,1.408,1.714,1.573,2.016,2,4.358,5.195,0,269.630879675,norm,0,13,13,13,291.264,291.272,291.291156582,291.292,291.295,291.299,down,1,1.02641673278,8.97358326722,001,023,800_600,Intel(R) Core(TM) i5-4200U CPU @ 1.60GHz,orientation_search,GRVLAPTOP8,Intel(R) HD Graphics 4400,2018_jul_31_1858,testMonitor,
100.0,88.3,97.8,93.8,36,-60,92.7,97.7,101.0,95.9,8.488,8.147,7.919,7.94,8.256,7.564,8.192,5.232,-5.173,-7.86,1.172,-1.544,7.781,4.386,-4.651,-7.858,90.3,95.9,-8.277,103.5,102.5,101.1,102.3,87.4,36,100.7,0,5,probe,5,0,113,norm,36,-4.964,up,norm,93.5209240996,94.5,97.3,1.306,90.4,5,99.6,91.0,90.4,10,6,7.682,5.006,1.974,-2.063,-4.842,-7.851,93.0,2,-19.5,-7.879,-8.438,-80,-7.806,-7.759,-4.442,-4.797,-4.835,-4.696,5.215,7.564,5,-1.996,1.47,5.149,7.954,-8.12,-8.132,-1.86,1.215,88.9,94.2,87.8,95.1,94.5,94.6,96.6,93.5,,93.1,0,norm,1.796,1.402,-1.405,-1.501,-5.196,-4.62,-2.045,-1.687,-2.053,-1.51,1.909,-1.808,90.8,93.6,-4.4,-8.369,93.9,-1.981,7.795,4.775,-5.186,-8.319,3,4.602,4.642,4.432,4.662,1.244,1.891,2.012,1.427,3,4.413,4.664,-80,64.7831495688,norm,0,14,14,14,292.346,292.358,292.36200103,292.362,292.366,292.37,up,1,2.76703037886,7.23296962114,001,023,800_600,Intel(R) Core(TM) i5-4200U CPU @ 1.60GHz,orientation_search,GRVLAPTOP8,Intel(R) HD Graphics 4400,2018_jul_31_1858,testMonitor,
59.3,61.5,61.2,67.0,36,-60,75.4,68.8,56.5,66.2,7.611,7.994,7.856,7.766,8.334,7.583,8.015,4.674,-5.089,-8.307,1.137,-1.46,7.95,5.143,-5.261,-8.301,67.3,58.4,-7.779,64.4,68.7,66.5,69.7,69.3,36,,4,5,probe,5,0,86,norm,36,-5.032,up,norm,66.5209240996,67.9,67.5,1.446,62.2,3,58.9,56.7,72.6,10,6,7.515,4.893,1.933,-1.121,-4.43,-8.109,66.2,2,-19.5,-7.922,-8.059,-80,-7.627,-8.282,-4.528,-5.277,-4.604,-4.331,4.837,7.969,27,-1.145,1.762,4.468,7.574,-8.326,-8.197,-1.344,2.063,57.2,63.8,76.5,62.2,64.2,56.7,74.4,62.8,66.1,59.4,1,norm,2.016,1.24,-1.782,-1.872,-4.908,-4.332,-2.013,-1.449,-1.359,-1.126,1.302,-2.074,69.9,60.3,-4.864,-7.544,61.3,-1.341,8.199,4.61,-5.219,-8.199,3,4.818,5.135,5.026,4.539,1.18,1.83,1.871,1.233,3,4.881,5.026,-80,64.7831495688,norm,0,15,15,15,295.156,295.167,295.183275873,295.184,295.186,295.189,up,1,1.47717502184,8.52282497816,001,023,800_600,Intel(R) Core(TM) i5-4200U CPU @ 1.60GHz,orientation_search,GRVLAPTOP8,Intel(R) HD Graphics 4400,2018_jul_31_1858,testMonitor,
310.4,312.6,290.4,305.9,36,30,316.5,305.0,288.7,301.8,7.996,8.304,8.033,7.789,7.999,7.913,7.712,4.863,-5.061,-8.342,1.526,-1.186,7.945,4.667,-5.007,-8.034,308.4,312.2,-7.923,293.7,294.8,280.0,316.6,281.8,36,307.2,2,5,prime,10,0,74,norm,36,-5.154,down,norm,299.967587621,303.2,289.2,1.724,,2,305.6,302.0,296.3,10,6,7.992,5.009,2.045,-1.788,-5.121,-7.927,293.0,6,374.0,-8.109,-8.219,30,-8.382,-7.538,-4.832,-5.139,-4.535,-4.5,4.85,8.381,14,-1.361,1.29,4.743,8.076,-7.75,-8.184,-1.117,1.672,284.2,320.0,307.1,282.5,292.0,303.6,282.9,297.6,306.2,294.5,0,norm,1.923,2.017,-1.293,-1.377,-4.733,-5.143,-1.125,-1.556,-1.157,-1.454,1.772,-1.949,291.5,288.7,-4.859,-7.957,294.8,-1.228,7.783,4.462,-4.958,-7.795,4,4.613,5.038,5.14,4.682,1.519,1.415,2.053,1.9,4,4.333,4.452,-60,64.7831495688,norm,0,16,16,16,296.687,296.698,296.701555044,296.702,296.705,296.71,down,1,1.38783944067,8.61216055933,001,023,800_600,Intel(R) Core(TM) i5-4200U CPU @ 1.60GHz,orientation_search,GRVLAPTOP8,Intel(R) HD Graphics 4400,2018_jul_31_1858,testMonitor,
320.0,305.0,293.8,287.4,36,30,309.7,298.0,299.1,308.2,8.031,8.03,7.851,7.659,8.469,8.005,8.032,4.346,-5.105,-8.444,1.108,-1.705,7.554,5.012,-4.329,-8.421,306.0,289.6,-8.394,306.7,286.4,296.7,297.3,299.4,36,296.7,3,5,prime,10,0,71,norm,36,-5.254,down,norm,299.967587621,307.5,297.6,2.076,287.9,1,304.9,302.9,289.8,10,6,7.611,4.83,1.165,-1.322,-4.585,-7.842,295.3,6,371.0,-7.936,-8.251,30,-7.628,-7.585,-4.7,-5.07,-4.468,-4.828,5.103,7.621,19,-1.784,1.629,4.501,7.809,-8.157,-7.655,-1.802,1.148,302.3,280.0,290.8,283.0,292.7,296.9,306.6,290.9,294.5,309.3,1,norm,2.092,1.632,-1.904,-1.608,-5.128,-4.357,-1.479,-1.33,-1.529,-1.285,1.871,-1.4,,281.4,-4.749,-8.099,304.0,-1.606,8.376,4.557,-4.389,-8.464,4,4.517,4.327,4.795,4.706,1.943,1.398,1.294,1.1,4,4.412,4.517,-60,64.7831495688,norm,0,17,17,17,298.118,298.131,298.137112745,298.138,298.144,298.147,down,1,0.698513498197,9.3014865018,001,023,800_600,Intel(R) Core(TM) i5-4200U CPU @ 1.60GHz,orientation_search,GRVLAPTOP8,Intel(R) HD Graphics 4400,2018_jul_31_1858,testMonitor,
312.1,296.1,294.4,301.3,36,30,299.1,301.2,320.0,306.6,7.568,7.956,7.926,7.792,7.931,7.93,8.088,4.386,-5.245,-7.862,2.017,-1.174,7.918,4.69,-4.856,-7.967,287.6,314.1,-8.361,289.6,297.3,280.0,283.0,286.5,36,304.6,3,5,prime,10,0,79,norm,36,-4.781,down,norm,299.967587621,315.0,318.5,1.5,301.2,1,307.4,297.4,295.4,10,6,7.866,4.651,1.723,-1.39,-4.632,-7.842,307.7,6,379.0,-8.306,-8.346,30,-7.731,-8.037,-4.543,-5.168,-4.95,-4.66,5.152,7.654,19,-1.665,1.908,5.186,7.649,-8.354,-8.069,-1.805,1.996,297.9,314.1,301.6,284.6,281.5,295.6,294.9,305.8,295.7,306.3,2,norm,1.442,1.166,-1.136,-1.31,-4.389,-4.567,-1.325,-1.592,-1.17,-1.783,1.766,-1.988,,292.8,-4.619,-8.253,301.8,-1.913,8.076,4.44,-4.995,-7.991,4,4.726,5.007,4.731,5.068,2.002,1.803,1.873,1.466,4,4.342,5.138,-60,64.7831495688,norm,0,18,18,18,298.865,298.875,298.892806049,298.893,298.898,298.903,down,1,0.658023370279,9.34197662972,001,023,800_600,Intel(R) Core(TM) i5-4200U CPU @ 1.60GHz,orientation_search,GRVLAPTOP8,Intel(R) HD Graphics 4400,2018_jul_31_1858,testMonitor,
296.9,308.0,295.9,302.3,36,30,297.2,319.3,299.7,288.3,7.84,8.458,8.368,8.355,7.594,7.925,8.102,4.515,-4.593,-7.846,1.452,-1.468,8.119,4.648,-4.702,-7.768,293.8,299.9,-7.511,293.1,287.8,296.0,305.2,285.9,36,286.6,2,5,prime,10,0,100,norm,36,-4.432,up,norm,299.967587621,287.8,315.7,1.494,291.8,3,305.9,296.7,297.1,10,6,8.225,4.354,1.486,-1.757,-4.544,-7.716,293.3,6,400.0,-7.682,-7.787,30,-7.831,-7.508,-4.823,-5.282,-4.489,-5.179,4.915,7.741,15,-1.823,1.136,4.979,8.442,-7.845,-8.111,-1.431,1.941,302.3,306.2,298.5,314.1,297.9,296.8,284.7,302.1,301.0,286.0,3,norm,1.391,2.073,-1.568,-2.046,-4.964,-4.982,-1.435,-1.767,-1.133,-1.477,1.156,-1.293,320.0,280.0,-4.392,-8.209,,-1.915,8.243,5.225,-4.985,-7.883,4,4.486,5.09,5.213,4.587,1.932,1.265,1.784,1.729,4,4.646,4.906,-60,64.7831495688,norm,0,19,19,19,299.58,299.588,299.591569439,299.592,299.596,299.601,up,1,1.53970385985,8.46029614015,001,023,800_600,Intel(R) Core(TM) i5-4200U CPU @ 1.60GHz,orientation_search,GRVLAPTOP8,Intel(R) HD Graphics 4400,2018_jul_31_1858,testMonitor,
308.1,305.3,293.5,318.0,36,30,303.7,320.0,297.6,305.2,7.907,7.809,8.246,7.801,8.108,8.148,8.475,5.001,-4.919,-7.594,2.023,-1.997,7.79,5.083,-4.551,-7.695,288.5,297.7,-8.106,297.1,291.7,310.0,,319.9,36,293.4,5,5,prime,10,0,67,norm,36,-4.829,down,norm,299.967587621,314.0,283.4,1.464,290.9,2,289.8,285.9,287.3,10,6,7.511,4.361,2.0,-2.093,-4.875,-8.277,318.0,6,367.0,-7.65,-8.48,30,-8.341,-8.025,-4.574,-4.743,-4.843,-4.565,5.16,7.816,32,-1.114,2.044,4.678,8.407,-7.692,-7.756,-1.516,1.206,303.7,290.2,284.0,284.4,301.3,291.0,288.7,280.0,303.2,300.0,4,norm,1.188,1.948,-1.287,-1.293,-5.011,-4.971,-1.384,-1.399,-1.256,-1.427,1.325,-1.222,304.1,307.8,-4.895,-7.667,297.3,-1.296,7.556,4.777,-5.059,-8.289,4,4.768,4.846,4.957,4.813,1.345,1.91,1.146,2.086,4,4.955,5.127,-60,64.7831495688,norm,0,20,20,20,301.161,301.172,301.187899326,301.188,301.191,301.194,down,1,1.74330266501,8.25669733499,001,023,800_600,Intel(R) Core(TM) i5-4200U CPU @ 1.60GHz,orientation_search,GRVLAPTOP8,Intel(R) HD Graphics 4400,2018_jul_31_1858,testMonitor,
290.1,288.3,310.0,296.1,36,30,303.6,304.9,,295.7,8.292,7.733,8.401,8.454,8.133,8.194,8.084,4.996,-4.595,-8.147,1.282,-1.703,7.617,5.266,-4.625,-8.193,284.6,299.6,-8.187,316.6,298.5,312.0,303.5,290.3,36,297.2,4,5,prime,10,0,87,norm,36,-4.519,up,norm,299.967587621,280.0,298.7,1.517,296.7,4,307.0,291.0,312.3,10,6,8.157,4.781,1.148,-2.02,-4.654,-8.363,288.4,6,387.0,-7.993,-8.388,30,-7.54,-8.424,-5.219,-4.345,-4.709,-4.524,5.287,7.73,28,-1.21,1.728,4.972,7.626,-8.071,-8.253,-1.747,1.986,303.5,298.1,315.5,293.2,292.1,320.0,297.2,295.1,298.6,296.4,5,norm,1.493,1.773,-2.041,-1.598,-5.203,-5.166,-1.681,-1.504,-1.452,-1.368,1.541,-1.661,312.2,288.6,-5.296,-7.653,301.2,-1.395,7.969,4.515,-4.573,-7.737,4,4.708,5.067,4.508,4.665,1.604,1.786,1.422,1.253,4,4.85,4.662,-60,64.7831495688,norm,0,21,21,21,302.958,302.969,302.972896064,302.973,302.977,302.982,up,1,0.970336899354,9.02966310065,001,023,800_600,Intel(R) Core(TM) i5-4200U CPU @ 1.60GHz,orientation_search,GRVLAPTOP8,Intel(R) HD Graphics 4400,2018_jul_31_1858,testMonitor,
399.4,,396.9,398.2,36,80,396.4,397.6,401.0,407.0,8.14,7.603,8.171,8.05,7.602,7.853,7.747,4.902,-4.551,-7.543,1.881,-1.963,8.43,5.037,-4.724,-7.553,398.6,394.9,-7.84,400.5,409.2,401.4,399.5,394.3,36,401.8,3,5,probe,5,0,72,norm,36,-5.19,up,norm,399.237374795,397.5,399.2,1.572,402.1,5,398.3,402.6,396.7,10,6,7.758,4.459,1.428,-1.207,-5.028,-7.644,401.2,2,327.2,-8.466,-8.162,30,-7.619,-7.501,-4.847,-5.097,-4.993,-5.022,4.785,7.866,23,-1.476,1.461,5.016,7.931,-8.312,-8.237,-1.801,1.191,389.2,396.0,397.7,393.4,403.3,398.8,407.7,398.7,400.1,400.7,0,norm,1.854,1.859,-1.387,-1.202,-4.95,-5.024,-1.912,-1.406,-1.929,-1.618,1.812,-1.742,402.0,395.1,-4.755,-8.492,397.8,-1.607,8.308,5.247,-4.758,-8.183,5,4.455,4.341,5.291,4.421,1.219,1.332,1.488,2.096,5,4.485,5.124,30,299.967587621,norm,0,22,22,22,303.972,303.986,303.992010588,303.993,303.996,304.0,up,1,0.867041267025,9.13295873297,001,023,800_600,Intel(R) Core(TM) i5-4200U CPU @ 1.60GHz,orientation_search,GRVLAPTOP8,Intel(R) HD Graphics 4400,2018_jul_31_1858,testMonitor,
428.6,430.8,430.1,430.2,36,80,429.4,435.0,443.2,435.5,8.335,7.554,8.001,8.428,8.455,7.816,7.893,4.767,-4.865,-7.887,1.637,-1.389,7.805,4.496,-4.706,-7.631,429.3,435.3,-7.935,425.2,,440.8,428.1,433.4,36,427.5,5,5,probe,5,0,106,norm,36,-5.103,down,norm,433.237374795,426.2,430.8,1.723,426.1,0,430.9,431.8,423.2,10,6,7.716,4.351,1.236,-1.618,-5.03,-8.34,431.4,2,327.2,-7.749,-8.296,30,-8.071,-8.425,-4.75,-4.985,-5.16,-4.705,4.904,7.716,30,-1.694,1.805,4.748,7.509,-7.929,-7.522,-1.861,1.977,437.1,426.0,443.2,435.3,435.0,437.7,430.8,437.5,430.9,435.1,1,norm,1.2,1.489,-2.078,-1.157,-4.338,-4.999,-1.166,-1.599,-1.518,-1.263,1.483,-1.701,434.2,436.9,-4.745,-7.756,425.4,-1.366,8.239,4.434,-4.588,-7.667,5,4.316,5.029,4.891,5.262,1.12,1.641,1.85,1.35,5,4.472,4.553,30,299.967587621,norm,0,23,23,23,304.888,304.901,304.906797337,304.907,304.914,304.918,down,1,1.21365875252,8.78634124748,001,023,800_600,Intel(R) Core(TM) i5-4200U CPU @ 1.60GHz,orientation_search,GRVLAPTOP8,Intel(R) HD Graphics 4400,2018_jul_31_1858,testMonitor,
36.7,43.7,23.1,18.5,36,40,28.4,38.0,42.9,19.2,8.2,8.047,8.161,7.847,8.163,7.816,7.95,5.199,-4.535,-7.987,1.626,-1.819,8.323,5.167,-4.336,-8.1,39.6,25.0,-8.241,29.1,22.8,30.7,42.7,15.6,36,37.1,3,5,prime,10,0,115,norm,36,-4.867,down,norm,29.782300158,34.9,40.5,1.52,30.6,1,32.6,23.3,13.6,10,5,8.335,4.441,1.755,-1.457,-4.886,-7.775,26.5,5,144.8,-8.122,-7.755,40,-8.122,-7.588,-5.129,-5.246,-5.243,-4.786,5.289,8.401,19,-1.415,1.277,4.624,7.88,-8.142,-7.515,-2.034,1.122,49.8,44.8,34.2,16.4,40.5,23.4,21.8,36.1,27.2,16.1,0,norm,1.393,1.292,-1.916,-1.929,-4.758,-4.586,-1.704,-1.623,-1.777,-1.358,1.726,-2.063,,31.2,-4.383,-8.194,9.8,-1.774,7.671,5.031,-5.007,-8.295,6,5.166,4.652,4.505,4.671,1.352,1.474,1.112,1.323,6,5.274,4.678,80,299.967587621,norm,0,24,24,24,306.15,306.159,306.17825527,306.179,306.181,306.184,down,1,1.2779890458,8.7220109542,001,023,800_600,Intel(R) Core(TM) i5-4200U CPU @ 1.60GHz,orientation_search,GRVLAPTOP8,Intel(R) HD Graphics 4400,2018_jul_31_1858,testMonitor,
30.6,10.7,32.9,23.6,36,40,18.1,29.3,22.3,30.6,8.461,7.682,8.085,8.067,7.622,7.966,8.195,4.871,-4.862,-8.094,1.838,-1.782,7.765,4.524,-4.67,-7.92,40.7,45.9,-8.318,11.1,40.0,44.0,24.1,23.3,36,30.4,2,5,prime,10,0,105,norm,36,-4.742,up,norm,29.782300158,16.3,,1.898,49.8,4,25.8,45.8,39.7,10,5,8.332,5.163,1.929,-1.725,-4.693,-8.124,37.1,5,134.8,-7.802,-8.451,40,-7.72,-8.321,-5.233,-4.891,-4.967,-5.247,5.29,7.914,16,-1.267,1.773,4.809,8.323,-7.831,-8.455,-1.14,1.687,31.3,15.9,30.0,27.3,27.1,37.8,18.9,30.1,31.4,22.6,1,norm,1.258,1.609,-1.832,-1.558,-4.301,-4.737,-1.481,-1.503,-1.786,-1.833,1.607,-1.25,47.3,9.8,-4.681,-8.278,37.9,-1.502,8.053,4.923,-4.332,-7.9,6,5.043,4.907,4.506,4.728,1.774,1.214,1.172,1.827,6,4.721,4.52,80,299.967587621,norm,0,25,25,25,307.481,307.495,307.501280251,307.502,307.506,307.51,up,1,0.900373767385,9.09962623262,001,023,800_600,Intel(R) Core(TM) i5-4200U CPU @ 1.60GHz,orientation_search,GRVLAPTOP8,Intel(R) HD Graphics 4400,2018_jul_31_1858,testMonitor,
49.8,34.2,36.4,35.0,36,40,31.8,11.7,31.1,30.5,7.875,8.005,8.008,8.15,7.615,8.004,7.739,5.062,-5.183,-7.941,1.374,-1.63,7.823,4.811,-4.664,-8.167,39.1,36.4,-7.547,26.1,29.4,32.8,30.1,24.8,36,33.4,1,5,prime,10,0,113,norm,36,-5.034,up,norm,29.782300158,35.7,19.6,1.415,36.1,5,,34.5,31.9,10,5,7.702,4.517,1.346,-1.305,-4.709,-8.192,31.0,5,142.8,-8.267,-8.464,40,-8.411,-7.815,-5.28,-4.802,-5.286,-5.262,4.999,7.504,11,-1.704,1.573,4.857,7.648,-7.643,-8.024,-1.285,1.13,46.1,24.4,30.6,9.8,38.8,33.4,31.0,32.7,24.5,22.0,2,norm,1.774,1.154,-1.701,-1.204,-4.576,-4.652,-1.439,-1.868,-1.181,-1.492,1.107,-1.438,27.8,36.6,-5.268,-7.713,15.3,-1.143,7.707,4.442,-4.601,-8.042,6,4.91,4.723,4.852,5.12,1.132,2.018,1.215,1.603,6,5.109,4.572,80,299.967587621,norm,0,26,26,26,308.431,308.444,308.450206295,308.451,308.456,308.459,up,1,0.948810914579,9.05118908542,001,023,800_600,Intel(R) Core(TM) i5-4200U CPU @ 1.60GHz,orientation_search,GRVLAPTOP8,Intel(R) HD Graphics 4400,2018_jul_31_1858,testMonitor,
46.3,22.5,9.8,49.8,36,40,12.7,18.7,33.1,29.0,7.539,8.438,7.515,8.41,7.867,8.267,7.506,5.043,-4.305,-7.997,2.034,-1.728,8.023,4.973,-5.04,-7.785,46.5,16.2,-8.016,29.7,23.8,12.4,21.2,30.8,36,27.5,2,5,prime,10,0,62,norm,36,-4.352,down,norm,29.782300158,29.0,18.9,1.238,,2,16.1,26.4,23.5,10,5,8.204,4.754,1.775,-2.098,-5.054,-7.615,38.5,5,91.8,-8.243,-7.61,40,-8.365,-8.377,-5.208,-5.181,-4.641,-5.206,4.659,8.383,14,-1.73,1.675,4.319,8.121,-8.227,-7.641,-1.741,1.179,29.1,27.4,18.5,26.3,32.5,28.1,13.6,29.5,19.8,24.8,3,norm,1.379,2.06,-1.676,-1.331,-4.385,-4.863,-2.032,-1.396,-1.186,-2.059,1.9,-2.021,20.6,29.3,-4.573,-7.541,30.8,-1.694,7.614,5.257,-4.802,-8.219,6,4.583,4.354,5.167,4.678,1.495,1.668,1.86,1.153,6,4.663,4.794,80,299.967587621,norm,0,27,27,27,309.428,309.448,309.453354045,309.454,309.457,309.461,down,1,1.97654493642,8.02345506358,001,023,800_600,Intel(R) Core(TM) i5-4200U CPU @ 1.60GHz,orientation_search,GRVLAPTOP8,Intel(R) HD Graphics 4400,2018_jul_31_1858,testMonitor,
22.2,49.1,13.2,24.8,36,40,41.2,40.3,21.9,25.8,7.684,8.374,8.107,7.895,8.245,7.823,8.399,4.925,-4.876,-7.853,1.97,-2.02,8.34,4.984,-4.419,-7.505,9.8,22.9,-7.693,28.8,41.2,34.0,44.9,27.2,36,16.0,3,5,prime,10,0,112,norm,36,-5.27,down,norm,29.782300158,33.2,46.7,1.874,22.2,1,47.5,25.2,44.3,10,5,7.515,5.197,1.708,-1.566,-4.577,-7.901,30.6,5,141.8,-8.288,-8.467,40,-7.817,-7.914,-5.178,-4.876,-4.624,-4.516,4.867,8.179,19,-1.201,2.069,5.175,7.694,-7.641,-7.548,-1.771,1.112,27.1,18.4,23.4,31.2,27.1,30.8,34.8,49.8,10.3,36.2,4,norm,1.19,1.213,-1.202,-1.958,-4.397,-4.876,-1.977,-1.445,-1.338,-1.428,1.652,-1.979,,33.8,-4.586,-8.198,18.0,-1.99,7.561,5.245,-4.768,-7.834,6,4.44,4.336,5.253,4.633,1.18,1.17,1.433,1.315,6,4.415,5.187,80,299.967587621,norm,0,28,28,28,311.454,311.46,311.467858058,311.468,311.471,311.475,down,1,1.14356085724,8.85643914276,001,023,800_600,Intel(R) Core(TM) i5-4200U CPU @ 1.60GHz,orientation_search,GRVLAPTOP8,Intel(R) HD Graphics 4400,2018_jul_31_1858,testMonitor,
161.4,156.6,146.0,157.6,36,-20,152.3,159.5,158.9,148.3,8.266,8.358,8.13,8.087,8.11,8.248,8.43,4.851,-4.968,-7.567,1.966,-1.109,7.834,4.81,-4.506,-7.522,155.7,156.8,-8.259,160.4,155.0,154.4,158.5,146.2,36,155.9,0,5,probe,5,0,77,norm,36,-5.059,up,norm,155.440428342,157.0,156.0,1.497,151.9,5,148.9,153.6,165.4,10,5,7.564,4.549,2.039,-1.547,-4.773,-7.914,157.0,1,78.4,-7.696,-8.086,40,-8.282,-7.522,-5.279,-4.686,-5.046,-4.726,4.786,7.648,5,-1.574,1.661,4.357,8.176,-7.923,-8.017,-1.398,1.671,159.8,150.4,149.7,159.1,156.6,149.5,159.1,158.0,,152.5,0,norm,1.803,2.031,-1.219,-2.031,-4.834,-4.404,-1.303,-1.11,-1.787,-1.842,1.396,-2.083,150.9,146.4,-5.253,-7.784,153.0,-1.877,7.611,4.884,-5.076,-8.379,7,4.92,4.982,4.919,5.257,1.255,1.188,1.966,1.817,7,4.776,4.719,40,29.782300158,norm,0,29,29,29,312.639,312.652,312.654926045,312.655,312.658,312.661,up,1,0.805698970889,9.19430102911,001,023,800_600,Intel(R) Core(TM) i5-4200U CPU @ 1.60GHz,orientation_search,GRVLAPTOP8,Intel(R) HD Graphics 4400,2018_jul_31_1858,testMonitor,
157.8,178.6,187.8,192.2,36,-10,172.3,,180.8,167.0,7.899,8.203,7.625,8.031,7.818,8.13,8.019,4.902,-4.523,-8.388,1.269,-1.628,7.945,4.953,-5.109,-8.216,179.3,175.0,-8.081,183.0,175.7,173.3,176.8,178.2,36,168.4,4,5,prime,10,0,81,norm,36,-4.765,down,norm,177.758697473,166.7,168.0,2.014,182.3,1,168.0,174.7,175.0,10,5,7.785,4.737,1.802,-1.615,-4.512,-8.164,181.3,5,258.8,-7.978,-8.319,-10,-7.705,-7.662,-4.995,-5.278,-4.727,-5.248,4.688,7.716,25,-1.758,1.656,4.447,8.415,-7.629,-8.498,-1.874,1.803,188.9,176.2,179.7,180.5,197.8,172.3,174.8,178.6,178.1,186.4,0,norm,1.106,1.615,-1.285,-1.356,-4.806,-4.687,-1.134,-1.88,-1.136,-1.367,1.876,-1.897,172.9,170.6,-4.453,-7.668,191.5,-1.151,8.332,4.611,-4.436,-7.845,8,5.28,4.482,4.607,4.332,1.95,1.886,1.661,2.02,8,4.378,4.402,-20,29.782300158,norm,0,30,30,30,313.487,313.497,313.513067133,313.513,313.516,313.519,down,1,1.61074599079,8.38925400921,001,023,800_600,Intel(R) Core(TM) i5-4200U CPU @ 1.60GHz,orientation_search,GRVLAPTOP8,Intel(R) HD Graphics 4400,2018_jul_31_1858,testMonitor,
157.8,175.3,187.3,190.0,36,-10,167.2,191.8,185.3,166.8,8.247,7.774,8.322,7.535,7.67,7.516,8.386,4.462,-4.81,-7.748,1.247,-1.924,7.834,5.203,-5.129,-7.577,175.6,197.8,-7.866,195.5,186.4,188.2,187.8,190.4,36,171.7,1,5,prime,10,0,69,norm,36,-4.409,down,norm,177.758697473,186.1,162.1,1.324,163.4,0,163.1,166.1,166.1,10,5,8.33,4.461,1.929,-1.777,-5.184,-7.951,173.4,5,246.8,-7.99,-8.378,-10,-7.604,-7.746,-5.063,-4.615,-4.607,-4.395,5.07,7.98,6,-2.072,1.528,5.229,7.682,-7.584,-7.754,-1.653,1.93,184.7,188.4,169.9,171.8,184.0,189.1,180.1,,166.4,179.9,1,norm,2.087,2.065,-1.731,-1.97,-4.873,-4.823,-1.894,-1.852,-1.169,-1.829,1.404,-1.227,186.1,184.9,-4.981,-7.6,190.5,-1.176,7.99,4.333,-4.359,-7.548,8,5.1,5.178,4.655,4.901,1.575,1.375,1.948,1.637,8,4.972,4.64,-20,29.782300158,norm,0,31,31,31,315.15,315.158,315.176663546,315.177,315.181,315.186,down,1,3.22066956839,6.77933043161,001,023,800_600,Intel(R) Core(TM) i5-4200U CPU @ 1.60GHz,orientation_search,GRVLAPTOP8,Intel(R) HD Graphics 4400,2018_jul_31_1858,testMonitor,
177.9,181.0,174.5,167.4,36,-10,179.8,180.0,190.2,179.1,7.711,7.995,8.051,7.516,8.237,8.226,8.061,4.568,-4.445,-8.03,1.677,-1.448,7.578,4.518,-4.795,-8.423,166.4,173.6,-8.104,161.8,182.7,162.6,157.8,160.6,36,168.9,2,5,prime,10,0,84,norm,36,-5.094,down,norm,177.758697473,173.4,167.9,1.667,171.5,0,174.3,187.5,,10,5,8.074,4.892,1.705,-1.788,-4.642,-7.648,168.2,5,261.8,-8.002,-8.015,-10,-7.607,-8.487,-5.203,-4.395,-4.645,-4.722,4.815,7.578,12,-1.835,1.879,4.775,8.477,-8.4,-8.064,-1.325,1.187,190.7,171.2,167.0,184.5,197.8,195.5,169.9,175.4,166.3,177.6,2,norm,2.055,1.525,-1.43,-1.924,-4.664,-5.006,-2.032,-1.764,-1.771,-2.0,1.507,-1.615,197.1,172.6,-4.621,-8.044,177.4,-1.745,7.694,5.266,-4.43,-7.666,8,4.976,4.397,5.183,4.306,1.717,1.143,1.105,1.73,8,4.487,5.181,-20,29.782300158,norm,0,32,32,32,318.426,318.435,318.453481222,318.454,318.459,318.464,down,1,2.95297429769,7.04702570231,001,023,800_600,Intel(R) Core(TM) i5-4200U CPU @ 1.60GHz,orientation_search,GRVLAPTOP8,Intel(R) HD Graphics 4400,2018_jul_31_1858,testMonitor,
186.1,164.9,157.8,171.7,36,-10,172.7,188.5,,185.8,8.272,8.442,8.041,8.269,8.008,8.484,7.622,4.356,-5.197,-8.01,2.042,-1.953,7.658,5.263,-5.263,-8.464,192.9,181.4,-8.408,170.9,175.3,173.3,192.9,185.6,36,179.7,4,5,prime,10,0,80,norm,36,-5.249,up,norm,177.758697473,165.1,165.4,1.409,178.7,4,185.5,178.7,169.9,10,5,7.616,4.782,1.28,-1.823,-4.764,-8.183,185.9,5,257.8,-8.141,-7.964,-10,-7.993,-8.071,-4.932,-4.325,-4.575,-4.884,5.002,8.141,28,-1.196,1.19,4.872,8.319,-8.469,-7.928,-1.922,1.547,186.4,167.7,178.1,183.1,175.7,167.0,192.4,176.0,183.9,197.8,3,norm,1.116,1.329,-1.803,-1.789,-4.644,-4.578,-1.821,-1.615,-1.499,-1.18,1.702,-1.711,190.6,170.8,-4.45,-7.899,187.2,-1.888,7.989,4.609,-4.958,-7.732,8,4.473,4.598,5.03,5.067,1.394,1.186,1.915,1.802,8,4.388,4.481,-20,29.782300158,norm,0,33,33,33,321.437,321.451,321.453703448,321.454,321.457,321.46,up,1,0.972191902956,9.02780809704,001,023,800_600,Intel(R) Core(TM) i5-4200U CPU @ 1.60GHz,orientation_search,GRVLAPTOP8,Intel(R) HD Graphics 4400,2018_jul_31_1858,testMonitor,
191.1,168.5,179.2,171.2,36,-10,183.9,177.8,178.9,174.4,8.226,8.233,7.557,7.949,8.197,7.898,7.593,5.29,-4.671,-8.08,2.047,-1.563,8.285,4.725,-4.466,-8.479,174.2,178.4,-8.427,189.8,190.1,166.0,166.3,157.8,36,184.4,2,5,prime,10,0,70,norm,36,-5.146,up,norm,177.758697473,,175.2,1.479,167.4,5,186.0,176.8,195.5,10,5,8.302,5.129,1.94,-2.087,-4.538,-8.18,184.2,5,247.8,-7.801,-8.2,-10,-7.536,-7.74,-5.212,-4.376,-5.231,-4.736,4.361,8.154,17,-1.445,1.771,4.798,8.174,-8.086,-7.747,-1.278,1.141,183.7,171.7,180.0,171.9,174.6,184.0,178.0,167.9,189.3,176.2,4,norm,1.324,1.215,-1.652,-1.761,-4.978,-5.015,-1.269,-1.449,-1.182,-1.897,1.391,-1.673,180.1,165.9,-4.923,-7.515,197.8,-2.049,7.913,5.089,-4.846,-8.323,8,4.718,4.927,5.222,4.921,1.65,1.524,1.577,1.356,8,4.459,4.869,-20,29.782300158,norm,0,34,34,34,322.452,322.465,322.467846009,322.468,322.471,322.474,up,1,1.2223554485,8.7776445515,001,023,800_600,Intel(R) Core(TM) i5-4200U CPU @ 1.60GHz,orientation_search,GRVLAPTOP8,Intel(R) HD Graphics 4400,2018_jul_31_1858,testMonitor,
260.5,252.9,262.7,267.4,36,-10,257.1,262.1,260.1,261.3,8.408,8.4,7.504,7.973,8.144,7.543,8.003,5.021,-4.807,-7.999,1.535,-2.013,7.875,4.528,-5.108,-7.695,265.7,260.0,-8.255,272.7,258.1,261.8,271.3,258.6,36,269.9,3,5,probe,5,0,91,norm,36,-4.936,down,norm,262.857141449,263.4,255.4,1.146,256.3,1,261.1,267.4,261.3,10,5,7.685,4.418,1.521,-1.546,-4.417,-8.393,261.2,1,171.9,-7.76,-8.132,-10,-8.228,-8.322,-4.537,-5.214,-4.471,-5.173,4.644,7.989,19,-1.716,1.857,5.185,8.459,-7.717,-8.13,-1.119,1.225,254.3,261.7,266.2,260.1,260.1,269.3,269.3,260.5,258.5,262.0,0,norm,1.257,1.404,-1.8,-1.696,-4.526,-5.012,-1.346,-1.692,-1.177,-1.247,1.697,-1.677,,272.9,-4.774,-8.144,260.0,-1.882,7.561,4.535,-4.877,-7.844,9,5.116,4.703,4.962,5.154,1.515,1.937,1.88,1.571,9,4.741,4.402,-10,177.758697473,norm,0,35,35,35,323.717,323.729,323.732931691,323.733,323.737,323.742,down,1,0.952099674872,9.04790032513,001,023,800_600,Intel(R) Core(TM) i5-4200U CPU @ 1.60GHz,orientation_search,GRVLAPTOP8,Intel(R) HD Graphics 4400,2018_jul_31_1858,testMonitor,
316.9,313.4,313.7,302.3,36,-40,304.6,299.3,320.4,308.1,7.887,7.896,7.7,7.843,7.621,8.307,8.145,5.096,-4.968,-8.478,1.705,-1.633,8.117,4.961,-4.944,-8.424,316.9,297.2,-8.425,301.2,317.1,322.9,288.6,301.0,36,313.7,2,5,prime,10,0,73,norm,36,-4.922,up,norm,307.422678797,309.4,307.7,1.845,313.7,3,297.2,310.0,287.4,10,5,8.363,5.202,1.533,-1.838,-4.905,-8.131,300.1,5,380.4,-8.172,-7.998,-40,-7.874,-7.82,-4.718,-4.607,-5.247,-4.966,5.228,7.717,15,-1.272,2.038,4.973,8.171,-8.325,-7.849,-2.061,1.853,293.2,304.9,300.9,322.0,289.9,316.7,315.4,292.6,321.9,303.6,0,norm,1.153,1.573,-1.446,-1.215,-4.878,-4.693,-1.12,-1.791,-1.195,-1.655,2.068,-1.315,305.8,327.4,-4.688,-7.741,,-1.628,8.303,5.002,-4.591,-7.584,10,5.209,4.998,4.542,4.97,1.339,1.391,1.541,1.46,10,5.13,5.05,-10,177.758697473,norm,0,36,36,36,324.712,324.718,324.724429108,324.725,324.727,324.731,up,1,1.09465783952,8.90534216048,001,023,800_600,Intel(R) Core(TM) i5-4200U CPU @ 1.60GHz,orientation_search,GRVLAPTOP8,Intel(R) HD Graphics 4400,2018_jul_31_1858,testMonitor,
319.1,327.4,303.9,308.6,36,-40,319.7,319.8,304.5,295.1,8.239,8.03,8.299,7.59,8.089,7.936,7.714,4.398,-5.118,-7.995,1.91,-2.081,8.397,5.154,-4.369,-7.789,313.7,309.7,-8.198,316.2,304.7,287.4,303.6,310.5,36,,4,5,prime,10,0,61,norm,36,-4.563,up,norm,307.422678797,300.9,306.2,1.192,319.1,3,291.1,298.8,315.0,10,5,7.529,4.547,1.153,-1.948,-4.465,-7.906,314.5,5,368.4,-8.241,-7.793,-40,-8.479,-7.995,-4.814,-4.71,-4.489,-5.083,4.461,8.202,27,-1.441,1.78,5.287,7.848,-7.588,-7.868,-1.315,1.555,292.6,299.6,291.5,305.1,312.9,305.2,303.4,317.3,325.1,311.4,1,norm,1.987,1.7,-2.068,-1.14,-5.269,-4.555,-1.833,-1.476,-1.403,-1.564,1.24,-2.039,299.3,298.5,-5.253,-7.708,309.0,-2.07,8.032,4.916,-5.054,-8.221,10,4.881,5.074,5.081,4.396,1.797,1.905,1.585,1.933,10,5.216,4.445,-10,177.758697473,norm,0,37,37,37,325.846,325.861,325.865778865,325.866,325.869,325.873,up,1,1.93162859231,8.06837140769,001,023,800_600,Intel(R) Core(TM) i5-4200U CPU @ 1.60GHz,orientation_search,GRVLAPTOP8,Intel(R) HD Graphics 4400,2018_jul_31_1858,testMonitor,
295.9,298.2,311.2,303.5,36,-40,,318.1,294.8,304.0,7.916,7.995,7.823,7.817,8.142,7.569,8.137,4.817,-4.344,-8.305,1.193,-1.864,8.319,5.239,-5.107,-8.15,315.3,324.9,-8.032,293.7,307.9,325.2,316.8,317.8,36,303.6,4,5,prime,10,0,112,norm,36,-5.067,down,norm,307.422678797,304.9,288.3,1.847,307.2,0,305.1,305.8,327.4,10,5,7.799,5.119,1.92,-1.622,-4.355,-8.316,302.2,5,419.4,-7.759,-7.809,-40,-8.466,-7.903,-4.568,-4.588,-4.611,-4.808,5.298,8.11,24,-1.591,1.166,5.249,8.447,-7.72,-7.99,-1.511,1.159,294.8,302.3,287.4,321.4,312.3,307.6,319.0,289.8,300.0,316.3,2,norm,1.592,1.815,-1.23,-1.401,-4.413,-4.965,-1.607,-1.568,-1.879,-1.65,1.226,-1.745,319.7,310.6,-4.505,-7.528,304.2,-1.832,8.075,4.494,-4.327,-7.98,10,4.692,5.256,4.721,4.495,1.475,1.769,1.549,2.032,10,5.179,4.781,-10,177.758697473,norm,0,38,38,38,327.824,327.833,327.85113161,327.851,327.854,327.857,down,1,0.912030347627,9.08796965237,001,023,800_600,Intel(R) Core(TM) i5-4200U CPU @ 1.60GHz,orientation_search,GRVLAPTOP8,Intel(R) HD Graphics 4400,2018_jul_31_1858,testMonitor,
293.1,318.4,297.9,315.5,36,-40,293.4,296.7,312.8,306.3,7.773,7.759,8.265,8.377,8.104,7.797,8.108,5.237,-4.696,-7.915,1.52,-1.475,8.03,4.877,-4.521,-7.981,315.9,300.2,-7.522,298.6,,322.6,301.8,319.1,36,322.7,5,5,prime,10,0,78,norm,36,-4.337,down,norm,307.422678797,305.2,323.6,1.255,308.3,0,292.8,309.6,304.5,10,5,8.342,4.522,1.792,-1.295,-4.675,-7.538,309.4,5,385.4,-8.419,-7.537,-40,-7.672,-7.704,-4.708,-4.694,-4.581,-4.575,4.895,8.195,30,-1.496,1.872,5.244,7.774,-8.086,-8.449,-1.155,1.759,310.8,302.1,309.5,287.4,321.3,300.0,327.4,307.8,310.0,304.9,3,norm,1.846,1.778,-1.569,-1.48,-4.836,-4.69,-1.892,-1.331,-1.87,-1.353,1.413,-1.395,311.1,314.6,-4.651,-7.556,304.3,-1.15,7.924,4.564,-4.914,-8.468,10,4.492,4.836,4.339,4.803,1.339,1.504,1.489,1.953,10,4.746,4.336,-10,177.758697473,norm,0,39,39,39,328.79,328.802,328.805573132,328.806,328.809,328.814,down,1,1.00332356671,8.99667643329,001,023,800_600,Intel(R) Core(TM) i5-4200U CPU @ 1.60GHz,orientation_search,GRVLAPTOP8,Intel(R) HD Graphics 4400,2018_jul_31_1858,testMonitor,
297.7,308.9,304.8,316.3,36,-40,,314.6,304.6,295.0,7.526,8.173,8.293,8.497,8.339,7.706,8.233,4.484,-4.313,-7.567,2.056,-1.236,8.435,4.472,-4.312,-7.523,317.6,309.0,-7.909,300.5,320.4,301.7,308.2,320.0,36,315.1,4,5,prime,10,0,98,norm,36,-4.738,down,norm,307.422678797,323.5,306.6,1.52,319.8,0,308.4,310.4,301.5,10,5,7.711,5.275,1.521,-1.496,-5.267,-7.503,324.6,5,405.4,-7.857,-8.037,-40,-7.971,-7.969,-4.598,-4.729,-5.292,-4.416,4.303,7.943,24,-1.973,1.921,4.334,8.456,-8.381,-7.789,-1.803,1.894,307.6,312.6,299.4,296.1,299.1,327.4,294.5,289.2,321.4,300.3,4,norm,1.946,1.496,-1.319,-1.749,-5.199,-4.468,-1.72,-1.775,-1.888,-2.085,1.699,-1.964,316.4,287.4,-4.773,-7.824,317.5,-1.684,7.67,4.388,-4.721,-8.094,10,5.051,4.374,4.443,4.961,1.893,1.235,1.292,1.783,10,4.57,5.07,-10,177.758697473,norm,0,40,40,40,329.837,329.846,329.863512432,329.864,329.866,329.87,down,1,2.15926569167,7.84073430833,001,023,800_600,Intel(R) Core(TM) i5-4200U CPU @ 1.60GHz,orientation_search,GRVLAPTOP8,Intel(R) HD Graphics 4400,2018_jul_31_1858,testMonitor,
384.0,374.8,370.3,374.6,36,60,383.4,366.9,375.4,369.4,8.484,7.602,7.883,8.394,7.928,8.225,7.892,5.209,-4.614,-8.463,1.284,-1.809,7.916,4.895,-4.895,-8.169,374.4,378.1,-7.77,371.4,377.7,378.9,382.4,376.7,36,373.8,3,5,probe,5,0,114,norm,36,-5.051,down,norm,373.957499189,372.0,372.3,1.412,376.6,0,374.5,376.7,371.3,10,5,7.742,4.803,1.504,-1.953,-4.936,-8.488,373.0,2,260.0,-7.561,-7.563,-40,-8.225,-8.009,-4.348,-4.335,-4.542,-4.406,5.204,8.011,18,-1.163,2.014,5.21,7.709,-7.98,-7.51,-1.319,1.109,369.8,375.3,375.8,373.3,380.0,372.5,377.4,377.6,376.6,378.7,0,norm,1.268,1.289,-1.958,-1.412,-4.683,-5.114,-1.846,-1.949,-1.83,-1.856,1.107,-1.483,377.3,,-5.257,-7.838,364.0,-1.223,7.961,5.125,-4.708,-8.077,11,4.459,5.129,5.036,4.363,1.985,1.544,2.0,2.005,11,4.542,5.175,-40,307.422678797,norm,0,41,41,41,332.05,332.064,332.070036315,332.071,332.075,332.079,down,1,3.01144060195,6.98855939805,001,023,800_600,Intel(R) Core(TM) i5-4200U CPU @ 1.60GHz,orientation_search,GRVLAPTOP8,Intel(R) HD Graphics 4400,2018_jul_31_1858,testMonitor,
324.1,327.1,330.7,319.0,36,60,327.1,327.2,323.4,317.6,7.836,8.017,8.117,8.465,8.435,7.75,8.152,4.32,-5.219,-7.94,1.559,-1.38,8.482,4.486,-4.445,-8.091,325.5,323.7,-8.288,325.2,324.4,327.7,329.8,330.6,36,318.7,1,5,probe,5,0,65,norm,36,-4.425,down,norm,324.957499189,324.9,322.8,1.765,331.0,0,319.1,321.4,331.4,10,5,7.505,4.969,1.796,-1.797,-4.89,-8.46,328.2,2,260.0,-8.459,-7.686,-40,-7.989,-7.558,-5.154,-5.031,-4.353,-4.53,4.658,8.102,6,-2.05,2.061,4.513,7.537,-7.937,-7.803,-1.28,1.262,321.9,326.4,323.0,319.1,315.0,326.3,329.6,,329.8,325.1,1,norm,1.28,1.297,-2.002,-1.222,-4.415,-4.998,-1.364,-1.222,-1.809,-1.436,1.48,-1.817,332.0,329.7,-5.066,-7.759,317.6,-1.277,7.831,5.27,-4.535,-8.452,11,4.792,4.746,4.723,4.5,2.002,1.98,1.534,1.625,11,4.399,4.716,-40,307.422678797,norm,0,42,42,42,335.11,335.125,335.131301412,335.132,335.134,335.138,down,1,1.11629449086,8.88370550914,001,023,800_600,Intel(R) Core(TM) i5-4200U CPU @ 1.60GHz,orientation_search,GRVLAPTOP8,Intel(R) HD Graphics 4400,2018_jul_31_1858,testMonitor,
82.2,,64.2,77.2,36,10,73.7,71.6,85.8,79.9,8.003,8.057,7.863,8.014,7.904,8.361,7.922,4.353,-5.022,-8.238,2.037,-1.428,7.648,4.745,-4.946,-7.983,66.9,74.5,-8.322,79.6,65.6,72.1,74.5,65.5,36,65.6,3,5,prime,10,0,102,norm,36,-4.964,up,norm,77.1115265414,68.3,72.2,1.885,79.6,5,75.0,66.1,67.9,10,6,8.239,4.442,1.279,-2.074,-4.308,-7.682,71.3,6,179.1,-8.069,-8.054,10,-8.483,-8.183,-5.099,-5.276,-4.824,-4.908,5.058,8.139,23,-1.406,1.123,5.25,7.921,-8.298,-7.754,-2.094,1.165,69.0,88.4,91.2,78.1,79.3,68.7,94.1,72.7,61.2,97.1,0,norm,1.43,1.897,-1.749,-1.587,-4.968,-4.53,-1.955,-1.38,-1.975,-1.732,1.163,-1.97,74.3,57.1,-4.937,-7.871,74.1,-2.004,8.361,4.388,-4.915,-8.0,12,4.322,4.592,4.782,5.129,1.514,1.314,1.604,1.193,12,4.471,5.21,60,307.422678797,norm,0,43,43,43,336.274,336.283,336.301169228,336.302,336.306,336.312,up,1,1.47238423073,8.52761576927,001,023,800_600,Intel(R) Core(TM) i5-4200U CPU @ 1.60GHz,orientation_search,GRVLAPTOP8,Intel(R) HD Graphics 4400,2018_jul_31_1858,testMonitor,
66.6,76.0,66.5,57.1,36,10,89.8,83.2,68.0,71.2,8.36,7.64,8.296,8.422,8.411,8.323,8.471,5.217,-5.262,-7.714,1.797,-1.897,8.388,5.232,-4.885,-7.759,85.9,91.0,-7.534,68.3,63.3,68.8,69.2,77.7,36,81.6,1,5,prime,10,0,89,norm,36,-4.495,up,norm,77.1115265414,93.0,69.1,1.439,85.9,5,,76.4,96.8,10,6,7.575,4.804,1.903,-1.818,-4.412,-8.391,74.3,6,166.1,-7.822,-7.716,10,-8.124,-7.634,-4.922,-4.674,-4.425,-4.765,4.72,8.464,11,-1.249,1.382,4.917,7.987,-8.006,-8.03,-1.683,1.467,57.5,86.0,82.5,87.8,71.6,74.3,86.1,97.1,79.1,74.0,1,norm,1.87,2.019,-2.078,-1.679,-5.023,-5.024,-1.458,-1.8,-1.617,-1.502,1.171,-1.404,85.0,85.6,-5.058,-8.405,82.2,-1.848,8.111,4.401,-4.965,-7.772,12,4.539,4.615,4.354,4.605,1.245,1.556,1.853,1.594,12,4.623,5.262,60,307.422678797,norm,0,44,44,44,337.805,337.819,337.824386448,337.825,337.83,337.834,up,1,1.94609869137,8.05390130863,001,023,800_600,Intel(R) Core(TM) i5-4200U CPU @ 1.60GHz,orientation_search,GRVLAPTOP8,Intel(R) HD Graphics 4400,2018_jul_31_1858,testMonitor,
68.6,88.3,74.3,82.7,36,10,79.2,88.1,82.1,75.8,7.962,7.959,7.511,8.43,7.844,8.336,7.943,5.271,-4.397,-8.392,1.123,-1.296,8.199,4.689,-5.083,-7.894,65.3,79.1,-8.127,93.0,77.7,97.1,69.3,85.1,36,76.4,0,5,prime,10,0,94,norm,36,-5.275,down,norm,77.1115265414,80.0,57.1,1.346,80.9,2,86.1,83.2,81.0,10,6,7.86,4.583,1.419,-1.107,-4.916,-8.174,73.2,6,171.1,-7.737,-7.877,10,-8.342,-8.004,-4.869,-4.467,-4.323,-4.573,4.447,7.637,2,-1.968,1.345,4.886,7.9,-7.633,-7.905,-1.873,1.742,80.3,77.7,71.6,,88.0,81.4,93.5,84.8,82.8,60.7,2,norm,1.923,2.045,-1.533,-1.184,-4.472,-4.842,-1.465,-1.298,-1.714,-1.238,1.434,-1.971,81.5,86.7,-4.368,-8.193,80.2,-1.931,8.077,4.603,-5.12,-7.694,12,5.176,5.225,4.962,4.556,1.94,1.219,1.537,1.854,12,5.112,5.07,60,307.422678797,norm,0,45,45,45,339.799,339.812,339.814866446,339.815,339.818,339.821,down,1,2.67072860543,7.32927139457,001,023,800_600,Intel(R) Core(TM) i5-4200U CPU @ 1.60GHz,orientation_search,GRVLAPTOP8,Intel(R) HD Graphics 4400,2018_jul_31_1858,testMonitor,
57.1,86.1,80.5,80.7,36,10,82.8,81.0,82.7,62.1,8.246,7.931,8.46,8.086,8.231,7.916,8.441,5.0,-5.127,-7.951,1.839,-2.073,8.067,5.297,-5.157,-8.023,73.8,86.0,-8.342,82.3,80.1,59.6,66.6,74.2,36,94.3,0,5,prime,10,0,71,norm,36,-4.713,up,norm,77.1115265414,68.4,58.0,1.255,82.4,5,70.5,67.4,80.0,10,6,8.449,4.39,1.661,-1.147,-4.628,-7.763,75.0,6,148.1,-8.221,-7.876,10,-8.079,-7.926,-4.697,-4.382,-5.163,-4.978,4.769,8.331,5,-1.43,1.343,4.661,7.576,-7.919,-8.025,-1.787,1.371,58.1,75.2,75.8,86.2,90.8,62.9,66.7,69.9,,83.5,3,norm,1.691,1.533,-1.288,-1.4,-4.923,-4.491,-1.86,-2.037,-1.293,-1.636,1.108,-1.71,76.8,75.3,-4.848,-8.146,85.3,-1.113,7.869,4.693,-5.118,-8.242,12,5.124,4.602,4.918,4.708,1.738,1.496,1.976,1.145,12,4.618,5.191,60,307.422678797,norm,0,46,46,46,342.511,342.519,342.538488313,342.539,342.543,342.55,up,1,0.973257961075,9.02674203892,001,023,800_600,Intel(R) Core(TM) i5-4200U CPU @ 1.60GHz,orientation_search,GRVLAPTOP8,Intel(R) HD Graphics 4400,2018_jul_31_1858,testMonitor,
69.2,84.7,76.3,73.1,36,10,84.3,75.8,67.6,96.7,8.018,7.554,8.106,7.681,7.576,7.542,7.699,5.149,-4.764,-8.255,1.544,-1.438,8.312,4.322,-5.021,-8.126,84.8,76.6,-7.513,88.6,96.1,92.2,74.3,87.9,36,84.5,0,5,prime,10,0,101,norm,36,-5.071,down,norm,77.1115265414,71.5,79.9,1.404,83.0,2,97.1,66.6,73.2,10,6,8.5,5.163,2.095,-1.605,-4.946,-7.987,91.4,6,178.1,-7.727,-8.307,10,-8.28,-7.55,-4.305,-5.181,-4.786,-4.345,4.568,7.598,2,-1.967,1.49,5.066,7.84,-8.04,-7.669,-1.594,2.028,85.5,70.3,76.9,,74.4,95.0,57.1,75.2,69.0,92.5,4,norm,2.059,1.979,-2.068,-1.145,-4.467,-5.205,-1.63,-1.445,-1.695,-1.814,1.425,-1.523,90.5,73.2,-4.546,-8.485,81.2,-1.517,7.544,4.731,-4.698,-8.226,12,4.494,4.8,4.773,4.71,1.383,1.375,2.028,1.803,12,4.959,4.863,60,307.422678797,norm,0,47,47,47,343.543,343.556,343.560740324,343.561,343.566,343.571,up,0,2.26352162416,-10,001,023,800_600,Intel(R) Core(TM) i5-4200U CPU @ 1.60GHz,orientation_search,GRVLAPTOP8,Intel(R) HD Graphics 4400,2018_jul_31_1858,testMonitor,
85.8,76.3,85.0,83.4,36,10,86.7,86.8,81.3,75.5,8.038,8.086,8.306,7.705,8.026,8.282,7.988,5.18,-4.449,-8.247,2.042,-1.243,8.131,4.552,-4.902,-7.653,78.8,89.8,-7.642,75.1,86.1,70.4,,79.4,36,61.7,5,5,prime,10,0,73,norm,36,-4.636,down,norm,77.1115265414,89.7,80.9,1.871,71.7,2,81.6,75.3,75.3,10,6,7.909,4.904,1.806,-1.773,-4.493,-7.94,90.8,6,150.1,-7.515,-7.549,10,-7.65,-7.746,-4.628,-4.485,-5.242,-5.156,5.229,7.876,32,-1.671,1.189,4.721,7.653,-7.555,-8.063,-1.647,1.876,81.0,76.8,85.2,57.7,88.4,60.9,70.2,79.6,97.1,87.0,5,norm,1.409,1.595,-1.229,-1.948,-4.315,-4.56,-1.373,-1.389,-1.19,-1.744,1.763,-1.875,71.9,83.7,-4.478,-8.445,57.1,-1.738,7.969,4.498,-5.002,-7.864,12,4.665,4.692,5.112,4.713,1.656,1.58,1.887,1.49,12,4.375,5.047,60,307.422678797,norm,0,48,48,48,346.876,346.881,346.895951121,346.896,346.899,346.902,down,1,0.91246498162,9.08753501838,001,023,800_600,Intel(R) Core(TM) i5-4200U CPU @ 1.60GHz,orientation_search,GRVLAPTOP8,Intel(R) HD Graphics 4400,2018_jul_31_1858,testMonitor,
200.9,203.5,210.3,206.8,36,-60,213.5,207.2,213.1,195.0,7.983,8.275,8.143,8.166,8.083,7.757,8.336,5.159,-4.993,-8.437,1.895,-1.366,7.505,4.353,-4.955,-7.907,206.3,205.9,-8.206,213.6,203.7,201.9,199.4,203.4,36,209.6,2,5,probe,5,0,116,norm,36,-4.304,down,norm,204.994584228,198.4,198.3,1.758,204.3,0,208.3,200.0,,10,6,8.397,4.653,1.162,-1.347,-5.295,-7.718,208.8,1,89.0,-7.75,-7.614,10,-7.509,-8.034,-5.216,-4.566,-4.377,-4.971,5.243,7.884,12,-1.518,1.119,5.11,7.905,-8.052,-7.586,-1.834,1.971,200.7,202.6,212.1,207.6,204.7,205.1,215.0,197.8,206.4,200.2,0,norm,1.102,1.709,-1.811,-1.23,-5.248,-5.236,-1.574,-1.925,-1.562,-1.475,2.058,-1.615,212.1,196.1,-4.552,-8.122,201.4,-1.594,7.813,5.046,-4.343,-8.433,13,4.759,4.595,4.608,4.479,2.046,1.565,1.675,1.332,13,5.03,4.903,10,77.1115265414,norm,0,49,49,49,347.835,347.847,347.850558197,347.851,347.855,347.859,down,1,1.08595043388,8.91404956612,001,023,800_600,Intel(R) Core(TM) i5-4200U CPU @ 1.60GHz,orientation_search,GRVLAPTOP8,Intel(R) HD Graphics 4400,2018_jul_31_1858,testMonitor,
221.0,208.2,211.0,234.5,36,40,216.7,205.6,215.0,222.2,8.261,8.139,7.914,8.097,7.568,7.686,8.38,5.139,-4.883,-7.787,1.856,-1.517,7.927,5.211,-4.754,-8.057,227.8,212.9,-8.429,200.0,207.0,200.2,220.4,220.2,36,217.9,0,5,prime,10,0,91,norm,36,-4.767,down,norm,214.515478221,210.0,214.0,1.452,225.2,0,207.3,213.5,212.9,10,6,7.783,5.193,1.644,-1.724,-4.31,-8.476,223.3,6,305.5,-7.736,-8.423,40,-7.612,-7.613,-4.517,-4.538,-4.879,-4.738,4.642,7.507,0,-1.946,1.322,4.708,7.669,-7.652,-8.244,-1.135,1.248,218.8,212.5,227.8,217.9,215.1,,225.2,196.3,223.3,201.0,0,norm,1.301,1.47,-1.333,-2.003,-4.388,-4.317,-1.746,-1.69,-2.095,-1.545,1.561,-2.0,216.9,194.5,-4.695,-7.524,200.3,-1.645,8.17,5.112,-5.1,-7.651,14,4.512,4.672,4.877,4.903,1.106,1.524,1.365,1.841,14,4.815,4.849,-60,77.1115265414,norm,0,50,50,50,348.965,348.979,348.984853853,348.985,348.988,348.992,down,1,2.01635812413,7.98364187587,001,023,800_600,Intel(R) Core(TM) i5-4200U CPU @ 1.60GHz,orientation_search,GRVLAPTOP8,Intel(R) HD Graphics 4400,2018_jul_31_1858,testMonitor,
206.0,208.7,211.2,229.7,36,40,194.5,229.5,208.5,213.0,8.277,7.601,7.822,7.728,7.708,8.422,8.411,4.812,-5.088,-8.187,1.632,-1.212,7.618,5.137,-4.971,-7.502,208.9,229.5,-7.943,227.5,216.6,213.0,217.5,214.8,36,221.8,2,5,prime,10,0,102,norm,36,-4.989,down,norm,214.515478221,217.2,196.9,1.564,207.9,1,210.8,,213.8,10,6,8.011,5.272,1.253,-1.595,-4.412,-8.312,207.8,6,316.5,-8.443,-7.917,40,-8.323,-7.518,-4.905,-5.071,-4.72,-4.755,4.859,7.794,13,-1.576,1.661,5.213,7.917,-8.2,-8.225,-1.663,1.956,213.3,201.1,234.5,223.1,209.4,229.1,217.2,207.4,213.7,215.6,1,norm,1.168,1.589,-1.607,-1.367,-5.058,-4.738,-1.793,-1.233,-1.467,-1.821,1.283,-1.801,229.2,226.1,-4.306,-7.894,219.9,-2.032,7.609,4.439,-4.937,-7.964,14,4.411,4.466,5.285,5.213,1.434,1.538,1.182,1.278,14,4.863,5.086,-60,77.1115265414,norm,0,51,51,51,351.028,351.034,351.038329453,351.039,351.042,351.045,down,1,0.977747989036,9.02225201096,001,023,800_600,Intel(R) Core(TM) i5-4200U CPU @ 1.60GHz,orientation_search,GRVLAPTOP8,Intel(R) HD Graphics 4400,2018_jul_31_1858,testMonitor,
199.9,208.4,214.6,220.2,36,40,215.8,,194.5,219.4,8.169,8.276,8.407,7.969,8.491,7.586,7.723,4.831,-4.847,-7.6,1.414,-1.101,7.842,4.657,-4.721,-8.154,215.7,234.5,-7.876,226.1,207.6,227.3,228.0,198.2,36,210.1,4,5,prime,10,0,72,norm,36,-4.541,down,norm,214.515478221,195.6,226.5,1.116,214.8,1,203.7,212.3,208.4,10,6,7.873,4.848,1.45,-1.173,-4.619,-7.904,223.6,6,286.5,-8.348,-8.412,40,-7.997,-7.827,-4.788,-5.239,-5.142,-4.873,4.864,7.78,25,-2.013,1.654,4.872,7.727,-8.141,-8.481,-1.316,1.482,221.7,220.6,205.9,219.2,204.2,220.4,223.1,208.1,203.1,209.7,2,norm,1.672,1.112,-2.062,-1.977,-5.27,-4.454,-1.191,-1.251,-1.802,-1.131,1.439,-2.068,215.4,198.7,-4.349,-8.141,211.5,-1.792,7.924,5.124,-4.893,-7.832,14,5.226,4.87,4.444,4.969,2.089,1.996,1.659,2.04,14,4.694,5.125,-60,77.1115265414,norm,0,52,52,52,352.042,352.05,352.069448622,352.07,352.074,352.078,down,1,0.875837919897,9.1241620801,001,023,800_600,Intel(R) Core(TM) i5-4200U CPU @ 1.60GHz,orientation_search,GRVLAPTOP8,Intel(R) HD Graphics 4400,2018_jul_31_1858,testMonitor,
214.1,209.2,206.3,213.3,36,40,217.9,228.1,211.0,212.6,7.643,7.852,8.477,8.177,8.293,8.129,8.397,4.498,-4.877,-8.176,1.731,-1.941,7.912,4.911,-4.322,-7.924,219.6,204.6,-7.508,220.3,218.7,222.6,226.6,215.7,36,203.4,2,5,prime,10,0,118,norm,36,-5.222,down,norm,214.515478221,213.7,212.0,1.208,211.7,1,206.1,,206.9,10,6,8.016,4.787,1.552,-1.125,-4.8,-8.273,213.4,6,332.5,-8.366,-7.813,40,-7.649,-8.147,-5.181,-4.966,-4.694,-4.601,4.989,7.717,13,-1.501,1.67,4.891,7.894,-8.2,-7.538,-1.417,1.146,210.5,234.5,223.7,225.1,212.6,194.5,207.3,214.4,220.8,213.2,3,norm,1.111,1.834,-1.944,-1.712,-5.287,-4.896,-1.231,-1.371,-1.726,-1.496,1.76,-1.417,230.8,207.1,-4.42,-7.618,219.9,-1.161,7.643,5.116,-4.395,-8.15,14,4.303,4.367,4.43,4.773,1.81,1.894,1.865,1.372,14,5.037,5.289,-60,77.1115265414,norm,0,53,53,53,352.976,352.984,353.000861682,353.001,353.005,353.009,down,1,0.893065312013,9.10693468799,001,023,800_600,Intel(R) Core(TM) i5-4200U CPU @ 1.60GHz,orientation_search,GRVLAPTOP8,Intel(R) HD Graphics 4400,2018_jul_31_1858,testMonitor,
204.8,204.0,207.5,204.8,36,40,205.8,224.2,224.5,226.0,8.08,8.116,8.483,7.938,8.338,8.246,7.521,5.104,-5.28,-7.508,1.509,-1.313,7.756,4.974,-4.992,-8.013,210.2,215.8,-7.736,210.9,219.9,221.1,207.3,215.6,36,205.7,0,5,prime,10,0,92,norm,36,-5.104,up,norm,214.515478221,234.5,209.2,1.315,220.7,3,218.3,194.5,211.4,10,6,8.48,4.644,1.77,-2.075,-5.295,-8.272,222.2,6,306.5,-8.376,-7.859,40,-7.562,-7.847,-5.283,-4.936,-5.215,-4.974,4.419,7.906,3,-1.431,1.345,5.283,7.594,-7.702,-8.131,-1.412,2.015,213.6,207.2,,202.6,207.0,213.4,213.3,202.6,204.3,215.4,4,norm,1.819,2.01,-1.143,-1.836,-4.961,-4.601,-1.149,-1.253,-1.446,-1.793,1.875,-1.611,209.8,214.0,-4.433,-7.982,229.6,-1.944,8.2,5.286,-5.198,-8.457,14,4.678,4.963,4.993,5.295,1.905,1.592,1.205,1.349,14,5.278,5.112,-60,77.1115265414,norm,0,54,54,54,353.922,353.937,353.942969684,353.944,353.947,353.95,up,1,1.24900511654,8.75099488346,001,023,800_600,Intel(R) Core(TM) i5-4200U CPU @ 1.60GHz,orientation_search,GRVLAPTOP8,Intel(R) HD Graphics 4400,2018_jul_31_1858,testMonitor,
212.0,226.8,218.6,213.1,36,40,213.2,219.7,198.6,215.6,8.065,7.723,8.35,8.047,8.353,8.325,8.446,4.898,-4.669,-7.76,1.632,-1.132,7.991,4.734,-4.687,-8.047,222.6,219.1,-7.603,204.3,208.7,194.5,211.4,220.8,36,221.5,2,5,prime,10,0,68,norm,36,-5.189,down,norm,214.515478221,223.0,212.5,1.621,,2,209.2,221.1,211.0,10,6,7.572,4.988,1.108,-1.171,-4.683,-8.364,214.6,6,282.5,-7.681,-7.879,40,-7.744,-7.944,-4.75,-4.68,-4.685,-5.126,5.296,7.582,14,-1.326,1.335,5.211,7.708,-8.315,-8.456,-1.434,1.214,214.0,225.5,212.0,228.8,210.6,207.6,204.7,220.1,203.1,232.3,5,norm,1.678,1.468,-1.829,-1.729,-5.111,-4.796,-1.21,-1.927,-2.016,-1.784,1.308,-1.226,223.0,215.4,-5.212,-7.65,203.2,-1.133,8.242,5.248,-4.588,-7.592,14,4.434,4.945,5.163,5.164,1.745,1.214,1.287,1.941,14,4.427,5.093,-60,77.1115265414,norm,0,55,55,55,355.22,355.228,355.246279506,355.247,355.25,355.255,down,1,0.859815811575,9.14018418843,001,023,800_600,Intel(R) Core(TM) i5-4200U CPU @ 1.60GHz,orientation_search,GRVLAPTOP8,Intel(R) HD Graphics 4400,2018_jul_31_1858,testMonitor,
361.8,354.0,360.4,363.3,36,20,361.4,358.7,369.0,356.9,7.757,7.557,7.584,8.245,7.566,7.752,7.657,4.967,-4.349,-8.1,1.588,-2.055,8.409,5.227,-5.245,-7.875,362.8,359.5,-8.487,366.6,367.1,,357.4,372.6,36,366.0,5,5,probe,5,0,112,norm,36,-4.429,up,norm,362.644356627,363.3,356.5,1.758,358.3,3,368.9,358.4,363.0,10,6,8.307,4.681,1.314,-1.737,-4.308,-7.859,365.4,1,250.6,-8.123,-7.763,40,-7.635,-8.189,-5.224,-4.571,-4.331,-4.917,5.046,8.119,33,-2.042,2.093,4.686,7.827,-8.498,-8.487,-1.886,1.751,360.8,359.1,360.6,359.0,365.6,359.7,363.0,362.1,364.4,355.1,0,norm,1.21,1.269,-1.913,-1.873,-5.27,-5.139,-1.823,-1.699,-2.068,-1.675,1.155,-1.934,352.6,361.5,-5.04,-7.643,359.8,-2.072,8.071,4.391,-4.746,-7.632,15,4.793,4.823,4.708,4.734,1.885,1.124,1.823,1.322,15,5.186,5.203,40,214.515478221,norm,0,56,56,56,356.135,356.149,356.15537362,356.156,356.16,356.164,up,1,0.981980538751,9.01801946125,001,023,800_600,Intel(R) Core(TM) i5-4200U CPU @ 1.60GHz,orientation_search,GRVLAPTOP8,Intel(R) HD Graphics 4400,2018_jul_31_1858,testMonitor,
337.6,340.7,327.6,325.9,36,20,340.5,333.1,329.9,317.0,8.411,7.893,7.955,8.349,8.127,7.867,7.897,4.703,-4.354,-7.84,1.576,-2.011,8.424,4.444,-4.548,-8.095,313.1,335.3,-7.825,328.5,326.0,333.0,311.3,327.3,36,337.2,2,5,prime,10,0,91,norm,36,-4.904,down,norm,331.292956034,342.6,331.6,1.956,317.4,0,327.5,342.0,,10,5,8.019,5.086,1.751,-2.092,-4.979,-7.532,332.9,5,422.3,-7.988,-7.874,20,-8.415,-7.915,-4.81,-4.395,-4.923,-4.718,4.575,7.562,12,-2.1,1.138,4.365,7.873,-8.302,-8.085,-1.101,1.527,338.0,318.7,329.6,326.7,335.2,334.6,328.3,335.6,338.9,351.3,0,norm,1.782,1.377,-1.558,-1.797,-4.743,-5.144,-1.726,-1.426,-1.87,-2.02,1.45,-1.13,335.9,334.3,-4.669,-7.996,337.4,-1.489,7.817,5.202,-5.269,-8.346,16,4.65,5.014,5.144,4.92,1.701,1.498,2.036,1.865,16,4.605,5.032,20,214.515478221,norm,0,57,57,57,357.165,357.176,357.192347407,357.193,357.195,357.199,down,1,0.944763999098,9.0552360009,001,023,800_600,Intel(R) Core(TM) i5-4200U CPU @ 1.60GHz,orientation_search,GRVLAPTOP8,Intel(R) HD Graphics 4400,2018_jul_31_1858,testMonitor,
324.7,349.6,337.0,334.7,36,20,329.7,328.8,329.0,324.9,8.155,7.829,7.523,8.167,7.754,8.346,7.51,4.867,-4.381,-8.183,1.258,-1.156,8.173,4.845,-5.014,-7.909,336.4,326.7,-8.171,325.1,351.3,334.0,329.3,,36,317.4,4,5,prime,10,0,90,norm,36,-4.692,down,norm,331.292956034,328.8,320.7,1.557,329.2,2,337.7,329.8,318.4,10,5,7.738,4.384,1.983,-1.834,-4.871,-8.322,332.7,5,421.3,-7.783,-7.866,20,-8.004,-7.757,-4.802,-4.419,-5.3,-4.973,4.881,7.78,26,-1.106,1.874,4.901,8.455,-7.982,-8.321,-1.205,1.458,333.4,314.0,311.3,315.9,325.6,327.0,325.6,340.6,326.5,325.9,1,norm,1.304,1.884,-2.003,-1.284,-4.902,-5.265,-1.625,-2.07,-1.595,-1.865,1.333,-1.236,326.3,330.3,-5.042,-8.433,346.0,-1.147,7.891,4.942,-4.939,-8.23,16,5.213,4.728,4.427,5.086,1.548,1.683,1.558,1.126,16,4.548,4.626,20,214.515478221,norm,0,58,58,58,358.164,358.175,358.190156834,358.19,358.193,358.196,up,0,0.712434280573,-10,001,023,800_600,Intel(R) Core(TM) i5-4200U CPU @ 1.60GHz,orientation_search,GRVLAPTOP8,Intel(R) HD Graphics 4400,2018_jul_31_1858,testMonitor,
333.9,334.2,326.1,342.5,36,20,324.0,336.7,329.3,332.8,7.922,8.281,7.768,7.688,7.534,8.162,7.942,4.865,-4.653,-8.401,1.44,-1.343,7.877,4.411,-4.541,-8.399,329.8,327.8,-8.345,327.7,325.7,327.4,341.7,321.1,36,325.6,0,5,prime,10,0,101,norm,36,-4.364,up,norm,331.292956034,319.1,329.9,1.714,322.0,5,329.7,324.0,345.1,10,5,7.815,4.801,1.514,-1.36,-5.045,-7.991,329.0,5,432.3,-8.131,-8.292,20,-8.421,-8.013,-4.732,-4.441,-5.01,-5.195,5.146,7.719,5,-1.924,1.19,4.57,8.41,-7.962,-7.862,-1.63,1.253,331.2,344.2,346.6,317.0,351.3,318.2,327.2,324.2,,339.8,2,norm,1.488,1.663,-1.45,-1.905,-5.04,-4.411,-1.528,-1.656,-1.107,-1.321,1.379,-1.183,324.5,311.3,-4.691,-8.312,335.9,-1.205,7.646,4.734,-4.9,-8.382,16,4.862,4.996,4.342,5.154,1.128,1.482,1.279,1.633,16,4.712,4.368,20,214.515478221,norm,0,59,59,59,359.949,359.954,359.969810341,359.97,359.973,359.976,up,1,1.11226854847,8.88773145153,001,023,800_600,Intel(R) Core(TM) i5-4200U CPU @ 1.60GHz,orientation_search,GRVLAPTOP8,Intel(R) HD Graphics 4400,2018_jul_31_1858,testMonitor,
327.7,346.4,318.3,351.3,36,20,344.1,332.5,311.3,330.2,8.154,8.263,7.663,7.867,8.161,7.527,8.132,4.765,-4.997,-8.385,1.289,-1.533,8.057,4.399,-5.24,-7.506,329.1,324.6,-8.053,340.1,324.4,330.2,329.7,,36,347.8,4,5,prime,10,0,87,norm,36,-4.715,down,norm,331.292956034,319.9,337.2,1.894,328.2,2,336.1,325.0,319.0,10,5,8.394,5.084,1.481,-1.933,-4.408,-7.924,332.1,5,418.3,-7.802,-7.813,20,-8.436,-7.878,-4.776,-4.971,-4.753,-4.521,5.022,7.616,26,-2.001,1.109,4.656,8.393,-8.492,-7.589,-1.222,1.994,335.6,329.5,319.0,329.1,322.6,329.2,322.1,328.6,322.0,329.3,3,norm,1.597,1.366,-1.947,-1.793,-5.038,-4.599,-1.923,-1.812,-1.731,-1.699,1.532,-1.291,336.9,330.3,-4.751,-8.44,330.2,-2.093,8.147,5.293,-4.659,-7.81,16,4.773,4.843,4.347,4.746,1.2,1.175,1.25,1.914,16,4.584,5.218,20,214.515478221,norm,0,60,60,60,361.107,361.116,361.134655769,361.135,361.139,361.145,down,1,1.63959337179,8.36040662821,001,023,800_600,Intel(R) Core(TM) i5-4200U CPU @ 1.60GHz,orientation_search,GRVLAPTOP8,Intel(R) HD Graphics 4400,2018_jul_31_1858,testMonitor,
322.0,331.6,336.1,311.8,36,20,319.9,340.1,335.5,342.9,8.012,7.726,8.497,8.198,7.8,7.573,8.218,4.778,-4.556,-7.572,1.533,-1.531,8.194,4.463,-4.465,-8.091,315.6,312.1,-8.214,316.8,335.4,334.9,327.0,324.8,36,331.4,0,5,prime,10,0,105,norm,36,-5.006,down,norm,331.292956034,343.3,323.8,1.271,334.3,2,328.4,331.4,332.7,10,5,8.36,4.335,1.517,-2.041,-4.569,-8.411,332.5,5,436.3,-7.98,-8.248,20,-7.711,-7.506,-4.739,-4.513,-4.453,-4.336,5.122,8.397,2,-1.155,1.897,4.322,8.402,-8.398,-8.153,-1.744,1.808,335.2,321.7,324.0,,311.3,316.9,339.0,333.1,329.3,334.4,4,norm,1.117,1.515,-1.609,-1.753,-4.331,-4.702,-1.352,-1.623,-1.982,-1.381,1.994,-1.676,320.8,351.3,-5.184,-8.371,323.4,-1.956,7.712,4.742,-5.159,-7.576,16,5.013,4.961,4.471,4.307,1.112,1.379,1.387,2.092,16,4.38,4.588,20,214.515478221,norm,0,61,61,61,362.804,362.818,362.82173759,362.822,362.825,362.829,down,1,0.870637484015,9.12936251599,001,023,800_600,Intel(R) Core(TM) i5-4200U CPU @ 1.60GHz,orientation_search,GRVLAPTOP8,Intel(R) HD Graphics 4400,2018_jul_31_1858,testMonitor,
433.5,432.6,431.7,423.1,36,30,430.2,423.2,441.0,425.4,8.172,7.926,7.541,8.43,8.443,7.804,7.557,4.786,-4.505,-7.622,1.461,-1.654,7.89,5.063,-4.581,-7.961,,421.0,-8.033,428.2,436.3,427.9,424.9,431.3,36,430.6,5,5,probe,5,0,82,norm,36,-5.168,up,norm,431.022903092,435.2,436.0,2.033,423.1,5,424.7,437.1,428.3,10,5,7.97,4.383,1.624,-1.706,-5.252,-7.616,434.7,1,349.0,-8.341,-8.128,20,-8.078,-8.057,-4.5,-5.089,-4.816,-4.349,4.677,7.617,35,-1.662,1.854,4.349,8.446,-8.207,-7.638,-2.075,1.665,423.9,430.7,430.0,422.7,437.8,432.1,439.0,429.3,432.9,425.8,0,norm,1.427,1.831,-1.72,-1.236,-5.24,-5.102,-1.136,-1.747,-1.359,-1.873,1.976,-1.929,431.3,422.9,-4.428,-7.629,435.9,-1.265,7.789,4.791,-5.027,-7.648,17,4.62,4.602,4.485,4.461,1.357,1.406,1.883,1.412,17,4.553,4.586,20,331.292956034,norm,0,62,62,62,363.715,363.721,363.72973664,363.73,363.734,363.738,up,1,0.892839516531,9.10716048347,001,023,800_600,Intel(R) Core(TM) i5-4200U CPU @ 1.60GHz,orientation_search,GRVLAPTOP8,Intel(R) HD Graphics 4400,2018_jul_31_1858,testMonitor,
221.3,234.7,223.1,239.0,36,-80,238.0,225.4,226.7,207.8,8.445,7.708,8.184,7.632,7.53,8.271,8.361,4.82,-4.835,-7.85,1.664,-1.871,7.623,5.004,-4.712,-8.275,243.5,231.3,-7.918,213.8,223.0,203.5,219.4,209.8,36,230.6,0,5,prime,10,0,97,norm,36,-4.564,down,norm,223.482038244,214.4,232.7,1.5,232.9,1,221.7,207.1,214.1,10,5,7.505,5.127,1.52,-1.801,-4.998,-7.846,214.6,5,320.5,-7.796,-7.933,-80,-7.667,-7.554,-4.573,-5.133,-4.996,-5.006,4.344,7.739,1,-1.709,1.6,4.992,8.166,-8.146,-8.438,-1.263,1.89,219.2,236.1,210.4,230.2,,229.9,234.9,209.5,205.3,227.4,0,norm,1.278,1.384,-1.51,-1.472,-4.986,-4.746,-1.587,-1.538,-1.588,-1.141,1.202,-1.292,223.0,218.2,-4.523,-7.925,225.5,-1.238,7.595,4.94,-4.659,-8.395,18,4.591,4.384,4.79,5.092,1.386,1.127,1.143,1.759,18,4.562,4.639,30,331.292956034,norm,0,63,63,63,364.65,371.11,371.114604148,371.115,371.118,371.121,down,1,1.17789783513,8.82210216487,001,023,800_600,Intel(R) Core(TM) i5-4200U CPU @ 1.60GHz,orientation_search,GRVLAPTOP8,Intel(R) HD Graphics 4400,2018_jul_31_1858,testMonitor,
227.3,241.6,230.6,243.5,36,-80,203.5,223.8,238.2,214.2,8.088,8.342,7.503,8.224,8.127,7.943,8.484,4.504,-4.659,-8.088,1.207,-1.981,8.386,4.857,-4.37,-7.835,227.7,206.9,-8.344,236.0,227.0,232.9,226.4,217.9,36,207.5,0,5,prime,10,0,87,norm,36,-4.362,down,norm,223.482038244,207.3,227.3,1.566,232.3,0,228.2,234.8,235.5,10,5,7.946,5.099,1.685,-1.999,-5.064,-8.179,241.0,5,310.5,-7.748,-7.81,-80,-8.379,-8.317,-4.472,-4.603,-5.065,-4.367,5.106,7.763,0,-1.717,1.258,4.949,7.765,-7.986,-8.366,-1.303,2.002,224.3,239.2,236.3,242.5,241.1,,239.4,225.1,215.3,225.6,1,norm,1.452,2.03,-1.565,-1.956,-5.038,-4.393,-1.969,-1.959,-2.056,-1.784,1.412,-1.939,225.5,219.7,-4.85,-8.321,212.1,-1.928,7.952,4.365,-4.72,-7.817,18,5.191,5.019,4.895,4.362,1.849,1.634,1.859,1.534,18,5.182,5.211,30,331.292956034,norm,0,64,64,64,372.319,372.326,372.345356868,372.346,372.349,372.354,down,1,0.659910502882,9.34008949712,001,023,800_600,Intel(R) Core(TM) i5-4200U CPU @ 1.60GHz,orientation_search,GRVLAPTOP8,Intel(R) HD Graphics 4400,2018_jul_31_1858,testMonitor,
214.4,214.1,230.4,229.9,36,-80,216.5,218.6,217.0,226.0,7.954,8.272,7.925,8.385,8.323,8.059,8.141,4.734,-4.711,-8.458,1.714,-1.691,8.331,4.972,-5.259,-7.793,213.6,,-8.34,210.9,219.3,224.5,224.3,221.4,36,216.7,5,5,prime,10,0,79,norm,36,-4.692,up,norm,223.482038244,208.0,231.4,1.916,218.0,4,219.1,229.4,208.3,10,5,8.264,4.8,1.824,-1.294,-4.405,-7.918,236.5,5,302.5,-8.14,-7.923,-80,-8.11,-8.368,-4.362,-4.964,-4.967,-5.058,4.903,8.296,34,-1.857,1.995,5.277,7.67,-8.086,-7.562,-1.472,1.257,218.6,227.8,224.7,218.0,243.5,231.3,203.5,217.4,214.4,219.9,2,norm,1.606,1.692,-1.73,-2.05,-4.752,-5.172,-2.071,-1.689,-1.66,-2.094,1.735,-1.387,209.5,228.0,-4.794,-7.802,224.2,-1.621,7.838,4.851,-5.217,-7.96,18,4.418,4.787,4.754,4.359,1.23,1.807,1.539,2.084,18,4.842,5.279,30,331.292956034,norm,0,65,65,65,373.034,373.048,373.05380983,373.054,373.058,373.062,up,1,0.81623326726,9.18376673274,001,023,800_600,Intel(R) Core(TM) i5-4200U CPU @ 1.60GHz,orientation_search,GRVLAPTOP8,Intel(R) HD Graphics 4400,2018_jul_31_1858,testMonitor,
240.5,211.7,216.0,226.6,36,-80,203.5,228.6,243.5,233.3,7.785,8.303,8.082,8.266,7.911,7.718,7.931,4.679,-4.763,-7.552,1.376,-1.887,8.422,4.394,-5.284,-8.085,233.6,218.1,-8.067,207.9,227.2,214.1,216.4,208.6,36,231.4,1,5,prime,10,0,114,norm,36,-4.674,up,norm,223.482038244,223.9,220.4,1.671,227.8,4,214.1,220.5,216.7,10,5,7.98,4.571,1.865,-1.928,-4.362,-7.705,,5,337.5,-8.153,-8.151,-80,-7.557,-8.395,-5.009,-4.806,-4.66,-4.433,5.259,7.946,10,-1.814,1.683,4.439,7.634,-8.372,-7.896,-1.661,1.565,220.6,218.2,220.8,225.1,224.8,228.8,213.8,234.6,219.5,219.9,3,norm,1.402,1.134,-2.093,-1.713,-4.52,-4.891,-1.827,-1.71,-1.521,-2.076,1.649,-1.967,211.4,223.2,-4.433,-7.909,210.1,-1.861,8.016,4.921,-4.715,-7.835,18,4.954,4.888,5.106,4.334,1.665,1.699,1.314,1.211,18,5.012,4.545,30,331.292956034,norm,0,66,66,66,373.9,373.912,373.915101791,373.915,373.918,373.921,up,1,0.63972456521,9.36027543479,001,023,800_600,Intel(R) Core(TM) i5-4200U CPU @ 1.60GHz,orientation_search,GRVLAPTOP8,Intel(R) HD Graphics 4400,2018_jul_31_1858,testMonitor,
210.5,209.9,223.0,233.1,36,-80,218.6,233.0,243.5,225.2,8.232,7.552,7.752,8.312,7.706,7.711,8.269,4.81,-5.236,-7.719,1.801,-1.658,7.851,4.864,-4.748,-7.872,,227.4,-7.925,227.4,215.6,230.7,211.4,210.1,36,240.6,5,5,prime,10,0,93,norm,36,-4.967,up,norm,223.482038244,210.6,215.2,1.106,230.9,5,214.6,219.3,227.5,10,5,7.946,5.008,1.913,-1.208,-5.082,-8.208,223.5,5,316.5,-8.367,-8.315,-80,-8.388,-8.037,-4.567,-4.639,-4.453,-5.22,4.605,8.225,35,-1.861,2.042,4.45,7.798,-8.172,-7.647,-1.74,1.16,203.5,217.9,228.3,221.4,220.3,222.3,227.2,221.0,218.3,214.7,4,norm,1.643,1.809,-1.566,-1.256,-5.042,-5.218,-1.745,-1.913,-1.136,-1.207,1.337,-1.318,226.5,228.6,-4.404,-8.115,231.3,-1.457,8.483,5.04,-5.289,-8.102,18,5.15,5.003,4.544,4.571,1.358,1.192,2.06,1.905,18,5.221,4.693,30,331.292956034,norm,0,67,67,67,374.581,374.589,374.607504085,374.608,374.611,374.616,up,1,0.959752178302,9.0402478217,001,023,800_600,Intel(R) Core(TM) i5-4200U CPU @ 1.60GHz,orientation_search,GRVLAPTOP8,Intel(R) HD Graphics 4400,2018_jul_31_1858,testMonitor,
257.1,253.3,252.5,250.5,36,80,256.9,247.2,247.3,252.4,8.046,8.298,7.617,8.308,7.609,8.069,8.416,4.627,-4.396,-7.923,1.65,-1.146,8.463,4.938,-4.44,-7.998,254.2,261.0,-7.882,256.7,260.2,261.1,244.7,241.1,36,251.2,0,5,probe,5,0,101,norm,36,-4.987,down,norm,251.067072226,244.0,248.6,1.835,241.4,2,256.1,256.0,246.8,10,5,8.083,5.298,1.334,-1.435,-4.667,-8.389,248.9,2,150.1,-8.339,-8.12,-80,-8.29,-8.041,-4.457,-4.544,-5.213,-4.966,4.879,7.939,2,-1.66,1.572,4.303,8.035,-8.446,-8.339,-2.032,1.926,248.2,255.5,246.1,,250.4,256.6,242.2,244.7,249.6,245.1,0,norm,1.961,1.69,-1.544,-1.518,-4.639,-4.427,-1.918,-2.001,-1.702,-1.451,1.606,-1.869,243.7,253.3,-4.9,-8.093,254.5,-1.401,7.989,4.806,-4.391,-7.845,19,4.988,4.559,4.703,5.291,1.508,1.393,2.083,2.093,19,4.48,4.74,-80,223.482038244,norm,0,68,68,68,375.596,375.603,375.622134829,375.623,375.626,375.631,down,1,0.846609007007,9.15339099299,001,023,800_600,Intel(R) Core(TM) i5-4200U CPU @ 1.60GHz,orientation_search,GRVLAPTOP8,Intel(R) HD Graphics 4400,2018_jul_31_1858,testMonitor,
256.8,256.5,256.3,248.3,36,80,239.1,252.7,241.4,249.1,7.682,8.496,7.72,7.656,7.748,7.778,7.986,4.584,-5.115,-8.227,1.44,-1.815,8.285,4.876,-5.145,-8.067,252.3,252.6,-8.009,246.0,247.5,247.3,259.1,252.3,36,250.3,1,5,probe,5,0,99,norm,36,-4.887,up,norm,249.067072226,251.3,252.9,1.579,244.5,4,242.0,244.3,251.3,10,5,7.87,4.621,1.607,-1.938,-4.872,-8.021,,2,150.1,-8.062,-7.668,-80,-8.309,-8.113,-4.966,-4.52,-4.921,-4.852,4.841,8.099,10,-1.997,1.279,4.35,7.822,-7.569,-8.094,-1.581,1.566,249.0,250.1,241.9,250.8,248.8,247.5,244.8,249.8,254.3,247.0,1,norm,1.377,1.574,-1.902,-1.691,-4.963,-5.211,-1.673,-1.368,-1.272,-1.286,1.823,-2.024,253.8,252.6,-4.306,-7.83,251.2,-1.152,7.648,4.52,-4.902,-8.256,19,5.054,4.995,4.383,4.761,1.224,2.038,1.994,1.222,19,4.325,4.72,-80,223.482038244,norm,0,69,69,69,376.498,376.507,376.520299282,376.521,376.524,376.528,up,1,0.777012681139,9.22298731886,001,023,800_600,Intel(R) Core(TM) i5-4200U CPU @ 1.60GHz,orientation_search,GRVLAPTOP8,Intel(R) HD Graphics 4400,2018_jul_31_1858,testMonitor,
299.3,305.4,314.3,287.8,36,60,291.6,297.3,296.2,307.4,8.498,8.214,7.97,7.534,8.215,8.012,7.546,4.406,-4.807,-8.132,1.705,-1.817,7.603,4.828,-4.369,-7.749,313.7,301.2,-7.749,301.5,298.8,301.6,285.0,294.4,36,,4,5,prime,10,0,98,norm,36,-4.825,up,norm,305.028248454,291.9,304.8,1.222,306.5,3,299.5,303.5,294.8,10,6,8.436,4.456,1.864,-2.029,-4.856,-8.316,290.9,6,403.0,-8.405,-7.655,60,-7.566,-8.178,-4.807,-4.718,-4.351,-5.116,5.179,7.544,27,-2.054,1.217,4.973,8.16,-7.959,-7.898,-1.175,1.795,290.7,325.0,296.0,296.7,315.2,309.0,288.6,303.8,303.3,303.0,0,norm,1.774,2.047,-1.714,-1.728,-4.578,-4.528,-1.669,-2.083,-1.428,-1.538,1.237,-1.643,291.6,307.2,-4.775,-8.289,315.5,-1.633,8.161,4.737,-4.872,-8.389,20,5.252,4.926,4.575,5.014,1.539,1.254,1.905,1.705,20,5.006,4.801,80,223.482038244,norm,0,70,70,70,377.326,377.34,377.344942315,377.345,377.348,377.352,up,1,1.0844082418,8.9155917582,001,023,800_600,Intel(R) Core(TM) i5-4200U CPU @ 1.60GHz,orientation_search,GRVLAPTOP8,Intel(R) HD Graphics 4400,2018_jul_31_1858,testMonitor,
304.5,298.4,325.0,293.1,36,60,301.2,315.1,304.7,302.6,8.499,7.711,7.948,7.714,7.623,8.259,7.808,4.579,-4.356,-8.461,1.499,-1.605,7.992,5.114,-4.84,-7.503,306.0,306.5,-7.901,300.0,286.1,308.2,306.8,302.5,36,305.8,1,5,prime,10,0,79,norm,36,-4.6,down,norm,305.028248454,285.7,300.0,1.679,312.1,2,308.4,322.3,285.0,10,6,8.431,4.942,1.559,-1.753,-4.622,-7.547,322.1,6,384.0,-8.378,-8.499,60,-8.284,-8.278,-4.672,-4.735,-4.742,-5.219,4.339,7.921,8,-1.607,1.295,4.726,8.021,-7.665,-8.387,-1.241,1.499,297.3,,306.3,292.2,304.3,316.8,292.2,304.1,309.7,311.6,1,norm,1.636,1.836,-1.956,-1.809,-5.178,-5.198,-1.523,-1.203,-1.877,-1.99,1.518,-1.647,296.3,320.7,-5.016,-8.33,320.0,-1.365,7.573,4.827,-4.484,-7.542,20,5.008,5.141,4.833,4.645,1.162,1.982,1.343,1.659,20,4.858,4.364,80,223.482038244,norm,0,71,71,71,378.455,378.464,378.482979661,378.483,378.486,378.49,down,1,0.911335111732,9.08866488827,001,023,800_600,Intel(R) Core(TM) i5-4200U CPU @ 1.60GHz,orientation_search,GRVLAPTOP8,Intel(R) HD Graphics 4400,2018_jul_31_1858,testMonitor,
303.3,302.5,296.1,299.2,36,60,322.0,301.2,315.7,315.3,7.642,8.459,8.13,7.656,7.928,7.868,8.5,4.896,-4.31,-7.824,1.871,-1.305,7.683,4.902,-4.836,-7.583,297.6,299.4,-8.423,322.8,307.4,322.5,,322.7,36,297.6,5,5,prime,10,0,104,norm,36,-4.595,down,norm,305.028248454,322.0,303.6,1.589,318.1,2,303.2,314.1,298.0,10,6,8.311,4.335,2.052,-1.891,-4.471,-8.144,325.0,6,409.0,-8.36,-7.961,60,-7.61,-8.397,-4.837,-5.226,-4.69,-4.524,4.306,7.574,32,-1.242,1.353,5.09,8.219,-8.362,-8.317,-1.469,1.399,290.5,304.6,299.1,299.5,307.5,307.1,285.0,316.9,292.3,307.4,2,norm,1.389,1.851,-1.759,-1.345,-5.125,-4.789,-1.171,-1.481,-2.087,-1.775,1.674,-1.938,303.0,305.5,-5.22,-8.19,301.8,-1.114,7.963,4.908,-5.251,-8.424,20,4.984,4.741,4.622,5.26,1.115,1.922,1.6,1.492,20,4.54,4.689,80,223.482038244,norm,0,72,72,72,379.421,379.434,379.437373436,379.438,379.44,379.444,down,1,1.10535054972,8.89464945028,001,023,800_600,Intel(R) Core(TM) i5-4200U CPU @ 1.60GHz,orientation_search,GRVLAPTOP8,Intel(R) HD Graphics 4400,2018_jul_31_1858,testMonitor,
316.5,305.2,293.1,288.9,36,60,302.8,292.8,315.4,298.1,8.396,8.477,7.797,8.456,8.332,7.595,8.133,4.412,-4.769,-7.906,1.518,-1.3,7.782,4.989,-5.288,-8.081,308.3,324.9,-7.542,318.8,298.5,297.5,309.9,312.9,36,303.4,1,5,prime,10,0,96,norm,36,-5.029,up,norm,305.028248454,325.0,296.4,1.306,294.4,5,,310.4,306.3,10,6,7.622,5.014,1.906,-1.665,-4.621,-7.801,310.7,6,401.0,-7.999,-8.226,60,-7.982,-8.229,-5.164,-5.08,-4.836,-5.019,4.595,7.766,11,-1.426,1.355,4.435,8.197,-8.029,-7.947,-1.646,1.147,290.5,296.1,302.4,308.9,313.4,309.1,285.0,314.1,318.5,305.6,3,norm,1.734,1.696,-1.889,-1.69,-4.351,-4.384,-1.65,-1.404,-1.776,-1.622,1.625,-1.186,306.4,308.1,-4.709,-7.79,301.0,-1.461,7.74,4.989,-5.226,-8.256,20,5.289,4.78,5.142,5.256,1.356,1.254,2.004,2.061,20,4.824,4.471,80,223.482038244,norm,0,73,73,73,380.569,380.583,380.589516753,380.59,380.598,380.605,up,1,0.925591463681,9.07440853632,001,023,800_600,Intel(R) Core(TM) i5-4200U CPU @ 1.60GHz,orientation_search,GRVLAPTOP8,Intel(R) HD Graphics 4400,2018_jul_31_1858,testMonitor,
325.0,322.2,300.9,304.3,36,60,318.6,,305.9,316.6,7.933,7.671,8.04,8.433,8.046,8.19,7.828,4.656,-4.473,-7.779,1.218,-1.266,8.103,4.762,-4.965,-7.572,299.3,311.1,-7.802,313.2,318.6,320.7,297.8,321.5,36,315.4,4,5,prime,10,0,76,norm,36,-4.931,down,norm,305.028248454,285.7,298.1,1.363,308.2,1,314.7,300.7,316.4,10,6,8.097,4.841,1.237,-1.246,-4.718,-8.488,303.5,6,381.0,-8.233,-7.971,60,-8.433,-7.814,-5.228,-4.411,-4.469,-5.213,4.545,7.738,25,-1.811,1.274,4.788,8.219,-7.828,-8.307,-1.596,1.949,298.8,307.3,305.6,325.0,285.0,294.0,305.9,312.1,295.1,285.5,4,norm,2.066,1.105,-1.555,-1.154,-4.607,-4.572,-1.909,-1.997,-1.335,-1.827,1.896,-1.489,310.3,306.6,-5.171,-7.636,307.8,-1.8,7.504,4.612,-5.204,-7.625,20,5.075,4.318,5.053,4.769,1.504,1.974,1.798,1.642,20,4.615,4.494,80,223.482038244,norm,0,74,74,74,381.55,381.564,381.569616853,381.57,381.574,381.578,down,1,0.966933456375,9.03306654362,001,023,800_600,Intel(R) Core(TM) i5-4200U CPU @ 1.60GHz,orientation_search,GRVLAPTOP8,Intel(R) HD Graphics 4400,2018_jul_31_1858,testMonitor,
287.7,303.7,,294.9,36,60,296.1,305.2,321.5,309.4,7.816,7.854,8.305,8.316,8.477,8.411,7.818,4.912,-4.769,-8.472,1.443,-1.963,7.672,5.188,-4.673,-8.461,301.4,317.2,-8.22,297.9,314.4,318.0,325.0,293.4,36,305.2,3,5,prime,10,0,99,norm,36,-4.825,down,norm,305.028248454,308.6,308.9,1.87,318.0,2,293.7,302.5,294.1,10,6,8.128,5.21,1.531,-1.409,-5.202,-8.254,312.3,6,404.0,-7.805,-8.046,60,-8.363,-7.806,-4.954,-4.801,-5.214,-4.708,4.642,7.915,20,-1.691,1.887,4.902,8.283,-8.074,-7.85,-1.601,1.38,291.8,306.5,313.0,285.0,319.0,316.8,306.9,320.7,317.3,290.5,5,norm,1.894,1.835,-1.348,-1.888,-4.522,-5.264,-1.618,-1.209,-2.038,-2.077,1.683,-2.089,297.4,303.6,-4.643,-7.995,295.4,-1.817,8.375,4.994,-4.527,-8.159,20,5.29,4.328,4.909,5.245,1.698,1.556,1.83,1.378,20,4.468,4.786,80,223.482038244,norm,0,75,75,75,382.565,382.579,382.58471436,382.585,382.588,382.591,down,1,0.618083451511,9.38191654849,001,023,800_600,Intel(R) Core(TM) i5-4200U CPU @ 1.60GHz,orientation_search,GRVLAPTOP8,Intel(R) HD Graphics 4400,2018_jul_31_1858,testMonitor,
453.1,460.9,,453.5,36,-30,458.3,453.5,458.3,460.8,8.049,8.025,8.196,8.305,7.834,7.863,8.089,4.834,-5.15,-8.498,1.976,-1.424,7.854,5.221,-4.384,-8.012,448.6,468.6,-8.022,466.1,457.5,458.6,458.5,461.4,36,468.4,3,5,probe,5,0,93,norm,36,-4.771,down,norm,458.58344456,457.1,455.9,1.726,468.2,2,458.4,453.3,455.7,10,6,8.298,4.667,1.382,-1.443,-4.853,-8.213,462.3,1,365.6,-8.437,-7.878,60,-8.29,-7.825,-5.224,-4.642,-4.587,-4.815,5.134,8.074,20,-1.643,1.789,5.214,8.044,-8.16,-8.12,-2.024,1.35,454.9,467.7,464.4,460.3,459.7,461.1,454.5,458.9,465.8,455.4,0,norm,1.214,1.339,-1.724,-1.722,-5.281,-5.279,-1.87,-1.371,-1.975,-1.183,1.514,-1.418,462.6,452.7,-4.781,-7.557,464.0,-1.549,8.419,5.142,-4.717,-7.851,21,4.64,5.056,4.527,4.81,1.395,1.314,1.366,1.516,21,4.562,4.696,60,305.028248454,norm,0,76,76,76,383.225,383.23,383.240642205,383.241,383.244,383.247,down,1,1.47692289843,8.52307710157,001,023,800_600,Intel(R) Core(TM) i5-4200U CPU @ 1.60GHz,orientation_search,GRVLAPTOP8,Intel(R) HD Graphics 4400,2018_jul_31_1858,testMonitor,
154.4,135.5,131.7,,36,-30,160.0,148.0,160.2,157.6,7.731,8.075,8.033,7.763,8.367,7.684,8.329,5.139,-4.733,-7.806,2.079,-1.99,8.063,4.935,-4.865,-8.079,154.5,164.1,-7.746,163.5,161.4,171.7,141.6,152.7,36,161.0,3,5,prime,10,0,99,norm,36,-4.922,up,norm,151.694802792,152.9,162.4,1.243,169.8,3,163.6,144.1,147.8,10,6,8.484,4.939,1.958,-1.142,-5.175,-7.667,161.2,6,250.7,-8.074,-7.709,-30,-7.565,-8.316,-4.489,-4.86,-4.426,-4.39,4.415,7.949,21,-1.18,1.239,4.765,7.598,-8.487,-8.435,-2.068,1.659,133.8,153.6,160.2,136.3,138.0,139.8,154.8,150.1,140.7,147.4,0,norm,1.959,1.88,-1.471,-2.069,-5.123,-4.597,-1.713,-1.274,-2.035,-1.142,1.631,-2.077,142.1,154.4,-4.446,-7.982,146.0,-1.965,7.629,5.258,-4.44,-8.435,22,5.066,4.573,4.817,5.056,1.633,1.454,1.508,1.52,22,4.693,4.365,-30,305.028248454,norm,0,77,77,77,384.744,384.755,384.758233726,384.758,384.761,384.765,up,1,1.13970002222,8.86029997778,001,023,800_600,Intel(R) Core(TM) i5-4200U CPU @ 1.60GHz,orientation_search,GRVLAPTOP8,Intel(R) HD Graphics 4400,2018_jul_31_1858,testMonitor,
155.6,151.8,136.0,148.2,36,-30,162.3,131.7,171.7,163.6,8.151,8.252,7.954,8.015,7.971,8.189,8.381,4.507,-4.319,-7.788,1.299,-1.475,8.336,5.105,-4.992,-7.573,153.8,166.0,-8.133,166.2,158.1,146.7,138.7,149.1,36,151.4,3,5,prime,10,0,92,norm,36,-4.658,down,norm,151.694802792,138.3,154.2,1.859,148.7,0,162.8,161.0,141.5,10,6,8.393,4.69,1.375,-1.933,-4.34,-7.883,158.4,6,243.7,-8.478,-7.515,-30,-7.943,-7.914,-4.904,-4.672,-4.753,-4.7,4.896,8.244,18,-1.151,1.195,5.034,8.061,-8.035,-7.684,-1.552,1.403,147.0,148.0,160.8,161.9,146.4,153.1,142.5,144.9,156.2,140.8,1,norm,1.522,2.087,-1.365,-1.914,-4.863,-5.097,-1.313,-1.324,-1.605,-1.911,1.566,-1.618,151.2,,-4.327,-7.962,150.6,-2.01,8.228,4.591,-4.969,-8.332,22,4.729,4.774,4.567,5.079,1.865,1.337,1.92,1.662,22,4.571,4.823,-30,305.028248454,norm,0,78,78,78,385.924,385.932,385.95128931,385.952,385.954,385.956,down,1,0.71357932249,9.28642067751,001,023,800_600,Intel(R) Core(TM) i5-4200U CPU @ 1.60GHz,orientation_search,GRVLAPTOP8,Intel(R) HD Graphics 4400,2018_jul_31_1858,testMonitor,
143.6,154.1,153.4,164.8,36,-30,151.1,150.1,156.8,149.8,7.984,8.135,7.551,8.249,8.03,7.69,7.753,4.563,-4.81,-7.84,1.415,-1.158,7.674,4.779,-4.341,-8.404,143.3,148.9,-8.34,156.5,169.6,131.7,,153.0,36,146.0,5,5,prime,10,0,92,norm,36,-5.265,down,norm,151.694802792,165.5,141.7,1.998,150.1,2,139.5,164.3,137.5,10,6,8.344,4.766,1.387,-1.957,-4.78,-7.652,151.3,6,243.7,-7.989,-8.245,-30,-8.224,-8.028,-4.54,-4.77,-5.069,-4.672,4.508,8.082,32,-2.038,1.961,4.899,8.487,-8.373,-8.16,-1.694,1.828,156.4,165.9,140.6,160.3,155.7,171.7,158.8,139.5,145.1,150.9,2,norm,2.005,1.547,-1.287,-1.675,-4.448,-4.617,-1.599,-1.495,-1.241,-1.308,1.407,-1.396,152.1,158.7,-4.584,-8.204,169.2,-1.238,8.408,5.29,-4.305,-8.442,22,4.685,4.807,5.279,5.031,1.382,1.5,1.194,1.254,22,4.451,4.982,-30,305.028248454,norm,0,79,79,79,386.691,386.704,386.707454285,386.708,386.711,386.715,down,1,1.36829429808,8.63170570192,001,023,800_600,Intel(R) Core(TM) i5-4200U CPU @ 1.60GHz,orientation_search,GRVLAPTOP8,Intel(R) HD Graphics 4400,2018_jul_31_1858,testMonitor,
153.3,153.3,153.1,155.6,36,-30,145.0,149.3,152.8,150.6,8.11,8.361,8.396,7.74,7.784,7.556,7.823,4.668,-4.729,-7.94,1.47,-2.055,8.261,4.544,-4.365,-8.058,156.2,164.6,-8.478,151.3,161.0,150.5,155.6,157.6,36,169.9,1,5,prime,10,0,109,norm,36,-5.056,down,norm,151.694802792,150.6,166.2,1.872,146.4,2,152.7,160.3,162.3,10,6,8.426,4.536,1.793,-1.121,-4.547,-7.748,151.9,6,260.7,-7.842,-8.272,-30,-8.024,-7.904,-4.377,-4.567,-4.319,-4.53,4.971,8.26,8,-1.48,1.847,4.632,7.955,-8.379,-8.09,-2.034,1.209,138.0,,148.6,146.1,169.3,153.1,131.7,171.7,152.4,139.2,3,norm,1.753,1.305,-1.325,-1.351,-4.769,-5.144,-1.547,-1.649,-1.147,-1.785,1.362,-1.463,150.4,136.0,-4.799,-7.986,165.4,-1.537,8.165,4.581,-4.673,-7.526,22,4.476,4.824,4.399,4.439,2.064,1.235,1.2,2.014,22,4.356,4.599,-30,305.028248454,norm,0,80,80,80,388.103,388.112,388.130386628,388.131,388.134,388.138,down,1,1.02725164059,8.97274835941,001,023,800_600,Intel(R) Core(TM) i5-4200U CPU @ 1.60GHz,orientation_search,GRVLAPTOP8,Intel(R) HD Graphics 4400,2018_jul_31_1858,testMonitor,
166.8,147.6,171.7,161.8,36,-30,144.1,146.7,146.6,143.4,8.243,8.175,8.292,7.861,8.109,7.615,8.068,4.579,-5.026,-7.973,1.512,-1.363,7.868,4.828,-4.537,-7.652,146.4,138.3,-8.031,140.9,158.8,146.7,145.7,152.8,36,149.9,0,5,prime,10,0,76,norm,36,-4.395,up,norm,151.694802792,148.4,152.6,1.872,138.3,4,145.5,156.9,161.3,10,6,7.805,5.272,1.4,-1.842,-4.642,-7.61,159.8,6,227.7,-8.151,-8.265,-30,-8.114,-7.859,-4.993,-5.185,-5.138,-5.059,5.214,7.647,4,-1.92,1.639,4.808,7.519,-8.227,-7.605,-1.605,1.198,158.6,150.7,144.3,136.3,158.1,151.6,151.6,145.7,155.3,,4,norm,1.164,1.387,-1.364,-2.066,-5.296,-4.494,-1.741,-2.025,-1.158,-1.337,1.402,-1.601,136.4,153.3,-4.823,-8.341,133.9,-1.972,7.679,4.395,-4.589,-8.191,22,4.326,4.377,5.261,4.874,1.362,1.363,1.208,1.295,22,4.862,4.371,-30,305.028248454,norm,0,81,81,81,389.184,389.192,389.211594018,389.212,389.216,389.22,up,1,1.10882360553,8.89117639447,001,023,800_600,Intel(R) Core(TM) i5-4200U CPU @ 1.60GHz,orientation_search,GRVLAPTOP8,Intel(R) HD Graphics 4400,2018_jul_31_1858,testMonitor,
,135.8,162.0,140.8,36,-30,131.7,151.4,147.1,141.9,7.809,7.722,7.548,8.288,7.65,8.237,8.005,4.652,-4.623,-7.659,1.641,-2.044,7.636,5.012,-4.538,-8.001,155.8,138.7,-8.293,150.1,147.5,155.6,154.3,149.7,36,163.1,3,5,prime,10,0,112,norm,36,-4.337,up,norm,151.694802792,150.8,151.7,1.63,147.6,4,165.5,147.7,145.0,10,6,7.655,4.729,1.566,-1.536,-4.341,-8.069,147.2,6,263.7,-8.296,-8.5,-30,-7.796,-8.401,-4.851,-5.162,-4.963,-4.51,4.412,7.716,22,-1.686,1.481,4.635,7.662,-7.86,-8.43,-1.77,2.018,140.6,171.7,153.0,154.6,149.9,167.5,154.1,145.6,151.6,144.4,5,norm,1.682,1.644,-1.128,-1.48,-5.044,-5.027,-1.287,-1.285,-1.179,-1.562,1.976,-1.388,159.5,147.6,-5.143,-8.191,145.2,-1.742,7.963,5.252,-4.77,-7.7,22,5.245,4.977,4.881,5.133,1.368,1.747,1.598,1.426,22,4.83,5.14,-30,305.028248454,norm,0,82,82,82,390.35,390.358,390.375799544,390.376,390.379,390.383,up,1,1.41023647838,8.58976352162,001,023,800_600,Intel(R) Core(TM) i5-4200U CPU @ 1.60GHz,orientation_search,GRVLAPTOP8,Intel(R) HD Graphics 4400,2018_jul_31_1858,testMonitor,
189.4,187.9,192.9,189.8,36,10,188.8,187.0,187.8,194.0,8.002,7.571,7.86,8.334,7.924,8.401,8.099,4.885,-4.636,-7.718,1.581,-1.744,7.63,4.307,-5.101,-8.259,180.3,184.1,-7.726,180.9,187.3,193.7,200.2,191.1,36,200.3,3,5,probe,5,0,64,norm,36,-4.358,down,norm,190.302183063,189.0,195.6,1.176,191.6,0,185.9,187.4,185.1,10,6,7.626,4.611,1.215,-1.794,-4.882,-8.261,191.5,1,126.3,-7.775,-7.719,-30,-7.603,-8.432,-4.532,-5.024,-4.351,-4.627,5.112,8.129,18,-1.774,1.48,4.309,8.151,-7.863,-7.603,-2.057,1.16,191.0,196.0,184.2,188.6,192.9,180.7,189.1,181.1,194.7,186.5,0,norm,1.465,2.052,-1.193,-1.444,-4.66,-5.081,-1.931,-1.752,-2.093,-1.362,1.238,-1.541,183.2,,-5.243,-7.694,189.0,-1.811,8.354,4.899,-4.561,-7.682,23,4.543,4.697,5.247,5.149,1.578,1.227,1.393,1.819,23,4.55,4.612,-30,151.694802792,norm,0,83,83,83,391.813,391.823,391.839563831,391.84,391.843,391.846,down,1,1.21064978228,8.78935021772,001,023,800_600,Intel(R) Core(TM) i5-4200U CPU @ 1.60GHz,orientation_search,GRVLAPTOP8,Intel(R) HD Graphics 4400,2018_jul_31_1858,testMonitor,
223.3,221.0,221.4,221.3,36,0,228.6,225.0,210.6,217.3,8.444,8.318,8.338,7.531,7.958,8.002,8.298,4.823,-4.63,-7.713,1.86,-1.831,8.436,4.466,-5.091,-8.231,234.9,224.1,-8.361,236.2,238.5,228.4,226.1,231.6,36,225.2,0,5,prime,10,0,64,norm,36,-5.163,down,norm,223.260634432,211.5,234.5,1.794,230.6,0,210.8,228.8,243.3,10,5,7.637,4.616,1.164,-1.296,-4.856,-7.808,219.0,5,287.3,-7.535,-8.355,0,-8.195,-8.036,-4.426,-5.026,-5.206,-4.454,4.713,8.437,0,-1.329,1.676,5.292,8.408,-8.149,-8.487,-1.482,1.179,232.5,227.0,229.5,203.3,238.3,,230.7,217.9,226.4,225.6,0,norm,1.478,1.645,-1.129,-1.725,-5.121,-5.286,-1.576,-1.469,-1.287,-1.34,1.761,-1.935,220.2,221.0,-4.939,-8.222,232.2,-1.325,7.729,4.975,-5.279,-7.949,24,4.416,4.975,4.858,4.397,1.192,1.324,1.256,1.204,24,4.607,4.553,10,151.694802792,norm,0,84,84,84,393.077,393.086,393.103662438,393.104,393.107,393.11,down,1,0.645779097051,9.35422090295,001,023,800_600,Intel(R) Core(TM) i5-4200U CPU @ 1.60GHz,orientation_search,GRVLAPTOP8,Intel(R) HD Graphics 4400,2018_jul_31_1858,testMonitor,
216.8,220.6,233.6,238.0,36,0,232.0,227.5,229.3,225.7,7.674,7.644,7.719,8.14,8.219,8.084,7.83,5.217,-4.715,-7.856,1.334,-1.179,7.942,4.483,-4.615,-8.409,218.7,222.4,-8.158,224.7,243.3,232.8,235.5,225.3,36,220.3,2,5,prime,10,0,92,norm,36,-5.274,up,norm,223.260634432,214.7,223.2,1.833,220.1,3,235.3,223.8,219.7,10,5,8.314,4.425,1.398,-1.654,-4.345,-8.186,217.1,5,315.3,-7.533,-8.126,0,-7.571,-8.171,-4.608,-4.623,-4.432,-4.753,4.395,7.648,15,-1.198,1.804,5.265,7.62,-8.233,-7.715,-1.749,1.304,229.9,209.6,203.3,224.9,219.3,239.2,220.8,219.8,216.9,233.5,1,norm,1.824,1.713,-2.097,-1.132,-4.414,-5.126,-1.936,-2.05,-1.761,-2.031,1.164,-1.661,212.4,223.7,-4.483,-7.517,,-1.556,7.801,4.799,-4.917,-7.776,24,4.688,5.187,4.852,4.881,1.273,1.373,1.998,1.602,24,4.367,4.371,10,151.694802792,norm,0,85,85,85,393.775,393.79,393.796222254,393.797,393.802,393.806,up,1,0.931895441519,9.06810455848,001,023,800_600,Intel(R) Core(TM) i5-4200U CPU @ 1.60GHz,orientation_search,GRVLAPTOP8,Intel(R) HD Graphics 4400,2018_jul_31_1858,testMonitor,
224.2,214.2,236.8,226.9,36,0,211.0,228.8,222.4,243.3,7.741,7.88,7.538,7.844,8.469,7.854,7.512,4.817,-5.03,-7.608,1.893,-1.331,8.374,5.024,-4.524,-7.74,224.0,221.0,-7.6,213.6,203.3,204.5,206.4,222.9,36,221.5,1,5,prime,10,0,110,norm,36,-5.143,up,norm,223.260634432,220.2,222.4,1.406,222.6,5,,225.8,226.3,10,5,8.038,4.937,2.099,-1.465,-4.403,-8.469,211.6,5,333.3,-7.956,-7.858,0,-8.481,-8.24,-4.319,-5.2,-4.615,-4.495,4.875,7.925,11,-1.243,1.266,5.106,8.06,-7.855,-7.942,-1.626,1.651,237.3,234.8,225.7,208.4,225.2,230.5,241.3,233.1,217.3,218.1,2,norm,1.244,1.942,-1.261,-1.165,-4.786,-4.455,-2.046,-1.823,-1.857,-1.675,2.089,-1.876,231.9,224.6,-4.62,-7.628,234.8,-1.538,7.55,4.373,-4.863,-8.246,24,4.693,5.049,4.975,4.897,1.965,2.025,1.31,2.025,24,5.191,4.388,10,151.694802792,norm,0,86,86,86,394.758,394.77,394.773290179,394.774,394.777,394.782,up,1,1.51843222967,8.48156777033,001,023,800_600,Intel(R) Core(TM) i5-4200U CPU @ 1.60GHz,orientation_search,GRVLAPTOP8,Intel(R) HD Graphics 4400,2018_jul_31_1858,testMonitor,
227.7,208.4,227.4,223.5,36,0,218.6,216.9,237.5,216.0,7.871,8.268,7.968,7.957,7.94,8.333,7.597,4.639,-5.17,-7.7,1.204,-1.106,8.349,4.374,-5.04,-8.334,214.5,215.0,-8.245,215.5,225.8,230.6,225.1,243.3,36,222.7,1,5,prime,10,0,91,norm,36,-4.424,down,norm,223.260634432,213.6,225.1,1.483,220.9,1,214.9,233.0,214.4,10,5,8.012,5.274,1.12,-1.289,-4.33,-7.79,239.2,5,314.3,-7.944,-7.731,0,-7.901,-7.87,-4.445,-4.791,-5.053,-4.416,4.56,7.894,7,-1.58,1.58,4.631,8.279,-8.492,-8.403,-1.909,1.278,230.1,203.3,210.7,222.9,220.0,237.5,,217.3,231.0,238.4,3,norm,1.218,1.791,-1.615,-1.438,-4.733,-4.525,-1.452,-1.119,-1.682,-1.138,1.445,-1.983,234.4,222.4,-4.397,-8.196,236.1,-1.961,7.83,4.401,-4.881,-7.797,24,4.45,4.792,4.522,5.289,1.991,2.017,1.742,1.487,24,5.107,4.652,10,151.694802792,norm,0,87,87,87,396.321,396.332,396.335110841,396.335,396.339,396.343,down,1,0.73950251811,9.26049748189,001,023,800_600,Intel(R) Core(TM) i5-4200U CPU @ 1.60GHz,orientation_search,GRVLAPTOP8,Intel(R) HD Graphics 4400,2018_jul_31_1858,testMonitor,
223.0,216.4,218.0,223.7,36,0,207.6,215.4,229.6,220.1,7.701,8.429,7.792,7.911,7.822,8.194,8.483,4.996,-5.139,-8.466,2.011,-1.735,8.198,5.01,-4.385,-7.656,224.6,228.7,-7.837,214.7,224.4,223.9,215.2,235.6,36,228.2,1,5,prime,10,0,85,norm,36,-4.632,down,norm,223.260634432,239.7,228.9,2.064,236.5,1,203.3,217.6,234.7,10,5,8.168,4.951,1.25,-1.731,-4.573,-7.525,228.5,5,308.3,-8.231,-8.354,0,-7.909,-8.254,-4.752,-5.053,-4.664,-5.0,5.054,8.442,7,-1.41,1.921,4.526,8.303,-8.394,-8.412,-1.975,1.578,215.6,225.7,221.8,231.1,243.3,222.4,,222.7,228.7,223.3,4,norm,1.362,1.107,-1.517,-1.488,-5.123,-4.68,-1.39,-2.02,-1.424,-1.572,1.862,-1.95,221.6,210.8,-4.621,-8.44,224.6,-1.239,7.834,4.584,-5.242,-7.555,24,5.2,5.223,4.321,4.971,1.401,1.864,1.761,1.507,24,4.789,4.55,10,151.694802792,norm,0,88,88,88,397.102,397.113,397.117203028,397.118,397.121,397.125,down,1,0.605566974242,9.39443302576,001,023,800_600,Intel(R) Core(TM) i5-4200U CPU @ 1.60GHz,orientation_search,GRVLAPTOP8,Intel(R) HD Graphics 4400,2018_jul_31_1858,testMonitor,
316.7,330.3,329.0,326.2,36,-20,336.7,326.8,329.0,324.5,7.761,7.873,8.047,8.161,8.061,7.722,8.432,4.945,-4.827,-8.17,1.833,-2.03,7.723,4.608,-4.306,-8.247,330.1,323.3,-8.433,325.6,327.8,321.5,334.8,334.3,36,325.8,1,5,probe,5,0,101,norm,36,-4.316,up,norm,326.71163176,320.8,329.4,1.991,327.3,5,,322.2,330.2,10,5,8.173,5.092,1.365,-1.502,-4.796,-8.311,321.8,2,225.7,-7.9,-8.446,0,-8.433,-8.169,-5.257,-4.868,-4.86,-5.217,4.314,7.641,11,-1.304,1.887,5.13,8.079,-8.483,-8.301,-1.803,1.485,330.0,325.3,327.6,316.9,335.1,325.7,327.4,327.0,331.1,325.3,0,norm,1.671,1.436,-1.985,-1.76,-4.541,-4.465,-1.103,-1.317,-1.157,-1.284,1.142,-2.097,330.0,324.9,-5.27,-7.883,324.8,-1.384,7.794,4.461,-4.403,-7.863,25,4.329,5.131,4.518,4.401,1.872,1.31,1.235,1.219,25,4.701,4.309,0,223.260634432,norm,0,89,89,89,397.751,397.764,397.766721137,397.767,397.77,397.774,up,1,0.838921250925,9.16107874908,001,023,800_600,Intel(R) Core(TM) i5-4200U CPU @ 1.60GHz,orientation_search,GRVLAPTOP8,Intel(R) HD Graphics 4400,2018_jul_31_1858,testMonitor,
329.2,333.1,324.9,325.5,36,-20,322.8,321.2,332.4,327.7,8.372,7.942,7.83,7.804,7.937,8.343,7.686,5.002,-4.939,-8.448,1.382,-2.086,7.784,5.155,-4.359,-7.533,322.0,325.2,-7.89,321.3,328.0,323.3,328.3,326.7,36,327.6,1,5,probe,5,0,100,norm,36,-4.825,up,norm,325.71163176,320.8,333.5,1.127,318.4,4,330.4,328.1,328.3,10,5,8.229,5.031,2.091,-1.38,-4.549,-7.903,,2,225.7,-7.891,-7.758,0,-7.711,-7.966,-5.066,-4.516,-4.55,-4.8,4.701,8.255,10,-1.661,1.662,5.064,8.245,-7.855,-7.757,-1.737,1.663,322.8,315.7,321.9,324.3,331.1,329.1,333.3,327.0,335.7,322.3,1,norm,1.85,1.343,-1.265,-1.5,-4.611,-5.248,-1.939,-1.172,-1.9,-1.761,1.287,-1.886,333.8,319.9,-4.848,-7.76,329.5,-2.074,7.632,4.859,-5.048,-8.419,25,4.68,5.033,4.527,5.21,1.116,1.735,1.24,1.966,25,4.388,4.977,0,223.260634432,norm,0,90,90,90,398.633,398.641,398.659232224,398.66,398.662,398.666,up,1,1.01121926883,8.98878073117,001,023,800_600,Intel(R) Core(TM) i5-4200U CPU @ 1.60GHz,orientation_search,GRVLAPTOP8,Intel(R) HD Graphics 4400,2018_jul_31_1858,testMonitor,
151.7,151.6,158.9,146.9,36,-20,160.8,148.4,153.4,162.2,8.393,8.17,8.361,7.742,7.708,8.095,7.53,4.613,-4.476,-8.104,1.778,-1.624,7.564,4.301,-4.349,-8.352,154.5,154.2,-8.16,147.6,156.5,151.6,144.4,155.2,36,150.4,2,5,prime,10,0,72,norm,36,-5.109,down,norm,152.453161694,145.1,172.1,1.36,151.6,1,144.2,,165.7,10,5,8.276,5.097,2.008,-1.54,-4.804,-8.257,157.4,5,224.5,-7.663,-8.237,-20,-7.863,-8.447,-4.67,-4.406,-4.793,-4.987,4.664,7.814,13,-1.744,1.448,5.213,7.788,-7.923,-7.971,-1.854,1.325,172.5,144.7,165.9,158.5,132.5,147.1,145.9,135.0,144.2,139.1,0,norm,1.455,2.084,-1.433,-1.209,-4.503,-4.309,-1.837,-1.668,-1.723,-1.289,1.855,-1.476,165.9,167.5,-5.162,-7.537,137.5,-1.479,7.595,4.308,-5.106,-7.889,26,4.474,4.314,4.855,5.271,1.339,1.775,1.637,1.533,26,5.06,4.347,-20,223.260634432,norm,0,91,91,91,399.698,399.712,399.715847541,399.716,399.719,399.722,down,1,0.786827198626,9.21317280137,001,023,800_600,Intel(R) Core(TM) i5-4200U CPU @ 1.60GHz,orientation_search,GRVLAPTOP8,Intel(R) HD Graphics 4400,2018_jul_31_1858,testMonitor,
169.3,154.5,150.9,155.5,36,-20,151.8,142.4,153.6,149.3,8.209,8.075,7.575,7.949,7.569,7.645,8.22,4.895,-4.327,-8.126,2.038,-1.308,7.751,5.036,-4.442,-7.785,145.9,161.2,-7.772,165.4,141.3,140.1,137.6,152.8,36,150.9,0,5,prime,10,0,113,norm,36,-4.558,up,norm,152.453161694,146.8,157.4,1.688,163.5,3,146.0,144.7,156.8,10,5,8.282,4.854,2.019,-1.589,-4.764,-8.244,150.4,5,265.5,-7.703,-7.737,-20,-7.899,-7.577,-5.029,-5.14,-4.562,-5.095,4.495,7.974,3,-1.341,1.585,5.177,8.383,-8.317,-8.187,-2.081,2.041,172.5,156.2,,154.5,132.5,143.8,152.9,156.9,140.3,169.9,1,norm,1.446,1.124,-2.012,-1.307,-4.761,-4.744,-1.615,-1.239,-1.105,-1.207,1.45,-1.12,164.5,143.4,-4.991,-8.04,159.7,-1.582,7.711,5.033,-5.243,-7.704,26,4.519,4.608,5.249,4.814,1.826,1.111,1.796,1.831,26,5.176,4.708,-20,223.260634432,norm,0,92,92,92,400.529,400.543,400.549020824,400.55,400.556,400.559,up,1,0.864567780145,9.13543221985,001,023,800_600,Intel(R) Core(TM) i5-4200U CPU @ 1.60GHz,orientation_search,GRVLAPTOP8,Intel(R) HD Graphics 4400,2018_jul_31_1858,testMonitor,
144.6,139.8,146.2,153.6,36,-20,,148.9,144.6,155.4,7.726,8.037,7.79,7.602,8.26,8.429,7.955,5.112,-4.799,-7.545,2.088,-1.519,8.321,4.648,-4.718,-7.655,171.5,154.4,-7.632,168.9,148.6,151.6,158.1,166.5,36,154.0,4,5,prime,10,0,101,norm,36,-4.821,down,norm,152.453161694,155.2,168.2,1.166,144.6,0,160.4,153.4,172.5,10,5,8.497,4.34,1.592,-1.81,-4.955,-8.345,144.9,5,253.5,-7.842,-7.911,-20,-8.238,-8.086,-4.868,-4.358,-4.341,-4.402,5.202,7.637,24,-1.513,1.947,4.977,7.973,-7.618,-8.468,-1.673,1.747,161.0,167.4,147.5,146.3,147.1,153.8,149.4,161.9,148.2,159.5,2,norm,1.559,1.244,-1.571,-1.988,-4.811,-4.951,-1.133,-1.431,-1.215,-1.372,1.53,-1.971,132.5,151.7,-4.71,-7.735,159.1,-1.519,7.912,4.506,-4.368,-7.951,26,4.604,5.204,4.887,4.986,1.659,1.552,1.784,1.543,26,4.302,4.416,-20,223.260634432,norm,0,93,93,93,401.444,401.458,401.462119907,401.462,401.465,401.469,down,1,0.836719521849,9.16328047815,001,023,800_600,Intel(R) Core(TM) i5-4200U CPU @ 1.60GHz,orientation_search,GRVLAPTOP8,Intel(R) HD Graphics 4400,2018_jul_31_1858,testMonitor,
160.9,168.2,161.3,144.3,36,-20,138.8,143.8,142.9,146.7,7.512,8.402,7.523,7.723,7.601,8.405,7.901,4.542,-5.276,-8.289,1.695,-1.508,7.981,4.937,-4.456,-8.273,138.4,152.9,-7.663,157.4,161.3,138.5,149.9,157.6,36,147.1,1,5,prime,10,0,72,norm,36,-4.331,up,norm,152.453161694,155.2,151.8,1.385,165.9,5,,172.5,162.1,10,5,8.26,4.84,1.494,-1.826,-4.531,-8.199,142.6,5,224.5,-7.503,-7.774,-20,-7.862,-7.798,-5.056,-4.987,-4.953,-4.533,4.398,8.064,11,-1.297,1.52,4.549,8.188,-7.596,-8.36,-1.965,1.886,132.5,153.8,158.5,156.5,154.6,163.2,148.4,155.7,153.6,150.4,3,norm,1.738,2.091,-1.687,-1.24,-4.786,-4.58,-1.887,-1.574,-1.604,-1.484,2.084,-1.217,147.6,145.2,-4.92,-8.193,159.2,-1.304,7.742,4.914,-4.511,-7.978,26,4.883,4.36,4.923,4.677,1.763,1.548,1.691,1.612,26,5.18,5.098,-20,223.260634432,norm,0,94,94,94,402.322,402.328,402.335669528,402.336,402.339,402.342,up,1,0.745170163224,9.25482983678,001,023,800_600,Intel(R) Core(TM) i5-4200U CPU @ 1.60GHz,orientation_search,GRVLAPTOP8,Intel(R) HD Graphics 4400,2018_jul_31_1858,testMonitor,
146.4,158.1,141.5,163.0,36,-20,167.1,144.9,172.5,155.3,8.225,8.0,8.434,7.768,8.479,7.6,7.704,4.783,-4.954,-8.126,1.737,-2.037,7.655,4.639,-4.749,-8.206,155.2,147.7,-8.061,170.8,140.1,160.7,154.0,152.0,36,135.6,3,5,prime,10,0,73,norm,36,-4.339,down,norm,152.453161694,153.0,163.3,1.128,167.9,0,160.3,156.3,160.8,10,5,8.255,4.974,1.709,-1.329,-5.293,-7.875,148.2,5,225.5,-7.688,-7.87,-20,-8.448,-7.677,-4.597,-4.763,-5.11,-4.589,4.881,8.256,18,-1.64,1.215,4.775,8.475,-7.889,-8.057,-1.841,1.53,159.2,143.1,140.6,149.9,141.8,150.2,160.8,162.0,132.5,140.1,4,norm,1.818,1.149,-1.357,-1.659,-5.136,-4.596,-1.299,-1.475,-1.907,-2.01,1.346,-1.39,162.1,,-4.975,-8.07,147.1,-1.464,8.229,4.635,-5.01,-7.786,26,4.304,4.884,4.703,4.651,1.844,1.89,1.236,1.902,26,4.592,4.514,-20,223.260634432,norm,0,95,95,95,403.103,403.108,403.117378398,403.118,403.12,403.123,down,1,0.761872335413,9.23812766459,001,023,800_600,Intel(R) Core(TM) i5-4200U CPU @ 1.60GHz,orientation_search,GRVLAPTOP8,Intel(R) HD Graphics 4400,2018_jul_31_1858,testMonitor,
