d_ori_22,d_ori_23,d_ori_20,d_ori_21,set_size,ctpd,d_ori_24,d_ori_25,d_ori_28,d_ori_29,stim_pos_x_30,stim_pos_x_31,stim_pos_x_32,stim_pos_x_33,stim_pos_x_34,stim_pos_x_35,stim_pos_y_11,stim_pos_y_10,stim_pos_y_13,stim_pos_y_12,stim_pos_y_15,stim_pos_y_14,stim_pos_y_17,stim_pos_y_16,stim_pos_y_19,stim_pos_y_18,d_ori_35,d_ori_34,stim_pos_x_3,d_ori_31,d_ori_30,d_ori_33,d_ori_32,d_ori_26,test_set_size,d_ori_27,targetCol,dsd_test,seq_type,dsd,blockRepN,targetDist,dtype_test,prime_set_size,stim_pos_y_25,correctResponse,dtype,distrMean,d_ori_17,d_ori_16,stim_pos_y_3,d_ori_14,targetRow,d_ori_11,d_ori_13,d_ori_12,dsd_prime,streak_length_prime,stim_pos_y_35,stim_pos_y_34,stim_pos_y_33,stim_pos_y_32,stim_pos_y_31,stim_pos_y_30,d_ori_10,nextProbe,targetOri,stim_pos_x_1,stim_pos_x_2,ctpd_prime,stim_pos_x_4,stim_pos_x_5,stim_pos_x_6,stim_pos_x_7,stim_pos_x_8,stim_pos_x_9,stim_pos_y_28,stim_pos_y_29,targetPos,stim_pos_y_20,stim_pos_y_21,stim_pos_y_22,stim_pos_y_23,stim_pos_y_24,stim_pos_x_0,stim_pos_y_26,stim_pos_y_27,d_ori_9,d_ori_8,d_ori_3,d_ori_2,d_ori_1,d_ori_0,d_ori_7,d_ori_6,d_ori_5,d_ori_4,trialN,dtype_prime,stim_pos_x_18,stim_pos_x_19,stim_pos_x_12,stim_pos_x_13,stim_pos_x_10,stim_pos_x_11,stim_pos_x_16,stim_pos_x_17,stim_pos_x_14,stim_pos_x_15,stim_pos_y_9,stim_pos_y_8,d_ori_19,d_ori_18,stim_pos_y_1,stim_pos_y_0,d_ori_15,stim_pos_y_2,stim_pos_y_5,stim_pos_y_4,stim_pos_y_7,stim_pos_y_6,totBlockN,stim_pos_x_27,stim_pos_x_26,stim_pos_x_25,stim_pos_x_24,stim_pos_x_23,stim_pos_x_22,stim_pos_x_21,stim_pos_x_20,blockN,stim_pos_x_29,stim_pos_x_28,prevDistrCTPD,prevDistrMean,prevDistrType,trials.thisRepN,trials.thisTrialN,trials.thisN,trials.thisIndex,timeStart,timeBeforeDraw,timeDraw,timeAfterSaving,timeAfterWritingToTemp,timeAfterPreparingNext,answer,correct,rt,trialScore,session,participant,resolution,cpu_info,expName,pc_name,graphic_card,date,monitorName,
13.3,14.0,12.6,35.2,36,-10,19.7,14.1,15.6,13.7,8.112,8.28,8.473,7.914,7.554,8.292,8.486,4.39,-5.213,-7.817,1.466,-1.815,8.058,4.41,-4.667,-7.743,23.5,2.4,-7.791,,3.8,16.0,-3.0,16.5,36,5.9,5,5,prime,10,0,94,norm,36,-5.263,down,norm,17.0114682653,8.1,31.3,1.195,-1.0,1,10.4,17.3,37.0,10,2,8.25,4.665,1.198,-1.942,-4.978,-7.89,25.8,2,111.0,-8.064,-8.405,-10,-8.146,-7.941,-5.055,-5.154,-4.3,-5.101,4.594,8.117,31,-1.172,1.199,4.952,8.147,-7.992,-8.045,-1.661,1.525,25.7,16.9,26.5,16.4,11.2,9.4,12.9,30.2,12.8,17.1,0,norm,1.11,1.659,-1.143,-1.692,-5.004,-4.471,-1.884,-1.667,-1.561,-1.288,1.204,-1.829,15.4,18.5,-4.905,-7.701,18.7,-1.16,7.525,4.789,-4.509,-8.459,0,4.964,4.609,4.369,5.284,1.955,1.116,1.144,1.284,0,5.251,4.802,,,,0,0,0,0,291.819,291.831,291.838017327,291.838,291.839,291.843,down,1,2.26061247352,7.73938752648,001,006,800_600,Intel(R) Core(TM) i7-2670QM CPU @ 2.20GHz,orientation_search,GRVLAPTOP3,Intel(R) HD Graphics Family,2018_jun_07_1017,testMonitor,
16.1,8.5,9.1,8.8,36,-10,23.2,16.7,-3.0,,8.276,7.884,7.701,8.444,7.983,8.123,7.883,4.593,-5.086,-7.56,1.864,-1.417,8.133,4.839,-4.462,-8.428,21.4,25.5,-7.878,12.0,14.3,9.0,15.4,13.2,36,18.6,4,5,prime,10,0,90,norm,36,-4.754,up,norm,17.0114682653,25.1,21.0,1.827,14.1,5,21.4,23.3,14.2,10,2,7.71,4.439,1.3,-1.121,-4.367,-7.627,5.5,2,107.0,-8.417,-8.275,-10,-8.041,-8.134,-5.06,-4.617,-4.663,-4.878,5.293,8.494,29,-1.727,1.516,5.145,7.846,-8.067,-8.425,-1.216,1.237,37.0,22.4,3.8,27.5,23.4,27.2,5.5,16.9,0.0,22.7,1,norm,1.678,1.34,-1.595,-1.393,-4.808,-4.733,-1.591,-1.671,-1.844,-1.749,2.081,-1.593,15.6,23.2,-4.606,-7.752,20.5,-1.663,7.736,4.384,-4.352,-8.385,0,5.237,5.146,4.573,4.475,1.786,1.95,1.914,1.136,0,4.434,4.674,,,,0,1,1,1,294.114,294.119,294.121548176,294.122,294.124,294.128,up,1,2.63818291087,7.36181708913,001,006,800_600,Intel(R) Core(TM) i7-2670QM CPU @ 2.20GHz,orientation_search,GRVLAPTOP3,Intel(R) HD Graphics Family,2018_jun_07_1017,testMonitor,
74.6,68.9,73.1,71.7,36,10,82.3,66.9,68.5,75.1,7.752,8.151,7.87,8.201,7.955,8.222,7.562,4.767,-5.002,-8.251,1.403,-1.798,8.465,4.972,-4.434,-8.065,74.6,72.0,-7.708,62.3,79.0,72.2,70.2,76.0,36,74.8,1,5,probe,5,0,69,norm,36,-4.364,up,norm,72.3115816756,78.9,75.2,1.545,74.5,3,75.5,68.4,77.3,10,2,7.577,5.127,2.085,-1.113,-4.496,-7.665,64.2,1,3.3,-8.301,-8.206,-10,-8.18,-8.258,-4.477,-4.982,-4.944,-4.781,4.889,8.048,9,-1.334,1.59,4.814,7.853,-7.754,-8.08,-1.877,1.473,,71.3,76.6,71.9,73.5,72.5,73.8,76.0,69.8,71.5,0,norm,1.871,1.867,-2.019,-1.92,-4.996,-4.554,-1.692,-1.814,-1.626,-2.013,1.153,-2.073,69.6,69.8,-4.488,-7.759,71.3,-1.208,8.415,4.98,-5.251,-8.406,1,5.061,4.439,5.236,5.251,1.837,1.416,1.408,1.58,1,5.262,4.661,-10,17.0114682653,norm,0,2,2,2,296.774,296.779,296.781113633,296.782,296.785,296.788,up,1,2.93815867567,7.06184132433,001,006,800_600,Intel(R) Core(TM) i7-2670QM CPU @ 2.20GHz,orientation_search,GRVLAPTOP3,Intel(R) HD Graphics Family,2018_jun_07_1017,testMonitor,
97.8,106.9,113.2,96.7,36,60,102.2,125.9,89.2,,8.323,8.223,8.489,8.13,7.819,7.841,8.257,5.22,-5.128,-7.514,1.131,-1.579,8.34,4.815,-4.894,-8.192,112.6,98.5,-7.514,108.8,101.9,96.4,109.5,109.3,36,108.4,4,5,prime,10,0,84,norm,36,-4.965,up,norm,105.887023983,105.4,85.9,2.082,107.6,5,116.7,94.5,100.1,10,5,7.698,4.901,1.871,-1.278,-4.8,-8.166,100.3,5,189.9,-7.686,-8.207,60,-8.14,-8.015,-5.112,-4.534,-4.716,-5.28,4.928,7.802,29,-1.708,1.462,4.563,8.45,-8.123,-8.225,-1.265,1.514,104.3,110.0,95.5,99.7,115.3,107.5,110.6,90.9,90.7,109.4,0,norm,1.876,1.398,-1.938,-1.681,-5.144,-4.371,-1.676,-1.663,-1.715,-1.322,1.352,-1.971,96.6,119.8,-4.314,-8.107,117.5,-1.511,8.006,4.375,-4.728,-7.568,2,5.037,4.323,5.261,5.196,1.705,1.939,1.313,1.198,2,4.375,4.917,10,17.0114682653,norm,0,3,3,3,299.735,299.742,299.743841854,299.744,299.747,299.751,up,1,2.92716831511,7.07283168489,001,006,800_600,Intel(R) Core(TM) i7-2670QM CPU @ 2.20GHz,orientation_search,GRVLAPTOP3,Intel(R) HD Graphics Family,2018_jun_07_1017,testMonitor,
122.2,100.0,107.2,92.0,36,60,112.2,125.5,100.6,,8.226,8.07,7.852,7.978,8.213,7.938,8.232,4.559,-4.501,-7.897,1.789,-1.816,7.892,4.682,-4.747,-8.065,96.6,112.8,-7.678,109.2,118.0,116.9,117.4,107.5,36,94.9,4,5,prime,10,0,109,norm,36,-5.011,up,norm,105.887023983,85.9,100.8,1.396,100.9,5,108.9,110.7,112.5,10,5,8.24,4.788,1.185,-1.714,-5.202,-8.198,116.0,5,214.9,-8.056,-8.137,60,-7.854,-8.194,-4.72,-4.424,-4.417,-5.064,4.951,7.774,29,-1.818,1.747,4.695,7.679,-7.81,-8.128,-1.905,1.254,95.9,99.3,109.5,100.3,108.7,104.3,125.9,106.9,115.1,112.4,1,norm,1.824,1.556,-1.872,-1.512,-4.901,-5.193,-1.551,-1.44,-1.959,-1.91,1.369,-1.177,117.7,105.5,-4.328,-8.058,109.3,-1.128,8.173,4.56,-5.278,-7.638,2,4.461,4.91,4.913,4.56,1.895,2.024,1.375,1.768,2,4.935,5.022,10,17.0114682653,norm,0,4,4,4,302.687,302.692,302.694167628,302.695,302.698,302.702,up,1,2.21891952092,7.78108047908,001,006,800_600,Intel(R) Core(TM) i7-2670QM CPU @ 2.20GHz,orientation_search,GRVLAPTOP3,Intel(R) HD Graphics Family,2018_jun_07_1017,testMonitor,
95.6,99.1,116.1,97.3,36,60,91.0,98.9,125.9,119.9,7.522,8.443,7.946,7.995,7.657,8.075,7.926,4.872,-4.307,-7.674,1.855,-1.246,7.851,4.563,-5.299,-8.168,99.9,105.6,-8.317,105.2,105.7,110.6,103.6,109.5,36,99.3,0,5,prime,10,0,87,norm,36,-5.062,up,norm,105.887023983,99.8,101.1,1.467,103.9,4,98.5,97.4,99.6,10,5,8.323,5.044,1.409,-1.512,-4.489,-8.381,105.7,5,192.9,-8.351,-8.187,60,-7.902,-8.267,-4.442,-5.041,-4.369,-5.255,5.22,7.961,4,-1.748,1.763,4.329,8.274,-8.206,-8.388,-1.564,1.4,117.1,103.9,94.5,112.2,106.7,85.9,108.0,109.4,107.6,,2,norm,1.992,1.501,-1.895,-1.806,-4.973,-4.774,-1.74,-2.07,-1.965,-1.304,1.205,-1.146,96.9,102.0,-4.663,-7.829,117.9,-1.226,8.211,5.121,-5.088,-7.696,2,4.451,4.744,4.441,4.932,1.698,1.895,1.35,1.568,2,5.197,4.757,10,17.0114682653,norm,0,5,5,5,304.928,304.934,304.935973305,304.936,304.939,304.943,up,1,1.80444433445,8.19555566555,001,006,800_600,Intel(R) Core(TM) i7-2670QM CPU @ 2.20GHz,orientation_search,GRVLAPTOP3,Intel(R) HD Graphics Family,2018_jun_07_1017,testMonitor,
101.2,124.5,122.1,119.7,36,60,120.0,105.9,107.4,114.6,7.596,7.677,7.894,8.242,8.215,8.057,7.991,4.896,-5.088,-7.837,1.845,-1.451,7.691,4.643,-4.968,-7.859,111.2,113.1,-7.729,125.9,116.1,103.1,111.0,108.5,36,113.6,1,5,prime,10,0,102,norm,36,-4.916,down,norm,105.887023983,104.4,92.9,1.293,120.1,1,94.5,116.1,99.3,10,5,7.609,4.329,1.127,-1.494,-4.966,-7.513,109.4,5,207.9,-7.777,-8.283,60,-8.21,-8.126,-4.592,-5.022,-4.658,-4.309,5.004,7.801,7,-1.447,1.975,4.821,7.544,-7.969,-7.685,-1.867,1.436,85.9,96.0,104.6,107.0,101.5,117.3,,105.4,114.8,92.5,3,norm,1.904,2.072,-1.96,-1.602,-5.26,-4.568,-1.727,-1.631,-1.811,-1.765,1.505,-1.511,97.0,114.9,-4.48,-7.886,114.0,-1.878,8.495,4.321,-4.895,-7.766,2,4.899,4.859,4.797,4.86,1.721,1.599,2.088,2.081,2,5.257,4.99,10,17.0114682653,norm,0,6,6,6,306.756,306.762,306.763557821,306.764,306.767,306.77,down,1,2.03943567001,7.96056432999,001,006,800_600,Intel(R) Core(TM) i7-2670QM CPU @ 2.20GHz,orientation_search,GRVLAPTOP3,Intel(R) HD Graphics Family,2018_jun_07_1017,testMonitor,
93.6,99.8,115.8,96.2,36,60,106.3,97.5,119.3,101.3,8.153,8.123,7.567,7.544,7.668,7.958,8.356,4.654,-4.673,-8.167,1.956,-1.366,8.063,4.826,-4.941,-7.634,125.9,100.3,-8.136,,97.0,99.7,109.9,109.1,36,92.4,5,5,prime,10,0,60,norm,36,-4.652,down,norm,105.887023983,96.1,104.4,1.889,94.0,1,108.1,109.8,107.3,10,5,7.925,5.014,1.479,-1.207,-5.098,-7.709,103.3,5,165.9,-8.262,-8.037,60,-7.871,-8.279,-4.955,-4.758,-4.977,-4.864,5.143,8.447,31,-1.236,1.199,4.747,7.751,-8.055,-7.574,-1.859,1.872,110.0,120.9,114.1,109.5,114.2,125.6,99.5,110.1,87.6,101.5,4,norm,1.701,2.075,-2.002,-1.883,-4.689,-4.334,-1.77,-1.61,-1.764,-1.251,1.826,-1.298,85.9,116.4,-4.821,-8.082,124.1,-1.504,8.084,4.974,-4.802,-7.741,2,4.318,4.312,4.527,4.644,1.487,1.44,1.326,1.525,2,5.063,5.017,10,17.0114682653,norm,0,7,7,7,308.818,308.822,308.82413135,308.825,308.828,308.831,down,1,2.66213560226,7.33786439774,001,006,800_600,Intel(R) Core(TM) i7-2670QM CPU @ 2.20GHz,orientation_search,GRVLAPTOP3,Intel(R) HD Graphics Family,2018_jun_07_1017,testMonitor,
263.7,267.5,266.4,270.8,36,10,263.0,262.8,265.8,265.1,8.12,8.446,8.175,7.798,8.301,8.495,8.326,4.945,-4.653,-8.156,1.938,-1.994,8.366,4.972,-4.54,-8.132,270.7,255.5,-8.432,270.4,263.6,262.4,265.9,271.6,36,262.0,1,5,probe,5,0,101,norm,36,-4.848,down,norm,265.522736766,264.5,260.1,1.608,263.4,1,270.7,270.7,267.6,10,5,8.495,5.293,1.875,-1.339,-4.489,-7.68,261.9,1,164.5,-7.609,-8.166,60,-7.715,-8.381,-4.576,-5.049,-5.198,-5.258,4.753,7.929,7,-1.47,1.156,4.51,7.67,-7.896,-7.665,-1.831,1.186,268.4,275.5,262.1,270.1,268.5,267.5,,262.3,260.5,264.8,0,norm,1.972,1.108,-1.462,-1.589,-4.916,-4.7,-1.548,-1.54,-1.807,-1.362,1.708,-1.669,267.8,267.3,-4.969,-8.315,270.2,-1.254,8.296,4.778,-4.947,-7.521,3,5.066,4.86,4.431,4.812,2.094,1.568,1.492,1.715,3,5.148,5.058,60,105.887023983,norm,0,8,8,8,311.502,311.507,311.508898615,311.509,311.512,311.516,down,1,1.18052376988,8.81947623012,001,006,800_600,Intel(R) Core(TM) i7-2670QM CPU @ 2.20GHz,orientation_search,GRVLAPTOP3,Intel(R) HD Graphics Family,2018_jun_07_1017,testMonitor,
116.9,104.8,122.1,112.3,36,80,112.2,114.6,117.3,119.6,7.987,7.645,8.377,8.29,7.706,7.821,7.717,4.959,-4.596,-7.903,1.21,-1.82,8.374,5.068,-4.603,-8.314,,94.7,-8.274,111.5,99.4,95.8,108.8,125.0,36,93.7,5,5,prime,10,0,97,norm,36,-5.097,up,norm,113.693299859,97.6,108.0,1.221,113.3,5,114.4,96.0,118.4,10,2,8.343,4.465,1.45,-1.287,-4.593,-7.681,113.2,2,210.7,-8.256,-8.141,80,-8.321,-8.066,-4.805,-5.296,-5.003,-5.289,4.361,7.944,35,-1.786,1.241,4.817,8.334,-8.423,-8.375,-1.496,1.93,112.6,133.7,103.4,126.2,121.6,102.4,107.0,116.3,105.7,117.3,0,norm,1.887,2.086,-1.362,-1.878,-4.465,-4.619,-1.601,-2.022,-1.816,-1.265,1.509,-1.657,109.9,117.0,-4.727,-7.667,109.1,-2.071,8.178,5.069,-4.355,-8.231,4,4.575,4.458,4.416,5.254,1.816,1.221,1.242,1.156,4,4.555,4.488,10,105.887023983,norm,0,9,9,9,312.705,312.71,312.712650822,312.713,312.716,312.72,up,1,1.51130112215,8.48869887785,001,006,800_600,Intel(R) Core(TM) i7-2670QM CPU @ 2.20GHz,orientation_search,GRVLAPTOP3,Intel(R) HD Graphics Family,2018_jun_07_1017,testMonitor,
108.2,116.5,107.3,117.7,36,80,117.1,103.7,116.2,110.5,8.141,8.24,7.871,7.936,8.097,8.43,7.8,5.278,-4.353,-7.762,1.421,-1.979,7.815,5.218,-5.063,-7.726,103.1,112.5,-8.486,117.7,118.2,93.7,115.0,111.8,36,111.7,2,5,prime,10,0,114,norm,36,-5.111,up,norm,113.693299859,,133.5,2.069,107.4,5,123.3,114.8,115.1,10,2,7.664,4.421,1.563,-1.904,-4.701,-8.393,128.6,2,227.7,-8.34,-7.845,80,-7.51,-7.968,-4.489,-4.892,-4.64,-4.516,4.745,8.486,17,-1.291,1.573,4.508,7.735,-7.887,-8.483,-1.683,1.311,101.0,121.3,114.0,133.7,122.6,119.9,115.4,107.6,107.1,108.9,1,norm,1.591,1.274,-1.725,-1.984,-4.961,-4.725,-1.84,-1.593,-1.566,-2.07,1.735,-1.272,108.2,113.0,-5.068,-8.076,113.8,-1.968,7.516,5.148,-4.623,-7.701,4,5.199,4.797,4.301,5.276,2.025,1.894,1.122,1.125,4,4.762,4.826,10,105.887023983,norm,0,10,10,10,314.239,314.246,314.247366231,314.248,314.251,314.255,up,1,1.53440488103,8.46559511897,001,006,800_600,Intel(R) Core(TM) i7-2670QM CPU @ 2.20GHz,orientation_search,GRVLAPTOP3,Intel(R) HD Graphics Family,2018_jun_07_1017,testMonitor,
289.7,288.9,293.7,291.6,36,-20,285.9,279.2,290.5,292.7,7.753,8.351,8.051,8.23,8.499,7.775,7.582,4.34,-4.869,-8.299,1.9,-1.811,8.459,5.067,-5.243,-7.543,291.6,294.2,-8.473,297.7,289.8,282.1,283.5,285.8,36,291.6,2,5,probe,5,0,100,norm,36,-4.621,down,norm,289.247807119,288.2,286.3,2.074,289.4,1,290.5,,285.5,10,2,8.033,4.891,1.204,-1.765,-4.757,-7.814,289.9,2,189.2,-8.164,-7.682,80,-7.502,-8.171,-4.524,-4.923,-5.144,-4.804,5.202,7.75,13,-1.686,1.443,4.997,8.125,-7.66,-8.214,-2.0,1.457,290.1,288.6,297.7,288.0,287.5,282.8,291.7,288.0,295.5,290.7,0,norm,1.813,1.668,-1.767,-1.761,-4.66,-4.439,-1.934,-2.026,-1.47,-1.913,1.832,-1.167,299.2,288.4,-4.947,-7.705,287.1,-1.782,8.319,5.236,-4.604,-7.99,5,4.517,4.899,4.904,4.349,1.493,1.537,1.974,2.072,5,5.15,4.397,80,113.693299859,norm,0,11,11,11,315.797,315.803,315.804705365,315.805,315.808,315.811,down,1,1.47408958059,8.52591041941,001,006,800_600,Intel(R) Core(TM) i7-2670QM CPU @ 2.20GHz,orientation_search,GRVLAPTOP3,Intel(R) HD Graphics Family,2018_jun_07_1017,testMonitor,
299.1,290.4,288.1,294.8,36,-20,294.5,301.3,299.2,297.6,7.727,7.529,8.206,8.401,8.233,8.255,8.006,4.391,-4.976,-7.953,1.25,-1.38,8.162,4.776,-4.65,-7.953,300.8,301.4,-8.359,294.4,305.2,294.0,293.6,302.1,36,293.2,2,5,probe,5,0,106,norm,36,-4.322,down,norm,295.247807119,289.4,289.5,1.301,295.2,1,296.6,,302.9,10,2,7.636,4.378,1.4,-2.001,-5.004,-7.951,293.2,2,189.2,-8.142,-7.771,80,-7.83,-7.591,-4.708,-4.484,-4.678,-4.914,4.785,8.064,13,-1.476,1.923,4.787,8.278,-8.283,-8.323,-1.784,1.155,289.4,299.7,299.6,295.6,292.1,292.0,285.2,297.5,304.1,294.9,1,norm,1.116,2.075,-1.451,-1.287,-4.485,-4.555,-2.083,-2.082,-1.182,-1.73,1.128,-1.493,300.7,298.2,-5.186,-7.883,287.7,-1.681,7.551,5.253,-4.607,-8.018,5,5.109,4.934,4.689,5.152,1.762,1.69,1.862,1.11,5,5.1,5.134,80,113.693299859,norm,0,12,12,12,317.294,317.299,317.301149701,317.302,317.304,317.308,down,1,0.865727642092,9.13427235791,001,006,800_600,Intel(R) Core(TM) i7-2670QM CPU @ 2.20GHz,orientation_search,GRVLAPTOP3,Intel(R) HD Graphics Family,2018_jun_07_1017,testMonitor,
266.5,268.7,259.7,276.0,36,-30,263.7,261.1,281.8,289.7,7.678,8.148,8.486,8.39,8.045,8.435,7.864,4.76,-4.908,-8.324,1.305,-1.572,7.951,4.829,-5.156,-8.09,280.3,265.7,-7.67,257.8,,264.5,281.3,270.1,36,267.0,5,5,prime,10,0,113,norm,36,-4.488,down,norm,270.986257378,279.0,255.7,1.87,284.3,0,291.0,277.9,277.2,10,5,7.685,5.233,1.309,-1.766,-4.417,-8.305,283.4,5,384.0,-8.043,-7.91,-30,-7.737,-8.414,-4.353,-4.86,-5.135,-4.893,4.813,8.357,30,-1.611,1.924,4.613,8.188,-8.095,-8.444,-1.628,1.382,251.0,260.3,263.4,270.3,268.3,275.3,266.9,262.6,262.1,275.4,0,norm,2.053,1.414,-1.226,-1.712,-5.284,-4.344,-1.232,-1.675,-1.202,-1.763,1.312,-1.186,267.6,273.9,-4.866,-7.646,263.0,-1.739,7.962,4.339,-4.928,-7.666,6,4.693,4.998,4.667,4.889,2.036,1.232,2.047,1.598,6,4.742,4.659,-20,113.693299859,norm,0,13,13,13,318.182,318.188,318.18958979,318.19,318.193,318.196,up,0,2.45410184295,-10,001,006,800_600,Intel(R) Core(TM) i7-2670QM CPU @ 2.20GHz,orientation_search,GRVLAPTOP3,Intel(R) HD Graphics Family,2018_jun_07_1017,testMonitor,
251.0,283.2,,256.1,36,-30,262.3,277.7,284.8,291.0,8.245,8.25,7.708,8.247,8.062,7.532,8.37,4.867,-4.378,-8.416,1.522,-1.992,7.877,4.886,-4.933,-8.231,272.7,256.9,-8.214,259.2,286.4,281.5,260.1,272.6,36,271.2,3,5,prime,10,0,65,norm,36,-4.749,down,norm,270.986257378,265.6,271.0,1.646,270.2,2,275.6,281.9,279.9,10,5,7.934,4.765,1.715,-1.528,-4.707,-7.951,277.4,5,336.0,-7.82,-8.036,-30,-8.195,-8.173,-4.904,-4.901,-5.059,-4.641,4.313,7.834,20,-1.527,1.29,5.058,8.268,-7.665,-8.469,-1.556,1.446,272.4,263.9,255.9,265.8,252.6,269.3,279.2,277.0,266.8,264.2,1,norm,1.853,1.66,-1.69,-1.286,-4.985,-4.59,-1.631,-1.268,-2.041,-1.152,1.878,-2.055,254.8,267.6,-4.619,-7.692,280.7,-1.44,8.429,5.092,-4.991,-8.478,6,4.372,4.508,5.0,5.249,2.047,1.495,2.008,1.708,6,5.227,4.89,-20,113.693299859,norm,0,14,14,14,321.662,321.668,321.669730233,321.67,321.673,321.676,down,1,1.73330724586,8.26669275414,001,006,800_600,Intel(R) Core(TM) i7-2670QM CPU @ 2.20GHz,orientation_search,GRVLAPTOP3,Intel(R) HD Graphics Family,2018_jun_07_1017,testMonitor,
284.4,281.2,269.5,268.5,36,-30,259.8,275.6,263.9,272.1,7.55,7.894,8.149,7.828,7.692,7.976,8.146,5.159,-4.936,-7.618,1.129,-1.374,8.498,4.825,-4.45,-7.802,272.6,267.9,-8.006,284.8,265.4,,278.5,282.9,36,278.9,5,5,prime,10,0,63,norm,36,-5.031,up,norm,270.986257378,272.0,276.7,1.861,282.2,3,278.2,259.1,266.2,10,5,8.212,4.374,1.234,-1.188,-4.822,-8.246,278.8,5,334.0,-8.445,-8.435,-30,-7.503,-7.842,-4.39,-4.849,-4.381,-5.262,4.896,8.08,33,-1.592,2.08,5.036,8.16,-8.388,-8.162,-1.903,1.944,274.4,265.8,259.2,277.7,277.6,263.0,251.0,283.2,266.1,284.8,2,norm,1.293,1.609,-1.334,-1.963,-4.511,-4.85,-2.049,-1.585,-1.412,-1.757,1.885,-1.339,263.4,266.4,-4.809,-8.45,265.9,-1.539,8.427,4.684,-4.749,-8.091,6,4.403,4.899,5.096,4.349,1.709,1.532,1.571,1.38,6,4.88,5.052,-20,113.693299859,norm,0,15,15,15,323.419,323.424,323.426329889,323.427,323.43,323.434,down,0,2.26989096027,-10,001,006,800_600,Intel(R) Core(TM) i7-2670QM CPU @ 2.20GHz,orientation_search,GRVLAPTOP3,Intel(R) HD Graphics Family,2018_jun_07_1017,testMonitor,
261.6,272.4,291.0,284.3,36,-30,263.6,269.9,251.0,266.3,7.63,8.394,7.606,7.569,8.296,7.95,7.52,5.189,-5.116,-8.269,1.476,-2.082,7.678,5.054,-4.902,-7.503,275.0,255.1,-8.075,280.1,254.3,274.6,275.0,269.8,36,257.6,2,5,prime,10,0,78,norm,36,-5.166,up,norm,270.986257378,254.1,,1.319,256.9,4,286.3,282.4,280.5,10,5,7.862,4.434,1.185,-1.932,-4.361,-8.386,264.2,5,349.0,-7.819,-8.414,-30,-8.157,-7.738,-4.795,-5.21,-5.141,-4.792,4.376,7.958,16,-1.298,1.374,4.553,7.875,-8.232,-7.948,-1.378,1.948,279.6,263.6,271.8,272.8,266.5,260.3,290.7,258.4,268.5,267.2,3,norm,1.177,1.924,-1.199,-1.249,-4.799,-4.543,-2.091,-1.797,-1.681,-1.414,1.842,-1.797,267.1,264.4,-4.821,-7.997,271.9,-1.535,7.604,4.841,-4.397,-8.052,6,4.991,5.002,5.247,5.088,1.164,1.7,1.454,1.36,6,4.763,5.148,-20,113.693299859,norm,0,16,16,16,326.717,326.722,326.723868592,326.725,326.727,326.731,up,1,1.93466395021,8.06533604979,001,006,800_600,Intel(R) Core(TM) i7-2670QM CPU @ 2.20GHz,orientation_search,GRVLAPTOP3,Intel(R) HD Graphics Family,2018_jun_07_1017,testMonitor,
269.1,,261.0,267.0,36,-30,269.9,270.2,255.9,268.7,8.221,8.005,7.515,8.361,7.916,7.617,7.724,4.868,-4.878,-8.089,2.089,-1.421,7.627,4.601,-4.37,-8.291,263.1,266.3,-8.381,274.3,258.2,264.4,282.5,269.6,36,251.3,3,5,prime,10,0,85,norm,36,-4.623,up,norm,270.986257378,265.9,274.3,1.428,288.0,5,276.3,259.1,270.6,10,5,7.772,4.392,1.942,-1.802,-5.299,-7.891,259.4,5,356.0,-8.182,-7.651,-30,-8.296,-8.149,-5.025,-4.91,-4.484,-4.754,4.964,7.831,23,-1.195,1.789,4.96,7.748,-7.68,-7.839,-1.232,1.352,254.0,251.0,287.2,282.3,279.8,258.3,270.2,266.0,268.3,271.0,4,norm,1.419,1.883,-1.19,-1.119,-5.259,-4.617,-1.536,-1.609,-1.11,-1.713,1.343,-1.202,277.4,257.0,-5.287,-8.056,276.9,-1.524,8.151,5.063,-5.026,-7.755,6,5.143,4.944,5.258,4.872,1.869,1.396,1.217,1.867,6,4.74,4.882,-20,113.693299859,norm,0,17,17,17,328.675,328.68,328.681920679,328.683,328.686,328.689,up,1,12.2283768532,-2.22837685319,001,006,800_600,Intel(R) Core(TM) i7-2670QM CPU @ 2.20GHz,orientation_search,GRVLAPTOP3,Intel(R) HD Graphics Family,2018_jun_07_1017,testMonitor,
316.9,317.8,323.3,320.9,36,-10,324.1,310.7,318.6,315.2,8.262,7.557,8.068,8.336,7.81,7.644,7.698,4.394,-4.56,-7.852,1.474,-2.05,8.428,5.28,-5.113,-8.096,318.6,322.0,-8.001,315.2,325.4,309.1,312.5,308.3,36,309.2,2,5,probe,5,0,81,norm,36,-4.759,down,norm,318.25155857,323.5,317.6,2.041,,2,315.5,317.5,315.3,10,5,8.169,5.255,1.834,-1.971,-4.642,-8.085,324.4,2,237.3,-8.119,-7.794,-30,-8.25,-7.665,-4.734,-4.442,-5.084,-4.323,4.488,7.938,14,-1.863,1.807,4.401,8.128,-8.333,-8.317,-1.139,1.366,328.3,318.6,320.2,310.9,319.0,317.6,314.8,317.4,322.0,319.4,0,norm,1.815,1.324,-1.304,-1.462,-4.956,-5.186,-1.482,-1.899,-1.879,-1.857,1.919,-1.594,324.0,321.0,-4.416,-7.94,321.7,-1.72,8.406,4.49,-5.165,-7.754,7,4.775,5.096,4.362,4.703,1.462,1.942,1.34,1.673,7,5.158,5.244,-30,270.986257378,norm,0,18,18,18,340.926,340.932,340.93330323,340.934,340.937,340.94,down,1,2.19053771796,7.80946228204,001,006,800_600,Intel(R) Core(TM) i7-2670QM CPU @ 2.20GHz,orientation_search,GRVLAPTOP3,Intel(R) HD Graphics Family,2018_jun_07_1017,testMonitor,
317.4,322.0,327.3,318.4,36,-10,321.9,317.6,323.2,331.3,8.238,8.365,8.179,8.474,8.176,7.527,8.178,5.292,-5.1,-8.179,1.104,-1.229,7.997,4.762,-4.975,-7.542,316.6,314.9,-8.488,320.6,321.6,312.7,330.5,311.9,36,315.7,0,5,probe,5,0,84,norm,36,-4.648,up,norm,321.25155857,323.3,322.5,1.933,326.5,5,311.3,318.2,326.8,10,5,7.529,5.229,1.99,-1.21,-5.072,-7.903,311.7,2,237.3,-8.357,-7.643,-30,-7.696,-7.504,-4.442,-4.948,-5.233,-5.196,5.133,8.406,5,-1.805,1.331,4.839,8.125,-8.452,-8.324,-1.968,1.606,319.7,320.1,318.4,323.9,322.6,321.1,314.1,326.1,,321.5,1,norm,1.426,1.139,-1.997,-1.427,-4.505,-4.965,-1.758,-2.003,-2.04,-1.183,1.169,-1.453,312.3,324.8,-4.519,-8.25,324.0,-1.748,8.408,5.281,-5.277,-7.862,7,5.166,4.963,5.137,4.653,1.972,1.508,1.434,1.544,7,5.046,5.131,-30,270.986257378,norm,0,19,19,19,343.139,343.145,343.14651417,343.147,343.15,343.153,up,1,1.54431142842,8.45568857158,001,006,800_600,Intel(R) Core(TM) i7-2670QM CPU @ 2.20GHz,orientation_search,GRVLAPTOP3,Intel(R) HD Graphics Family,2018_jun_07_1017,testMonitor,
287.3,298.6,274.4,282.8,36,-30,294.4,291.9,276.4,287.7,8.31,7.649,8.245,8.394,8.094,8.206,7.66,5.14,-4.355,-8.33,1.256,-1.292,8.377,5.096,-4.912,-8.002,289.2,286.6,-7.877,283.0,265.3,273.6,284.8,286.1,36,299.8,2,5,prime,10,0,109,norm,36,-4.971,up,norm,285.258409748,273.4,291.5,1.742,276.6,3,286.2,289.8,287.8,10,6,8.246,4.964,1.623,-1.356,-5.249,-7.766,290.7,6,394.3,-8.344,-8.433,-30,-8.398,-7.749,-4.74,-4.958,-4.772,-5.257,5.124,7.589,15,-1.458,2.001,5.01,7.893,-7.695,-7.974,-1.369,2.08,292.6,283.7,290.1,266.4,288.8,305.3,281.3,283.6,288.8,286.3,0,norm,2.019,1.725,-1.148,-1.974,-4.407,-4.995,-1.496,-1.779,-1.901,-1.781,1.595,-1.81,287.6,283.1,-4.727,-8.007,,-1.807,8.315,4.899,-4.444,-7.759,8,4.822,5.085,4.722,4.824,2.081,1.345,1.344,1.271,8,4.809,4.922,-10,270.986257378,norm,0,20,20,20,344.706,344.711,344.713271411,344.714,344.717,344.72,up,1,3.14717211616,6.85282788384,001,006,800_600,Intel(R) Core(TM) i7-2670QM CPU @ 2.20GHz,orientation_search,GRVLAPTOP3,Intel(R) HD Graphics Family,2018_jun_07_1017,testMonitor,
288.9,286.4,296.2,275.4,36,-30,280.7,284.1,279.8,305.3,7.963,8.086,8.001,8.403,8.004,7.976,7.841,4.317,-4.911,-7.635,1.988,-1.742,8.412,5.245,-4.871,-7.896,290.5,,-8.481,285.8,281.2,287.4,291.0,286.3,36,283.0,5,5,prime,10,0,114,norm,36,-4.434,up,norm,285.258409748,292.1,285.5,1.965,291.0,4,284.5,289.1,287.2,10,6,7.903,4.837,1.941,-1.273,-4.69,-8.09,283.9,6,399.3,-8.221,-7.68,-30,-7.697,-7.74,-4.731,-5.236,-4.458,-4.728,4.335,7.522,34,-2.082,1.214,4.528,7.789,-8.176,-8.121,-1.511,1.502,282.8,295.1,265.3,278.3,280.3,295.2,302.3,280.9,292.1,286.4,1,norm,1.636,1.25,-1.479,-1.532,-4.968,-4.528,-1.801,-1.122,-1.335,-1.777,1.212,-1.205,289.0,302.5,-4.606,-8.096,273.4,-1.471,8.04,4.896,-4.767,-8.056,8,5.256,4.501,5.013,4.742,1.742,1.964,1.536,1.113,8,4.497,4.993,-10,270.986257378,norm,0,21,21,21,347.879,347.886,347.888303737,347.889,347.893,347.898,up,1,1.48322004116,8.51677995884,001,006,800_600,Intel(R) Core(TM) i7-2670QM CPU @ 2.20GHz,orientation_search,GRVLAPTOP3,Intel(R) HD Graphics Family,2018_jun_07_1017,testMonitor,
265.3,275.9,272.3,281.1,36,-30,290.2,296.7,281.1,278.7,8.403,7.849,8.088,8.009,8.243,8.111,7.501,4.549,-4.542,-8.353,1.325,-1.592,7.743,4.57,-5.034,-7.856,296.9,284.9,-8.424,284.7,296.4,285.8,269.9,279.1,36,278.0,0,5,prime,10,0,111,norm,36,-5.135,down,norm,285.258409748,273.9,292.1,1.602,301.3,1,269.2,295.2,273.6,10,6,7.504,4.493,1.801,-1.397,-4.793,-8.356,293.9,6,396.3,-8.42,-7.888,-30,-8.387,-8.09,-4.79,-4.502,-4.685,-4.906,4.302,8.051,1,-1.679,1.743,4.329,7.717,-8.193,-8.108,-1.997,1.24,299.6,284.4,291.8,305.3,,286.0,284.3,286.0,280.7,287.0,2,norm,1.73,2.042,-1.382,-2.019,-4.69,-4.71,-1.394,-1.84,-1.515,-1.471,1.84,-1.148,290.1,298.6,-5.265,-7.565,281.3,-1.376,7.857,4.473,-4.688,-8.372,8,4.314,4.937,4.582,5.168,2.084,1.142,1.246,1.792,8,4.647,4.8,-10,270.986257378,norm,0,22,22,22,349.392,349.4,349.402468255,349.403,349.407,349.412,down,1,2.1586177623,7.8413822377,001,006,800_600,Intel(R) Core(TM) i7-2670QM CPU @ 2.20GHz,orientation_search,GRVLAPTOP3,Intel(R) HD Graphics Family,2018_jun_07_1017,testMonitor,
267.1,285.3,286.1,283.9,36,-30,291.8,286.7,279.3,305.3,7.634,7.604,8.188,8.428,8.285,7.566,7.603,4.969,-5.063,-8.095,1.527,-1.275,8.303,5.198,-4.766,-8.21,285.3,271.9,-7.537,282.6,292.8,277.6,283.1,279.8,36,279.6,2,5,prime,10,0,89,norm,36,-5.265,up,norm,285.258409748,282.1,293.8,1.722,298.1,3,287.6,285.0,283.0,10,6,7.532,5.095,1.838,-1.911,-5.09,-7.787,295.3,6,374.3,-7.861,-7.567,-30,-8.308,-7.971,-4.749,-5.062,-4.883,-4.658,4.386,7.743,15,-1.473,1.227,4.448,8.315,-7.772,-8.053,-1.445,1.305,290.1,281.3,289.4,301.0,287.6,271.0,268.1,290.0,271.2,265.3,3,norm,1.816,2.063,-1.44,-1.563,-4.919,-4.461,-1.47,-1.119,-1.471,-1.71,1.811,-1.284,281.1,277.5,-4.708,-7.564,,-1.484,7.769,4.579,-4.968,-8.342,8,4.42,5.017,5.222,4.85,1.671,1.945,1.302,1.625,8,4.569,5.193,-10,270.986257378,norm,0,23,23,23,351.582,351.589,351.591276355,351.592,351.596,351.601,up,1,1.86457518586,8.13542481414,001,006,800_600,Intel(R) Core(TM) i7-2670QM CPU @ 2.20GHz,orientation_search,GRVLAPTOP3,Intel(R) HD Graphics Family,2018_jun_07_1017,testMonitor,
292.3,282.8,285.5,290.4,36,-30,305.3,290.7,280.6,279.0,7.778,8.394,7.68,7.828,7.908,8.003,7.583,4.657,-4.591,-8.151,1.317,-1.805,8.019,4.592,-4.971,-8.452,278.4,286.5,-7.799,265.3,267.1,285.3,276.4,280.6,36,287.2,1,5,prime,10,0,94,norm,36,-5.215,up,norm,285.258409748,296.5,283.8,1.67,296.2,5,,275.4,285.9,10,6,8.006,4.955,1.611,-1.338,-4.716,-7.931,277.5,6,379.3,-8.447,-8.447,-30,-8.381,-7.523,-4.514,-4.854,-4.343,-4.532,4.939,7.75,11,-1.525,2.005,4.307,8.044,-7.618,-8.336,-1.814,2.091,280.9,283.5,292.0,302.1,295.3,280.6,282.8,283.4,267.8,278.7,4,norm,1.662,1.314,-1.804,-1.495,-5.277,-5.111,-1.642,-1.983,-1.591,-1.266,1.119,-2.004,298.0,272.5,-4.363,-7.991,282.4,-1.816,7.556,4.523,-4.382,-8.396,8,4.74,5.091,4.475,4.797,1.703,1.643,1.555,1.63,8,4.63,4.677,-10,270.986257378,norm,0,24,24,24,353.477,353.484,353.486536388,353.487,353.491,353.496,up,1,1.40754317158,8.59245682842,001,006,800_600,Intel(R) Core(TM) i7-2670QM CPU @ 2.20GHz,orientation_search,GRVLAPTOP3,Intel(R) HD Graphics Family,2018_jun_07_1017,testMonitor,
297.7,,283.7,281.6,36,-30,291.7,265.3,283.8,289.7,7.545,7.926,8.101,8.203,8.174,7.522,7.845,4.321,-4.836,-7.69,1.473,-1.272,8.019,5.009,-4.852,-8.165,275.7,291.7,-8.399,268.4,290.7,289.6,285.9,293.0,36,305.3,3,5,prime,10,0,86,norm,36,-5.129,up,norm,285.258409748,297.6,292.0,1.265,300.6,5,277.4,278.7,273.9,10,6,7.927,4.464,1.779,-1.649,-5.072,-7.561,289.6,6,371.3,-7.574,-8.003,-30,-7.893,-7.583,-4.444,-4.348,-4.392,-4.341,4.391,7.632,23,-1.195,1.168,4.885,7.835,-8.051,-7.957,-1.491,2.022,289.8,289.5,291.7,280.6,294.6,289.1,282.5,270.7,282.1,277.0,5,norm,1.935,1.635,-1.921,-1.291,-5.127,-4.571,-1.915,-1.493,-1.875,-1.991,1.106,-1.733,268.0,282.2,-4.4,-8.415,289.9,-1.892,8.408,4.915,-5.035,-7.976,8,4.841,4.312,4.834,4.684,2.097,1.133,1.88,1.912,8,4.708,5.042,-10,270.986257378,norm,0,25,25,25,354.915,354.922,354.924335271,354.925,354.929,354.934,up,1,1.42825843224,8.57174156776,001,006,800_600,Intel(R) Core(TM) i7-2670QM CPU @ 2.20GHz,orientation_search,GRVLAPTOP3,Intel(R) HD Graphics Family,2018_jun_07_1017,testMonitor,
330.2,,327.0,318.7,36,20,322.4,323.6,319.7,329.9,7.782,8.29,8.041,8.283,8.33,7.547,8.151,5.047,-5.176,-8.08,1.488,-2.041,7.603,4.701,-5.039,-8.272,324.1,313.8,-7.799,321.4,317.3,318.6,323.4,319.9,36,332.5,3,5,probe,5,0,70,norm,36,-4.441,up,norm,323.791935322,315.5,324.0,1.843,321.6,5,329.5,323.4,326.7,10,6,8.308,4.613,1.193,-1.171,-4.917,-8.02,327.6,1,253.8,-8.151,-7.915,-30,-7.516,-7.931,-4.738,-4.813,-5.284,-4.352,4.722,7.509,23,-1.62,1.382,4.887,8.257,-7.995,-7.909,-1.938,1.322,333.8,329.3,318.3,333.3,329.4,327.4,319.3,326.3,323.3,326.0,0,norm,1.831,1.983,-1.907,-1.842,-4.791,-5.145,-1.922,-1.102,-1.815,-1.643,1.84,-1.767,326.3,329.2,-5.162,-8.318,319.4,-1.434,8.247,4.643,-4.61,-8.188,9,4.882,5.039,4.309,5.041,1.555,1.955,1.935,1.792,9,4.354,5.198,-30,285.258409748,norm,0,26,26,26,356.373,356.381,356.383029662,356.384,356.387,356.392,up,1,1.0869852296,8.9130147704,001,006,800_600,Intel(R) Core(TM) i7-2670QM CPU @ 2.20GHz,orientation_search,GRVLAPTOP3,Intel(R) HD Graphics Family,2018_jun_07_1017,testMonitor,
55.1,55.9,56.8,43.4,36,0,35.5,29.1,48.6,54.2,7.627,7.63,8.337,7.677,8.444,8.447,8.223,5.195,-4.395,-7.815,1.229,-1.393,8.064,5.098,-5.093,-7.763,59.8,50.9,-7.834,50.4,46.1,47.4,54.6,51.4,36,46.2,2,5,prime,10,0,115,norm,36,-5.166,up,norm,49.0548660602,42.5,,1.126,35.9,4,62.2,48.6,52.5,10,3,7.846,5.213,2.086,-1.619,-4.406,-7.864,66.6,3,164.1,-7.609,-7.767,0,-8.134,-8.356,-4.406,-4.397,-5.092,-4.331,5.257,8.116,16,-1.277,1.385,4.69,7.911,-8.432,-7.628,-1.276,1.966,46.7,37.5,29.4,51.8,46.3,39.3,58.4,54.8,48.3,69.1,0,norm,1.584,1.18,-1.514,-1.882,-5.199,-4.316,-1.172,-1.368,-1.338,-1.376,1.266,-1.342,53.0,46.4,-4.762,-8.369,52.8,-1.486,8.021,4.694,-4.889,-8.365,10,4.443,5.185,4.958,4.876,1.912,1.564,1.438,2.095,10,4.769,5.018,20,285.258409748,norm,0,27,27,27,357.491,357.498,357.500985985,357.502,357.505,357.51,up,1,1.62721076174,8.37278923826,001,006,800_600,Intel(R) Core(TM) i7-2670QM CPU @ 2.20GHz,orientation_search,GRVLAPTOP3,Intel(R) HD Graphics Family,2018_jun_07_1017,testMonitor,
,47.4,29.1,44.4,36,0,49.6,31.9,56.4,34.8,8.005,7.782,8.28,7.653,8.35,7.877,7.583,5.137,-4.675,-7.89,1.469,-1.699,8.125,4.471,-4.369,-7.776,69.1,53.8,-7.781,53.1,64.0,40.9,60.1,50.7,36,43.5,3,5,prime,10,0,95,norm,36,-4.886,up,norm,49.0548660602,66.7,42.5,1.581,55.2,4,34.5,59.0,48.9,10,3,7.853,5.264,2.094,-1.252,-4.56,-8.167,47.4,3,144.1,-7.549,-7.944,0,-7.895,-8.239,-4.359,-4.561,-4.826,-4.353,4.861,7.741,22,-1.999,1.363,5.234,7.638,-7.734,-8.245,-1.651,1.773,48.9,46.4,48.9,40.0,54.4,54.5,56.7,38.6,42.3,47.5,1,norm,1.994,1.394,-1.276,-1.658,-5.125,-4.877,-1.74,-1.897,-1.207,-1.954,1.82,-1.452,64.5,37.2,-5.243,-7.879,53.7,-1.827,7.98,4.361,-4.431,-8.117,10,4.839,4.636,5.258,5.213,1.686,1.968,1.19,1.102,10,4.564,4.379,20,285.258409748,norm,0,28,28,28,359.149,359.156,359.158107375,359.159,359.163,359.168,up,1,1.16481758458,8.83518241542,001,006,800_600,Intel(R) Core(TM) i7-2670QM CPU @ 2.20GHz,orientation_search,GRVLAPTOP3,Intel(R) HD Graphics Family,2018_jun_07_1017,testMonitor,
31.3,66.0,65.0,,36,0,48.2,47.7,42.2,58.0,7.859,7.556,8.331,8.328,8.063,8.296,8.269,5.015,-4.76,-8.304,1.308,-1.214,7.574,4.757,-4.374,-8.011,33.8,53.3,-8.399,38.1,45.2,48.4,55.1,29.1,36,53.0,3,5,prime,10,0,98,norm,36,-4.793,up,norm,49.0548660602,34.2,69.1,1.184,45.9,3,59.4,32.3,49.1,10,3,8.191,4.478,1.343,-1.4,-4.713,-7.919,30.6,3,147.1,-7.56,-7.739,0,-7.655,-7.703,-4.839,-5.181,-4.38,-4.591,4.7,8.267,21,-1.505,1.716,4.724,8.431,-7.779,-7.814,-1.132,1.685,46.8,65.9,55.8,40.5,57.1,41.0,63.4,56.0,42.8,30.4,2,norm,1.761,1.495,-1.706,-2.034,-4.886,-5.231,-1.111,-1.671,-2.056,-1.997,1.665,-1.823,42.5,46.7,-5.07,-7.836,41.3,-1.694,7.899,5.085,-5.031,-7.625,10,4.537,5.066,4.962,4.531,1.641,1.876,1.867,2.039,10,4.48,4.662,20,285.258409748,norm,0,29,29,29,360.343,360.351,360.353265658,360.354,360.358,360.363,up,1,1.19473661846,8.80526338154,001,006,800_600,Intel(R) Core(TM) i7-2670QM CPU @ 2.20GHz,orientation_search,GRVLAPTOP3,Intel(R) HD Graphics Family,2018_jun_07_1017,testMonitor,
115.5,104.0,111.8,113.9,36,10,115.0,112.4,115.1,112.6,8.298,7.545,8.388,8.263,8.324,7.997,8.263,4.813,-4.381,-8.407,1.599,-1.127,7.779,4.858,-4.478,-7.738,,112.9,-7.957,112.7,119.7,121.5,110.5,112.8,36,122.2,5,5,probe,5,0,65,norm,36,-5.084,up,norm,113.823968331,122.6,123.8,1.314,113.3,5,118.9,110.3,115.0,10,3,7.667,4.787,2.028,-1.466,-4.756,-7.848,108.3,1,48.8,-8.009,-7.525,0,-8.105,-7.903,-4.819,-4.711,-4.996,-4.964,4.58,7.648,35,-1.767,2.018,4.503,8.288,-7.912,-8.308,-1.861,1.791,108.2,116.0,117.7,113.1,114.2,108.8,123.8,106.7,114.1,115.4,0,norm,1.679,1.784,-2.006,-1.528,-5.038,-5.122,-1.312,-1.191,-2.052,-2.079,1.251,-1.793,121.0,108.4,-4.497,-8.06,114.0,-1.96,7.751,5.045,-4.396,-7.569,11,5.123,5.087,5.033,4.967,1.714,1.186,1.956,1.965,11,4.792,5.241,0,49.0548660602,norm,0,30,30,30,361.569,361.576,361.578652103,361.579,361.583,361.588,up,1,1.12130115484,8.87869884516,001,006,800_600,Intel(R) Core(TM) i7-2670QM CPU @ 2.20GHz,orientation_search,GRVLAPTOP3,Intel(R) HD Graphics Family,2018_jun_07_1017,testMonitor,
171.6,203.8,189.4,177.4,36,60,187.8,187.9,185.9,,7.665,8.346,8.456,7.535,8.285,8.489,7.923,4.343,-5.057,-8.191,1.954,-1.237,8.374,4.554,-5.119,-7.641,194.5,192.2,-8.351,170.1,180.7,173.3,194.1,195.3,36,180.0,4,5,prime,10,0,63,norm,36,-4.731,up,norm,183.772511554,173.2,194.5,1.892,178.2,5,186.9,163.8,167.2,10,6,8.005,4.411,1.275,-1.248,-4.793,-8.302,181.2,6,246.8,-8.01,-8.08,60,-8.394,-8.073,-4.62,-4.552,-4.399,-4.582,4.583,7.832,29,-1.878,1.924,4.968,7.62,-8.236,-8.236,-1.19,1.465,190.1,191.7,176.2,187.8,192.2,193.4,178.4,185.8,191.4,180.7,0,norm,1.24,1.227,-1.194,-2.059,-4.812,-4.303,-1.214,-1.376,-1.16,-1.501,1.834,-1.317,193.1,174.4,-4.628,-7.583,194.4,-1.806,7.685,4.526,-4.53,-7.881,12,4.528,4.65,4.871,4.635,1.363,1.766,1.934,1.776,12,4.365,4.344,10,49.0548660602,norm,0,31,31,31,362.721,362.728,362.729941401,362.731,362.734,362.739,up,1,2.58381293973,7.41618706027,001,006,800_600,Intel(R) Core(TM) i7-2670QM CPU @ 2.20GHz,orientation_search,GRVLAPTOP3,Intel(R) HD Graphics Family,2018_jun_07_1017,testMonitor,
203.8,184.3,170.8,181.6,36,60,187.4,183.4,188.5,190.7,7.609,7.656,8.404,8.291,8.237,7.618,7.677,5.12,-4.899,-8.346,1.512,-1.874,7.746,5.091,-4.585,-8.479,187.7,180.5,-7.631,187.2,176.5,175.0,190.7,186.6,36,176.3,1,5,prime,10,0,81,norm,36,-5.176,up,norm,183.772511554,163.8,183.1,1.618,192.9,5,,191.8,196.0,10,6,7.879,5.124,1.475,-1.882,-4.557,-7.518,194.6,6,264.8,-7.822,-8.129,60,-7.881,-7.644,-4.371,-5.166,-4.411,-4.758,4.48,7.617,11,-2.1,1.446,5.136,8.193,-7.758,-7.678,-1.172,1.874,184.3,194.8,191.1,189.7,172.9,197.9,191.6,180.7,197.0,196.4,1,norm,1.299,1.74,-1.586,-1.58,-4.612,-4.384,-2.094,-1.11,-1.688,-1.294,1.658,-1.174,177.5,184.3,-4.829,-7.736,179.2,-1.532,8.324,4.641,-4.677,-8.437,12,5.086,4.461,4.933,4.344,1.782,1.417,1.989,1.714,12,5.089,4.9,10,49.0548660602,norm,0,32,32,32,365.334,365.342,365.344141268,365.345,365.349,365.354,up,1,3.69252112875,6.30747887125,001,006,800_600,Intel(R) Core(TM) i7-2670QM CPU @ 2.20GHz,orientation_search,GRVLAPTOP3,Intel(R) HD Graphics Family,2018_jun_07_1017,testMonitor,
195.7,176.3,193.3,180.2,36,60,,192.4,185.4,175.3,8.056,7.782,7.572,8.329,8.427,8.281,7.556,5.2,-4.455,-8.086,1.291,-1.632,7.724,5.005,-5.199,-8.371,186.8,165.2,-7.923,189.3,186.6,174.5,198.4,203.8,36,192.0,4,5,prime,10,0,85,norm,36,-4.999,down,norm,183.772511554,169.4,179.6,1.174,163.8,0,188.6,181.2,198.7,10,6,8.479,4.77,2.023,-1.792,-4.566,-8.362,181.0,6,268.8,-7.894,-8.013,60,-8.484,-7.8,-4.446,-4.949,-4.491,-4.735,4.477,7.921,24,-1.293,1.517,4.402,7.598,-8.026,-7.537,-1.243,1.338,183.1,186.1,175.5,166.3,199.3,179.1,175.3,173.5,179.3,186.8,2,norm,1.954,1.2,-1.998,-1.794,-5.129,-4.954,-2.028,-1.929,-1.728,-1.727,1.444,-1.791,191.2,185.1,-4.973,-7.836,177.3,-2.074,7.756,4.636,-4.84,-8.124,12,5.196,4.835,4.408,5.287,1.829,1.886,1.789,1.786,12,4.819,4.55,10,49.0548660602,norm,0,33,33,33,369.059,369.067,369.068963859,369.07,369.073,369.078,up,0,11.2534353049,-10,001,006,800_600,Intel(R) Core(TM) i7-2670QM CPU @ 2.20GHz,orientation_search,GRVLAPTOP3,Intel(R) HD Graphics Family,2018_jun_07_1017,testMonitor,
174.3,176.2,185.9,189.8,36,60,192.1,165.0,178.7,191.0,7.94,7.551,8.158,7.621,8.126,8.369,8.136,4.487,-4.351,-7.895,1.601,-1.291,7.522,4.423,-5.087,-7.871,183.3,183.5,-8.265,174.1,163.8,182.3,188.9,170.6,36,179.8,2,5,prime,10,0,94,norm,36,-5.029,down,norm,183.772511554,195.2,203.8,1.766,175.3,1,185.7,,171.6,10,6,8.09,4.752,1.329,-1.632,-4.916,-7.622,186.6,6,277.8,-7.596,-8.371,60,-8.453,-7.929,-4.932,-4.461,-4.796,-4.888,5.041,7.541,13,-1.932,1.592,4.747,7.661,-7.501,-8.003,-1.309,1.99,178.7,191.5,183.0,172.4,196.7,178.4,184.7,192.8,197.8,192.9,3,norm,1.798,1.166,-1.173,-1.719,-5.096,-5.031,-1.827,-1.937,-2.013,-1.952,1.639,-1.629,179.2,187.3,-4.452,-8.085,180.7,-2.006,8.17,4.51,-5.236,-7.825,12,4.712,5.174,4.67,5.102,1.594,1.884,1.648,1.215,12,5.128,4.607,10,49.0548660602,norm,0,34,34,34,381.348,381.355,381.357603246,381.358,381.362,381.367,up,0,5.30582583435,-10,001,006,800_600,Intel(R) Core(TM) i7-2670QM CPU @ 2.20GHz,orientation_search,GRVLAPTOP3,Intel(R) HD Graphics Family,2018_jun_07_1017,testMonitor,
188.5,173.6,198.4,165.2,36,60,188.5,179.0,198.2,163.8,7.786,7.802,8.007,7.705,8.293,7.554,7.845,4.318,-4.753,-7.867,1.757,-1.616,8.465,4.868,-4.488,-8.41,,174.6,-8.097,178.7,203.8,184.9,185.6,187.4,36,181.1,5,5,prime,10,0,101,norm,36,-4.953,up,norm,183.772511554,196.3,170.4,1.453,183.5,5,197.3,182.0,196.1,10,6,7.663,4.744,1.152,-1.384,-4.914,-7.63,183.5,6,284.8,-7.873,-7.806,60,-7.901,-8.25,-4.617,-4.476,-4.931,-4.6,4.713,7.647,35,-2.074,1.55,4.743,7.511,-8.45,-8.386,-1.903,1.751,199.4,180.0,182.2,183.9,192.9,171.4,187.3,177.7,175.8,190.3,4,norm,1.834,1.962,-1.859,-1.661,-5.138,-5.099,-1.32,-1.195,-1.374,-2.004,1.754,-1.939,166.1,184.9,-4.832,-7.918,173.6,-1.53,7.58,4.777,-5.047,-8.002,12,4.744,5.184,5.205,5.058,1.973,1.177,1.243,1.285,12,4.521,4.361,10,49.0548660602,norm,0,35,35,35,387.697,387.704,387.706379088,387.707,387.711,387.716,down,0,0.386793355913,-10,001,006,800_600,Intel(R) Core(TM) i7-2670QM CPU @ 2.20GHz,orientation_search,GRVLAPTOP3,Intel(R) HD Graphics Family,2018_jun_07_1017,testMonitor,
200.8,182.8,196.5,174.3,36,60,186.4,174.6,169.9,179.8,7.671,7.972,8.292,8.265,7.982,7.923,7.8,4.613,-4.75,-8.118,1.463,-1.895,7.595,4.808,-5.108,-7.556,182.5,197.7,-8.432,178.4,177.6,185.8,184.7,186.2,36,187.3,0,5,prime,10,0,71,norm,36,-5.149,up,norm,183.772511554,178.7,191.4,1.614,187.6,4,191.0,189.3,192.1,10,6,7.594,5.193,1.845,-1.38,-5.169,-8.224,180.1,6,254.8,-7.841,-7.878,60,-8.067,-7.856,-4.327,-5.125,-4.748,-5.293,4.383,7.53,4,-1.75,1.222,4.355,7.517,-7.884,-8.054,-1.743,1.305,181.6,174.9,163.8,202.3,203.8,190.4,187.1,191.8,165.0,,5,norm,1.8,1.155,-1.956,-1.558,-4.954,-4.871,-1.322,-1.482,-1.34,-1.806,1.707,-1.237,182.0,184.1,-4.661,-7.848,171.7,-2.061,8.393,5.299,-4.656,-7.533,12,5.256,4.403,4.532,5.228,1.723,1.431,1.544,1.456,12,4.967,5.107,10,49.0548660602,norm,0,36,36,36,389.116,389.124,389.126646441,389.127,389.131,389.136,up,1,0.684471679602,9.3155283204,001,006,800_600,Intel(R) Core(TM) i7-2670QM CPU @ 2.20GHz,orientation_search,GRVLAPTOP3,Intel(R) HD Graphics Family,2018_jun_07_1017,testMonitor,
339.3,344.5,326.1,331.5,36,-30,335.3,329.3,325.0,327.1,8.099,7.614,8.098,8.394,7.717,8.146,8.422,4.521,-4.507,-8.036,1.171,-1.743,7.867,4.827,-5.262,-7.894,330.6,336.8,-8.269,330.6,332.5,332.5,332.0,333.5,36,324.5,0,5,probe,5,0,87,norm,36,-4.433,up,norm,334.459882733,334.6,335.3,1.926,331.8,5,340.3,341.6,338.1,10,6,7.999,5.222,1.891,-1.478,-4.379,-7.829,329.8,1,247.5,-7.706,-7.81,60,-8.219,-7.621,-4.824,-4.562,-4.534,-4.773,5.262,8.202,5,-1.315,1.753,4.746,7.774,-7.806,-8.473,-1.214,1.39,333.5,340.1,338.2,338.5,333.9,331.9,336.1,327.5,,334.2,0,norm,1.455,2.03,-1.633,-1.821,-5.14,-5.151,-1.858,-1.368,-1.72,-1.892,1.303,-1.594,339.7,342.1,-4.79,-8.157,336.1,-1.236,7.995,4.681,-5.052,-8.298,13,5.031,4.391,4.579,5.264,1.58,1.699,1.418,1.62,13,4.818,4.856,60,183.772511554,norm,0,37,37,37,389.832,389.839,389.841421929,389.842,389.846,389.851,up,1,1.7496933243,8.2503066757,001,006,800_600,Intel(R) Core(TM) i7-2670QM CPU @ 2.20GHz,orientation_search,GRVLAPTOP3,Intel(R) HD Graphics Family,2018_jun_07_1017,testMonitor,
145.5,137.6,141.1,136.2,36,60,144.3,,137.7,139.5,7.897,7.775,8.091,7.927,7.572,8.004,7.616,5.006,-4.313,-7.513,1.304,-2.004,7.854,4.568,-4.926,-7.557,132.3,119.4,-8.152,134.1,128.6,141.8,142.6,141.3,36,121.1,4,5,prime,10,0,98,norm,36,-5.03,down,norm,137.802605818,133.2,140.3,1.269,117.8,1,152.1,144.3,131.7,10,3,8.195,4.51,1.761,-1.217,-5.208,-7.617,149.6,3,235.8,-8.004,-8.364,60,-7.68,-7.993,-5.216,-4.813,-4.318,-4.537,5.16,8.219,25,-1.158,1.234,5.275,8.401,-8.224,-8.281,-1.433,1.229,133.9,153.4,135.0,141.4,134.3,124.2,142.5,151.3,145.8,136.9,0,norm,1.549,1.627,-1.267,-1.51,-4.366,-4.727,-1.287,-2.029,-1.886,-1.995,1.329,-1.712,144.7,157.8,-4.537,-7.533,147.3,-2.031,8.427,4.621,-5.009,-8.131,14,4.952,4.847,4.871,4.703,1.657,1.246,1.475,1.477,14,4.677,4.746,-30,183.772511554,norm,0,38,38,38,391.612,391.619,391.621184181,391.622,391.626,391.631,down,1,1.12767375216,8.87232624784,001,006,800_600,Intel(R) Core(TM) i7-2670QM CPU @ 2.20GHz,orientation_search,GRVLAPTOP3,Intel(R) HD Graphics Family,2018_jun_07_1017,testMonitor,
120.9,132.7,120.3,135.4,36,60,120.2,130.3,150.2,134.6,8.396,8.376,7.626,8.493,8.273,7.564,7.887,5.111,-4.763,-8.361,1.575,-1.594,7.666,5.287,-5.193,-8.465,131.6,142.0,-8.221,157.8,148.0,137.1,137.7,130.9,36,127.8,1,5,prime,10,0,97,norm,36,-4.703,up,norm,137.802605818,132.3,148.9,1.642,140.2,3,139.6,145.7,130.2,10,3,7.927,4.463,1.765,-1.967,-4.922,-8.153,123.7,3,234.8,-8.242,-7.689,60,-7.896,-8.436,-5.29,-4.513,-4.609,-4.789,4.967,7.799,9,-2.049,1.553,4.462,8.353,-7.97,-7.763,-1.834,1.489,,138.3,135.2,124.1,123.8,143.3,142.9,141.9,154.5,154.8,1,norm,2.033,1.527,-1.491,-1.837,-4.895,-4.833,-1.933,-1.779,-1.139,-1.757,2.062,-1.507,134.9,131.3,-4.747,-7.696,117.8,-2.088,8.444,4.602,-4.657,-8.388,14,4.87,4.715,4.796,4.339,1.587,1.966,1.335,1.901,14,4.666,5.283,-30,183.772511554,norm,0,39,39,39,392.77,392.778,392.780241353,392.781,392.785,392.79,up,1,1.42001099223,8.57998900777,001,006,800_600,Intel(R) Core(TM) i7-2670QM CPU @ 2.20GHz,orientation_search,GRVLAPTOP3,Intel(R) HD Graphics Family,2018_jun_07_1017,testMonitor,
141.8,135.0,149.6,126.2,36,60,135.6,132.0,139.7,134.3,8.007,8.463,7.95,8.373,7.899,8.131,8.21,5.174,-5.062,-8.258,1.376,-1.678,8.498,4.48,-4.842,-8.359,122.4,146.6,-7.708,138.6,135.0,139.5,141.4,121.6,36,119.4,0,5,prime,10,0,73,norm,36,-4.77,up,norm,137.802605818,117.8,133.3,1.835,147.0,5,142.8,140.5,129.8,10,3,7.997,4.867,1.893,-1.581,-5.07,-8.468,139.5,3,210.8,-8.304,-8.192,60,-8.459,-7.546,-5.137,-4.822,-4.809,-5.059,4.738,8.039,5,-1.686,1.501,4.941,8.309,-7.675,-8.454,-1.732,1.524,131.3,131.0,140.8,133.7,127.8,147.1,148.8,128.9,,137.5,2,norm,1.846,1.432,-1.39,-2.074,-4.739,-4.943,-1.185,-1.872,-1.52,-1.859,2.095,-1.317,144.5,149.0,-5.081,-8.416,157.8,-1.882,7.914,4.448,-5.205,-7.836,14,4.776,4.733,4.301,4.981,1.915,2.088,2.077,1.476,14,5.128,5.033,-30,183.772511554,norm,0,40,40,40,394.221,394.229,394.230954937,394.231,394.235,394.24,down,0,1.34500094092,-10,001,006,800_600,Intel(R) Core(TM) i7-2670QM CPU @ 2.20GHz,orientation_search,GRVLAPTOP3,Intel(R) HD Graphics Family,2018_jun_07_1017,testMonitor,
289.0,292.2,301.0,287.7,36,-20,289.6,300.0,291.3,301.6,8.195,7.651,8.339,8.036,8.266,8.073,8.176,4.976,-5.24,-7.624,1.874,-1.166,8.201,4.977,-5.299,-7.941,300.6,298.2,-8.083,291.1,304.1,298.3,,292.8,36,287.0,5,5,probe,5,0,90,norm,36,-4.963,down,norm,294.332733283,292.3,298.7,1.309,293.4,2,294.4,289.7,298.2,10,3,7.613,4.484,1.981,-1.539,-5.164,-8.13,302.3,1,204.3,-8.075,-7.927,60,-8.337,-7.878,-4.553,-4.405,-4.975,-5.208,4.476,8.137,32,-2.043,1.341,4.437,7.869,-7.57,-7.808,-1.468,1.105,296.4,292.2,297.7,304.3,293.9,298.7,291.9,289.7,300.4,291.7,0,norm,1.186,1.417,-1.294,-1.805,-4.819,-5.131,-1.983,-1.801,-1.41,-1.122,1.596,-1.165,292.0,293.1,-4.986,-8.332,284.3,-2.055,8.285,4.582,-4.797,-7.678,15,4.743,5.204,5.151,4.865,1.187,1.93,1.99,1.599,15,4.874,4.322,60,137.802605818,norm,0,41,41,41,396.604,396.612,396.614003744,396.615,396.618,396.623,up,0,0.0275151259875,-10,001,006,800_600,Intel(R) Core(TM) i7-2670QM CPU @ 2.20GHz,orientation_search,GRVLAPTOP3,Intel(R) HD Graphics Family,2018_jun_07_1017,testMonitor,
258.7,288.9,274.2,264.7,36,60,268.8,267.5,275.9,253.0,7.576,8.284,7.603,8.171,7.861,8.114,7.723,4.64,-4.863,-8.446,1.291,-1.761,7.597,4.355,-4.628,-7.981,267.8,262.4,-7.834,263.1,276.4,267.9,270.1,269.5,36,260.4,2,5,prime,10,0,95,norm,36,-4.463,up,norm,268.857813506,,285.1,2.097,274.0,5,253.8,260.2,276.6,10,2,8.376,5.113,1.976,-1.392,-5.187,-8.188,278.2,2,363.9,-7.685,-8.267,60,-7.509,-8.355,-4.347,-4.509,-5.124,-4.924,4.96,8.242,17,-1.483,1.265,5.124,8.277,-7.677,-8.333,-1.866,1.269,264.9,261.9,277.3,262.5,248.9,274.9,264.2,259.1,276.4,277.5,0,norm,1.196,1.346,-1.605,-2.04,-4.923,-4.884,-2.002,-1.652,-1.657,-1.896,1.217,-1.756,272.3,272.6,-4.908,-7.864,274.4,-1.363,8.328,4.807,-5.012,-8.343,16,5.221,4.541,4.632,5.0,1.542,1.822,2.069,1.457,16,4.79,5.133,-20,137.802605818,norm,0,42,42,42,397.665,397.673,397.67564521,397.676,397.68,397.685,up,1,3.16981638683,6.83018361317,001,006,800_600,Intel(R) Core(TM) i7-2670QM CPU @ 2.20GHz,orientation_search,GRVLAPTOP3,Intel(R) HD Graphics Family,2018_jun_07_1017,testMonitor,
281.3,270.3,259.4,266.9,36,60,278.6,265.1,267.2,270.8,7.639,7.945,8.122,8.192,7.923,7.726,7.716,5.013,-5.259,-7.704,1.742,-1.596,8.1,4.803,-5.281,-8.365,282.2,266.5,-8.02,256.7,257.1,278.6,269.6,271.8,36,268.8,3,5,prime,10,0,111,norm,36,-4.657,down,norm,268.857813506,250.8,258.9,1.599,260.5,0,257.9,256.5,276.5,10,2,7.797,4.322,1.185,-1.482,-4.832,-7.565,274.4,2,379.9,-8.038,-7.96,60,-8.28,-8.102,-4.934,-4.905,-5.201,-4.489,4.743,8.347,18,-1.73,1.397,4.903,7.686,-7.921,-8.411,-1.563,1.682,288.9,273.7,284.4,280.0,271.1,248.9,263.5,265.4,275.9,273.6,1,norm,1.266,1.502,-1.846,-1.643,-4.585,-4.915,-1.824,-1.734,-1.133,-1.314,1.944,-1.474,276.5,,-4.644,-7.677,276.9,-1.749,8.41,4.803,-4.854,-7.808,16,4.403,5.03,4.442,4.42,1.285,1.141,1.366,1.41,16,4.436,4.599,-20,137.802605818,norm,0,43,43,43,400.866,400.874,400.875850392,400.876,400.88,400.885,down,1,1.24610217169,8.75389782831,001,006,800_600,Intel(R) Core(TM) i7-2670QM CPU @ 2.20GHz,orientation_search,GRVLAPTOP3,Intel(R) HD Graphics Family,2018_jun_07_1017,testMonitor,
405.8,407.5,396.4,394.5,36,0,403.8,399.9,401.6,387.5,7.534,8.47,8.352,8.474,7.602,8.347,8.013,5.295,-4.783,-7.727,1.685,-1.503,8.451,5.213,-5.162,-8.44,393.9,399.6,-8.15,396.0,400.3,397.2,396.1,394.8,36,393.2,3,5,probe,5,0,60,norm,36,-5.28,down,norm,397.477917976,402.4,403.2,1.878,394.0,0,402.3,397.6,389.5,10,2,8.269,4.78,1.523,-1.505,-5.2,-8.363,402.0,2,337.5,-8.094,-8.203,60,-8.19,-7.734,-4.71,-4.904,-4.766,-5.008,4.533,7.646,18,-2.034,1.102,4.89,7.964,-8.073,-8.48,-1.932,1.767,398.1,402.8,397.5,398.8,395.5,399.3,396.0,395.9,392.2,392.9,0,norm,1.321,1.972,-2.052,-1.533,-5.034,-4.405,-1.282,-1.48,-1.797,-1.771,1.914,-1.86,392.4,,-4.934,-8.131,396.4,-1.694,7.923,5.159,-4.695,-8.359,17,4.945,4.551,5.089,4.74,1.577,1.814,1.98,1.514,17,4.935,4.486,60,268.857813506,norm,0,44,44,44,402.142,402.15,402.151821633,402.152,402.156,402.161,down,1,1.02560853004,8.97439146996,001,006,800_600,Intel(R) Core(TM) i7-2670QM CPU @ 2.20GHz,orientation_search,GRVLAPTOP3,Intel(R) HD Graphics Family,2018_jun_07_1017,testMonitor,
452.1,450.5,441.5,452.4,36,0,445.9,453.3,444.4,452.7,8.218,7.53,8.424,7.777,8.424,7.959,7.812,4.845,-4.654,-8.134,1.744,-1.228,8.219,4.752,-4.953,-7.801,448.4,451.0,-8.291,452.4,449.5,447.8,456.4,457.5,36,455.1,0,5,probe,5,0,114,norm,36,-4.506,up,norm,451.477917976,447.6,454.4,1.145,460.6,3,445.0,461.1,461.5,10,2,7.588,4.709,1.808,-1.238,-5.293,-7.875,447.7,2,337.5,-8.019,-7.915,60,-7.827,-7.548,-4.973,-4.956,-4.831,-4.611,5.082,7.576,3,-2.095,1.28,5.27,8.369,-7.672,-7.797,-1.528,1.33,443.7,451.3,,447.0,453.6,459.2,454.6,447.4,457.0,460.2,1,norm,1.926,1.681,-1.167,-1.306,-4.945,-4.572,-1.731,-1.305,-1.849,-2.049,1.492,-1.954,446.2,450.7,-4.332,-8.132,451.7,-1.668,8.1,5.059,-4.587,-7.72,17,4.682,4.91,4.987,5.004,1.558,1.18,1.861,1.752,17,5.218,4.915,60,268.857813506,norm,0,45,45,45,403.198,403.206,403.207904412,403.208,403.212,403.217,up,1,1.40690110216,8.59309889784,001,006,800_600,Intel(R) Core(TM) i7-2670QM CPU @ 2.20GHz,orientation_search,GRVLAPTOP3,Intel(R) HD Graphics Family,2018_jun_07_1017,testMonitor,
222.2,214.8,247.3,247.6,36,40,250.0,231.0,245.6,240.5,7.607,7.516,8.06,8.169,7.938,7.605,8.183,4.515,-4.544,-8.487,1.21,-2.065,7.585,5.066,-4.83,-7.82,224.8,244.1,-7.695,244.6,251.9,249.5,230.9,248.5,36,244.5,2,5,prime,10,0,89,norm,36,-4.524,up,norm,234.769851021,,244.3,1.744,235.2,5,233.3,224.2,254.8,10,2,7.573,4.72,1.269,-1.12,-4.389,-8.456,234.3,2,323.8,-8.104,-8.017,40,-7.986,-7.609,-4.301,-4.744,-4.907,-5.225,4.695,8.099,17,-1.452,1.814,5.035,7.617,-8.263,-7.9,-1.114,1.769,242.9,240.0,225.2,242.1,238.4,226.0,236.4,233.8,241.4,234.3,0,norm,2.046,1.77,-1.249,-1.775,-4.584,-4.939,-1.931,-1.538,-1.121,-1.655,1.701,-1.163,235.7,235.0,-4.854,-7.675,243.9,-1.112,8.132,4.755,-4.545,-8.42,18,4.927,4.638,4.608,4.321,1.35,1.502,1.106,1.984,18,4.749,4.665,0,268.857813506,norm,0,46,46,46,404.636,404.644,404.645894748,404.646,404.65,404.655,up,1,1.0243995717,8.9756004283,001,006,800_600,Intel(R) Core(TM) i7-2670QM CPU @ 2.20GHz,orientation_search,GRVLAPTOP3,Intel(R) HD Graphics Family,2018_jun_07_1017,testMonitor,
244.8,243.8,245.5,235.5,36,40,238.1,218.4,243.0,224.4,8.089,8.409,7.649,8.068,7.878,8.129,8.273,4.353,-4.442,-8.187,1.183,-1.324,7.734,4.938,-5.241,-8.093,240.8,235.8,-7.757,243.7,233.5,234.1,228.9,254.8,36,241.9,0,5,prime,10,0,103,norm,36,-4.659,down,norm,234.769851021,225.2,232.8,1.739,214.8,0,218.7,226.5,229.1,10,2,7.714,5.155,1.25,-1.845,-4.47,-7.879,227.2,2,337.8,-7.901,-8.135,40,-7.658,-7.864,-4.38,-4.823,-5.25,-4.862,4.854,8.038,0,-1.937,1.497,4.882,8.432,-7.801,-8.102,-1.83,1.203,242.7,227.8,235.5,220.9,237.8,,222.7,237.5,226.3,241.7,1,norm,1.479,1.311,-1.802,-1.558,-4.716,-4.639,-1.832,-1.603,-1.284,-1.347,1.709,-1.508,234.0,224.8,-4.805,-7.507,247.4,-1.237,7.619,4.557,-5.178,-7.634,18,4.864,4.52,4.609,5.299,1.431,1.578,1.798,1.537,18,5.138,5.275,0,268.857813506,norm,0,47,47,47,405.691,405.698,405.700479054,405.701,405.705,405.71,down,1,1.31561330704,8.68438669296,001,006,800_600,Intel(R) Core(TM) i7-2670QM CPU @ 2.20GHz,orientation_search,GRVLAPTOP3,Intel(R) HD Graphics Family,2018_jun_07_1017,testMonitor,
397.8,406.0,391.5,398.6,36,-80,397.1,391.6,394.5,392.9,8.382,8.125,8.458,7.93,7.645,7.643,8.481,5.159,-5.132,-8.051,1.288,-1.985,8.348,4.623,-5.181,-7.857,391.3,392.2,-7.747,399.6,397.4,,392.5,396.4,36,406.4,5,5,probe,5,0,117,norm,36,-4.317,up,norm,396.411998926,393.9,400.5,1.881,401.3,3,399.2,391.8,402.5,10,2,7.95,5.264,1.515,-2.1,-4.364,-7.636,392.3,2,279.4,-8.478,-7.862,40,-7.7,-7.581,-5.287,-4.412,-4.65,-4.53,4.765,7.816,33,-1.668,1.381,4.419,8.082,-7.834,-8.052,-1.271,1.906,401.0,395.3,394.0,404.3,388.7,394.8,396.3,396.5,395.7,386.4,0,norm,1.679,1.946,-1.454,-1.764,-4.937,-4.583,-1.76,-1.402,-1.293,-1.93,1.801,-1.131,397.4,397.0,-4.411,-7.9,400.1,-1.449,8.428,4.386,-4.302,-7.819,19,5.187,4.706,5.059,4.432,2.038,1.401,1.847,1.444,19,5.165,4.36,40,234.769851021,norm,0,48,48,48,407.037,407.045,407.046866398,407.047,407.051,407.056,up,1,1.14288542727,8.85711457273,001,006,800_600,Intel(R) Core(TM) i7-2670QM CPU @ 2.20GHz,orientation_search,GRVLAPTOP3,Intel(R) HD Graphics Family,2018_jun_07_1017,testMonitor,
381.0,384.5,378.9,379.2,36,-80,389.2,378.2,383.9,,7.569,7.713,8.064,8.216,8.213,7.596,8.227,5.125,-4.645,-8.233,2.024,-1.615,8.073,5.133,-4.665,-8.215,384.1,379.5,-7.603,376.4,386.1,379.0,390.5,383.6,36,384.0,4,5,probe,5,0,104,norm,36,-4.819,up,norm,383.411998926,382.4,389.1,1.882,388.9,5,380.3,384.4,377.4,10,2,7.86,5.133,2.038,-1.203,-4.929,-7.692,390.3,2,279.4,-8.437,-7.886,40,-7.968,-7.745,-4.415,-4.571,-5.255,-4.734,4.582,8.322,29,-1.141,1.796,4.382,8.456,-7.754,-7.53,-1.612,1.39,390.2,384.7,373.4,385.0,381.7,391.2,384.8,379.6,388.4,382.8,1,norm,1.942,1.556,-1.129,-1.522,-5.027,-4.525,-1.112,-1.831,-1.438,-1.365,1.819,-1.154,377.6,393.4,-5.118,-8.243,385.6,-1.493,7.932,4.949,-4.712,-7.526,19,4.726,4.892,4.72,4.499,1.167,1.654,1.277,1.639,19,5.142,4.862,40,234.769851021,norm,0,49,49,49,408.21,408.218,408.219749775,408.22,408.224,408.229,up,1,0.935951357755,9.06404864225,001,006,800_600,Intel(R) Core(TM) i7-2670QM CPU @ 2.20GHz,orientation_search,GRVLAPTOP3,Intel(R) HD Graphics Family,2018_jun_07_1017,testMonitor,
18.8,4.6,-10.0,-4.8,36,-60,12.8,18.1,-1.9,6.4,8.362,8.19,7.934,8.082,7.516,8.315,8.362,5.282,-4.385,-8.184,1.126,-2.097,7.824,4.549,-5.119,-8.015,6.3,,-7.875,12.8,7.6,9.8,12.2,-1.3,36,27.5,5,5,prime,10,0,60,norm,36,-5.251,up,norm,7.45711085163,16.3,-6.3,1.395,-9.7,4,10.8,5.6,3.2,10,2,8.397,4.904,1.484,-1.918,-4.932,-8.195,18.3,2,67.5,-7.881,-8.234,-60,-7.989,-8.354,-4.616,-5.063,-4.568,-4.418,4.881,8.397,34,-1.61,1.1,4.335,8.283,-8.009,-8.302,-2.028,2.058,-5.4,-0.1,-6.5,23.1,7.8,-12.5,7.3,9.6,11.4,8.2,0,norm,1.87,1.397,-1.613,-1.177,-4.887,-4.423,-1.187,-1.946,-1.655,-1.164,1.303,-1.688,-0.1,15.1,-4.403,-8.366,17.9,-1.127,8.186,5.213,-4.359,-8.127,20,4.936,4.635,4.919,5.172,1.846,1.912,1.514,1.278,20,4.445,4.916,-80,234.769851021,norm,0,50,50,50,409.176,419.149,419.150910128,419.151,419.155,419.16,up,1,6.10775045494,3.89224954506,001,006,800_600,Intel(R) Core(TM) i7-2670QM CPU @ 2.20GHz,orientation_search,GRVLAPTOP3,Intel(R) HD Graphics Family,2018_jun_07_1017,testMonitor,
-0.6,-4.8,25.5,-2.5,36,-60,8.7,-11.1,14.9,21.3,8.176,7.66,7.608,7.755,7.73,8.228,8.348,5.284,-4.361,-7.749,1.315,-1.651,7.807,4.923,-5.019,-7.714,13.7,24.5,-7.544,-12.5,-6.1,11.7,9.6,6.6,36,4.7,2,5,prime,10,0,81,norm,36,-5.228,down,norm,7.45711085163,13.7,12.1,2.013,,2,-10.1,8.7,9.9,10,2,8.377,5.124,2.051,-1.41,-4.965,-8.092,7.1,2,88.5,-7.806,-7.961,-60,-7.617,-8.029,-4.771,-5.149,-4.735,-4.652,4.796,8.378,14,-1.17,1.198,5.113,8.067,-8.095,-7.822,-2.013,2.073,-9.5,2.3,19.4,27.5,8.8,5.0,-12.1,-7.7,11.9,8.2,1,norm,1.238,1.387,-1.76,-1.988,-4.65,-4.362,-1.697,-1.404,-2.01,-1.987,1.422,-1.465,9.3,17.8,-5.085,-8.417,-5.4,-1.64,8.3,4.531,-5.152,-7.924,20,4.541,4.375,4.878,5.134,1.418,1.729,2.051,1.412,20,5.271,5.197,-80,234.769851021,norm,0,51,51,51,425.28,425.287,425.28962654,425.29,425.294,425.299,down,1,2.21114371008,7.78885628992,001,006,800_600,Intel(R) Core(TM) i7-2670QM CPU @ 2.20GHz,orientation_search,GRVLAPTOP3,Intel(R) HD Graphics Family,2018_jun_07_1017,testMonitor,
,57.6,60.1,58.1,36,0,50.2,58.7,63.3,52.8,8.247,7.752,7.714,8.261,7.711,7.979,8.498,4.438,-4.631,-7.839,1.959,-1.571,8.233,4.348,-4.749,-8.204,51.3,52.5,-7.673,63.3,59.8,56.8,59.9,58.7,36,58.3,3,5,probe,5,0,105,norm,36,-4.585,up,norm,57.1750976275,55.1,63.2,1.24,60.6,4,55.7,53.0,61.7,10,2,8.189,5.019,1.352,-1.114,-4.699,-7.924,63.1,2,-47.8,-7.809,-7.751,-60,-7.564,-8.387,-4.312,-4.769,-5.276,-4.404,4.566,8.357,22,-1.939,1.396,4.862,8.329,-7.863,-7.742,-1.98,1.333,57.4,52.2,67.2,58.7,49.8,47.2,58.6,53.4,67.0,55.7,0,norm,1.248,1.806,-1.59,-1.674,-4.485,-4.487,-2.002,-1.57,-1.385,-1.458,2.065,-1.918,61.6,61.2,-5.273,-8.377,52.7,-1.771,7.668,4.489,-4.327,-7.865,21,5.189,4.851,4.705,4.983,1.974,1.549,1.618,1.951,21,4.697,4.522,-60,7.45711085163,norm,0,52,52,52,427.521,427.529,427.530726174,427.531,427.535,427.54,up,1,1.1286609047,8.8713390953,001,006,800_600,Intel(R) Core(TM) i7-2670QM CPU @ 2.20GHz,orientation_search,GRVLAPTOP3,Intel(R) HD Graphics Family,2018_jun_07_1017,testMonitor,
21.2,17.1,21.1,3.2,36,0,14.2,7.5,22.1,15.2,8.478,7.813,7.886,8.115,8.073,7.937,7.654,4.975,-4.728,-7.908,1.165,-1.305,8.256,4.311,-5.294,-7.806,15.5,16.5,-8.366,15.3,13.9,18.0,3.4,14.8,36,17.9,0,5,probe,5,0,61,norm,36,-4.466,up,norm,13.1750976275,3.2,13.1,1.797,3.7,5,16.1,11.9,18.6,10,2,8.44,4.502,1.258,-1.355,-4.961,-8.424,16.2,2,-47.8,-8.404,-8.128,-60,-7.534,-8.083,-5.193,-5.232,-4.894,-4.417,4.832,7.823,5,-1.647,1.988,4.493,7.933,-7.995,-7.839,-2.037,1.856,19.8,8.1,13.1,9.0,4.1,9.3,15.5,11.3,,16.4,1,norm,1.536,1.138,-1.421,-2.025,-4.931,-4.798,-1.912,-1.546,-1.554,-1.197,1.634,-1.411,18.3,23.2,-5.277,-7.857,13.3,-1.643,8.498,4.625,-4.977,-8.012,21,4.934,4.922,5.031,4.374,1.91,1.584,1.459,1.378,21,4.642,5.033,-60,7.45711085163,norm,0,53,53,53,428.68,428.687,428.689492896,428.69,428.694,428.699,up,1,0.866123623812,9.13387637619,001,006,800_600,Intel(R) Core(TM) i7-2670QM CPU @ 2.20GHz,orientation_search,GRVLAPTOP3,Intel(R) HD Graphics Family,2018_jun_07_1017,testMonitor,
237.2,231.5,248.5,249.2,36,-30,235.0,224.1,227.4,252.9,8.224,8.34,8.284,7.624,8.248,7.773,8.143,4.817,-5.05,-8.369,1.417,-1.149,8.102,4.433,-4.986,-8.257,258.1,239.4,-7.781,245.9,254.0,245.0,239.7,264.1,36,236.0,2,5,prime,10,0,113,norm,36,-4.987,up,norm,244.062812972,258.5,,1.862,233.6,4,254.3,251.4,233.4,10,2,8.228,4.331,1.652,-1.303,-4.368,-8.017,252.0,2,357.1,-8.034,-7.726,-30,-8.005,-8.234,-5.185,-4.745,-5.094,-4.599,4.782,8.258,16,-2.04,1.936,4.707,7.565,-8.253,-8.027,-1.617,1.823,241.8,243.7,237.7,226.7,233.3,248.2,259.4,252.9,258.8,252.3,0,norm,1.867,1.63,-1.729,-1.457,-4.631,-4.914,-1.477,-1.848,-1.854,-1.341,1.62,-1.112,242.5,247.9,-4.869,-8.002,252.3,-1.318,7.954,5.285,-4.899,-8.106,22,4.899,5.122,4.799,4.39,1.855,1.73,1.963,1.901,22,5.096,4.911,0,7.45711085163,norm,0,54,54,54,429.576,429.584,429.585959086,429.586,429.59,429.595,down,0,1.7648923915,-10,001,006,800_600,Intel(R) Core(TM) i7-2670QM CPU @ 2.20GHz,orientation_search,GRVLAPTOP3,Intel(R) HD Graphics Family,2018_jun_07_1017,testMonitor,
224.1,239.7,255.9,228.0,36,-30,244.9,,241.0,233.3,7.542,7.993,7.545,8.139,7.517,7.892,7.788,4.863,-5.181,-8.33,1.533,-1.333,7.634,4.452,-4.776,-8.21,252.5,233.4,-7.538,238.1,246.1,260.9,248.3,237.6,36,259.2,4,5,prime,10,0,111,norm,36,-4.396,down,norm,244.062812972,251.6,234.9,1.826,232.0,1,245.0,248.1,237.4,10,2,8.16,4.422,1.395,-1.131,-5.13,-7.867,231.0,2,355.1,-8.136,-8.324,-30,-7.996,-8.245,-5.082,-4.727,-4.696,-4.696,5.166,7.706,25,-1.612,1.804,4.796,8.236,-8.06,-8.469,-1.25,1.353,240.5,264.1,235.9,245.7,262.4,234.4,249.0,224.7,244.3,247.6,1,norm,1.414,1.836,-1.804,-1.816,-4.744,-4.723,-1.962,-2.099,-1.507,-1.895,1.734,-1.974,240.8,232.7,-4.962,-7.701,250.9,-1.744,7.623,5.078,-4.766,-8.296,22,4.581,5.249,4.788,4.775,1.927,1.817,1.976,2.083,22,4.621,4.305,0,7.45711085163,norm,0,55,55,55,432.374,432.382,432.384051369,432.385,432.388,432.393,down,1,2.68394541616,7.31605458384,001,006,800_600,Intel(R) Core(TM) i7-2670QM CPU @ 2.20GHz,orientation_search,GRVLAPTOP3,Intel(R) HD Graphics Family,2018_jun_07_1017,testMonitor,
276.4,265.7,271.9,269.2,36,-40,273.3,284.0,275.5,274.6,8.367,7.824,8.026,8.188,8.063,7.633,7.696,4.641,-4.516,-7.874,1.887,-1.248,7.517,5.064,-4.441,-8.055,268.7,282.6,-8.115,278.3,269.1,272.5,269.9,265.7,36,275.7,2,5,probe,5,0,64,norm,36,-4.892,down,norm,274.048052395,272.1,273.9,1.463,274.8,1,274.2,,273.4,10,2,8.486,4.354,1.68,-1.542,-5.248,-8.265,264.0,1,210.0,-8.226,-8.177,-30,-8.067,-7.797,-4.834,-4.45,-4.486,-4.302,5.227,8.461,13,-1.722,1.448,4.542,7.619,-8.241,-7.611,-1.666,1.664,273.2,268.6,271.6,272.4,278.9,275.5,273.8,276.6,271.6,268.1,0,norm,1.282,1.445,-1.9,-1.521,-4.788,-5.114,-2.094,-1.332,-1.832,-1.871,1.978,-2.024,267.9,269.4,-4.702,-8.01,275.8,-2.074,8.152,4.993,-5.18,-8.458,23,5.192,4.994,5.214,5.268,1.583,1.496,1.659,1.185,23,4.709,4.377,-30,244.062812972,norm,0,56,56,56,435.088,435.096,435.098057308,435.098,435.102,435.107,down,1,0.978355956747,9.02164404325,001,006,800_600,Intel(R) Core(TM) i7-2670QM CPU @ 2.20GHz,orientation_search,GRVLAPTOP3,Intel(R) HD Graphics Family,2018_jun_07_1017,testMonitor,
88.4,88.7,87.2,71.6,36,20,56.5,,91.7,52.9,8.028,7.586,7.791,7.619,7.948,7.799,8.137,4.625,-4.992,-8.07,2.087,-1.132,8.01,5.029,-4.507,-7.865,67.9,70.3,-8.481,67.8,78.8,67.2,65.5,57.8,36,75.2,4,5,prime,10,0,110,norm,36,-5.26,down,norm,72.8977600817,78.1,66.6,1.682,92.9,1,53.1,82.0,76.6,10,2,8.34,4.714,1.27,-1.138,-4.678,-7.896,74.1,2,182.9,-7.723,-8.327,20,-8.373,-8.393,-5.273,-5.219,-4.971,-4.631,4.938,8.132,25,-1.322,1.637,5.241,7.618,-8.271,-8.084,-1.384,1.371,92.2,70.9,85.2,65.6,67.9,60.2,83.3,92.2,68.4,74.4,0,norm,1.963,1.999,-1.672,-1.538,-5.209,-4.749,-1.971,-1.128,-1.676,-1.766,1.866,-1.288,67.7,69.9,-4.677,-7.601,88.5,-1.531,8.348,4.327,-4.598,-8.273,24,4.926,4.333,4.862,4.881,1.936,1.761,2.071,2.03,24,5.155,5.27,-40,244.062812972,norm,0,57,57,57,436.097,436.105,436.107513239,436.108,436.112,436.117,down,1,0.845985992147,9.15401400785,001,006,800_600,Intel(R) Core(TM) i7-2670QM CPU @ 2.20GHz,orientation_search,GRVLAPTOP3,Intel(R) HD Graphics Family,2018_jun_07_1017,testMonitor,
70.0,82.3,81.3,62.9,36,20,79.9,86.2,57.1,87.1,8.027,8.048,7.754,8.303,7.908,7.613,8.453,4.529,-4.575,-8.211,1.909,-2.03,7.517,4.616,-5.16,-8.472,52.9,86.6,-7.534,77.6,88.8,65.7,72.4,71.1,36,78.2,2,5,prime,10,0,97,norm,36,-4.565,down,norm,72.8977600817,54.3,59.9,1.334,54.4,1,68.8,,81.8,10,2,8.195,5.11,2.039,-1.23,-4.801,-7.809,85.8,2,169.9,-7.991,-7.976,20,-7.57,-8.346,-4.774,-4.346,-4.354,-5.163,4.688,7.977,13,-1.281,1.269,4.549,7.778,-7.736,-7.639,-1.55,1.392,70.7,62.7,78.8,82.5,64.7,78.7,80.6,67.2,66.1,62.2,1,norm,1.524,1.853,-1.282,-1.628,-5.011,-5.246,-1.457,-1.61,-1.956,-1.851,1.182,-1.765,83.3,76.7,-4.448,-7.621,65.6,-2.022,7.797,4.574,-4.818,-7.529,24,4.582,4.454,4.762,4.523,1.525,1.668,1.151,1.462,24,4.707,4.961,-40,244.062812972,norm,0,58,58,58,436.974,436.981,436.983719454,436.984,436.988,436.993,down,1,0.914868132951,9.08513186705,001,006,800_600,Intel(R) Core(TM) i7-2670QM CPU @ 2.20GHz,orientation_search,GRVLAPTOP3,Intel(R) HD Graphics Family,2018_jun_07_1017,testMonitor,
146.6,146.9,,155.0,36,20,145.1,154.0,148.5,149.2,8.077,7.542,7.892,8.136,8.079,7.897,7.562,4.641,-4.868,-8.413,1.86,-1.32,7.839,4.917,-5.194,-7.891,152.5,148.2,-8.052,141.7,151.9,154.4,149.5,142.6,36,143.4,3,5,probe,5,0,60,norm,36,-5.082,down,norm,148.886169432,156.6,150.6,1.243,145.4,2,150.3,151.5,138.9,10,2,7.501,4.541,1.158,-1.342,-5.144,-8.194,146.3,2,88.9,-8.445,-7.783,20,-7.519,-8.167,-4.761,-4.409,-4.45,-4.581,4.862,8.435,20,-1.313,1.669,4.788,8.379,-8.461,-7.747,-1.624,1.688,151.5,150.5,158.0,158.2,154.2,152.0,147.7,156.1,152.1,151.9,0,norm,2.08,2.089,-1.434,-1.269,-5.107,-5.23,-1.938,-2.024,-1.447,-1.638,1.339,-1.65,145.6,158.9,-5.245,-7.644,144.3,-1.601,7.874,5.05,-4.986,-8.363,25,5.014,4.81,4.745,4.614,1.824,1.613,1.613,1.878,25,4.863,4.594,20,72.8977600817,norm,0,59,59,59,437.919,437.927,437.929189783,437.93,437.934,437.939,down,1,2.63309491934,7.36690508066,001,006,800_600,Intel(R) Core(TM) i7-2670QM CPU @ 2.20GHz,orientation_search,GRVLAPTOP3,Intel(R) HD Graphics Family,2018_jun_07_1017,testMonitor,
158.9,167.1,170.0,174.5,36,20,163.6,165.7,161.5,165.2,7.764,7.672,8.3,7.782,8.395,7.984,8.362,4.988,-4.491,-7.752,1.386,-1.335,7.892,5.067,-4.517,-8.471,163.9,177.3,-8.222,167.3,168.6,173.6,166.2,168.8,36,169.9,2,5,probe,5,0,80,norm,36,-4.796,down,norm,168.886169432,170.0,171.3,1.273,173.4,0,173.0,171.3,,10,2,8.478,4.743,1.812,-1.413,-5.048,-8.309,172.0,2,88.9,-7.515,-7.705,20,-7.881,-8.064,-4.922,-5.168,-4.443,-4.739,4.859,8.478,12,-1.537,1.295,4.311,7.554,-8.348,-7.965,-1.924,1.339,177.9,169.9,166.5,178.9,168.2,171.4,161.1,173.7,172.5,166.3,1,norm,1.779,1.22,-1.513,-1.54,-5.112,-5.141,-1.92,-1.947,-1.376,-1.342,1.244,-1.545,175.1,169.2,-4.965,-7.869,173.8,-1.194,7.503,4.916,-4.505,-7.86,25,4.434,4.666,4.45,4.492,1.607,1.352,2.022,1.773,25,4.334,4.807,20,72.8977600817,norm,0,60,60,60,440.583,440.591,440.593262334,440.594,440.598,440.603,down,1,0.925955154136,9.07404484586,001,006,800_600,Intel(R) Core(TM) i7-2670QM CPU @ 2.20GHz,orientation_search,GRVLAPTOP3,Intel(R) HD Graphics Family,2018_jun_07_1017,testMonitor,
249.4,250.7,271.5,254.8,36,30,259.2,249.1,252.4,249.9,7.571,7.629,8.312,8.338,8.415,7.706,7.992,5.003,-4.329,-7.757,1.598,-1.759,7.953,4.402,-4.572,-7.933,264.4,246.8,-7.937,247.9,253.2,264.7,251.1,275.9,36,257.7,2,5,prime,10,0,117,norm,36,-4.31,up,norm,255.890131329,263.0,,1.91,248.9,4,255.4,266.1,256.2,10,2,7.868,4.492,1.516,-2.066,-4.945,-7.757,257.1,2,372.9,-8.21,-8.405,30,-7.685,-7.65,-4.655,-4.753,-4.555,-5.17,5.17,8.127,16,-1.914,1.927,4.425,7.976,-8.296,-7.885,-1.593,1.275,273.9,256.5,259.3,252.1,254.8,235.9,271.2,246.5,256.8,260.4,0,norm,1.596,1.881,-1.811,-1.417,-5.266,-4.477,-2.028,-2.095,-1.12,-1.493,2.073,-1.278,268.0,258.0,-4.482,-7.967,244.7,-1.312,8.303,5.264,-4.454,-8.23,26,5.219,4.997,5.073,4.531,1.308,1.278,1.823,1.554,26,5.167,4.941,20,72.8977600817,norm,0,61,61,61,441.54,441.547,441.549517561,441.55,441.554,441.559,up,1,2.12724228151,7.87275771849,001,006,800_600,Intel(R) Core(TM) i7-2670QM CPU @ 2.20GHz,orientation_search,GRVLAPTOP3,Intel(R) HD Graphics Family,2018_jun_07_1017,testMonitor,
275.9,245.6,272.2,252.3,36,30,264.0,258.6,235.9,250.0,8.438,8.369,8.266,8.291,8.103,7.749,7.652,4.56,-4.917,-8.007,1.526,-1.177,7.923,4.414,-4.661,-8.126,246.9,254.2,-7.781,254.7,257.6,263.1,256.8,249.1,36,253.2,0,5,prime,10,0,100,norm,36,-4.344,down,norm,255.890131329,249.3,244.1,1.257,251.1,1,261.3,252.9,258.0,10,2,8.24,4.407,1.126,-1.872,-5.114,-7.575,272.4,2,355.9,-8.272,-7.765,30,-7.847,-8.159,-4.611,-5.2,-4.394,-5.158,5.124,7.805,1,-1.846,1.639,4.669,8.394,-7.519,-8.457,-1.23,1.212,247.1,265.2,257.8,252.9,,242.9,262.8,257.1,268.6,270.5,1,norm,1.938,1.486,-1.569,-1.24,-4.797,-4.354,-2.083,-1.351,-1.925,-1.806,1.358,-1.737,254.6,238.8,-5.281,-7.739,248.8,-1.842,8.23,4.416,-4.837,-7.53,26,4.898,4.851,4.676,4.796,1.898,1.806,1.657,1.2,26,5.172,4.449,20,72.8977600817,norm,0,62,62,62,443.697,443.706,443.70812038,443.709,443.713,443.718,down,1,2.90077342514,7.09922657486,001,006,800_600,Intel(R) Core(TM) i7-2670QM CPU @ 2.20GHz,orientation_search,GRVLAPTOP3,Intel(R) HD Graphics Family,2018_jun_07_1017,testMonitor,
409.0,404.6,403.3,406.5,36,-80,404.2,405.7,401.3,405.4,7.75,8.496,8.48,7.768,8.327,8.107,7.597,4.481,-4.849,-8.156,1.948,-1.273,7.7,4.955,-4.563,-7.847,404.1,398.1,-8.064,399.2,406.8,406.6,399.1,397.3,36,407.2,1,5,probe,5,0,115,norm,36,-5.018,down,norm,404.34104939,402.8,398.1,1.726,406.3,2,398.8,411.1,406.9,10,2,7.982,4.452,1.602,-1.407,-4.445,-7.543,400.4,1,289.3,-7.873,-8.17,30,-7.673,-7.84,-5.003,-4.608,-4.633,-4.761,4.805,8.357,8,-1.539,1.57,4.533,8.056,-8.051,-8.366,-1.313,1.464,404.7,,409.4,408.4,414.3,411.4,410.0,403.8,412.8,403.6,0,norm,1.101,2.085,-1.811,-1.762,-4.945,-4.746,-2.032,-1.563,-1.998,-2.036,1.774,-1.848,403.3,413.2,-5.099,-8.133,403.7,-1.361,8.271,4.464,-4.439,-8.022,27,5.013,5.275,5.171,5.067,1.822,1.59,2.038,1.558,27,4.725,4.538,30,255.890131329,norm,0,63,63,63,446.629,446.638,446.639741155,446.64,446.644,446.649,down,1,1.8194141245,8.1805858755,001,006,800_600,Intel(R) Core(TM) i7-2670QM CPU @ 2.20GHz,orientation_search,GRVLAPTOP3,Intel(R) HD Graphics Family,2018_jun_07_1017,testMonitor,
128.5,103.6,107.3,114.3,36,40,121.6,108.4,88.5,109.4,7.728,7.55,7.86,7.584,8.158,8.028,8.0,5.238,-5.017,-8.313,1.934,-1.896,8.308,5.198,-4.448,-7.846,89.7,120.9,-7.7,107.1,127.6,119.8,94.6,101.4,36,,4,5,prime,10,0,104,norm,36,-5.065,up,norm,108.510997879,101.3,116.2,1.93,106.9,3,101.3,91.9,91.1,10,3,8.212,4.647,1.375,-1.407,-5.084,-8.236,122.6,3,212.5,-8.207,-8.448,40,-8.14,-8.315,-4.736,-4.941,-4.633,-4.979,4.96,8.027,27,-1.913,1.556,5.249,8.285,-8.338,-7.59,-1.212,1.58,113.3,118.8,114.5,110.1,113.4,107.9,115.4,111.8,96.4,107.8,0,norm,1.338,1.627,-1.138,-1.146,-4.938,-4.407,-1.178,-1.585,-1.766,-1.501,1.174,-1.92,101.2,121.8,-5.241,-7.834,114.6,-1.315,8.026,4.597,-5.021,-8.209,28,4.307,4.423,4.429,4.615,2.014,1.336,1.361,1.466,28,4.313,4.653,-80,255.890131329,norm,0,64,64,64,448.48,448.487,448.489886356,448.49,448.494,448.499,up,1,1.8250395865,8.1749604135,001,006,800_600,Intel(R) Core(TM) i7-2670QM CPU @ 2.20GHz,orientation_search,GRVLAPTOP3,Intel(R) HD Graphics Family,2018_jun_07_1017,testMonitor,
125.0,120.9,120.3,103.5,36,40,104.0,122.1,93.7,128.5,8.214,7.656,7.533,7.935,7.68,8.188,7.759,4.949,-4.602,-7.655,2.083,-1.234,7.704,4.302,-4.8,-7.594,111.1,104.6,-8.418,106.6,117.1,118.9,102.3,105.8,36,98.2,0,5,prime,10,0,63,norm,36,-4.536,down,norm,108.510997879,117.3,93.8,1.568,123.6,2,88.5,113.4,113.0,10,3,8.291,4.793,1.349,-1.339,-4.829,-8.179,99.3,3,171.5,-7.826,-8.36,40,-7.718,-7.804,-4.747,-5.128,-4.833,-4.842,4.953,7.953,2,-1.204,1.373,4.574,7.609,-7.82,-8.219,-1.678,1.329,107.1,106.2,98.2,,100.5,100.9,104.1,113.9,98.3,112.2,1,norm,1.808,1.132,-1.564,-1.38,-4.782,-4.507,-1.606,-1.637,-1.14,-1.144,1.731,-1.541,109.1,106.4,-4.689,-7.536,108.0,-1.714,8.071,4.773,-5.177,-8.266,28,4.585,4.632,5.258,4.951,1.263,1.686,2.092,1.788,28,4.351,4.774,-80,255.890131329,norm,0,65,65,65,450.336,450.344,450.34603012,450.347,450.351,450.356,down,1,13.4255136439,-3.42551364386,001,006,800_600,Intel(R) Core(TM) i7-2670QM CPU @ 2.20GHz,orientation_search,GRVLAPTOP3,Intel(R) HD Graphics Family,2018_jun_07_1017,testMonitor,
103.8,106.9,102.1,127.0,36,40,112.7,110.4,118.6,112.9,8.091,8.025,8.111,7.921,7.846,7.89,7.682,4.419,-4.966,-7.514,1.255,-1.825,7.772,4.378,-4.706,-7.676,105.8,113.7,-7.504,97.1,112.7,88.5,97.5,112.6,36,121.7,1,5,prime,10,0,110,norm,36,-4.508,up,norm,108.510997879,111.7,103.2,1.52,114.0,5,,121.1,106.7,10,3,8.149,4.995,1.366,-1.771,-4.718,-7.833,121.9,3,218.5,-8.187,-7.834,40,-7.615,-7.55,-4.859,-5.024,-5.046,-4.598,4.407,7.842,11,-1.466,1.401,4.856,8.483,-7.816,-7.871,-1.947,1.73,117.4,107.2,103.6,98.8,128.5,127.2,109.2,104.9,105.8,104.4,2,norm,1.293,2.066,-1.13,-1.667,-5.08,-4.427,-2.044,-1.119,-1.206,-1.677,1.637,-1.725,112.1,108.5,-5.252,-8.361,100.1,-1.64,8.328,5.252,-4.733,-8.274,28,4.439,4.853,4.664,5.176,1.224,1.719,1.846,1.384,28,4.783,4.874,-80,255.890131329,norm,0,66,66,66,463.793,463.8,463.80283239,463.803,463.807,463.812,down,0,2.08917293521,-10,001,006,800_600,Intel(R) Core(TM) i7-2670QM CPU @ 2.20GHz,orientation_search,GRVLAPTOP3,Intel(R) HD Graphics Family,2018_jun_07_1017,testMonitor,
264.5,,261.4,253.3,36,80,256.2,252.3,257.2,261.1,8.45,7.738,7.654,8.311,7.963,7.912,7.872,4.84,-5.289,-7.686,1.189,-1.199,8.451,4.69,-5.111,-8.283,256.9,260.5,-7.805,251.9,261.9,257.7,256.5,258.0,36,258.3,3,5,probe,5,0,109,norm,36,-4.778,up,norm,260.262874999,256.6,259.5,1.684,262.1,5,254.0,260.7,250.3,10,3,7.742,5.108,1.588,-1.188,-5.125,-8.024,261.5,1,151.3,-8.017,-7.898,40,-8.005,-8.293,-4.326,-4.875,-4.434,-4.914,4.485,8.412,23,-2.033,2.009,5.027,8.489,-7.944,-7.853,-1.847,2.039,257.0,263.7,254.4,270.3,258.1,259.8,259.4,261.2,266.2,264.0,0,norm,1.849,1.32,-2.048,-1.178,-4.949,-4.862,-1.956,-1.593,-1.227,-1.78,1.108,-1.55,258.8,257.6,-5.208,-7.661,265.8,-1.503,7.846,5.194,-4.454,-7.561,29,4.941,5.135,4.314,5.069,1.916,1.336,1.241,1.549,29,4.388,5.293,40,108.510997879,norm,0,67,67,67,466.913,466.92,466.922001407,466.923,466.926,466.931,up,1,0.824898564706,9.17510143529,001,006,800_600,Intel(R) Core(TM) i7-2670QM CPU @ 2.20GHz,orientation_search,GRVLAPTOP3,Intel(R) HD Graphics Family,2018_jun_07_1017,testMonitor,
255.1,,270.8,255.3,36,0,261.8,247.4,267.9,250.7,7.615,7.969,8.431,8.231,8.404,8.102,7.66,4.693,-5.283,-7.93,1.679,-1.933,8.318,4.951,-4.761,-8.062,243.4,260.7,-7.772,251.9,244.0,252.5,269.0,243.2,36,271.2,3,5,prime,10,0,111,norm,36,-5.13,up,norm,259.960794307,261.7,279.6,1.664,263.7,5,242.7,268.2,250.3,10,5,8.464,4.945,2.032,-1.777,-4.648,-8.225,280.0,5,371.0,-7.661,-8.103,0,-7.681,-7.92,-4.499,-4.879,-4.563,-5.207,5.002,8.223,23,-1.141,1.655,4.91,8.47,-8.257,-8.434,-1.858,1.407,261.5,252.9,245.3,255.0,262.9,264.9,269.0,240.0,263.4,262.1,0,norm,1.516,1.402,-1.268,-1.683,-4.39,-4.397,-2.071,-1.344,-1.583,-1.261,1.703,-1.691,253.3,243.2,-4.751,-8.341,247.2,-2.025,7.946,5.243,-4.523,-7.567,30,5.033,4.821,5.082,5.029,1.66,1.594,1.744,1.285,30,4.378,4.666,80,108.510997879,norm,0,68,68,68,467.768,467.775,467.777635718,467.778,467.782,467.787,up,1,4.10386721911,5.89613278089,001,006,800_600,Intel(R) Core(TM) i7-2670QM CPU @ 2.20GHz,orientation_search,GRVLAPTOP3,Intel(R) HD Graphics Family,2018_jun_07_1017,testMonitor,
247.4,270.4,,259.0,36,0,263.7,269.9,240.0,264.4,8.141,7.993,7.586,8.256,7.876,8.059,8.367,4.469,-4.533,-7.587,1.304,-1.595,7.598,4.476,-5.162,-7.93,253.4,259.5,-8.15,267.9,258.7,264.1,243.7,272.5,36,280.0,3,5,prime,10,0,114,norm,36,-4.528,down,norm,259.960794307,259.0,251.2,1.897,249.2,2,255.4,267.7,270.4,10,5,7.815,4.95,1.264,-1.695,-4.678,-7.545,242.4,5,374.0,-8.295,-7.513,0,-8.107,-8.379,-5.058,-4.663,-5.201,-4.552,4.41,7.671,20,-2.054,1.886,4.642,8.279,-7.78,-8.171,-1.34,1.481,246.9,272.2,256.3,261.7,264.2,276.1,248.4,262.3,259.7,272.3,1,norm,1.953,1.348,-1.688,-1.808,-4.523,-4.953,-2.077,-1.918,-1.603,-2.056,1.491,-2.078,268.2,255.3,-5.219,-8.237,264.3,-1.549,7.894,4.328,-5.099,-8.214,30,4.786,4.705,5.184,4.748,1.385,1.315,1.341,1.457,30,4.848,4.567,80,108.510997879,norm,0,69,69,69,471.902,471.912,471.914230733,471.915,471.919,471.924,down,1,2.795093002,7.204906998,001,006,800_600,Intel(R) Core(TM) i7-2670QM CPU @ 2.20GHz,orientation_search,GRVLAPTOP3,Intel(R) HD Graphics Family,2018_jun_07_1017,testMonitor,
247.8,261.5,260.9,272.7,36,0,,267.3,261.1,251.5,7.995,7.884,7.955,8.218,8.464,7.591,8.434,4.99,-4.739,-7.845,1.877,-1.357,7.526,4.748,-5.052,-8.027,248.1,261.2,-8.042,280.0,260.2,258.4,261.1,275.7,36,269.0,4,5,prime,10,0,96,norm,36,-4.527,down,norm,259.960794307,267.4,262.0,1.505,244.2,0,270.6,251.6,265.1,10,5,8.252,4.877,1.424,-1.688,-5.015,-7.956,262.5,5,356.0,-7.88,-8.112,0,-7.824,-7.902,-4.931,-5.235,-4.967,-4.672,4.984,7.658,24,-1.966,1.816,4.792,7.759,-8.289,-8.263,-1.319,1.772,253.0,249.7,265.2,253.8,260.6,251.6,276.9,260.1,245.9,261.7,2,norm,1.277,1.925,-1.532,-2.01,-4.731,-5.284,-2.044,-1.451,-1.419,-1.473,1.438,-1.745,269.7,270.1,-5.056,-8.214,240.0,-1.779,8.317,4.775,-5.179,-8.022,30,4.477,5.211,4.336,4.338,1.403,1.98,2.066,2.043,30,5.098,5.215,80,108.510997879,norm,0,70,70,70,474.73,474.737,474.739260047,474.74,474.744,474.749,down,1,5.23322903013,4.76677096987,001,006,800_600,Intel(R) Core(TM) i7-2670QM CPU @ 2.20GHz,orientation_search,GRVLAPTOP3,Intel(R) HD Graphics Family,2018_jun_07_1017,testMonitor,
266.0,,258.3,240.0,36,0,254.2,262.7,273.0,277.7,7.738,8.469,8.234,8.214,8.061,8.318,7.774,4.442,-4.623,-7.816,1.702,-2.086,7.697,4.724,-5.056,-7.559,269.4,260.8,-7.664,262.6,256.6,243.1,268.1,280.0,36,253.5,3,5,prime,10,0,86,norm,36,-4.66,up,norm,259.960794307,255.6,247.9,1.138,252.4,5,256.1,258.5,268.9,10,5,8.316,4.884,2.099,-1.553,-4.896,-8.304,262.8,5,346.0,-7.979,-8.246,0,-7.522,-7.812,-5.124,-4.321,-4.545,-5.167,4.747,7.593,23,-1.381,1.423,4.694,7.822,-8.11,-7.527,-2.012,1.1,272.7,276.7,249.3,273.8,267.8,261.8,253.4,254.0,258.1,248.4,3,norm,1.581,1.884,-1.354,-1.103,-4.595,-5.113,-1.956,-1.682,-2.027,-1.959,1.776,-1.633,260.3,243.6,-5.067,-7.838,254.0,-1.317,7.518,4.849,-4.887,-7.922,30,4.564,5.048,5.255,4.994,1.898,1.607,1.369,1.558,30,5.059,4.461,80,108.510997879,norm,0,71,71,71,479.993,480.001,480.003438223,480.004,480.008,480.013,up,1,1.62462940921,8.37537059079,001,006,800_600,Intel(R) Core(TM) i7-2670QM CPU @ 2.20GHz,orientation_search,GRVLAPTOP3,Intel(R) HD Graphics Family,2018_jun_07_1017,testMonitor,
273.0,246.9,268.0,258.5,36,0,271.2,277.7,280.0,272.1,7.907,7.792,7.834,8.263,7.809,8.255,8.35,4.91,-4.942,-7.511,1.326,-1.979,7.577,5.018,-4.971,-8.449,250.2,245.4,-8.42,242.3,260.7,249.3,258.4,252.3,36,254.7,2,5,prime,10,0,86,norm,36,-5.072,up,norm,259.960794307,261.7,,1.427,266.7,4,265.5,272.7,267.1,10,5,7.53,5.04,1.909,-1.699,-4.726,-7.857,270.9,5,346.0,-8.037,-8.027,0,-8.216,-8.298,-4.771,-4.365,-5.157,-4.397,4.825,7.819,16,-1.542,2.077,5.012,7.964,-8.356,-7.829,-1.29,2.1,264.3,251.2,258.4,245.1,265.0,269.9,240.0,269.5,255.1,269.6,4,norm,1.682,1.175,-2.09,-1.852,-4.353,-4.948,-1.601,-1.462,-1.594,-2.084,1.959,-1.351,269.0,258.2,-4.572,-7.748,257.4,-1.37,8.453,4.547,-4.833,-8.386,30,5.114,4.613,4.805,4.777,1.762,1.192,1.275,1.725,30,5.283,4.51,80,108.510997879,norm,0,72,72,72,481.649,481.657,481.659233449,481.66,481.664,481.669,up,1,4.28972039861,5.71027960139,001,006,800_600,Intel(R) Core(TM) i7-2670QM CPU @ 2.20GHz,orientation_search,GRVLAPTOP3,Intel(R) HD Graphics Family,2018_jun_07_1017,testMonitor,
,376.1,370.3,372.6,36,-40,377.6,384.4,367.2,364.4,7.938,8.205,7.641,8.052,8.082,7.612,7.528,4.945,-5.019,-7.916,1.812,-1.343,7.508,4.654,-5.24,-8.303,365.0,383.3,-8.146,377.1,377.5,372.0,383.7,380.2,36,367.0,3,5,probe,5,0,113,norm,36,-5.066,up,norm,374.382392609,370.0,372.4,1.837,372.3,4,374.6,373.6,371.2,10,5,8.411,4.924,1.558,-1.507,-5.266,-8.266,368.2,2,261.4,-8.399,-7.844,0,-7.51,-8.398,-4.817,-5.185,-5.12,-4.678,5.221,8.086,22,-1.96,1.798,5.118,7.693,-8.33,-8.493,-1.515,1.888,378.1,377.7,374.4,380.8,378.9,373.6,369.3,379.1,376.1,365.0,0,norm,1.604,1.682,-1.615,-1.355,-4.866,-4.925,-1.333,-1.213,-1.552,-1.406,1.754,-2.055,372.2,375.3,-4.672,-7.769,382.3,-1.403,8.034,4.843,-5.159,-8.498,31,4.472,4.574,4.779,4.485,1.17,1.925,2.036,1.488,31,4.832,5.088,0,259.960794307,norm,0,73,73,73,485.969,485.977,485.978747269,485.979,485.983,485.988,up,1,1.39587245093,8.60412754907,001,006,800_600,Intel(R) Core(TM) i7-2670QM CPU @ 2.20GHz,orientation_search,GRVLAPTOP3,Intel(R) HD Graphics Family,2018_jun_07_1017,testMonitor,
348.6,345.5,339.7,353.3,36,-40,347.6,339.5,350.7,347.4,8.015,8.472,7.519,8.4,8.064,8.127,7.749,4.44,-4.586,-8.065,1.26,-1.75,7.519,5.024,-5.075,-8.258,340.3,336.8,-7.698,343.9,345.6,350.1,342.4,346.9,36,355.1,0,5,probe,5,0,84,norm,36,-4.6,up,norm,345.382392609,339.5,341.7,1.83,343.2,5,347.6,346.0,349.2,10,5,8.298,4.834,1.539,-1.354,-4.465,-8.419,351.0,2,261.4,-8.49,-7.711,0,-8.268,-7.581,-5.049,-4.737,-4.931,-4.784,4.444,8.251,5,-1.438,1.237,4.683,8.435,-8.135,-7.517,-1.395,1.452,339.9,339.2,341.8,343.3,346.6,341.3,335.4,347.4,,355.4,1,norm,1.147,1.942,-1.486,-1.467,-4.65,-4.697,-1.334,-1.739,-1.719,-1.913,1.846,-1.287,347.3,346.2,-4.97,-7.642,345.3,-1.197,7.862,4.804,-5.131,-7.793,31,4.409,5.121,5.047,4.748,1.365,1.192,1.734,2.094,31,5.14,4.92,0,259.960794307,norm,0,74,74,74,487.395,487.402,487.404232895,487.405,487.409,487.414,up,1,0.793061260893,9.20693873911,001,006,800_600,Intel(R) Core(TM) i7-2670QM CPU @ 2.20GHz,orientation_search,GRVLAPTOP3,Intel(R) HD Graphics Family,2018_jun_07_1017,testMonitor,
80.7,87.8,79.5,72.4,36,-20,94.1,67.5,82.9,85.5,8.365,7.675,7.645,7.684,7.894,8.269,7.505,4.517,-4.773,-8.097,1.646,-1.372,7.859,4.61,-4.409,-8.45,94.4,84.4,-8.246,95.5,60.1,68.8,70.2,87.7,36,100.1,2,5,prime,10,0,82,norm,36,-5.203,up,norm,80.131521749,79.6,62.7,2.045,81.9,3,69.3,90.4,76.0,10,6,8.007,4.412,1.663,-1.989,-4.738,-8.241,83.7,6,162.1,-8.168,-7.895,-20,-7.809,-7.628,-4.426,-4.32,-5.084,-5.198,4.619,8.287,15,-1.614,1.21,4.529,8.426,-8.444,-8.374,-1.949,1.165,96.3,71.0,91.2,67.1,69.6,77.4,91.6,71.7,96.3,76.2,0,norm,1.168,1.643,-1.855,-1.455,-4.416,-5.141,-1.3,-1.756,-1.953,-1.916,1.565,-1.971,83.5,78.8,-4.98,-8.373,,-1.624,8.389,5.292,-4.954,-7.561,32,4.728,4.639,5.252,4.968,1.133,1.844,1.587,1.376,32,4.794,5.266,-40,259.960794307,norm,0,75,75,75,488.218,488.226,488.227996281,488.229,488.232,488.237,up,1,2.50149730588,7.49850269412,001,006,800_600,Intel(R) Core(TM) i7-2670QM CPU @ 2.20GHz,orientation_search,GRVLAPTOP3,Intel(R) HD Graphics Family,2018_jun_07_1017,testMonitor,
60.1,,81.2,76.0,36,-20,100.1,73.3,82.7,76.3,8.03,8.232,8.035,8.338,7.746,8.401,8.258,4.993,-5.212,-7.838,1.667,-1.912,7.746,4.6,-5.143,-8.047,82.3,82.6,-8.491,79.8,74.3,69.5,72.7,83.4,36,84.1,3,5,prime,10,0,106,norm,36,-5.134,up,norm,80.131521749,64.4,82.6,1.443,89.3,5,94.7,84.3,96.2,10,6,8.033,4.409,1.638,-1.84,-5.222,-8.345,95.5,6,186.1,-7.509,-8.094,-20,-7.655,-7.665,-5.167,-4.756,-4.95,-4.484,5.206,8.44,23,-1.23,1.183,4.899,7.767,-8.382,-8.123,-1.579,1.393,81.1,62.1,75.5,75.1,73.5,81.0,85.7,73.8,82.1,87.8,1,norm,1.949,1.356,-1.509,-2.077,-4.849,-4.971,-2.096,-1.593,-1.89,-1.761,1.503,-2.036,75.6,64.6,-4.43,-8.26,75.0,-1.604,8.449,4.36,-4.7,-7.95,32,4.755,5.107,5.147,4.496,1.347,1.171,1.414,1.155,32,5.021,4.565,-40,259.960794307,norm,0,76,76,76,490.75,490.757,490.759600339,490.76,490.764,490.769,up,1,1.66870852523,8.33129147477,001,006,800_600,Intel(R) Core(TM) i7-2670QM CPU @ 2.20GHz,orientation_search,GRVLAPTOP3,Intel(R) HD Graphics Family,2018_jun_07_1017,testMonitor,
83.0,78.0,78.8,60.1,36,-20,70.8,64.9,80.5,65.7,7.525,7.941,8.132,8.486,8.112,7.897,7.563,4.745,-4.985,-7.84,1.765,-1.613,7.506,5.024,-4.309,-7.704,95.6,69.2,-8.331,86.4,83.1,90.5,88.9,76.1,36,86.2,2,5,prime,10,0,67,norm,36,-5.145,up,norm,80.131521749,87.6,81.5,1.529,84.7,3,74.0,74.7,81.8,10,6,8.217,4.738,1.862,-1.82,-4.823,-8.431,84.1,6,147.1,-8.275,-8.022,-20,-8.332,-8.42,-4.343,-5.158,-4.733,-4.769,5.139,7.925,15,-1.291,1.821,4.701,8.027,-8.201,-8.466,-1.986,1.149,100.1,85.6,96.6,63.3,81.1,71.9,61.0,80.7,82.9,86.2,2,norm,1.644,1.828,-1.316,-1.973,-4.784,-5.264,-1.635,-1.59,-1.999,-1.272,1.242,-1.403,92.7,92.3,-4.403,-7.82,,-1.568,7.884,4.655,-4.301,-8.394,32,4.609,4.746,4.442,4.432,1.805,1.933,1.928,1.896,32,5.22,4.962,-40,259.960794307,norm,0,77,77,77,492.449,492.456,492.458236303,492.459,492.463,492.468,up,1,1.89409450235,8.10590549765,001,006,800_600,Intel(R) Core(TM) i7-2670QM CPU @ 2.20GHz,orientation_search,GRVLAPTOP3,Intel(R) HD Graphics Family,2018_jun_07_1017,testMonitor,
83.2,83.2,91.4,81.1,36,-20,66.6,90.0,65.7,68.0,7.598,7.688,7.974,7.986,7.501,8.238,8.112,4.506,-5.014,-7.795,2.066,-1.112,7.839,5.092,-5.287,-8.476,73.4,80.4,-8.402,84.8,87.7,76.1,87.2,76.5,36,96.4,1,5,prime,10,0,76,norm,36,-4.595,down,norm,80.131521749,100.1,83.5,1.695,60.2,2,87.0,72.9,89.0,10,6,8.151,4.538,1.868,-1.558,-5.066,-8.173,64.8,6,156.1,-8.053,-8.011,-20,-7.681,-7.906,-5.248,-4.592,-4.788,-4.698,4.324,7.866,8,-1.671,1.887,4.439,8.183,-7.627,-7.761,-1.677,1.7,62.5,,98.2,63.8,86.8,70.4,60.1,74.9,77.6,81.2,3,norm,1.76,1.658,-1.655,-1.699,-4.636,-5.128,-1.167,-1.55,-2.038,-1.11,1.477,-1.151,96.2,74.1,-4.989,-7.603,70.3,-1.886,7.789,4.682,-4.989,-8.382,32,4.73,4.474,4.311,4.53,2.08,1.21,1.712,1.924,32,4.843,5.062,-40,259.960794307,norm,0,78,78,78,494.372,494.38,494.382551962,494.383,494.387,494.392,up,0,1.35403520782,-10,001,006,800_600,Intel(R) Core(TM) i7-2670QM CPU @ 2.20GHz,orientation_search,GRVLAPTOP3,Intel(R) HD Graphics Family,2018_jun_07_1017,testMonitor,
,73.0,70.2,81.8,36,-20,89.1,63.7,82.6,80.8,7.888,8.088,7.718,7.599,7.888,7.842,7.696,5.168,-5.249,-7.574,1.873,-1.18,7.537,4.645,-5.062,-8.018,60.1,81.6,-7.539,85.7,68.8,77.1,94.2,75.7,36,100.1,3,5,prime,10,0,72,norm,36,-5.098,up,norm,80.131521749,74.5,72.0,2.017,68.9,4,84.9,91.2,78.3,10,6,8.322,4.685,1.986,-2.084,-4.538,-8.292,70.2,6,152.1,-8.314,-8.218,-20,-8.035,-8.423,-4.793,-4.496,-4.819,-5.234,4.448,8.244,22,-1.502,1.925,4.515,7.965,-8.031,-8.446,-1.325,1.465,87.9,90.4,67.2,83.9,94.0,76.4,87.0,72.2,71.3,68.9,4,norm,1.156,2.086,-1.826,-1.424,-5.246,-4.818,-1.795,-1.822,-1.323,-2.053,1.922,-1.175,79.6,79.9,-5.296,-7.808,80.8,-1.577,8.285,5.075,-4.853,-7.728,32,5.299,4.772,4.912,4.947,2.087,1.855,1.834,1.416,32,4.832,5.044,-40,259.960794307,norm,0,79,79,79,496.771,496.778,496.780169441,496.781,496.785,496.79,down,0,0.479148620625,-10,001,006,800_600,Intel(R) Core(TM) i7-2670QM CPU @ 2.20GHz,orientation_search,GRVLAPTOP3,Intel(R) HD Graphics Family,2018_jun_07_1017,testMonitor,
83.0,87.5,80.1,100.1,36,-20,91.8,73.6,79.7,60.3,8.073,7.977,8.457,8.293,7.91,7.588,7.571,4.479,-4.622,-7.539,1.656,-1.248,8.433,4.677,-4.565,-7.794,65.8,87.1,-8.35,74.3,64.0,72.8,82.2,84.9,36,78.6,1,5,prime,10,0,73,norm,36,-4.914,down,norm,80.131521749,85.6,65.5,1.878,74.3,1,82.3,80.4,74.2,10,6,8.106,4.552,1.253,-1.924,-5.291,-7.775,72.2,6,153.1,-8.094,-8.471,-20,-8.201,-7.838,-5.015,-4.92,-5.217,-5.165,4.638,8.101,7,-2.036,1.366,4.64,8.407,-7.524,-7.815,-1.856,1.82,64.2,68.7,75.4,75.6,83.5,77.2,,90.2,60.1,83.8,5,norm,1.76,1.963,-1.254,-1.56,-4.356,-5.197,-1.839,-1.12,-1.606,-1.176,1.305,-1.241,75.7,73.0,-4.35,-7.952,70.1,-1.538,8.222,4.348,-4.442,-8.327,32,5.149,4.422,5.195,4.634,1.28,1.24,1.108,2.02,32,4.955,4.399,-40,259.960794307,norm,0,80,80,80,498.284,498.291,498.293242208,498.294,498.298,498.303,up,0,0.545544668653,-10,001,006,800_600,Intel(R) Core(TM) i7-2670QM CPU @ 2.20GHz,orientation_search,GRVLAPTOP3,Intel(R) HD Graphics Family,2018_jun_07_1017,testMonitor,
168.4,163.9,162.3,167.6,36,-80,157.6,154.0,172.2,165.6,8.188,7.759,8.384,8.412,8.119,7.767,8.454,4.435,-5.12,-7.9,1.394,-2.029,7.85,4.418,-4.694,-8.261,159.9,163.3,-8.44,164.1,164.0,174.0,171.6,163.7,36,165.7,3,5,probe,5,0,99,norm,36,-4.858,down,norm,164.005717851,157.6,162.3,2.085,169.1,1,162.7,164.2,163.5,10,6,7.957,4.887,1.671,-1.164,-4.754,-7.654,167.2,2,65.0,-8.142,-7.867,-20,-7.751,-7.569,-4.567,-4.856,-4.513,-4.709,4.328,8.457,19,-1.41,1.494,5.105,8.235,-7.617,-8.472,-1.926,1.497,154.3,159.5,160.1,170.2,159.4,161.3,159.2,173.1,165.0,168.5,0,norm,1.441,1.223,-1.704,-1.169,-5.013,-4.646,-1.392,-2.017,-1.49,-1.102,2.003,-1.174,,158.9,-5.192,-8.241,165.7,-1.905,8.139,5.191,-4.682,-8.483,33,5.151,5.122,5.209,4.64,1.691,1.658,1.488,1.882,33,4.422,4.904,-20,80.131521749,norm,0,81,81,81,499.859,499.867,499.86973649,499.87,499.874,499.879,down,1,0.608149471892,9.39185052811,001,006,800_600,Intel(R) Core(TM) i7-2670QM CPU @ 2.20GHz,orientation_search,GRVLAPTOP3,Intel(R) HD Graphics Family,2018_jun_07_1017,testMonitor,
171.5,165.6,166.6,165.1,36,-80,172.3,171.4,165.0,162.7,7.945,7.88,8.082,8.118,8.416,8.128,8.384,4.933,-4.689,-7.534,2.09,-1.541,7.611,4.794,-4.614,-8.083,161.9,163.2,-7.511,167.9,166.9,165.3,173.6,162.8,36,158.0,2,5,probe,5,0,103,norm,36,-4.369,up,norm,168.005717851,164.4,178.0,1.726,164.6,3,175.7,168.6,172.6,10,6,8.066,4.594,1.778,-1.891,-4.454,-8.363,171.1,2,65.0,-8.24,-7.52,-20,-8.051,-7.749,-5.19,-5.116,-5.173,-4.738,5.153,8.045,15,-1.945,1.431,4.346,7.632,-7.681,-8.066,-1.582,1.845,167.3,165.9,171.3,169.6,169.0,168.3,170.4,165.3,167.8,176.3,1,norm,1.11,1.571,-2.035,-1.985,-4.604,-4.935,-1.243,-1.636,-1.485,-1.893,1.762,-1.353,168.1,174.1,-4.332,-8.358,,-1.63,8.415,4.355,-5.248,-8.148,33,5.001,4.97,4.656,4.338,1.269,1.663,2.006,1.421,33,5.087,4.852,-20,80.131521749,norm,0,82,82,82,500.499,500.507,500.508860324,500.509,500.513,500.518,up,1,2.39547039873,7.60452960127,001,006,800_600,Intel(R) Core(TM) i7-2670QM CPU @ 2.20GHz,orientation_search,GRVLAPTOP3,Intel(R) HD Graphics Family,2018_jun_07_1017,testMonitor,
172.8,153.8,179.2,172.1,36,-10,170.9,167.1,168.4,152.2,8.075,8.339,8.144,7.739,7.821,8.208,7.944,4.89,-4.791,-7.828,1.152,-1.935,8.236,4.56,-5.187,-7.718,166.7,186.5,-7.847,180.4,159.6,146.5,171.3,153.0,36,167.9,0,5,prime,10,0,87,norm,36,-4.706,down,norm,166.530025793,161.4,163.9,1.518,175.0,0,173.7,149.5,186.1,10,5,7.575,4.813,1.336,-1.606,-4.56,-8.492,154.1,5,253.5,-7.853,-8.286,-10,-8.28,-8.295,-5.113,-4.368,-4.362,-4.356,4.937,7.961,0,-1.962,1.12,4.99,8.221,-7.759,-8.333,-1.361,1.49,159.3,177.2,173.9,163.6,161.6,,156.6,168.1,161.8,158.1,0,norm,2.035,1.181,-1.669,-1.642,-5.064,-4.511,-1.82,-1.596,-2.093,-1.827,1.245,-1.836,159.4,174.1,-4.96,-8.039,161.1,-1.589,8.337,4.326,-4.33,-7.838,34,4.497,5.023,4.398,4.996,1.768,1.564,1.918,1.608,34,4.93,5.043,-80,80.131521749,norm,0,83,83,83,502.924,502.932,502.934158233,502.935,502.938,502.943,down,1,2.64569769131,7.35430230869,001,006,800_600,Intel(R) Core(TM) i7-2670QM CPU @ 2.20GHz,orientation_search,GRVLAPTOP3,Intel(R) HD Graphics Family,2018_jun_07_1017,testMonitor,
162.8,174.6,179.0,159.9,36,-10,166.5,153.8,175.5,160.5,8.348,8.101,7.871,8.078,7.884,7.663,7.718,4.412,-5.082,-7.89,1.362,-1.126,8.471,4.361,-4.877,-8.318,157.7,159.8,-8.041,170.3,173.2,184.0,166.3,150.5,36,167.7,2,5,prime,10,0,114,norm,36,-4.593,down,norm,166.530025793,160.1,150.3,1.569,,2,152.5,186.5,148.6,10,5,7.815,4.945,1.671,-1.478,-4.927,-8.199,169.4,5,280.5,-7.979,-8.198,-10,-7.717,-7.937,-4.97,-4.777,-4.939,-4.633,4.829,8.476,14,-1.184,1.456,4.669,8.068,-8.144,-8.417,-1.81,1.74,162.9,167.4,146.5,164.8,161.1,155.6,158.2,180.0,165.4,165.4,1,norm,1.521,1.999,-2.016,-1.712,-4.766,-4.374,-1.956,-1.54,-1.113,-1.977,1.652,-1.219,173.6,161.4,-4.336,-7.771,174.8,-1.735,8.129,5.107,-4.678,-7.997,34,4.377,4.374,4.765,4.556,1.664,1.732,2.04,1.915,34,4.321,4.94,-80,80.131521749,norm,0,84,84,84,505.6,505.608,505.610037389,505.61,505.614,505.619,down,1,7.02125086329,2.97874913671,001,006,800_600,Intel(R) Core(TM) i7-2670QM CPU @ 2.20GHz,orientation_search,GRVLAPTOP3,Intel(R) HD Graphics Family,2018_jun_07_1017,testMonitor,
149.1,160.9,166.8,162.7,36,-10,161.5,174.1,165.1,167.4,7.823,8.305,7.624,8.222,8.189,7.638,7.851,4.989,-4.517,-8.097,1.717,-1.229,7.828,4.846,-4.634,-7.959,158.4,159.3,-8.193,161.1,171.9,180.6,173.9,164.5,36,171.4,3,5,prime,10,0,105,norm,36,-5.218,down,norm,166.530025793,148.1,175.2,1.472,152.1,1,167.4,177.5,166.6,10,5,7.585,4.389,1.544,-1.861,-5.133,-7.712,146.5,5,271.5,-8.298,-7.663,-10,-8.206,-8.17,-5.28,-4.993,-4.646,-4.338,4.435,8.303,19,-2.019,1.259,5.041,8.036,-7.831,-8.335,-1.929,1.492,164.6,159.5,174.9,152.3,156.6,166.9,163.5,186.5,172.9,168.1,2,norm,1.562,1.142,-1.298,-1.445,-4.473,-4.833,-1.144,-1.202,-2.08,-1.745,1.762,-1.58,,150.8,-5.056,-8.024,182.2,-1.118,7.788,5.051,-4.565,-7.744,34,4.443,5.288,4.513,5.075,1.249,1.808,2.066,1.747,34,4.86,5.21,-80,80.131521749,norm,0,85,85,85,512.652,512.659,512.661309084,512.662,512.666,512.671,up,0,3.23653743872,-10,001,006,800_600,Intel(R) Core(TM) i7-2670QM CPU @ 2.20GHz,orientation_search,GRVLAPTOP3,Intel(R) HD Graphics Family,2018_jun_07_1017,testMonitor,
173.4,173.9,182.0,155.1,36,-10,155.3,163.2,161.3,163.6,8.177,7.581,7.507,7.959,8.361,7.832,8.128,5.014,-4.849,-8.253,1.897,-1.921,8.156,5.187,-4.368,-8.329,170.5,171.0,-7.886,162.7,151.0,186.5,159.9,172.6,36,157.6,0,5,prime,10,0,89,norm,36,-5.096,up,norm,166.530025793,178.4,174.9,1.161,167.2,3,146.5,166.9,161.5,10,5,8.068,5.107,1.616,-2.042,-5.275,-7.761,167.4,5,255.5,-8.303,-8.405,-10,-7.722,-8.274,-4.927,-4.701,-4.811,-4.373,4.468,7.786,3,-1.608,1.947,4.979,8.279,-7.564,-8.306,-1.109,1.165,170.2,181.7,,156.7,169.1,169.7,175.2,179.4,186.0,168.7,3,norm,2.025,1.791,-1.895,-1.946,-4.408,-4.844,-1.671,-1.983,-1.638,-1.298,1.3,-1.44,158.9,168.5,-4.63,-7.631,167.9,-1.404,7.822,5.268,-4.6,-7.52,34,4.412,4.462,4.54,4.691,1.283,1.709,1.228,1.685,34,4.593,4.463,-80,80.131521749,norm,0,86,86,86,516.925,516.933,516.934812443,516.935,516.939,516.944,down,0,0.372165380271,-10,001,006,800_600,Intel(R) Core(TM) i7-2670QM CPU @ 2.20GHz,orientation_search,GRVLAPTOP3,Intel(R) HD Graphics Family,2018_jun_07_1017,testMonitor,
174.8,163.3,186.5,146.5,36,-10,155.7,149.2,165.4,174.1,7.684,7.696,8.375,8.334,7.613,8.399,8.376,4.349,-4.697,-7.607,2.055,-1.234,7.803,4.85,-4.518,-8.296,178.5,185.7,-8.399,164.0,166.1,161.3,182.5,164.7,36,172.2,2,5,prime,10,0,77,norm,36,-4.953,up,norm,166.530025793,,163.7,1.932,173.8,5,163.8,150.2,170.9,10,5,8.036,4.68,1.126,-1.495,-5.248,-8.462,161.9,5,243.5,-7.722,-8.264,-10,-8.272,-8.196,-4.983,-5.286,-4.673,-4.61,5.163,7.775,17,-1.156,1.945,4.516,8.029,-8.477,-7.598,-1.798,1.268,171.7,150.2,158.4,153.8,172.2,167.0,181.1,151.1,161.2,176.6,4,norm,1.479,1.713,-2.034,-2.091,-5.196,-4.94,-1.722,-1.174,-1.665,-2.086,1.268,-1.909,157.3,166.7,-4.699,-7.672,159.4,-1.101,8.373,4.828,-4.525,-8.214,34,4.737,4.302,4.659,5.114,1.285,1.687,1.63,1.809,34,4.362,5.226,-80,80.131521749,norm,0,87,87,87,518.33,518.337,518.339446924,518.34,518.344,518.349,up,1,0.488157204743,9.51184279526,001,006,800_600,Intel(R) Core(TM) i7-2670QM CPU @ 2.20GHz,orientation_search,GRVLAPTOP3,Intel(R) HD Graphics Family,2018_jun_07_1017,testMonitor,
217.8,222.1,229.7,212.4,36,-60,218.3,216.1,223.4,218.0,8.414,8.041,8.152,8.026,7.952,8.161,7.911,5.2,-4.964,-8.077,1.33,-1.365,7.605,5.158,-4.507,-8.044,220.9,214.6,-8.307,216.6,221.7,218.1,223.8,228.1,36,222.5,3,5,probe,5,0,68,norm,36,-5.103,down,norm,222.42226881,218.3,225.4,1.842,219.4,1,217.4,226.6,221.8,10,5,8.041,4.89,1.758,-1.812,-4.879,-8.316,218.7,1,154.4,-7.905,-8.305,-10,-7.909,-8.111,-4.827,-4.448,-5.188,-4.351,5.181,7.741,19,-1.687,1.768,4.764,7.921,-8.391,-8.027,-1.779,1.765,219.4,215.9,221.7,226.9,232.4,224.8,228.9,220.8,219.7,224.1,0,norm,1.558,1.18,-1.856,-1.342,-4.98,-4.342,-1.397,-2.04,-1.843,-1.87,1.562,-1.806,,219.0,-4.352,-8.015,229.3,-1.573,7.585,5.14,-5.192,-7.931,35,5.142,4.772,4.746,5.277,1.646,2.002,1.208,1.901,35,5.193,4.647,-10,166.530025793,norm,0,88,88,88,518.849,518.858,518.86000692,518.861,518.865,518.87,down,1,1.97524927469,8.02475072531,001,006,800_600,Intel(R) Core(TM) i7-2670QM CPU @ 2.20GHz,orientation_search,GRVLAPTOP3,Intel(R) HD Graphics Family,2018_jun_07_1017,testMonitor,
186.1,185.2,200.7,176.7,36,30,199.8,188.5,198.4,202.2,8.344,8.059,7.887,7.602,7.578,7.685,8.329,4.698,-5.185,-8.402,1.348,-1.912,8.137,4.545,-4.817,-8.472,202.0,194.9,-7.599,173.3,184.1,183.0,201.7,199.3,36,206.2,1,5,prime,10,0,84,norm,36,-4.617,up,norm,193.299195977,176.4,182.9,1.417,182.8,3,197.5,192.7,192.3,10,3,7.611,4.881,1.536,-1.894,-4.913,-7.825,206.2,3,277.3,-7.931,-7.99,30,-7.991,-7.869,-4.354,-4.51,-5.204,-5.092,4.977,8.333,9,-1.83,1.34,4.677,8.334,-8.049,-7.737,-1.919,1.777,,196.7,204.4,199.1,213.3,203.7,190.1,174.5,199.2,193.1,0,norm,1.927,1.56,-1.581,-1.287,-4.515,-4.361,-1.59,-2.045,-1.608,-1.308,1.54,-1.409,200.2,196.5,-4.908,-8.208,180.8,-1.636,8.09,5.168,-4.43,-7.63,36,4.606,4.434,4.918,5.204,1.675,1.537,1.495,1.391,36,4.335,4.744,-60,166.530025793,norm,0,89,89,89,520.856,520.864,520.865939175,520.866,520.87,520.875,up,1,2.81428130485,7.18571869515,001,006,800_600,Intel(R) Core(TM) i7-2670QM CPU @ 2.20GHz,orientation_search,GRVLAPTOP3,Intel(R) HD Graphics Family,2018_jun_07_1017,testMonitor,
,200.0,173.3,179.2,36,30,200.3,180.5,196.4,181.4,8.32,8.497,8.428,7.667,8.291,7.711,7.524,4.467,-4.48,-8.251,1.188,-1.115,8.197,4.306,-4.632,-8.218,192.4,183.0,-8.107,196.6,202.6,191.7,196.3,198.3,36,190.1,3,5,prime,10,0,88,norm,36,-4.322,up,norm,193.299195977,213.3,192.3,1.666,181.4,4,185.5,179.2,211.4,10,3,7.527,5.278,1.479,-1.388,-4.63,-8.481,194.0,3,281.3,-7.582,-8.1,30,-8.173,-7.849,-4.602,-4.396,-4.577,-5.099,5.25,7.876,22,-1.181,1.632,4.337,8.431,-7.923,-8.371,-1.755,1.571,196.6,198.5,198.1,204.7,188.9,198.7,185.9,197.5,192.0,204.9,1,norm,2.096,1.486,-2.007,-1.626,-4.462,-4.866,-1.462,-1.607,-1.963,-1.411,1.618,-2.081,191.6,198.7,-4.566,-8.177,179.1,-1.285,8.339,4.651,-5.113,-8.085,36,5.265,4.911,5.024,5.157,1.669,1.429,1.563,1.114,36,4.864,4.701,-60,166.530025793,norm,0,90,90,90,523.701,523.709,523.711019265,523.712,523.716,523.721,up,1,2.42112048818,7.57887951182,001,006,800_600,Intel(R) Core(TM) i7-2670QM CPU @ 2.20GHz,orientation_search,GRVLAPTOP3,Intel(R) HD Graphics Family,2018_jun_07_1017,testMonitor,
192.6,213.3,183.7,175.1,36,30,178.8,206.9,209.4,202.5,7.701,7.853,8.163,7.874,8.219,7.803,7.563,4.671,-5.054,-7.653,1.98,-2.062,7.509,5.007,-4.318,-7.536,173.3,183.6,-7.572,208.7,192.3,189.8,210.7,183.9,36,196.6,1,5,prime,10,0,100,norm,36,-4.781,down,norm,193.299195977,199.7,190.3,1.52,210.7,0,177.9,202.4,202.5,10,3,8.035,4.493,1.256,-1.719,-4.55,-7.526,197.1,3,293.3,-7.985,-7.788,30,-7.873,-8.326,-4.852,-4.732,-5.16,-4.425,4.894,8.174,6,-1.577,1.844,4.774,8.367,-8.149,-7.886,-1.486,1.839,195.9,199.9,204.2,197.2,211.1,204.7,176.6,,181.4,205.9,2,norm,2.02,1.617,-1.838,-1.121,-4.524,-5.03,-1.833,-1.19,-1.122,-1.209,1.548,-1.262,200.9,190.3,-4.654,-7.948,201.5,-1.88,8.406,4.674,-5.201,-8.296,36,4.673,5.187,5.048,4.928,1.911,1.771,1.577,1.282,36,4.919,4.495,-60,166.530025793,norm,0,91,91,91,526.153,526.161,526.162964689,526.164,526.167,526.172,down,1,1.85611387837,8.14388612163,001,006,800_600,Intel(R) Core(TM) i7-2670QM CPU @ 2.20GHz,orientation_search,GRVLAPTOP3,Intel(R) HD Graphics Family,2018_jun_07_1017,testMonitor,
330.3,334.6,334.3,340.1,36,-60,328.7,330.0,336.6,330.8,7.811,7.51,8.474,7.779,7.911,7.693,7.777,4.543,-4.959,-8.272,1.715,-1.831,8.5,4.642,-4.732,-7.686,333.3,326.7,-7.66,340.2,335.6,329.2,327.1,333.4,36,324.0,1,5,probe,5,0,109,norm,36,-4.783,down,norm,330.183986912,332.4,324.6,1.763,324.1,2,330.3,331.5,330.9,10,3,7.778,5.245,1.351,-1.319,-4.337,-8.26,333.2,2,221.2,-7.935,-7.589,30,-8.466,-7.87,-4.648,-5.114,-4.991,-4.701,4.581,7.747,8,-2.013,1.643,4.648,8.091,-8.414,-7.812,-1.98,1.77,325.5,,332.8,325.8,335.3,332.3,320.2,328.3,326.3,332.3,0,norm,1.412,1.801,-1.475,-1.586,-4.721,-4.789,-1.614,-1.77,-2.016,-1.807,1.857,-1.313,327.9,335.2,-4.889,-7.876,329.6,-1.987,7.957,5.103,-5.034,-8.423,37,4.746,4.914,5.083,4.442,1.185,1.355,1.517,1.134,37,4.33,4.361,30,193.299195977,norm,0,92,92,92,528.039,528.047,528.048846306,528.049,528.053,528.058,down,1,1.68557323724,8.31442676276,001,006,800_600,Intel(R) Core(TM) i7-2670QM CPU @ 2.20GHz,orientation_search,GRVLAPTOP3,Intel(R) HD Graphics Family,2018_jun_07_1017,testMonitor,
282.3,280.8,,282.1,36,-60,278.5,287.9,281.3,282.6,7.862,7.971,7.538,7.983,8.223,7.512,7.953,4.368,-4.425,-7.745,1.405,-1.171,8.456,4.711,-4.388,-7.873,283.1,281.3,-7.757,281.1,295.2,291.2,294.0,284.0,36,291.8,3,5,probe,5,0,64,norm,36,-4.464,down,norm,285.183986912,285.9,289.8,1.855,289.9,2,281.9,286.7,289.0,10,3,7.589,4.627,1.964,-1.87,-4.524,-8.084,284.9,2,221.2,-8.37,-7.837,30,-7.709,-8.431,-4.435,-4.528,-4.376,-5.224,4.533,8.13,20,-1.918,1.214,5.2,8.213,-7.616,-7.721,-1.813,2.081,279.8,289.3,286.4,283.3,284.9,283.4,289.4,282.0,275.2,286.7,1,norm,1.183,1.586,-2.071,-1.826,-4.508,-4.765,-1.281,-2.023,-1.87,-1.822,2.048,-1.887,277.2,279.9,-4.346,-8.33,292.6,-1.234,8.381,4.448,-4.376,-7.503,37,4.727,4.528,4.541,4.446,1.553,1.854,1.733,1.617,37,5.207,4.372,30,193.299195977,norm,0,93,93,93,529.755,529.763,529.765330867,529.766,529.77,529.775,down,1,1.01392473452,8.98607526548,001,006,800_600,Intel(R) Core(TM) i7-2670QM CPU @ 2.20GHz,orientation_search,GRVLAPTOP3,Intel(R) HD Graphics Family,2018_jun_07_1017,testMonitor,
89.4,60.2,,81.3,36,-60,76.9,90.0,81.7,72.8,7.595,8.494,8.034,7.856,8.374,8.377,7.903,4.99,-5.234,-8.003,1.392,-1.809,8.228,4.978,-4.608,-8.085,79.0,80.1,-8.15,90.9,79.1,81.6,63.1,80.1,36,83.7,3,5,prime,10,0,116,norm,36,-4.673,down,norm,80.1834362141,82.6,73.6,1.126,90.1,2,79.8,71.2,73.0,10,3,8.058,5.243,1.26,-1.516,-4.724,-7.754,89.8,3,196.2,-8.443,-7.68,-60,-8.441,-8.198,-4.969,-4.843,-4.418,-4.411,5.185,8.342,20,-1.646,1.264,5.123,8.337,-8.078,-8.359,-1.211,1.89,87.9,81.2,85.4,76.0,100.2,75.8,96.2,97.8,83.4,70.6,0,norm,1.979,1.634,-1.848,-1.574,-4.61,-5.28,-1.579,-1.315,-1.948,-1.323,1.913,-1.227,76.8,67.8,-5.02,-8.243,70.8,-1.437,8.238,4.861,-4.938,-7.671,38,5.143,4.506,5.219,4.883,2.045,1.37,1.454,1.227,38,5.145,5.25,-60,193.299195977,norm,0,94,94,94,530.8,530.807,530.809337137,530.81,530.814,530.819,down,1,0.651901249256,9.34809875074,001,006,800_600,Intel(R) Core(TM) i7-2670QM CPU @ 2.20GHz,orientation_search,GRVLAPTOP3,Intel(R) HD Graphics Family,2018_jun_07_1017,testMonitor,
91.6,78.3,75.0,82.8,36,-60,88.5,86.3,100.2,84.6,7.784,7.841,7.819,8.475,8.163,8.387,7.698,4.959,-4.975,-7.538,1.414,-2.033,7.848,4.69,-4.902,-8.005,74.1,87.0,-8.26,80.6,81.4,79.8,91.3,78.8,36,78.9,3,5,prime,10,0,102,norm,36,-4.332,down,norm,80.1834362141,77.9,60.2,1.471,92.6,1,80.4,66.8,72.7,10,3,7.772,4.81,1.741,-1.193,-5.183,-7.842,76.6,3,182.2,-7.676,-7.755,-60,-7.589,-8.185,-5.237,-4.726,-4.907,-5.154,4.728,7.584,19,-1.668,1.501,5.018,8.071,-8.368,-7.654,-2.094,1.819,79.7,63.4,80.9,79.7,72.5,98.3,90.7,82.1,81.6,67.0,1,norm,1.663,1.352,-1.587,-2.007,-4.968,-4.808,-1.977,-1.856,-1.136,-1.641,1.138,-1.758,,87.9,-4.383,-8.31,78.5,-1.862,8.238,4.439,-4.589,-7.537,38,4.452,4.51,5.17,4.874,1.949,1.246,1.134,1.46,38,4.601,4.886,-60,193.299195977,norm,0,95,95,95,531.482,531.489,531.492739012,531.493,531.497,531.502,up,0,1.30131360398,-10,001,006,800_600,Intel(R) Core(TM) i7-2670QM CPU @ 2.20GHz,orientation_search,GRVLAPTOP3,Intel(R) HD Graphics Family,2018_jun_07_1017,testMonitor,
