d_ori_22,d_ori_23,d_ori_20,d_ori_21,set_size,ctpd,d_ori_24,d_ori_25,d_ori_28,d_ori_29,stim_pos_x_30,stim_pos_x_31,stim_pos_x_32,stim_pos_x_33,stim_pos_x_34,stim_pos_x_35,stim_pos_y_11,stim_pos_y_10,stim_pos_y_13,stim_pos_y_12,stim_pos_y_15,stim_pos_y_14,stim_pos_y_17,stim_pos_y_16,stim_pos_y_19,stim_pos_y_18,d_ori_35,d_ori_34,stim_pos_x_3,d_ori_31,d_ori_30,d_ori_33,d_ori_32,d_ori_26,test_set_size,d_ori_27,targetCol,dsd_test,seq_type,dsd,blockRepN,targetDist,dtype_test,prime_set_size,stim_pos_y_25,correctResponse,dtype,distrMean,d_ori_17,d_ori_16,stim_pos_y_3,d_ori_14,targetRow,d_ori_11,d_ori_13,d_ori_12,dsd_prime,streak_length_prime,stim_pos_y_35,stim_pos_y_34,stim_pos_y_33,stim_pos_y_32,stim_pos_y_31,stim_pos_y_30,d_ori_10,nextProbe,targetOri,stim_pos_x_1,stim_pos_x_2,ctpd_prime,stim_pos_x_4,stim_pos_x_5,stim_pos_x_6,stim_pos_x_7,stim_pos_x_8,stim_pos_x_9,stim_pos_y_28,stim_pos_y_29,targetPos,stim_pos_y_20,stim_pos_y_21,stim_pos_y_22,stim_pos_y_23,stim_pos_y_24,stim_pos_x_0,stim_pos_y_26,stim_pos_y_27,d_ori_9,d_ori_8,d_ori_3,d_ori_2,d_ori_1,d_ori_0,d_ori_7,d_ori_6,d_ori_5,d_ori_4,trialN,dtype_prime,stim_pos_x_18,stim_pos_x_19,stim_pos_x_12,stim_pos_x_13,stim_pos_x_10,stim_pos_x_11,stim_pos_x_16,stim_pos_x_17,stim_pos_x_14,stim_pos_x_15,stim_pos_y_9,stim_pos_y_8,d_ori_19,d_ori_18,stim_pos_y_1,stim_pos_y_0,d_ori_15,stim_pos_y_2,stim_pos_y_5,stim_pos_y_4,stim_pos_y_7,stim_pos_y_6,totBlockN,stim_pos_x_27,stim_pos_x_26,stim_pos_x_25,stim_pos_x_24,stim_pos_x_23,stim_pos_x_22,stim_pos_x_21,stim_pos_x_20,blockN,stim_pos_x_29,stim_pos_x_28,prevDistrCTPD,prevDistrMean,prevDistrType,trials.thisRepN,trials.thisTrialN,trials.thisN,trials.thisIndex,timeStart,timeBeforeDraw,timeDraw,timeAfterSaving,timeAfterWritingToTemp,timeAfterPreparingNext,answer,correct,rt,trialScore,session,participant,resolution,cpu_info,expName,pc_name,graphic_card,date,monitorName,
90.4,78.3,118.3,101.5,36,30,96.9,108.5,107.3,112.3,7.582,8.258,8.097,8.045,7.614,8.407,8.206,4.847,-5.086,-7.591,1.295,-1.147,8.364,4.338,-4.79,-7.827,,98.2,-8.215,114.6,109.7,114.2,113.6,81.9,36,113.1,5,5,prime,10,0,106,norm,36,-4.898,up,norm,98.3374651072,106.5,92.3,1.53,103.5,5,105.1,100.1,105.6,10,5,8.219,4.438,1.95,-1.375,-4.404,-8.271,106.4,5,204.3,-8.05,-8.193,30,-8.048,-7.633,-4.41,-4.863,-4.389,-4.521,5.019,7.555,35,-1.326,1.954,5.295,8.027,-7.653,-8.097,-1.388,2.054,96.3,92.7,105.5,107.2,109.2,109.9,112.6,94.4,96.2,106.7,0,norm,1.896,1.478,-1.398,-1.669,-4.567,-4.754,-1.393,-1.306,-1.345,-1.837,2.069,-1.686,99.8,103.6,-5.238,-8.262,93.4,-1.644,7.643,5.132,-4.477,-8.39,0,4.36,4.846,4.348,4.459,1.276,1.207,2.072,1.522,0,4.618,4.712,,,,0,0,0,0,177.393,177.405,177.410324383,177.411,177.411,177.415,down,0,2.55635431585,-10,001,015,800_600,Intel(R) Core(TM) i7-2670QM CPU @ 2.20GHz,orientation_search,GRVLAPTOP3,Intel(R) HD Graphics Family,2018_jul_02_1425,testMonitor,
101.5,96.6,91.9,107.0,36,30,85.8,111.7,94.1,96.9,8.39,7.974,7.868,8.01,7.853,7.872,8.297,4.643,-4.746,-8.068,1.131,-1.46,7.978,4.348,-4.52,-7.998,,103.9,-7.811,106.3,91.8,98.4,110.4,100.3,36,89.3,5,5,prime,10,0,78,norm,36,-4.84,up,norm,98.3374651072,81.8,91.0,1.253,86.8,5,106.6,107.6,78.3,10,5,7.903,4.316,1.363,-1.406,-4.867,-8.019,94.8,5,176.3,-8.137,-7.599,30,-8.424,-8.154,-4.903,-5.046,-4.371,-4.322,5.141,7.952,35,-1.301,2.029,4.907,7.633,-7.757,-8.29,-1.894,1.929,107.8,82.4,91.4,103.8,88.0,118.3,100.3,79.7,100.4,88.6,1,norm,1.968,1.837,-1.343,-1.869,-5.019,-4.635,-1.532,-1.674,-1.193,-1.912,1.228,-1.704,81.4,109.3,-4.544,-7.844,101.5,-1.292,7.539,5.024,-4.466,-7.627,0,4.983,4.949,4.362,4.403,1.9,1.907,1.712,1.663,0,4.914,5.146,,,,0,1,1,1,180.988,180.995,180.996829344,180.997,180.999,181.002,up,1,1.05987262277,8.94012737723,001,015,800_600,Intel(R) Core(TM) i7-2670QM CPU @ 2.20GHz,orientation_search,GRVLAPTOP3,Intel(R) HD Graphics Family,2018_jul_02_1425,testMonitor,
95.5,103.4,94.4,88.3,36,30,107.2,98.2,108.4,98.1,8.059,8.337,7.656,7.869,8.398,8.483,8.239,5.202,-4.452,-7.793,1.325,-1.933,8.479,4.349,-5.076,-8.206,98.8,102.3,-8.462,80.2,109.7,83.0,115.8,78.3,36,80.1,2,5,prime,10,0,107,norm,36,-4.381,up,norm,98.3374651072,94.3,118.3,1.861,87.4,3,93.1,110.6,100.8,10,5,7.831,5.066,1.805,-1.402,-5.214,-8.228,99.3,5,205.3,-7.929,-7.793,30,-8.311,-7.938,-4.885,-4.504,-5.285,-4.88,4.679,7.769,15,-1.26,1.104,5.227,7.886,-7.711,-7.581,-1.897,1.403,96.2,95.6,100.5,97.7,109.0,105.9,104.7,104.9,93.4,78.4,2,norm,1.762,1.478,-1.883,-1.645,-5.185,-4.431,-1.795,-1.199,-1.1,-2.071,1.712,-1.614,99.4,105.9,-4.83,-7.742,,-1.665,8.437,4.37,-4.526,-7.681,0,4.951,4.536,4.472,5.26,1.465,1.113,1.729,1.776,0,4.847,4.353,,,,0,2,2,2,182.07,182.077,182.079502669,182.08,182.083,182.086,down,0,1.66188717977,-10,001,015,800_600,Intel(R) Core(TM) i7-2670QM CPU @ 2.20GHz,orientation_search,GRVLAPTOP3,Intel(R) HD Graphics Family,2018_jul_02_1425,testMonitor,
104.3,104.3,87.7,104.8,36,30,118.3,104.5,96.8,88.5,8.481,7.876,8.352,7.616,8.449,7.713,7.681,4.475,-5.113,-8.198,1.551,-2.023,7.623,5.268,-5.148,-7.724,91.0,89.5,-8.297,106.8,96.1,89.3,96.2,99.9,36,100.6,1,5,prime,10,0,111,norm,36,-4.351,up,norm,98.3374651072,96.4,102.9,1.94,113.6,5,,80.7,104.0,10,5,8.435,4.798,1.193,-1.696,-4.315,-8.004,88.6,5,209.3,-7.521,-8.152,30,-8.208,-7.58,-4.438,-4.365,-4.379,-4.75,4.938,8.383,11,-1.792,1.98,4.745,7.761,-8.474,-8.441,-1.218,1.863,101.4,100.7,85.2,78.3,103.8,99.9,100.0,87.8,89.5,108.3,3,norm,2.093,1.3,-1.584,-1.823,-4.894,-4.388,-2.069,-1.402,-1.402,-1.897,1.773,-1.624,110.3,94.5,-4.813,-7.668,104.0,-2.049,7.654,4.737,-5.216,-7.869,0,5.047,5.06,5.072,4.602,2.085,1.72,1.404,1.512,0,4.721,5.159,,,,0,3,3,3,184.763,184.769,184.77141535,184.772,184.775,184.778,up,1,0.759607343033,9.24039265697,001,015,800_600,Intel(R) Core(TM) i7-2670QM CPU @ 2.20GHz,orientation_search,GRVLAPTOP3,Intel(R) HD Graphics Family,2018_jul_02_1425,testMonitor,
101.1,96.3,110.4,90.0,36,30,104.9,78.3,108.8,100.2,8.12,8.101,8.373,8.038,7.873,8.417,8.143,4.783,-5.282,-8.133,1.28,-1.153,7.829,4.824,-4.805,-7.6,101.0,101.9,-7.937,96.1,92.6,90.3,104.2,108.4,36,96.1,2,5,prime,10,0,106,norm,36,-5.169,up,norm,98.3374651072,97.4,,1.309,112.3,4,88.8,104.9,118.3,10,5,8.488,4.675,1.298,-1.38,-4.622,-7.503,116.1,5,204.3,-8.389,-8.4,30,-8.352,-7.635,-4.334,-4.575,-5.176,-5.063,4.794,7.784,16,-1.527,1.756,5.241,7.728,-7.908,-8.431,-1.307,1.424,107.5,112.3,99.0,113.5,100.7,85.5,118.3,99.1,79.8,84.5,4,norm,1.198,1.485,-1.139,-1.119,-5.114,-5.019,-1.965,-1.198,-2.075,-2.01,1.458,-1.475,92.8,85.5,-4.459,-7.829,90.7,-1.574,8.137,4.764,-4.477,-8.212,0,4.788,4.583,4.811,4.401,1.875,1.343,1.436,1.245,0,4.356,5.082,,,,0,4,4,4,185.546,185.554,185.556040052,185.556,185.56,185.563,up,1,1.61494186587,8.38505813413,001,015,800_600,Intel(R) Core(TM) i7-2670QM CPU @ 2.20GHz,orientation_search,GRVLAPTOP3,Intel(R) HD Graphics Family,2018_jul_02_1425,testMonitor,
215.1,204.6,220.2,207.8,36,60,219.0,215.9,,223.1,8.301,7.503,7.747,8.392,8.033,8.434,8.156,5.222,-4.372,-8.289,1.452,-1.162,8.424,4.658,-5.136,-8.356,223.5,215.2,-8.384,220.1,207.6,222.2,217.6,215.0,36,208.4,4,5,probe,5,0,89,norm,36,-4.824,up,norm,214.57677627,213.0,213.6,2.029,208.0,4,216.0,221.1,214.7,10,5,8.353,4.766,1.109,-1.25,-4.34,-7.807,209.7,1,125.6,-8.117,-7.945,30,-8.154,-7.971,-4.888,-4.304,-5.233,-4.693,4.541,8.273,28,-1.184,1.978,4.477,7.902,-7.568,-8.26,-2.011,1.292,209.1,211.7,214.6,219.0,214.2,214.6,213.8,215.0,210.7,215.0,0,norm,1.242,1.913,-1.122,-2.099,-5.109,-5.111,-1.792,-1.915,-1.998,-1.196,1.531,-1.558,224.6,212.1,-4.747,-7.917,211.9,-1.262,7.647,4.544,-4.729,-8.17,1,4.435,4.447,5.004,5.142,1.92,1.129,1.888,1.696,1,4.976,4.444,30,98.3374651072,norm,0,5,5,5,187.188,187.194,187.196119286,187.196,187.2,187.203,up,1,1.22884894932,8.77115105068,001,015,800_600,Intel(R) Core(TM) i7-2670QM CPU @ 2.20GHz,orientation_search,GRVLAPTOP3,Intel(R) HD Graphics Family,2018_jul_02_1425,testMonitor,
160.3,179.7,171.3,169.2,36,-20,181.8,189.4,163.2,171.6,8.473,8.409,8.464,7.588,8.25,7.528,7.938,4.872,-4.903,-8.478,1.357,-1.855,7.841,5.103,-4.481,-7.931,177.0,173.6,-8.378,185.1,172.2,177.2,190.7,163.8,36,173.8,2,5,prime,10,0,98,norm,36,-5.121,down,norm,176.464204775,172.4,177.4,1.985,196.5,1,181.0,,156.5,10,6,7.632,4.604,1.408,-1.836,-4.473,-8.033,167.2,6,274.5,-7.734,-8.19,-20,-8.102,-8.484,-5.218,-5.031,-5.183,-5.274,4.598,7.613,13,-1.367,1.664,4.451,8.454,-8.3,-8.042,-1.426,1.617,176.4,165.9,178.2,175.6,174.6,181.9,169.1,187.2,180.6,163.4,0,norm,1.813,1.32,-1.855,-1.665,-5.292,-4.92,-2.07,-1.239,-1.737,-2.019,1.825,-1.771,176.0,177.2,-4.383,-8.103,177.2,-1.49,7.595,4.602,-5.01,-7.763,2,5.252,5.263,4.884,4.501,1.224,1.7,1.657,1.533,2,4.878,5.269,60,98.3374651072,norm,0,6,6,6,188.44,188.447,188.4487729,188.449,188.452,188.456,down,1,1.44637739766,8.55362260234,001,015,800_600,Intel(R) Core(TM) i7-2670QM CPU @ 2.20GHz,orientation_search,GRVLAPTOP3,Intel(R) HD Graphics Family,2018_jul_02_1425,testMonitor,
159.7,178.9,175.9,178.8,36,-20,181.4,172.6,187.9,172.5,8.188,7.769,7.586,8.166,8.167,7.878,8.036,4.695,-5.104,-8.316,1.563,-1.357,7.724,4.768,-4.951,-8.363,156.5,168.5,-8.412,163.7,185.0,180.2,185.8,163.9,36,194.7,1,5,prime,10,0,85,norm,36,-4.69,up,norm,176.464204775,171.9,181.8,2.086,177.0,5,,167.9,173.2,10,6,7.82,4.795,1.316,-1.769,-4.814,-7.861,167.3,6,261.5,-8.315,-7.941,-20,-7.758,-7.735,-4.585,-5.155,-4.861,-5.172,4.487,8.281,11,-1.914,1.749,5.209,8.458,-7.537,-8.296,-1.877,1.496,196.5,185.8,171.8,178.9,176.1,175.3,185.2,185.3,183.3,173.2,1,norm,1.918,1.156,-1.365,-1.528,-4.955,-5.068,-1.904,-1.911,-1.139,-1.309,1.499,-1.263,182.9,160.7,-4.857,-8.004,183.1,-1.459,8.012,4.389,-4.601,-8.328,2,4.392,4.651,5.009,4.436,1.835,1.611,1.218,1.658,2,4.506,4.523,60,98.3374651072,norm,0,7,7,7,189.911,189.916,189.918532832,189.919,189.922,189.926,up,1,1.59009494689,8.40990505311,001,015,800_600,Intel(R) Core(TM) i7-2670QM CPU @ 2.20GHz,orientation_search,GRVLAPTOP3,Intel(R) HD Graphics Family,2018_jul_02_1425,testMonitor,
166.4,179.3,185.0,168.0,36,-20,186.3,180.6,187.3,179.4,8.343,8.392,7.897,8.474,8.441,8.462,7.89,4.844,-4.836,-8.284,1.106,-1.581,8.251,5.109,-5.056,-7.523,156.5,171.0,-8.413,166.3,171.5,192.9,169.9,161.0,36,171.5,2,5,prime,10,0,68,norm,36,-5.13,down,norm,176.464204775,175.5,163.2,1.893,,2,163.8,178.8,175.8,10,6,7.756,5.264,2.014,-1.827,-4.373,-8.467,157.0,6,244.5,-8.351,-7.942,-20,-8.44,-8.447,-5.015,-5.281,-5.184,-5.284,4.634,7.759,14,-1.772,1.781,4.461,8.421,-7.618,-7.817,-1.638,1.414,170.5,178.2,165.5,172.3,174.1,177.3,160.9,184.3,196.5,168.3,2,norm,1.713,2.079,-1.812,-1.99,-5.151,-4.704,-2.031,-1.375,-1.304,-1.38,1.521,-1.645,167.7,184.3,-4.665,-7.605,165.5,-1.571,7.504,4.635,-5.003,-8.324,2,4.623,5.111,4.872,4.344,1.597,2.077,1.171,1.41,2,4.907,4.797,60,98.3374651072,norm,0,8,8,8,191.525,191.53,191.532355862,191.533,191.536,191.54,down,1,1.10900937795,8.89099062205,001,015,800_600,Intel(R) Core(TM) i7-2670QM CPU @ 2.20GHz,orientation_search,GRVLAPTOP3,Intel(R) HD Graphics Family,2018_jul_02_1425,testMonitor,
191.7,174.8,172.8,181.5,36,-20,174.2,161.0,196.5,164.5,7.698,8.252,8.293,7.817,7.742,7.992,8.193,5.02,-5.224,-8.421,2.045,-1.49,8.402,4.499,-4.833,-7.9,162.0,173.2,-7.822,156.5,192.1,171.0,176.8,188.4,36,173.3,1,5,prime,10,0,84,norm,36,-4.843,up,norm,176.464204775,183.9,173.2,1.948,179.1,3,174.0,168.8,174.0,10,6,8.139,4.603,2.055,-1.471,-5.18,-7.909,183.9,6,260.5,-7.561,-7.579,-20,-8.037,-8.213,-4.51,-4.637,-4.804,-4.534,4.88,7.567,9,-1.965,1.969,4.473,7.68,-8.334,-8.26,-1.633,1.179,,181.2,189.9,177.3,182.6,168.6,175.0,173.2,185.9,176.1,3,norm,1.927,1.146,-1.428,-2.071,-5.273,-4.436,-1.216,-1.282,-1.238,-1.621,1.293,-1.711,182.0,193.6,-5.094,-7.784,162.6,-1.347,7.774,4.389,-4.429,-7.915,2,4.686,4.687,4.819,4.526,1.878,1.775,1.449,1.753,2,4.957,4.329,60,98.3374651072,norm,0,9,9,9,192.656,192.663,192.664535308,192.665,192.668,192.671,up,1,1.30676955965,8.69323044035,001,015,800_600,Intel(R) Core(TM) i7-2670QM CPU @ 2.20GHz,orientation_search,GRVLAPTOP3,Intel(R) HD Graphics Family,2018_jul_02_1425,testMonitor,
172.2,178.9,195.4,179.3,36,-20,172.4,174.4,172.2,166.2,8.235,8.387,7.582,7.99,7.84,7.907,7.809,4.663,-5.284,-7.891,1.234,-1.954,7.829,4.834,-4.762,-7.742,,168.3,-8.319,170.1,170.8,174.1,185.2,185.6,36,166.8,5,5,prime,10,0,77,norm,36,-5.1,up,norm,176.464204775,174.5,168.5,1.75,182.6,5,167.9,171.9,183.9,10,6,8.101,4.554,1.974,-2.037,-5.199,-8.459,173.4,6,253.5,-7.776,-8.316,-20,-7.976,-8.389,-4.64,-5.082,-4.61,-5.233,5.244,8.433,35,-1.343,1.557,4.76,7.781,-7.999,-7.524,-1.448,1.748,195.4,156.5,171.2,180.5,187.6,174.3,176.4,164.9,158.2,185.5,4,norm,1.696,1.476,-1.722,-1.732,-4.953,-4.479,-1.53,-1.995,-1.208,-1.833,1.508,-1.469,196.5,181.2,-4.695,-7.517,174.7,-1.242,7.64,4.348,-4.682,-7.854,2,4.658,5.047,5.208,5.116,1.8,1.432,1.134,2.04,2,4.742,5.041,60,98.3374651072,norm,0,10,10,10,193.988,193.994,193.995692298,193.996,193.999,194.003,up,1,1.83841330872,8.16158669128,001,015,800_600,Intel(R) Core(TM) i7-2670QM CPU @ 2.20GHz,orientation_search,GRVLAPTOP3,Intel(R) HD Graphics Family,2018_jul_02_1425,testMonitor,
183.5,167.7,182.5,180.8,36,-20,156.5,164.8,166.6,,7.672,7.92,8.241,8.031,7.82,8.022,7.793,5.2,-4.451,-8.079,1.89,-1.608,7.728,5.189,-5.019,-7.667,185.5,179.5,-7.945,166.4,176.1,192.8,177.7,174.3,36,178.5,4,5,prime,10,0,88,norm,36,-5.285,up,norm,176.464204775,163.8,184.2,1.345,171.9,5,175.6,172.6,188.4,10,6,8.183,5.243,1.186,-1.794,-4.812,-7.885,184.5,6,264.5,-7.839,-8.224,-20,-8.057,-7.876,-5.034,-4.912,-4.396,-4.863,4.982,8.241,29,-1.956,1.406,5.031,8.186,-8.473,-8.136,-1.739,1.466,167.2,172.1,179.8,180.3,178.7,196.5,176.5,196.3,176.2,157.3,5,norm,1.226,1.352,-1.801,-1.143,-4.416,-4.63,-1.539,-2.001,-1.696,-1.802,1.594,-1.588,178.8,183.1,-4.322,-8.078,173.5,-1.956,7.975,4.781,-4.812,-7.966,2,4.521,5.192,4.532,4.917,1.361,1.57,1.743,1.999,2,5.032,4.999,60,98.3374651072,norm,0,11,11,11,195.85,195.855,195.857419964,195.858,195.862,195.866,down,0,1.60051888548,-10,001,015,800_600,Intel(R) Core(TM) i7-2670QM CPU @ 2.20GHz,orientation_search,GRVLAPTOP3,Intel(R) HD Graphics Family,2018_jul_02_1425,testMonitor,
263.8,267.5,264.0,263.5,36,20,264.2,264.1,260.7,259.5,8.478,7.965,7.682,7.666,8.287,8.056,8.164,4.933,-4.418,-7.819,2.013,-1.233,7.791,4.423,-4.334,-7.757,262.8,251.4,-7.96,254.5,258.0,256.2,249.7,260.7,36,257.1,0,5,probe,5,0,102,norm,36,-4.85,down,norm,259.747846241,254.7,255.7,1.364,255.1,0,262.8,262.0,265.2,10,6,8.423,4.651,1.231,-1.24,-4.436,-7.941,255.9,1,157.7,-7.842,-7.872,-20,-7.635,-7.735,-4.901,-4.994,-4.515,-5.194,4.622,8.068,0,-1.278,1.392,5.268,7.908,-8.335,-8.31,-1.724,1.556,254.4,257.9,264.7,257.5,269.7,,260.1,267.7,261.2,261.7,0,norm,1.814,1.31,-1.627,-1.768,-5.02,-5.037,-1.776,-1.527,-1.539,-1.275,1.664,-1.511,251.2,256.9,-5.033,-8.324,262.7,-1.665,8.141,4.823,-5.267,-8.128,3,4.671,5.006,5.272,4.306,2.035,1.457,1.675,1.553,3,5.133,4.907,-20,176.464204775,norm,0,12,12,12,198.476,198.481,198.483267204,198.484,198.486,198.49,down,1,0.875879810209,9.12412018979,001,015,800_600,Intel(R) Core(TM) i7-2670QM CPU @ 2.20GHz,orientation_search,GRVLAPTOP3,Intel(R) HD Graphics Family,2018_jul_02_1425,testMonitor,
157.6,149.6,134.2,163.4,36,60,145.2,161.8,135.1,126.8,8.275,7.904,8.364,7.963,8.024,8.069,8.423,4.671,-4.401,-7.86,1.388,-1.51,7.745,4.352,-5.152,-8.197,143.4,154.7,-7.604,166.8,143.0,154.0,153.1,141.9,36,152.2,0,5,prime,10,0,103,norm,36,-5.248,down,norm,146.808601183,147.9,148.7,1.582,148.4,1,144.9,149.0,148.3,10,6,8.42,4.831,1.487,-1.213,-4.825,-8.256,134.0,6,249.8,-8.435,-7.933,60,-7.926,-8.441,-5.079,-4.579,-4.498,-5.297,5.236,7.552,1,-1.398,1.238,5.049,8.21,-8.01,-7.877,-1.926,1.497,158.7,137.6,160.1,149.3,,147.4,149.1,132.6,159.4,133.5,0,norm,1.573,1.369,-1.922,-1.354,-4.577,-4.988,-1.386,-1.438,-1.149,-1.331,2.053,-1.127,135.6,156.3,-4.33,-8.179,149.1,-1.772,7.525,5.009,-4.761,-8.049,4,4.39,5.14,4.481,4.5,1.917,2.065,1.983,1.951,4,4.621,4.422,20,176.464204775,norm,0,13,13,13,199.374,199.38,199.382641151,199.383,199.386,199.39,down,1,1.17403583354,8.82596416646,001,015,800_600,Intel(R) Core(TM) i7-2670QM CPU @ 2.20GHz,orientation_search,GRVLAPTOP3,Intel(R) HD Graphics Family,2018_jul_02_1425,testMonitor,
,144.9,141.3,127.3,36,60,141.6,152.7,149.9,146.8,8.455,7.991,7.594,8.021,7.923,8.242,8.065,4.895,-5.057,-7.609,1.33,-1.198,7.548,5.204,-5.262,-7.839,147.3,142.6,-8.306,146.9,155.9,151.1,149.4,148.4,36,155.5,3,5,prime,10,0,97,norm,36,-5.011,up,norm,146.808601183,156.1,131.7,1.831,155.2,4,137.3,147.6,128.3,10,6,8.08,4.448,1.338,-1.557,-4.623,-7.749,141.7,6,243.8,-7.765,-8.343,60,-8.493,-8.111,-4.347,-5.226,-4.633,-4.872,4.78,8.08,22,-2.03,1.873,5.206,7.714,-8.242,-8.002,-1.726,1.347,126.8,161.9,153.2,166.8,153.3,153.3,143.4,142.8,153.7,151.8,1,norm,1.742,1.89,-2.034,-1.572,-4.597,-4.996,-1.442,-1.553,-1.727,-2.062,2.089,-1.245,148.0,155.5,-4.942,-8.212,143.2,-1.517,7.824,4.472,-5.245,-7.975,4,5.088,4.713,4.456,5.147,1.812,1.165,1.896,2.011,4,4.53,5.265,20,176.464204775,norm,0,14,14,14,200.573,200.579,200.581222715,200.582,200.585,200.589,up,1,0.990077109034,9.00992289097,001,015,800_600,Intel(R) Core(TM) i7-2670QM CPU @ 2.20GHz,orientation_search,GRVLAPTOP3,Intel(R) HD Graphics Family,2018_jul_02_1425,testMonitor,
143.5,149.8,158.1,136.3,36,60,147.0,127.2,141.0,126.8,8.493,7.867,8.438,8.336,8.212,7.931,8.496,5.236,-4.62,-7.995,1.916,-1.744,7.574,5.239,-5.084,-8.448,160.1,135.1,-7.621,136.4,,140.8,166.8,147.6,36,143.1,5,5,prime,10,0,107,norm,36,-4.344,down,norm,146.808601183,142.0,147.6,1.929,142.9,0,151.7,157.6,157.9,10,6,7.517,5.194,2.038,-1.822,-5.058,-8.101,146.2,6,253.8,-8.041,-7.829,60,-8.148,-7.979,-5.261,-4.97,-5.147,-4.341,4.577,8.359,30,-1.93,1.839,4.582,8.036,-8.264,-7.715,-1.935,1.599,154.0,148.4,160.2,135.6,135.5,154.6,143.4,139.0,131.5,147.8,2,norm,1.595,1.462,-1.672,-2.074,-4.644,-4.361,-1.644,-1.265,-1.607,-1.118,1.641,-1.768,155.5,143.7,-5.018,-8.112,148.2,-1.165,8.163,4.833,-4.453,-8.114,4,4.865,4.312,4.725,4.518,1.516,2.085,1.167,1.107,4,4.392,4.449,20,176.464204775,norm,0,15,15,15,201.587,201.592,201.59382502,201.594,201.597,201.601,down,1,0.972858908632,9.02714109137,001,015,800_600,Intel(R) Core(TM) i7-2670QM CPU @ 2.20GHz,orientation_search,GRVLAPTOP3,Intel(R) HD Graphics Family,2018_jul_02_1425,testMonitor,
145.1,147.9,,136.4,36,60,145.1,148.3,151.7,147.5,8.278,7.529,8.039,8.413,8.463,8.254,7.927,4.651,-4.957,-7.647,1.211,-1.69,8.329,5.292,-4.383,-7.922,150.0,133.0,-8.007,166.8,142.2,127.0,129.6,147.0,36,150.8,3,5,prime,10,0,112,norm,36,-4.504,down,norm,146.808601183,142.6,139.2,2.076,152.8,2,144.2,144.1,147.3,10,6,8.446,4.97,1.478,-2.092,-5.245,-7.897,163.1,6,258.8,-8.491,-8.013,60,-8.061,-7.696,-4.424,-4.356,-4.335,-4.786,5.057,7.772,20,-1.609,1.708,5.214,7.826,-8.219,-7.617,-1.904,1.344,153.7,150.6,126.8,142.5,133.5,146.2,136.4,145.1,165.5,136.1,3,norm,1.311,1.665,-1.555,-1.613,-4.718,-5.077,-1.712,-1.959,-1.74,-1.246,1.921,-1.694,134.0,127.1,-4.698,-8.056,146.2,-1.311,7.792,4.632,-4.938,-8.118,4,4.341,4.584,4.496,4.912,1.457,1.879,1.242,1.591,4,4.585,5.04,20,176.464204775,norm,0,16,16,16,202.583,202.589,202.590712267,202.591,202.594,202.598,up,0,1.04026032062,-10,001,015,800_600,Intel(R) Core(TM) i7-2670QM CPU @ 2.20GHz,orientation_search,GRVLAPTOP3,Intel(R) HD Graphics Family,2018_jul_02_1425,testMonitor,
149.9,145.9,128.7,138.7,36,60,140.9,139.6,158.6,151.1,7.805,8.324,8.324,7.661,7.686,8.447,7.981,4.971,-4.628,-8.08,2.04,-1.974,8.144,5.194,-4.92,-7.705,134.9,142.3,-7.695,156.1,160.0,154.2,143.5,145.3,36,136.8,2,5,prime,10,0,73,norm,36,-5.047,up,norm,146.808601183,156.6,,1.479,134.8,4,159.2,154.7,135.0,10,6,8.399,4.562,1.371,-1.736,-5.075,-8.086,155.0,6,219.8,-8.312,-8.324,60,-7.818,-8.439,-4.717,-4.986,-5.002,-5.116,4.982,7.724,16,-1.891,1.769,4.659,7.976,-8.31,-8.456,-1.413,1.39,144.7,149.3,166.2,138.0,135.1,132.2,145.1,166.8,150.3,126.8,4,norm,1.327,1.23,-1.331,-1.736,-5.225,-5.188,-1.464,-1.821,-1.555,-1.804,1.78,-1.568,163.4,145.7,-4.711,-8.337,131.0,-2.066,8.239,4.782,-5.149,-7.815,4,4.305,4.562,5.059,4.945,1.48,1.4,1.276,1.795,4,4.509,4.967,20,176.464204775,norm,0,17,17,17,204.653,204.659,204.66072912,204.661,204.664,204.667,up,1,0.765770275501,9.2342297245,001,015,800_600,Intel(R) Core(TM) i7-2670QM CPU @ 2.20GHz,orientation_search,GRVLAPTOP3,Intel(R) HD Graphics Family,2018_jul_02_1425,testMonitor,
165.4,148.4,,154.2,36,60,143.0,158.3,135.4,150.6,7.907,8.094,8.486,7.534,7.533,7.674,7.629,4.683,-4.403,-8.264,2.004,-1.193,8.228,4.368,-4.949,-7.675,136.3,142.5,-8.157,140.7,142.6,143.4,162.1,148.5,36,160.1,3,5,prime,10,0,114,norm,36,-4.777,down,norm,146.808601183,147.2,126.8,1.294,148.8,2,156.6,147.2,159.6,10,6,8.047,4.398,1.529,-1.92,-5.036,-7.501,145.5,6,260.8,-8.001,-8.016,60,-8.022,-8.242,-4.861,-4.982,-4.782,-5.035,4.962,7.936,20,-1.69,1.707,4.925,8.308,-8.362,-7.725,-1.186,1.106,137.9,147.8,129.2,155.4,147.5,161.1,135.7,166.8,129.0,144.2,5,norm,1.185,1.342,-1.111,-1.326,-4.739,-5.135,-1.278,-1.402,-1.128,-1.47,1.914,-2.073,140.5,147.3,-4.313,-7.817,137.9,-1.639,7.633,5.198,-4.969,-7.742,4,4.585,4.602,4.905,5.039,1.907,1.275,1.279,1.937,4,5.032,4.315,20,176.464204775,norm,0,18,18,18,205.441,205.447,205.449201569,205.45,205.453,205.456,down,1,1.23846411392,8.76153588608,001,015,800_600,Intel(R) Core(TM) i7-2670QM CPU @ 2.20GHz,orientation_search,GRVLAPTOP3,Intel(R) HD Graphics Family,2018_jul_02_1425,testMonitor,
285.1,275.9,285.3,272.0,36,0,,271.3,278.7,272.4,8.39,8.223,8.28,7.576,7.992,7.969,8.002,5.132,-4.697,-8.167,1.358,-1.467,7.801,4.8,-4.373,-8.483,272.0,288.1,-7.662,281.7,278.2,283.5,282.4,282.5,36,276.1,4,5,probe,5,0,67,norm,36,-4.549,down,norm,278.096166994,284.2,282.1,1.12,274.5,0,270.4,269.2,276.7,10,6,7.699,4.653,1.92,-1.385,-4.77,-7.713,280.8,1,211.1,-8.486,-7.942,60,-8.247,-8.387,-4.989,-4.56,-5.235,-4.619,4.459,8.089,24,-1.796,1.44,5.218,7.663,-7.754,-7.741,-1.463,1.619,276.2,273.7,284.5,269.8,268.1,274.9,283.6,271.4,281.4,278.5,0,norm,1.322,1.551,-1.707,-1.417,-4.7,-4.691,-1.408,-1.128,-1.823,-2.044,1.869,-1.191,284.1,273.7,-4.963,-8.314,282.1,-2.084,7.644,4.428,-5.293,-8.099,5,4.541,4.943,4.773,4.988,1.474,1.254,1.212,2.011,5,4.378,4.885,60,146.808601183,norm,0,19,19,19,206.703,206.709,206.711295238,206.712,206.715,206.718,down,1,0.877974590861,9.12202540914,001,015,800_600,Intel(R) Core(TM) i7-2670QM CPU @ 2.20GHz,orientation_search,GRVLAPTOP3,Intel(R) HD Graphics Family,2018_jul_02_1425,testMonitor,
260.4,270.2,267.2,284.2,36,20,291.3,279.9,265.2,276.6,7.625,7.855,7.63,7.629,8.498,8.301,8.404,4.416,-4.909,-7.521,1.867,-1.439,8.356,4.622,-4.68,-7.59,269.8,265.6,-8.331,268.3,264.9,272.3,278.0,262.0,36,270.0,2,5,prime,10,0,111,norm,36,-4.868,up,norm,271.251633312,254.6,,1.427,251.3,4,280.5,253.7,270.5,10,5,7.924,4.77,1.796,-1.176,-4.916,-8.478,271.0,5,382.3,-7.719,-7.599,20,-7.675,-7.714,-4.458,-5.195,-4.872,-5.094,4.652,7.886,16,-1.464,1.35,4.57,7.572,-8.247,-7.809,-1.733,1.588,282.7,282.6,275.1,285.8,274.6,283.6,277.3,274.2,259.5,278.9,0,norm,1.786,1.546,-1.6,-1.504,-5.216,-5.1,-1.535,-1.875,-1.955,-1.487,1.591,-1.252,280.2,263.0,-5.027,-7.701,265.5,-1.24,7.812,5.099,-4.985,-7.563,6,4.825,4.733,4.409,4.322,1.353,2.074,1.943,1.966,6,4.395,4.85,0,146.808601183,norm,0,20,20,20,207.606,207.612,207.613756722,207.614,207.617,207.621,up,1,0.873296122882,9.12670387712,001,015,800_600,Intel(R) Core(TM) i7-2670QM CPU @ 2.20GHz,orientation_search,GRVLAPTOP3,Intel(R) HD Graphics Family,2018_jul_02_1425,testMonitor,
274.8,253.5,274.9,277.9,36,20,286.7,285.1,281.5,267.0,7.608,7.876,7.702,7.607,8.497,7.674,8.369,4.672,-5.111,-8.355,1.717,-1.973,8.138,4.689,-4.555,-8.399,272.7,285.2,-7.956,278.2,265.1,254.6,286.4,264.5,36,266.8,3,5,prime,10,0,99,norm,36,-4.962,down,norm,271.251633312,262.2,271.1,1.293,268.3,0,282.0,291.3,275.7,10,5,7.986,4.856,2.015,-1.868,-4.767,-8.339,283.9,5,370.3,-8.038,-7.781,20,-8.249,-7.903,-4.616,-4.866,-4.821,-4.924,4.767,8.215,18,-1.112,1.635,4.909,7.802,-7.859,-7.676,-2.064,1.123,272.7,266.9,269.2,266.9,251.3,275.6,275.0,270.8,280.8,281.1,1,norm,1.13,1.825,-2.032,-1.741,-4.817,-4.576,-1.659,-2.089,-1.414,-1.423,1.612,-1.642,268.8,,-4.685,-7.62,272.3,-2.055,7.646,4.505,-4.304,-7.675,6,5.056,4.483,4.412,5.234,1.7,1.868,1.583,1.806,6,5.087,4.418,0,146.808601183,norm,0,21,21,21,208.502,208.508,208.509792843,208.51,208.513,208.517,down,1,0.72614455294,9.27385544706,001,015,800_600,Intel(R) Core(TM) i7-2670QM CPU @ 2.20GHz,orientation_search,GRVLAPTOP3,Intel(R) HD Graphics Family,2018_jul_02_1425,testMonitor,
258.1,283.9,277.9,268.8,36,20,260.0,282.7,283.3,275.1,8.368,8.223,7.85,7.956,7.596,8.317,8.307,4.553,-4.703,-8.202,1.988,-1.238,8.369,5.245,-4.819,-8.058,251.3,271.4,-8.051,284.7,287.2,269.2,258.7,252.6,36,268.2,1,5,prime,10,0,68,norm,36,-4.581,down,norm,271.251633312,255.7,281.9,1.823,265.8,2,266.8,268.6,284.5,10,5,8.039,5.042,1.303,-1.772,-5.072,-7.684,269.2,5,339.3,-8.214,-8.006,20,-7.616,-8.002,-5.195,-5.171,-5.017,-4.955,4.627,8.002,8,-1.216,2.069,4.49,8.45,-7.682,-7.576,-1.953,1.996,263.2,,267.4,259.4,269.4,280.3,265.5,274.5,291.3,269.0,2,norm,1.166,1.743,-1.95,-1.602,-4.893,-4.988,-1.486,-1.954,-2.079,-1.335,1.311,-1.863,270.2,273.9,-4.784,-8.403,270.4,-1.35,8.431,4.736,-4.743,-7.502,6,4.67,5.039,5.071,4.427,1.205,1.894,1.391,1.153,6,5.059,5.053,0,146.808601183,norm,0,22,22,22,209.251,209.258,209.259743929,209.26,209.263,209.267,down,1,1.59090558871,8.40909441129,001,015,800_600,Intel(R) Core(TM) i7-2670QM CPU @ 2.20GHz,orientation_search,GRVLAPTOP3,Intel(R) HD Graphics Family,2018_jul_02_1425,testMonitor,
251.3,291.3,279.3,282.9,36,20,261.1,280.1,282.4,288.4,8.19,7.842,8.006,7.734,8.036,8.421,7.558,4.323,-4.401,-8.34,1.694,-1.411,7.879,4.976,-4.903,-8.307,272.0,270.6,-8.493,256.0,274.9,281.5,262.5,264.1,36,284.4,0,5,prime,10,0,81,norm,36,-5.157,up,norm,271.251633312,267.3,252.1,1.372,282.5,4,266.4,268.4,283.4,10,5,8.292,4.738,1.387,-1.849,-4.71,-8.227,286.1,5,352.3,-8.464,-8.391,20,-8.393,-8.236,-4.431,-4.877,-4.95,-4.653,4.545,7.509,4,-2.013,1.505,4.594,7.572,-7.502,-7.989,-2.043,1.904,272.6,288.7,283.2,264.8,266.6,271.1,265.2,266.0,267.7,,3,norm,1.41,1.321,-1.408,-1.158,-4.996,-5.061,-1.931,-1.643,-1.371,-1.156,1.413,-1.685,279.7,282.4,-4.747,-8.132,269.4,-1.302,8.042,4.876,-5.195,-7.922,6,5.117,4.366,4.715,4.679,1.776,1.195,1.614,1.651,6,4.598,4.982,0,146.808601183,norm,0,23,23,23,210.867,210.872,210.873965743,210.874,210.877,210.881,up,1,2.0233554501,7.9766445499,001,015,800_600,Intel(R) Core(TM) i7-2670QM CPU @ 2.20GHz,orientation_search,GRVLAPTOP3,Intel(R) HD Graphics Family,2018_jul_02_1425,testMonitor,
273.4,273.4,259.2,281.8,36,20,251.3,254.6,265.8,272.5,8.173,7.945,8.095,8.478,8.416,7.82,8.25,4.527,-4.779,-8.188,1.809,-2.074,8.448,4.899,-5.17,-7.651,283.0,272.9,-8.226,264.2,282.1,271.5,273.5,265.3,36,281.4,2,5,prime,10,0,100,norm,36,-4.75,down,norm,271.251633312,258.6,253.6,1.156,279.8,0,283.5,260.7,,10,5,7.579,5.032,1.283,-1.227,-5.218,-7.805,291.3,5,371.3,-7.776,-8.125,20,-8.416,-8.287,-5.059,-4.703,-4.601,-5.122,4.324,7.566,12,-2.075,1.125,5.025,7.709,-8.493,-7.701,-1.439,1.533,280.3,277.8,283.6,258.6,260.5,267.9,270.9,283.8,263.4,264.7,4,norm,1.253,1.597,-1.785,-1.68,-4.442,-5.134,-1.151,-1.229,-2.044,-1.98,1.855,-1.276,282.3,262.8,-4.739,-7.545,278.6,-1.824,7.893,4.637,-4.302,-8.257,6,4.493,4.524,4.992,4.342,1.478,1.846,1.316,1.457,6,5.009,5.25,0,146.808601183,norm,0,24,24,24,212.913,212.918,212.920373586,212.921,212.924,212.928,down,1,1.50146415175,8.49853584825,001,015,800_600,Intel(R) Core(TM) i7-2670QM CPU @ 2.20GHz,orientation_search,GRVLAPTOP3,Intel(R) HD Graphics Family,2018_jul_02_1425,testMonitor,
393.4,396.7,395.5,391.9,36,-40,397.5,392.4,394.4,400.1,7.959,8.24,7.636,7.611,7.511,8.045,7.54,4.466,-4.782,-7.93,1.116,-1.132,7.575,4.557,-4.854,-7.993,401.3,403.9,-8.492,394.6,397.5,393.4,392.9,395.7,36,402.9,1,5,probe,5,0,107,norm,36,-4.406,up,norm,397.684788972,406.6,389.8,1.473,399.4,3,399.0,399.8,407.7,10,5,7.512,4.946,1.703,-1.368,-5.088,-7.931,401.1,2,290.7,-7.785,-8.397,20,-8.328,-7.797,-4.797,-4.741,-4.893,-5.101,5.182,7.719,9,-1.356,1.305,4.485,7.668,-7.98,-8.088,-1.253,2.03,,403.6,393.6,399.6,401.0,393.8,394.5,395.6,387.7,390.5,0,norm,1.779,1.516,-1.32,-1.884,-4.594,-4.43,-1.785,-1.452,-1.571,-1.162,1.455,-1.613,402.1,402.6,-4.532,-8.121,396.0,-1.466,8.239,4.639,-5.297,-7.581,7,5.129,4.542,5.142,4.41,1.432,1.904,2.041,1.422,7,4.322,4.518,20,271.251633312,norm,0,25,25,25,214.437,214.444,214.445753073,214.446,214.449,214.453,up,1,1.18845834697,8.81154165303,001,015,800_600,Intel(R) Core(TM) i7-2670QM CPU @ 2.20GHz,orientation_search,GRVLAPTOP3,Intel(R) HD Graphics Family,2018_jul_02_1425,testMonitor,
394.4,400.2,399.4,397.8,36,-40,401.7,390.6,392.3,392.6,8.186,7.828,7.567,7.77,7.555,7.594,7.666,4.963,-5.214,-7.59,1.658,-1.743,8.358,4.612,-5.131,-8.385,389.9,388.9,-8.366,401.6,396.7,387.3,398.4,401.5,36,394.2,3,5,probe,5,0,106,norm,36,-4.874,down,norm,396.684788972,391.5,406.7,1.344,398.0,1,386.7,392.0,388.2,10,5,7.808,4.36,1.252,-1.733,-5.12,-8.378,389.8,2,290.7,-8.203,-7.719,20,-8.442,-7.565,-4.433,-5.146,-4.407,-4.42,4.453,8.197,19,-1.586,1.927,5.001,7.785,-7.84,-7.509,-2.032,1.377,395.1,396.1,397.1,396.8,398.0,395.3,398.7,391.5,394.5,403.6,1,norm,1.571,1.248,-1.761,-2.031,-5.063,-4.653,-2.064,-1.936,-2.091,-1.538,1.607,-1.461,,396.8,-4.67,-7.862,399.3,-1.412,7.963,4.532,-4.756,-8.312,7,4.414,5.046,5.21,4.926,2.047,1.424,1.671,1.153,7,4.583,4.39,20,271.251633312,norm,0,26,26,26,215.65,215.656,215.657619636,215.658,215.661,215.665,down,1,0.796417766318,9.20358223368,001,015,800_600,Intel(R) Core(TM) i7-2670QM CPU @ 2.20GHz,orientation_search,GRVLAPTOP3,Intel(R) HD Graphics Family,2018_jul_02_1425,testMonitor,
118.4,128.5,97.0,114.2,36,80,117.6,103.5,102.9,110.4,8.115,7.949,8.071,7.932,7.756,7.582,7.773,4.385,-4.684,-8.168,1.468,-1.42,8.123,4.543,-4.36,-8.036,114.3,104.1,-8.462,104.7,120.9,108.7,117.4,123.8,36,122.1,1,5,prime,10,0,66,norm,36,-5.292,up,norm,112.179280855,131.3,121.1,1.755,104.3,5,,92.7,132.2,10,6,8.487,5.026,1.732,-1.133,-4.602,-7.637,111.6,6,178.2,-8.232,-7.922,80,-7.654,-7.789,-4.342,-4.511,-4.537,-4.471,4.87,7.695,11,-1.532,1.187,5.198,7.645,-7.99,-7.82,-1.56,1.131,115.4,114.2,102.5,106.7,126.4,106.6,108.2,101.6,92.2,117.3,0,norm,1.449,1.399,-1.639,-1.845,-5.21,-4.918,-1.474,-2.1,-1.644,-1.19,1.607,-1.24,118.6,112.0,-4.663,-7.543,101.4,-1.988,7.788,5.136,-4.918,-7.835,8,5.288,4.399,4.993,4.896,1.773,1.957,1.648,1.366,8,4.754,4.32,-40,271.251633312,norm,0,27,27,27,216.47,216.476,216.477645478,216.478,216.481,216.484,up,1,1.04751266978,8.95248733022,001,015,800_600,Intel(R) Core(TM) i7-2670QM CPU @ 2.20GHz,orientation_search,GRVLAPTOP3,Intel(R) HD Graphics Family,2018_jul_02_1425,testMonitor,
125.9,132.2,115.6,102.0,36,80,105.9,105.2,112.5,127.1,7.97,7.938,7.718,7.645,7.536,7.546,7.832,4.861,-5.27,-8.098,1.767,-1.271,8.407,4.512,-5.185,-8.279,126.0,110.1,-8.332,107.8,111.8,121.4,127.7,120.8,36,123.0,1,5,prime,10,0,73,norm,36,-4.471,down,norm,112.179280855,113.6,106.4,1.948,108.8,1,92.2,107.7,113.8,10,6,8.387,4.447,1.639,-1.474,-5.159,-7.898,118.8,6,185.2,-8.477,-8.448,80,-8.247,-7.679,-4.969,-4.434,-4.975,-4.428,4.72,7.925,7,-1.201,1.321,4.979,8.163,-8.356,-8.251,-1.872,1.631,118.4,119.8,114.2,113.8,122.5,106.3,,105.4,118.6,128.8,1,norm,1.825,1.338,-1.554,-1.969,-4.787,-4.306,-1.52,-1.76,-2.01,-1.422,2.031,-1.462,97.7,123.8,-5.166,-7.596,126.1,-1.712,7.732,5.079,-4.559,-8.068,8,4.511,4.726,5.211,4.789,1.818,2.032,1.366,1.519,8,4.674,4.502,-40,271.251633312,norm,0,28,28,28,217.54,217.547,217.549532036,217.55,217.553,217.557,down,1,0.761663833,9.238336167,001,015,800_600,Intel(R) Core(TM) i7-2670QM CPU @ 2.20GHz,orientation_search,GRVLAPTOP3,Intel(R) HD Graphics Family,2018_jul_02_1425,testMonitor,
98.4,98.9,107.8,107.4,36,80,98.6,115.5,128.3,117.4,7.982,7.836,7.957,8.31,7.526,7.785,8.138,4.6,-5.212,-7.629,1.557,-1.123,7.617,4.517,-4.454,-8.437,110.2,114.3,-7.697,103.5,112.9,129.0,99.0,112.6,36,117.0,1,5,prime,10,0,94,norm,36,-4.94,down,norm,112.179280855,123.8,102.1,1.629,110.3,2,127.7,101.5,111.7,10,6,7.754,4.547,1.168,-1.517,-5.116,-7.536,121.7,6,206.2,-7.571,-7.622,80,-8.287,-8.209,-4.427,-4.782,-5.052,-4.505,5.244,8.011,8,-1.315,1.627,4.358,8.217,-7.77,-7.512,-2.077,1.759,126.6,,109.2,120.4,106.6,132.2,103.3,96.1,92.2,93.9,2,norm,1.421,1.909,-2.065,-1.443,-5.129,-4.638,-1.345,-1.638,-1.655,-1.363,1.566,-1.946,94.7,132.1,-4.351,-7.555,116.8,-1.253,8.125,5.069,-5.13,-7.901,8,5.132,5.091,5.229,4.564,1.818,1.501,1.941,1.281,8,4.842,4.759,-40,271.251633312,norm,0,29,29,29,218.327,218.333,218.334737169,218.335,218.338,218.342,down,1,0.822400797941,9.17759920206,001,015,800_600,Intel(R) Core(TM) i7-2670QM CPU @ 2.20GHz,orientation_search,GRVLAPTOP3,Intel(R) HD Graphics Family,2018_jul_02_1425,testMonitor,
121.1,106.9,115.6,117.5,36,80,100.2,110.0,105.0,122.1,8.001,7.777,7.626,7.622,8.144,7.88,8.343,5.282,-4.961,-8.263,1.205,-1.868,7.849,5.201,-4.786,-8.045,107.5,116.6,-8.011,119.3,101.6,132.2,99.2,,36,122.7,4,5,prime,10,0,93,norm,36,-5.015,down,norm,112.179280855,111.0,112.9,2.045,114.2,2,111.7,113.2,104.1,10,6,8.357,4.957,1.115,-1.922,-5.118,-7.778,110.1,6,205.2,-7.634,-7.708,80,-8.166,-8.36,-4.397,-5.036,-4.564,-5.232,4.599,8.304,26,-1.567,1.326,4.334,7.939,-8.3,-8.452,-1.739,1.442,119.4,122.8,98.0,92.2,130.4,107.2,115.4,114.1,115.5,109.3,3,norm,1.895,1.424,-1.493,-2.048,-4.568,-5.129,-1.105,-1.92,-1.805,-1.586,1.854,-1.73,110.8,102.2,-4.382,-8.21,121.6,-1.172,7.999,4.549,-5.018,-7.568,8,4.405,4.567,4.326,4.548,1.968,1.335,1.95,1.224,8,5.285,5.009,-40,271.251633312,norm,0,30,30,30,219.172,219.178,219.180196431,219.181,219.184,219.187,down,1,0.836937716465,9.16306228354,001,015,800_600,Intel(R) Core(TM) i7-2670QM CPU @ 2.20GHz,orientation_search,GRVLAPTOP3,Intel(R) HD Graphics Family,2018_jul_02_1425,testMonitor,
103.1,114.2,112.5,,36,80,107.9,109.1,119.2,131.8,7.65,8.126,7.903,8.14,7.537,8.207,7.998,4.852,-4.94,-8.029,1.413,-1.676,7.986,4.434,-4.31,-8.477,105.7,126.1,-7.777,114.7,102.5,106.9,97.0,115.0,36,111.0,3,5,prime,10,0,93,norm,36,-5.279,up,norm,112.179280855,132.2,103.8,1.513,101.4,3,124.1,95.8,92.2,10,6,7.597,5.173,1.254,-1.38,-4.695,-7.672,99.6,6,205.2,-7.904,-8.397,80,-8.43,-7.586,-4.72,-4.865,-4.824,-4.772,5.046,8.131,21,-1.303,1.129,5.051,7.832,-8.112,-8.024,-1.905,1.479,110.6,102.7,111.7,118.3,111.6,102.9,127.4,125.0,117.3,98.7,4,norm,1.675,2.003,-1.787,-1.639,-4.753,-4.327,-1.328,-1.352,-1.737,-1.57,1.711,-1.655,116.3,118.9,-4.431,-7.943,99.0,-1.6,7.924,4.509,-4.804,-7.72,8,4.323,5.169,4.529,4.459,2.082,1.906,2.016,1.945,8,4.428,5.234,-40,271.251633312,norm,0,31,31,31,220.032,220.04,220.041620107,220.042,220.045,220.049,up,1,1.16793780846,8.83206219154,001,015,800_600,Intel(R) Core(TM) i7-2670QM CPU @ 2.20GHz,orientation_search,GRVLAPTOP3,Intel(R) HD Graphics Family,2018_jul_02_1425,testMonitor,
119.6,104.8,110.8,95.6,36,80,105.2,114.3,117.8,106.4,7.65,8.344,7.836,8.375,7.602,7.63,8.216,5.12,-5.205,-8.073,1.644,-1.785,8.044,5.084,-5.16,-8.417,117.8,113.9,-7.979,118.2,113.7,117.0,113.6,98.5,36,121.8,1,5,prime,10,0,106,norm,36,-5.102,down,norm,112.179280855,104.3,105.9,1.455,119.9,2,102.9,116.4,92.2,10,6,8.224,5.232,1.788,-1.827,-4.701,-7.976,106.1,6,218.2,-7.555,-7.651,80,-7.566,-7.997,-4.363,-4.523,-4.364,-4.71,4.55,8.43,8,-1.209,1.239,4.935,7.941,-7.846,-8.171,-1.702,1.331,100.7,,104.7,110.4,102.2,112.4,105.6,132.2,121.5,114.9,5,norm,1.647,2.1,-1.279,-1.924,-4.715,-4.343,-1.113,-1.858,-1.957,-1.632,1.39,-1.333,103.0,97.8,-5.224,-8.01,92.5,-1.748,7.632,4.783,-4.873,-8.446,8,4.811,4.842,4.656,4.772,2.054,2.039,1.412,2.041,8,4.563,4.76,-40,271.251633312,norm,0,32,32,32,221.225,221.231,221.232935313,221.233,221.236,221.24,down,1,0.845602618336,9.15439738166,001,015,800_600,Intel(R) Core(TM) i7-2670QM CPU @ 2.20GHz,orientation_search,GRVLAPTOP3,Intel(R) HD Graphics Family,2018_jul_02_1425,testMonitor,
276.7,271.8,270.0,273.5,36,-10,267.8,273.9,265.2,275.2,8.321,7.627,8.303,7.86,7.817,8.121,7.805,4.418,-5.156,-7.867,1.285,-1.895,7.548,4.58,-4.45,-7.531,275.3,277.1,-8.403,282.3,268.0,273.5,270.7,272.1,36,270.0,0,5,probe,5,0,89,norm,36,-4.997,up,norm,272.258773441,266.9,271.6,1.74,273.3,3,272.1,274.8,273.8,10,6,8.206,4.732,1.726,-1.72,-4.374,-7.803,269.6,2,183.3,-8.076,-8.06,80,-7.925,-7.839,-5.206,-4.94,-4.689,-4.566,4.528,8.365,3,-1.861,1.956,4.743,8.411,-8.357,-8.024,-1.431,1.468,271.1,262.3,,277.4,274.6,268.3,276.2,276.0,264.6,278.8,0,norm,1.877,1.319,-1.79,-1.984,-4.892,-4.515,-1.55,-1.175,-1.862,-2.063,1.219,-2.046,269.0,263.6,-4.453,-8.244,270.6,-1.305,7.886,5.053,-4.939,-7.749,9,5.173,4.517,4.528,4.903,1.206,1.886,1.123,1.365,9,5.198,4.62,80,112.179280855,norm,0,33,33,33,222.093,222.099,222.101159321,222.102,222.105,222.108,up,1,1.05942153982,8.94057846018,001,015,800_600,Intel(R) Core(TM) i7-2670QM CPU @ 2.20GHz,orientation_search,GRVLAPTOP3,Intel(R) HD Graphics Family,2018_jul_02_1425,testMonitor,
276.5,268.1,279.4,272.5,36,-10,269.1,272.5,278.2,,8.047,7.557,7.552,7.761,7.712,7.657,8.011,5.085,-4.762,-7.508,1.862,-1.788,8.388,4.742,-5.186,-8.133,262.3,282.3,-8.006,267.7,272.1,279.4,265.2,268.7,36,271.2,4,5,probe,5,0,89,norm,36,-4.918,up,norm,272.258773441,276.1,275.9,2.027,280.8,5,272.1,270.3,273.2,10,6,8.148,4.341,2.001,-1.158,-4.832,-8.449,274.6,2,183.3,-8.33,-7.919,80,-7.828,-7.724,-4.872,-4.491,-4.687,-4.829,4.793,8.47,29,-1.608,1.1,4.838,7.612,-7.791,-8.039,-1.751,1.919,277.8,271.8,277.7,268.9,267.2,267.2,273.8,279.2,268.2,281.1,1,norm,1.341,1.814,-2.062,-1.913,-4.629,-5.129,-1.764,-1.32,-1.26,-1.916,2.051,-1.163,274.0,271.6,-4.703,-7.748,268.0,-1.823,7.868,4.922,-4.444,-8.178,9,5.171,4.987,5.149,4.609,1.667,1.255,1.132,1.889,9,4.576,4.483,80,112.179280855,norm,0,34,34,34,223.176,223.182,223.184412142,223.185,223.187,223.191,up,1,1.40528308724,8.59471691276,001,015,800_600,Intel(R) Core(TM) i7-2670QM CPU @ 2.20GHz,orientation_search,GRVLAPTOP3,Intel(R) HD Graphics Family,2018_jul_02_1425,testMonitor,
111.6,106.9,123.4,113.4,36,-80,136.3,115.8,121.0,116.4,7.825,7.601,7.635,8.454,7.517,7.796,7.572,4.769,-5.18,-7.928,1.964,-1.337,8.094,4.879,-5.032,-8.442,133.4,125.3,-8.342,104.4,112.5,128.5,100.6,96.3,36,105.1,2,5,prime,10,0,60,norm,36,-4.787,down,norm,116.334995828,107.3,108.9,1.889,123.9,0,132.2,126.2,,10,6,8.058,4.727,1.463,-1.858,-4.859,-8.033,111.0,6,176.3,-7.857,-8.134,-80,-8.194,-8.047,-4.623,-4.47,-4.414,-4.537,4.815,7.691,12,-1.138,1.865,4.478,7.813,-8.207,-8.036,-1.956,2.091,109.8,118.5,113.0,105.0,116.4,103.5,102.1,106.6,100.7,115.6,0,norm,1.386,1.688,-1.675,-1.774,-4.423,-4.679,-1.847,-1.567,-1.11,-1.426,1.997,-1.836,124.5,110.8,-4.776,-8.186,111.1,-1.342,8.436,4.94,-4.495,-7.628,10,4.906,4.395,4.763,4.496,2.007,1.145,1.107,1.699,10,4.31,4.392,-10,112.179280855,norm,0,35,35,35,224.605,224.611,224.612835878,224.613,224.616,224.62,down,1,1.4314239512,8.5685760488,001,015,800_600,Intel(R) Core(TM) i7-2670QM CPU @ 2.20GHz,orientation_search,GRVLAPTOP3,Intel(R) HD Graphics Family,2018_jul_02_1425,testMonitor,
125.8,107.0,125.9,136.3,36,-80,103.7,109.6,112.1,125.0,8.489,8.109,7.915,7.609,8.407,7.786,7.771,5.035,-4.558,-7.594,1.135,-1.509,7.907,4.779,-4.437,-8.158,120.9,116.7,-8.327,106.3,115.2,120.5,121.0,125.8,36,114.0,0,5,prime,10,0,106,norm,36,-4.857,down,norm,116.334995828,115.3,112.8,1.397,109.7,1,111.8,96.3,109.9,10,6,7.654,4.32,1.423,-1.403,-5.025,-7.515,116.3,6,222.3,-7.589,-8.027,-80,-7.922,-7.786,-4.91,-4.589,-5.054,-5.027,4.825,8.327,1,-1.805,1.739,4.416,7.676,-8.256,-8.111,-1.816,1.399,110.0,100.9,119.3,107.1,,109.5,134.4,120.1,121.9,118.5,1,norm,1.632,1.322,-1.506,-1.31,-5.02,-4.892,-1.29,-1.143,-1.463,-1.998,1.871,-1.358,116.8,106.2,-5.132,-8.171,117.6,-1.191,7.525,4.99,-4.601,-8.184,10,5.125,5.023,4.838,5.235,1.782,1.792,1.116,1.588,10,4.915,4.365,-10,112.179280855,norm,0,36,36,36,226.06,226.066,226.067877711,226.068,226.071,226.075,down,1,0.830434837425,9.16956516257,001,015,800_600,Intel(R) Core(TM) i7-2670QM CPU @ 2.20GHz,orientation_search,GRVLAPTOP3,Intel(R) HD Graphics Family,2018_jul_02_1425,testMonitor,
133.8,112.4,116.5,113.9,36,-80,96.3,120.5,128.9,106.6,7.959,7.768,8.304,7.784,8.278,8.463,8.288,4.569,-4.726,-8.047,1.572,-1.366,8.103,5.0,-4.496,-7.626,134.8,122.0,-7.627,109.3,112.5,114.6,126.1,117.0,36,108.6,0,5,prime,10,0,104,norm,36,-5.012,up,norm,116.334995828,121.4,133.5,1.918,136.3,4,119.5,116.6,121.3,10,6,8.072,4.826,1.606,-2.064,-4.392,-7.981,114.7,6,220.3,-7.582,-8.232,-80,-7.994,-8.145,-5.129,-5.228,-4.323,-4.413,4.674,8.059,4,-2.014,1.539,4.711,8.199,-8.237,-7.526,-1.309,1.127,130.2,117.4,116.7,123.3,113.0,101.9,113.8,124.3,115.4,,2,norm,1.99,1.272,-1.983,-1.927,-4.52,-4.653,-1.749,-1.9,-1.94,-1.352,1.94,-2.026,117.3,131.4,-4.873,-7.519,118.8,-1.363,8.285,4.584,-5.085,-8.021,10,4.572,5.17,4.825,4.346,1.782,1.358,1.329,1.217,10,5.023,5.231,-10,112.179280855,norm,0,37,37,37,226.914,226.921,226.922808781,226.923,226.926,226.93,up,1,0.736762746712,9.26323725329,001,015,800_600,Intel(R) Core(TM) i7-2670QM CPU @ 2.20GHz,orientation_search,GRVLAPTOP3,Intel(R) HD Graphics Family,2018_jul_02_1425,testMonitor,
104.6,96.3,103.5,114.2,36,-80,112.5,119.9,122.0,114.1,7.815,7.82,7.997,8.262,7.857,8.461,7.877,4.643,-4.367,-7.538,1.37,-1.525,8.305,4.762,-5.072,-7.647,132.1,123.4,-8.436,136.3,132.0,125.2,131.0,116.0,36,110.0,0,5,prime,10,0,86,norm,36,-4.383,up,norm,116.334995828,117.1,132.9,1.47,115.3,5,116.6,113.4,103.7,10,6,7.848,4.682,1.853,-1.886,-4.813,-8.067,112.4,6,202.3,-8.396,-7.76,-80,-7.632,-8.032,-5.243,-4.506,-4.598,-4.886,5.031,8.495,5,-1.778,1.659,4.637,7.833,-7.828,-8.012,-2.033,1.877,101.3,108.5,98.7,103.5,124.4,128.4,116.9,109.1,,107.8,3,norm,1.213,1.2,-1.335,-2.078,-5.272,-4.693,-1.753,-1.988,-1.563,-2.019,1.7,-1.511,120.1,109.4,-5.04,-7.573,121.9,-1.429,7.961,4.546,-4.667,-7.657,10,5.147,4.707,4.406,5.037,1.61,1.816,1.183,1.555,10,4.47,5.264,-10,112.179280855,norm,0,38,38,38,227.676,227.681,227.683213224,227.684,227.686,227.69,up,1,0.700573379662,9.29942662034,001,015,800_600,Intel(R) Core(TM) i7-2670QM CPU @ 2.20GHz,orientation_search,GRVLAPTOP3,Intel(R) HD Graphics Family,2018_jul_02_1425,testMonitor,
121.2,111.7,,104.5,36,-80,111.6,116.6,133.8,124.4,8.115,7.934,7.646,8.075,7.89,7.529,7.536,5.137,-5.285,-8.269,1.914,-1.516,7.926,4.385,-4.936,-8.061,109.7,126.5,-8.378,116.4,121.3,123.7,115.9,112.5,36,99.7,3,5,prime,10,0,78,norm,36,-4.426,down,norm,116.334995828,112.3,105.3,1.301,115.6,2,117.0,128.1,111.9,10,6,8.165,4.616,1.945,-1.429,-4.606,-8.369,125.5,6,194.3,-7.903,-8.118,-80,-7.919,-8.406,-4.784,-4.412,-5.009,-4.949,4.894,7.858,20,-1.793,2.019,5.264,7.902,-7.924,-8.432,-1.787,1.622,96.3,133.1,116.9,115.5,112.0,127.2,112.3,109.0,112.7,106.7,4,norm,1.335,1.652,-2.056,-1.217,-4.936,-4.957,-1.662,-1.749,-1.615,-1.166,1.883,-2.087,136.3,123.4,-4.928,-7.524,122.5,-1.643,8.245,5.185,-4.574,-7.756,10,4.937,5.177,4.623,4.489,1.883,1.25,1.244,1.561,10,4.338,5.185,-10,112.179280855,norm,0,39,39,39,228.399,228.405,228.406877287,228.407,228.41,228.414,down,1,1.04441532692,8.95558467308,001,015,800_600,Intel(R) Core(TM) i7-2670QM CPU @ 2.20GHz,orientation_search,GRVLAPTOP3,Intel(R) HD Graphics Family,2018_jul_02_1425,testMonitor,
132.5,105.7,118.4,120.8,36,-80,110.4,115.1,104.5,113.0,7.658,7.747,7.981,8.128,8.017,8.357,8.363,5.09,-5.083,-8.213,1.268,-1.184,7.788,4.391,-4.847,-8.449,116.4,110.4,-8.15,126.4,101.1,123.2,114.7,112.4,36,135.0,0,5,prime,10,0,86,norm,36,-5.057,up,norm,116.334995828,105.4,121.3,1.588,130.1,5,96.3,125.7,122.5,10,6,8.305,5.243,1.841,-1.27,-4.596,-7.552,114.6,6,202.3,-8.5,-7.538,-80,-7.608,-7.616,-4.538,-4.432,-4.778,-4.345,4.62,7.969,5,-1.491,1.661,4.721,7.571,-8.462,-8.238,-1.82,1.451,103.0,110.8,128.5,136.3,99.8,128.5,122.9,122.4,,101.4,5,norm,1.887,1.669,-1.689,-1.817,-4.373,-4.377,-1.932,-1.554,-1.964,-1.905,1.185,-1.793,116.2,116.8,-4.401,-8.14,103.0,-1.338,8.032,4.628,-4.893,-7.751,10,4.871,4.878,4.87,5.163,2.099,1.135,1.907,2.058,10,5.153,4.932,-10,112.179280855,norm,0,40,40,40,229.467,229.472,229.474493968,229.475,229.478,229.481,up,1,0.887282963026,9.11271703697,001,015,800_600,Intel(R) Core(TM) i7-2670QM CPU @ 2.20GHz,orientation_search,GRVLAPTOP3,Intel(R) HD Graphics Family,2018_jul_02_1425,testMonitor,
100.7,97.5,103.5,99.2,36,40,91.3,98.3,91.3,103.7,7.743,7.688,7.76,8.115,8.339,7.535,8.216,5.229,-4.426,-7.953,1.138,-1.164,8.389,5.277,-4.97,-7.928,94.5,91.8,-7.879,96.4,103.1,104.8,106.7,99.6,36,100.6,2,5,probe,5,0,62,norm,36,-4.322,down,norm,101.318867412,102.3,100.9,1.99,,2,97.2,97.2,94.3,10,6,7.545,4.434,1.26,-1.561,-4.747,-7.837,96.8,1,39.3,-8.332,-8.066,-80,-7.726,-7.69,-4.758,-4.376,-4.683,-4.823,4.578,7.565,14,-1.314,1.103,5.08,7.95,-8.077,-7.752,-1.317,1.586,97.2,105.3,95.8,107.5,94.4,106.2,100.8,111.3,102.3,101.9,0,norm,1.862,1.865,-1.409,-1.312,-4.835,-4.327,-1.671,-1.815,-1.127,-1.867,2.019,-1.816,97.8,103.4,-4.736,-7.766,102.4,-1.416,8.017,4.614,-4.438,-8.177,11,4.562,5.257,5.249,4.553,1.471,1.892,1.457,1.319,11,5.013,4.391,-80,116.334995828,norm,0,41,41,41,230.377,230.383,230.385327103,230.386,230.389,230.392,down,1,0.637953633716,9.36204636628,001,015,800_600,Intel(R) Core(TM) i7-2670QM CPU @ 2.20GHz,orientation_search,GRVLAPTOP3,Intel(R) HD Graphics Family,2018_jul_02_1425,testMonitor,
306.6,316.6,311.1,330.0,36,-30,325.8,316.3,310.7,324.4,8.458,8.362,8.104,7.883,8.301,8.045,7.665,4.516,-4.955,-7.749,1.827,-1.783,7.994,4.49,-4.595,-7.752,327.6,305.6,-7.607,323.7,326.2,294.4,303.0,308.6,36,319.4,2,5,prime,10,0,107,norm,36,-4.421,down,norm,314.387022453,310.5,313.7,2.063,296.4,1,317.7,,334.4,10,6,8.221,4.393,2.098,-1.309,-5.155,-8.227,319.8,6,421.4,-8.016,-7.777,-30,-7.562,-7.966,-5.213,-5.263,-5.111,-5.285,4.396,7.675,13,-1.311,1.851,4.756,8.492,-8.2,-7.886,-1.884,1.612,326.1,295.5,316.8,314.2,313.4,319.7,302.1,316.8,315.8,307.5,0,norm,1.161,1.941,-1.911,-1.943,-5.227,-4.564,-1.778,-1.631,-1.207,-1.231,1.75,-1.891,308.5,316.6,-5.229,-8.46,315.1,-1.742,7.587,5.233,-4.445,-8.225,12,4.757,4.582,4.539,4.731,1.402,1.233,1.345,1.509,12,4.888,5.018,40,116.334995828,norm,0,42,42,42,231.039,231.045,231.047262846,231.048,231.051,231.055,down,1,0.721368023449,9.27863197655,001,015,800_600,Intel(R) Core(TM) i7-2670QM CPU @ 2.20GHz,orientation_search,GRVLAPTOP3,Intel(R) HD Graphics Family,2018_jul_02_1425,testMonitor,
324.1,294.4,307.8,317.7,36,-30,313.5,304.3,319.7,305.5,8.331,8.076,7.676,8.332,8.122,7.711,7.929,4.305,-4.503,-8.05,1.529,-1.5,7.835,5.073,-4.958,-8.003,313.5,308.8,-8.4,330.1,319.5,304.7,334.4,309.4,36,311.2,1,5,prime,10,0,82,norm,36,-5.123,up,norm,314.387022453,304.8,315.0,1.894,307.1,3,318.8,308.4,331.5,10,6,8.399,5.069,1.488,-1.702,-5.163,-8.243,312.5,6,396.4,-8.139,-8.422,-30,-7.631,-8.329,-4.465,-4.721,-4.988,-4.844,5.051,7.926,9,-1.239,1.141,4.549,8.043,-7.879,-8.126,-1.326,2.04,,312.5,322.8,310.1,306.1,318.4,312.0,298.8,303.6,322.7,1,norm,1.63,2.018,-1.732,-1.345,-4.309,-5.004,-1.943,-1.104,-2.003,-1.743,1.628,-2.014,309.4,327.9,-4.927,-8.337,324.9,-1.528,7.7,4.502,-5.142,-8.284,12,4.584,5.192,5.295,4.98,1.769,2.034,1.687,1.322,12,5.292,5.0,40,116.334995828,norm,0,43,43,43,231.785,231.792,231.794097911,231.794,231.798,231.801,up,1,0.629915858554,9.37008414145,001,015,800_600,Intel(R) Core(TM) i7-2670QM CPU @ 2.20GHz,orientation_search,GRVLAPTOP3,Intel(R) HD Graphics Family,2018_jul_02_1425,testMonitor,
311.2,315.2,323.3,326.6,36,-30,298.1,329.1,,313.5,7.828,8.023,7.66,7.653,8.145,7.702,8.099,4.73,-5.085,-7.826,1.996,-1.964,7.688,5.021,-4.543,-8.497,334.4,324.5,-8.165,322.5,311.4,318.8,321.9,318.4,36,311.7,4,5,prime,10,0,116,norm,36,-4.742,up,norm,314.387022453,331.9,313.7,1.842,317.6,4,317.5,312.0,300.6,10,6,8.464,4.824,1.279,-1.84,-5.276,-7.789,305.7,6,430.4,-8.248,-7.648,-30,-7.885,-7.576,-4.331,-4.427,-4.449,-4.51,4.448,7.891,28,-1.797,1.374,4.845,8.38,-7.658,-7.565,-1.756,1.53,303.6,318.1,308.6,311.8,304.7,294.4,321.8,318.8,317.9,325.4,2,norm,1.595,1.264,-1.582,-1.58,-4.557,-5.056,-1.614,-1.948,-1.789,-2.07,1.712,-2.006,307.2,300.8,-4.31,-7.82,307.2,-1.91,7.721,4.707,-4.57,-8.189,12,5.042,4.643,4.567,4.679,1.516,1.935,1.749,2.017,12,4.769,4.979,40,116.334995828,norm,0,44,44,44,232.44,232.447,232.449576071,232.45,232.454,232.457,up,1,0.857764113503,9.1422358865,001,015,800_600,Intel(R) Core(TM) i7-2670QM CPU @ 2.20GHz,orientation_search,GRVLAPTOP3,Intel(R) HD Graphics Family,2018_jul_02_1425,testMonitor,
323.7,329.0,301.6,308.8,36,-30,320.4,294.4,324.7,326.5,7.867,8.339,8.028,7.849,7.884,7.725,8.24,4.872,-4.974,-7.53,1.547,-1.617,7.855,4.505,-4.524,-7.615,315.1,312.9,-7.799,320.1,314.0,321.8,311.5,303.5,36,308.5,2,5,prime,10,0,117,norm,36,-4.676,up,norm,314.387022453,295.8,,1.109,311.8,4,303.6,311.3,309.2,10,6,7.765,4.356,1.986,-1.892,-4.781,-8.27,332.4,6,431.4,-8.393,-7.723,-30,-7.798,-7.547,-4.957,-5.113,-5.192,-4.531,4.64,7.956,16,-1.497,1.834,5.088,7.75,-7.644,-7.518,-1.322,2.073,324.1,326.9,316.2,303.8,320.4,312.1,334.4,312.3,326.1,330.7,3,norm,1.92,1.386,-2.014,-1.913,-4.84,-5.14,-1.353,-1.666,-1.204,-1.208,2.048,-1.512,333.9,307.4,-5.034,-7.85,320.6,-1.424,7.814,5.272,-4.606,-8.103,12,5.082,4.825,4.358,4.412,1.928,2.091,1.883,1.173,12,4.371,4.902,40,116.334995828,norm,0,45,45,45,233.323,233.329,233.331096286,233.331,233.334,233.337,up,1,0.829163306504,9.1708366935,001,015,800_600,Intel(R) Core(TM) i7-2670QM CPU @ 2.20GHz,orientation_search,GRVLAPTOP3,Intel(R) HD Graphics Family,2018_jul_02_1425,testMonitor,
315.5,309.1,317.8,307.4,36,-30,298.6,319.3,319.2,323.8,8.376,7.945,7.603,8.369,8.278,7.617,7.993,5.201,-4.99,-7.72,1.565,-2.081,8.097,4.336,-4.449,-8.358,310.1,334.4,-7.637,315.0,318.2,304.4,307.1,323.1,36,315.2,2,5,prime,10,0,72,norm,36,-4.693,up,norm,314.387022453,312.7,,1.822,306.1,4,322.4,306.5,306.3,10,6,7.873,4.836,1.288,-1.462,-4.425,-7.94,316.3,6,386.4,-8.399,-7.759,-30,-8.361,-8.493,-4.96,-5.271,-4.629,-4.92,4.525,8.409,16,-1.422,1.343,4.682,7.524,-8.246,-8.238,-1.991,1.751,321.3,326.3,299.2,294.4,319.1,328.0,318.6,311.2,325.6,313.6,4,norm,1.958,1.766,-1.515,-1.91,-4.729,-5.251,-2.068,-1.157,-1.23,-1.992,1.406,-1.982,316.8,313.8,-5.282,-8.1,322.1,-1.517,7.574,4.898,-4.837,-8.496,12,4.431,5.163,4.889,4.37,1.588,1.408,1.634,1.725,12,5.009,4.335,40,116.334995828,norm,0,46,46,46,234.175,234.181,234.18269233,234.183,234.186,234.19,up,1,0.657251672065,9.34274832793,001,015,800_600,Intel(R) Core(TM) i7-2670QM CPU @ 2.20GHz,orientation_search,GRVLAPTOP3,Intel(R) HD Graphics Family,2018_jul_02_1425,testMonitor,
311.2,304.6,323.0,334.4,36,-30,333.3,318.4,306.5,309.9,7.578,7.845,8.316,7.717,8.111,7.947,8.279,4.507,-4.792,-8.309,1.699,-1.738,7.527,5.044,-4.565,-8.11,320.0,312.2,-8.195,295.5,294.8,299.6,313.6,322.7,36,316.8,0,5,prime,10,0,64,norm,36,-5.075,up,norm,314.387022453,325.9,318.1,1.324,327.2,4,307.7,323.7,304.8,10,6,8.49,4.747,1.466,-1.968,-4.847,-8.235,294.4,6,378.4,-8.116,-7.989,-30,-8.299,-7.7,-4.447,-4.429,-5.246,-4.727,4.93,7.644,4,-1.237,1.278,5.26,8.21,-7.838,-7.582,-1.856,1.571,309.3,317.3,304.5,305.3,297.3,302.5,302.2,318.9,310.7,,5,norm,1.101,1.281,-1.138,-2.012,-5.064,-4.754,-1.394,-1.183,-1.861,-1.916,1.557,-1.747,313.5,308.0,-4.986,-8.309,308.7,-1.609,8.203,4.752,-5.288,-7.834,12,4.848,4.542,5.18,4.976,1.977,1.515,2.05,1.607,12,4.742,5.115,40,116.334995828,norm,0,47,47,47,234.856,234.861,234.863110801,234.863,234.866,234.869,up,1,0.643453483588,9.35654651641,001,015,800_600,Intel(R) Core(TM) i7-2670QM CPU @ 2.20GHz,orientation_search,GRVLAPTOP3,Intel(R) HD Graphics Family,2018_jul_02_1425,testMonitor,
385.3,380.0,385.9,386.2,36,-10,385.0,373.6,,389.7,8.202,8.345,8.212,8.457,7.698,8.03,7.942,4.56,-5.291,-8.479,1.18,-1.967,8.222,4.837,-4.992,-8.456,377.6,381.1,-7.588,383.7,386.3,376.8,386.2,373.7,36,382.0,4,5,probe,5,0,100,norm,36,-5.116,up,norm,383.553029349,383.7,393.6,1.337,390.8,4,385.2,387.0,385.5,10,6,7.77,4.507,1.944,-1.948,-4.801,-7.993,387.4,1,283.6,-7.919,-8.04,-30,-7.798,-8.287,-5.121,-4.528,-4.457,-4.86,5.019,8.122,28,-1.737,1.312,4.568,7.806,-8.471,-7.731,-1.224,1.436,388.0,389.4,385.5,383.7,385.6,383.9,382.1,384.0,383.9,377.5,0,norm,1.767,1.655,-1.118,-1.975,-4.656,-4.761,-1.132,-1.716,-1.492,-1.759,1.187,-1.409,382.1,385.4,-4.604,-8.032,384.1,-1.535,8.358,5.087,-4.598,-7.708,13,4.42,5.09,5.165,4.701,1.507,1.99,1.22,1.95,13,4.444,4.535,-30,314.387022453,norm,0,48,48,48,235.521,235.526,235.528778018,235.529,235.533,235.537,up,1,0.577311461569,9.42268853843,001,015,800_600,Intel(R) Core(TM) i7-2670QM CPU @ 2.20GHz,orientation_search,GRVLAPTOP3,Intel(R) HD Graphics Family,2018_jul_02_1425,testMonitor,
55.1,45.3,68.4,59.2,36,80,50.3,51.4,41.1,41.2,7.687,8.189,7.507,8.014,8.203,7.585,8.349,4.741,-4.779,-8.116,1.432,-1.907,7.793,5.164,-5.105,-8.196,50.4,33.1,-7.803,55.5,35.4,49.9,51.7,37.8,36,40.1,0,5,prime,10,0,108,norm,36,-5.009,down,norm,50.3516389091,65.2,51.9,1.991,70.4,2,49.1,47.4,47.9,10,5,8.233,4.569,2.082,-1.829,-5.274,-7.837,64.6,5,158.4,-7.792,-7.56,80,-7.777,-7.902,-4.388,-4.827,-5.243,-5.241,4.353,7.944,2,-1.575,1.209,5.258,7.908,-7.618,-7.734,-1.991,1.479,54.3,30.4,58.5,,43.3,57.3,51.4,53.2,47.9,57.0,0,norm,1.151,1.803,-1.858,-1.702,-4.45,-4.356,-1.948,-1.672,-1.865,-1.75,1.467,-1.275,41.9,63.7,-5.107,-7.909,66.1,-1.267,8.342,4.764,-5.039,-7.928,14,5.163,4.85,4.491,4.734,1.596,1.944,1.301,1.691,14,5.196,5.134,-10,314.387022453,norm,0,49,49,49,236.123,236.128,236.130222418,236.131,236.134,236.138,down,1,0.797270901461,9.20272909854,001,015,800_600,Intel(R) Core(TM) i7-2670QM CPU @ 2.20GHz,orientation_search,GRVLAPTOP3,Intel(R) HD Graphics Family,2018_jul_02_1425,testMonitor,
44.7,61.1,56.4,54.7,36,80,54.1,45.2,38.5,41.7,7.51,7.822,7.882,7.953,8.113,8.498,7.834,4.504,-5.129,-7.777,1.225,-1.309,8.189,4.595,-4.978,-7.7,52.4,66.4,-8.056,30.4,52.9,50.1,43.6,60.1,36,56.7,2,5,prime,10,0,118,norm,36,-5.29,down,norm,50.3516389091,62.7,40.7,1.36,58.8,1,70.4,,52.7,10,5,8.303,5.247,1.413,-1.689,-4.736,-8.065,48.1,5,168.4,-8.243,-7.747,80,-7.755,-7.529,-5.247,-5.024,-4.326,-5.19,5.237,8.128,13,-1.995,1.697,4.842,7.889,-7.757,-8.494,-1.978,1.434,42.6,63.2,63.1,61.9,30.7,61.2,35.9,65.8,52.3,44.1,1,norm,2.045,1.362,-1.592,-1.429,-4.649,-5.015,-1.301,-1.351,-1.731,-2.059,1.121,-1.254,56.6,52.5,-5.067,-8.419,53.7,-1.535,8.005,5.035,-4.365,-7.847,14,5.066,4.317,4.846,4.639,1.721,1.775,1.988,1.339,14,5.168,4.378,-10,314.387022453,norm,0,50,50,50,236.944,236.949,236.9514829,236.952,236.955,236.958,down,1,0.572046492363,9.42795350764,001,015,800_600,Intel(R) Core(TM) i7-2670QM CPU @ 2.20GHz,orientation_search,GRVLAPTOP3,Intel(R) HD Graphics Family,2018_jul_02_1425,testMonitor,
42.3,54.6,61.0,39.0,36,80,44.4,63.0,61.5,45.2,8.265,8.234,8.427,7.748,7.513,8.468,8.234,5.257,-4.792,-7.567,1.816,-1.826,7.533,5.05,-4.957,-7.96,70.4,31.4,-7.926,59.9,65.3,45.2,53.8,55.4,36,56.6,0,5,prime,10,0,115,norm,36,-5.173,up,norm,50.3516389091,32.7,34.6,1.308,67.3,3,39.0,59.7,50.2,10,5,8.25,4.97,1.26,-1.103,-4.601,-8.017,43.8,5,165.4,-7.618,-7.535,80,-7.906,-8.29,-4.949,-4.855,-4.541,-4.962,4.419,8.038,3,-1.729,1.789,4.42,8.352,-8.48,-8.374,-1.946,1.572,47.1,64.1,,49.5,35.4,58.5,61.6,55.8,45.7,43.1,2,norm,1.188,1.347,-1.766,-2.087,-5.061,-5.294,-2.026,-1.945,-1.886,-1.152,1.481,-1.326,44.5,48.9,-5.049,-7.989,30.4,-1.803,8.165,5.268,-4.339,-8.126,14,4.407,4.363,4.848,4.518,1.538,1.661,1.472,1.428,14,4.987,5.213,-10,314.387022453,norm,0,51,51,51,237.539,237.545,237.547591352,237.548,237.551,237.555,up,1,0.646313610985,9.35368638902,001,015,800_600,Intel(R) Core(TM) i7-2670QM CPU @ 2.20GHz,orientation_search,GRVLAPTOP3,Intel(R) HD Graphics Family,2018_jul_02_1425,testMonitor,
61.7,50.4,36.9,61.3,36,80,50.7,38.7,53.0,56.0,7.914,8.143,8.012,7.84,7.721,7.792,7.708,4.81,-4.563,-7.544,1.198,-1.879,8.072,4.516,-4.688,-7.909,58.7,60.7,-7.976,49.7,46.9,57.0,56.0,42.6,36,48.6,2,5,prime,10,0,99,norm,36,-5.14,down,norm,50.3516389091,33.5,68.5,1.272,,2,45.8,46.0,48.0,10,5,7.659,5.047,1.962,-1.241,-4.437,-7.978,49.7,5,149.4,-7.744,-7.543,80,-8.472,-7.87,-4.864,-4.852,-4.317,-4.774,4.747,7.766,14,-1.327,1.763,5.139,8.48,-7.727,-8.444,-1.688,1.873,50.7,50.2,56.3,54.0,50.7,68.2,55.5,55.2,41.2,49.3,3,norm,2.018,1.634,-1.649,-2.017,-5.263,-5.08,-1.194,-1.496,-1.69,-1.673,1.925,-1.115,30.4,70.4,-4.308,-7.928,49.9,-1.736,7.752,5.294,-4.315,-8.151,14,5.186,4.826,4.876,4.51,1.13,1.909,1.903,1.949,14,5.172,4.311,-10,314.387022453,norm,0,52,52,52,238.21,238.216,238.217948245,238.218,238.221,238.224,down,1,0.56083666081,9.43916333919,001,015,800_600,Intel(R) Core(TM) i7-2670QM CPU @ 2.20GHz,orientation_search,GRVLAPTOP3,Intel(R) HD Graphics Family,2018_jul_02_1425,testMonitor,
49.2,54.8,49.4,52.0,36,80,46.6,52.3,34.5,54.4,8.46,7.921,8.392,8.108,7.974,8.017,8.329,4.779,-5.137,-8.331,1.183,-1.213,8.035,4.329,-5.093,-7.624,48.6,55.6,-7.674,31.6,52.7,50.3,44.5,50.7,36,50.0,0,5,prime,10,0,117,norm,36,-4.757,down,norm,50.3516389091,63.6,49.6,2.036,41.9,1,56.5,38.4,49.6,10,5,7.949,4.538,1.795,-1.72,-5.138,-7.813,39.1,5,167.4,-7.922,-7.584,80,-8.198,-7.707,-5.137,-4.937,-5.06,-4.954,4.472,7.879,1,-2.089,1.134,4.813,7.664,-7.824,-8.101,-1.889,1.734,62.8,48.9,39.8,68.5,,32.8,46.6,52.2,70.4,55.8,4,norm,1.831,1.32,-1.588,-1.942,-4.563,-4.66,-1.903,-2.024,-1.467,-1.941,1.407,-2.041,52.5,30.4,-4.531,-8.479,35.6,-1.586,7.883,4.873,-4.631,-8.398,14,4.413,4.668,4.924,4.43,1.246,1.494,1.958,1.112,14,4.993,4.685,-10,314.387022453,norm,0,53,53,53,238.794,238.8,238.802247757,238.803,238.806,238.809,down,1,0.63771828609,9.36228171391,001,015,800_600,Intel(R) Core(TM) i7-2670QM CPU @ 2.20GHz,orientation_search,GRVLAPTOP3,Intel(R) HD Graphics Family,2018_jul_02_1425,testMonitor,
,188.9,185.9,190.3,36,-60,193.8,189.9,188.2,198.1,8.203,8.241,8.246,8.369,7.946,8.386,7.503,4.521,-4.979,-8.046,1.703,-1.157,8.452,4.771,-4.451,-8.143,200.3,192.5,-8.477,195.3,185.8,194.3,187.6,202.6,36,194.2,3,5,probe,5,0,73,norm,36,-5.047,up,norm,194.744548988,191.0,197.8,1.927,184.7,4,197.5,202.1,195.3,10,5,8.225,4.423,1.631,-1.257,-4.349,-7.606,195.3,1,121.7,-7.817,-8.174,80,-8.49,-8.425,-4.931,-4.637,-4.63,-4.758,5.239,8.165,22,-1.367,1.896,5.199,7.749,-8.203,-8.083,-1.743,1.323,196.5,198.2,201.1,204.7,195.1,187.9,195.0,193.6,195.9,187.8,0,norm,1.827,1.967,-1.577,-1.68,-5.198,-4.836,-1.92,-1.542,-1.64,-1.916,1.758,-2.025,197.5,191.9,-5.148,-8.179,191.8,-1.511,8.125,4.896,-4.976,-8.254,15,5.179,4.542,4.866,4.988,1.822,1.289,1.387,1.952,15,4.364,4.671,80,50.3516389091,norm,0,54,54,54,239.455,239.461,239.463028242,239.463,239.466,239.47,up,1,0.584961660284,9.41503833972,001,015,800_600,Intel(R) Core(TM) i7-2670QM CPU @ 2.20GHz,orientation_search,GRVLAPTOP3,Intel(R) HD Graphics Family,2018_jul_02_1425,testMonitor,
327.8,328.0,334.1,340.3,36,-30,334.8,334.0,340.8,335.3,8.311,8.478,8.111,7.574,8.396,7.698,7.515,4.423,-5.202,-8.101,1.734,-1.23,8.176,4.8,-4.54,-8.312,335.1,331.8,-7.764,345.5,313.1,336.1,335.1,330.9,36,324.1,1,5,prime,10,0,99,norm,36,-4.6,down,norm,333.095797952,331.2,332.4,1.736,330.3,2,330.4,330.4,335.2,10,5,7.723,4.967,1.925,-1.451,-4.37,-8.265,319.1,5,432.1,-8.3,-8.372,-30,-8.398,-7.607,-4.694,-5.209,-4.592,-4.747,5.159,7.717,8,-2.031,1.929,5.147,7.948,-7.749,-8.134,-1.391,1.686,335.4,,324.5,334.4,343.1,343.3,326.2,318.8,314.8,346.3,0,norm,1.867,1.329,-1.689,-1.463,-4.983,-4.842,-1.903,-1.663,-1.768,-1.786,1.476,-1.476,353.1,340.1,-5.022,-7.611,332.1,-1.164,7.757,4.906,-4.945,-8.482,16,4.331,4.869,4.644,4.498,1.549,1.283,1.569,1.327,16,4.464,4.302,-60,50.3516389091,norm,0,55,55,55,240.064,240.07,240.071965942,240.072,240.075,240.078,down,1,0.705103821457,9.29489617854,001,015,800_600,Intel(R) Core(TM) i7-2670QM CPU @ 2.20GHz,orientation_search,GRVLAPTOP3,Intel(R) HD Graphics Family,2018_jul_02_1425,testMonitor,
338.4,327.6,323.0,316.9,36,-30,333.3,321.1,338.7,338.8,7.939,8.193,7.571,8.015,8.466,8.016,7.607,5.057,-5.105,-7.964,1.885,-2.071,8.005,5.003,-4.969,-8.034,324.8,346.5,-8.38,334.7,317.2,326.7,,347.7,36,334.4,5,5,prime,10,0,119,norm,36,-5.004,down,norm,333.095797952,329.4,346.7,1.641,324.1,2,337.2,348.3,328.2,10,5,7.791,5.061,1.577,-2.044,-5.071,-8.169,353.1,5,452.1,-8.11,-7.774,-30,-8.052,-7.937,-5.097,-4.697,-4.471,-4.845,4.356,8.138,32,-1.542,2.02,5.168,7.591,-7.953,-7.751,-1.458,1.395,330.5,329.5,332.4,345.8,325.9,337.9,338.9,339.5,335.3,313.1,1,norm,1.477,1.481,-1.424,-1.461,-4.552,-4.44,-1.705,-1.434,-1.688,-1.259,1.521,-1.899,329.9,325.2,-4.331,-7.559,332.3,-2.014,7.694,4.763,-5.171,-8.277,16,4.357,4.656,4.912,4.617,1.613,1.846,1.543,1.717,16,5.265,5.079,-60,50.3516389091,norm,0,56,56,56,240.792,240.798,240.799882606,240.8,240.804,240.808,down,1,1.76870605035,8.23129394965,001,015,800_600,Intel(R) Core(TM) i7-2670QM CPU @ 2.20GHz,orientation_search,GRVLAPTOP3,Intel(R) HD Graphics Family,2018_jul_02_1425,testMonitor,
339.8,353.1,338.9,340.3,36,-30,336.7,332.9,334.0,345.4,7.765,8.289,7.766,7.64,7.961,8.289,7.767,4.561,-4.838,-8.194,1.235,-1.971,8.022,4.326,-4.802,-8.389,335.9,341.5,-7.984,333.1,326.6,347.6,328.7,314.5,36,328.2,2,5,prime,10,0,110,norm,36,-4.838,down,norm,333.095797952,339.9,339.6,1.308,,2,317.9,322.2,344.3,10,5,8.244,5.2,1.155,-1.584,-4.536,-7.898,324.9,5,443.1,-8.12,-8.44,-30,-8.229,-8.323,-4.877,-4.77,-4.633,-4.937,5.266,8.082,14,-1.136,1.473,4.86,7.765,-7.958,-8.075,-1.281,1.639,324.0,324.5,328.0,337.4,349.0,322.6,338.1,328.9,341.8,313.1,2,norm,2.014,1.23,-1.631,-1.491,-4.45,-4.727,-1.373,-1.403,-1.734,-1.271,1.681,-2.079,333.6,331.2,-4.663,-7.79,321.2,-1.433,7.695,4.766,-4.788,-7.945,16,5.013,4.459,4.591,4.692,1.841,2.069,1.607,1.548,16,5.265,4.64,-60,50.3516389091,norm,0,57,57,57,242.585,242.591,242.593094228,242.594,242.597,242.601,down,1,0.697113209213,9.30288679079,001,015,800_600,Intel(R) Core(TM) i7-2670QM CPU @ 2.20GHz,orientation_search,GRVLAPTOP3,Intel(R) HD Graphics Family,2018_jul_02_1425,testMonitor,
343.5,345.9,337.3,325.0,36,-30,344.4,325.1,,341.2,7.753,7.863,7.8,8.302,8.228,7.929,7.841,4.597,-5.103,-8.353,1.676,-1.941,7.92,4.888,-4.662,-7.719,339.1,332.7,-8.23,327.5,340.0,353.1,341.9,347.3,36,328.8,4,5,prime,10,0,68,norm,36,-5.154,up,norm,333.095797952,337.4,328.1,1.481,313.1,4,323.3,346.5,348.7,10,5,7.956,4.994,1.628,-1.449,-4.764,-8.066,336.5,5,401.1,-8.306,-7.924,-30,-7.729,-7.51,-5.063,-4.618,-4.431,-5.178,5.165,8.137,28,-1.733,2.084,5.25,7.568,-7.811,-8.01,-1.186,1.687,340.9,328.2,345.5,327.1,337.1,323.8,322.6,331.0,344.5,339.1,3,norm,1.697,2.062,-1.378,-1.839,-4.916,-4.334,-1.77,-2.059,-1.146,-1.989,1.904,-2.004,344.8,338.5,-5.043,-8.076,327.7,-1.382,8.054,4.767,-5.255,-8.006,16,4.641,4.805,4.803,5.229,1.124,1.727,2.008,2.061,16,4.644,5.124,-60,50.3516389091,norm,0,58,58,58,243.306,243.314,243.316611667,243.317,243.32,243.324,up,1,0.712539685727,9.28746031427,001,015,800_600,Intel(R) Core(TM) i7-2670QM CPU @ 2.20GHz,orientation_search,GRVLAPTOP3,Intel(R) HD Graphics Family,2018_jul_02_1425,testMonitor,
324.4,338.5,353.1,321.0,36,-30,343.3,343.7,333.8,329.4,8.263,7.88,7.985,8.434,8.126,8.368,8.114,4.911,-4.844,-7.611,1.173,-1.585,8.056,5.215,-4.743,-7.752,,329.2,-7.511,331.2,326.6,328.9,331.6,332.5,36,320.4,5,5,prime,10,0,86,norm,36,-4.539,up,norm,333.095797952,337.8,323.0,1.115,343.3,5,328.0,332.2,338.0,10,5,8.404,4.459,1.558,-1.286,-4.693,-7.705,333.8,5,419.1,-8.162,-8.139,-30,-8.339,-8.475,-4.366,-5.143,-4.768,-4.472,4.726,8.014,35,-1.993,1.515,5.036,8.103,-7.974,-8.3,-1.454,1.324,326.2,319.1,327.0,326.4,323.1,328.9,318.1,329.6,328.2,336.7,4,norm,1.648,1.457,-1.943,-1.419,-5.148,-4.872,-1.333,-1.508,-1.229,-1.707,1.764,-1.706,313.1,340.5,-4.895,-8.073,336.0,-1.232,8.313,5.295,-4.607,-8.322,16,5.048,5.227,4.933,5.073,1.749,1.747,2.02,1.963,16,4.767,4.887,-60,50.3516389091,norm,0,59,59,59,244.046,244.052,244.054845803,244.055,244.059,244.063,up,1,0.685618532318,9.31438146768,001,015,800_600,Intel(R) Core(TM) i7-2670QM CPU @ 2.20GHz,orientation_search,GRVLAPTOP3,Intel(R) HD Graphics Family,2018_jul_02_1425,testMonitor,
392.8,389.8,388.5,391.4,36,-60,399.7,392.5,396.2,397.9,8.125,7.996,7.641,8.456,8.019,8.348,7.565,4.931,-4.67,-7.709,1.966,-2.007,8.01,4.606,-4.981,-8.268,396.7,388.5,-8.122,398.8,402.6,393.1,394.0,399.3,36,392.8,1,5,probe,5,0,87,norm,36,-4.933,down,norm,392.597232245,395.4,402.5,1.975,385.2,0,385.6,394.3,395.0,10,5,7.805,5.237,1.239,-2.021,-5.09,-8.041,397.4,1,305.6,-7.909,-7.967,-30,-7.767,-8.043,-4.318,-4.719,-5.098,-5.181,5.096,7.611,6,-1.416,2.097,4.427,7.984,-7.692,-7.559,-1.341,1.257,394.6,383.5,398.6,382.9,391.4,400.6,395.8,,395.9,393.9,0,norm,1.454,1.591,-1.314,-1.236,-4.937,-5.122,-1.351,-1.334,-1.598,-1.292,1.585,-1.398,399.1,395.1,-4.419,-7.944,392.3,-1.246,7.806,4.799,-4.788,-7.943,17,4.896,5.055,4.654,4.401,1.602,1.848,1.424,2.022,17,5.296,5.235,-30,333.095797952,norm,0,60,60,60,244.758,244.764,244.765956592,244.766,244.769,244.773,down,1,0.757148800871,9.24285119913,001,015,800_600,Intel(R) Core(TM) i7-2670QM CPU @ 2.20GHz,orientation_search,GRVLAPTOP3,Intel(R) HD Graphics Family,2018_jul_02_1425,testMonitor,
127.9,145.6,136.9,139.3,36,0,139.8,154.2,145.8,144.4,7.809,7.759,8.421,8.324,8.263,7.709,8.252,4.555,-4.9,-8.035,1.733,-1.205,7.545,5.118,-5.084,-7.596,157.8,151.2,-8.293,144.4,153.6,146.0,139.3,142.7,36,151.4,2,5,prime,10,0,61,norm,36,-5.208,down,norm,145.276292097,141.5,136.3,1.419,143.4,0,151.9,135.7,,10,5,7.519,4.78,2.014,-1.805,-4.87,-8.259,133.3,5,206.3,-7.969,-7.534,0,-7.624,-8.278,-4.604,-4.644,-5.095,-4.656,5.232,8.017,12,-1.536,1.603,4.647,8.468,-8.188,-7.554,-1.393,1.359,157.7,144.7,161.6,144.6,138.9,146.3,144.8,125.3,146.5,165.3,0,norm,2.05,1.185,-1.276,-1.279,-4.482,-5.253,-1.7,-1.613,-1.946,-1.125,1.442,-1.26,133.3,154.8,-5.104,-8.471,150.3,-1.231,8.281,4.337,-5.191,-8.427,18,4.69,5.2,4.445,5.211,1.838,2.079,1.825,1.578,18,4.438,4.42,-60,333.095797952,norm,0,61,61,61,245.538,252.259,252.261329723,252.262,252.264,252.268,down,1,0.93918598673,9.06081401327,001,015,800_600,Intel(R) Core(TM) i7-2670QM CPU @ 2.20GHz,orientation_search,GRVLAPTOP3,Intel(R) HD Graphics Family,2018_jul_02_1425,testMonitor,
125.3,134.1,141.3,,36,0,140.1,139.5,154.7,137.1,8.054,8.199,7.831,7.584,8.358,8.434,8.012,4.375,-4.443,-7.846,1.795,-1.85,8.221,4.55,-4.516,-8.114,153.1,143.3,-8.406,144.6,155.5,148.2,130.6,154.6,36,131.2,3,5,prime,10,0,106,norm,36,-4.671,up,norm,145.276292097,152.4,145.2,1.189,146.8,3,127.3,159.3,139.7,10,5,7.989,4.808,1.497,-1.9,-4.639,-8.263,143.1,5,251.3,-8.141,-8.265,0,-8.471,-8.173,-5.274,-5.169,-4.747,-4.548,5.113,7.664,21,-1.46,1.66,4.53,8.027,-8.4,-8.207,-1.14,1.953,144.6,144.8,133.6,153.8,139.1,137.6,147.4,143.3,151.5,165.3,1,norm,2.012,1.882,-1.189,-1.457,-4.378,-4.842,-1.584,-2.007,-1.761,-1.596,1.479,-1.915,138.3,141.2,-5.113,-7.783,139.4,-2.076,8.328,4.826,-4.488,-8.446,18,4.782,4.778,5.144,4.547,1.571,1.892,1.6,1.977,18,4.312,5.186,-60,333.095797952,norm,0,62,62,62,253.215,253.222,253.223812323,253.224,253.227,253.231,up,1,0.674800946807,9.32519905319,001,015,800_600,Intel(R) Core(TM) i7-2670QM CPU @ 2.20GHz,orientation_search,GRVLAPTOP3,Intel(R) HD Graphics Family,2018_jul_02_1425,testMonitor,
149.8,157.3,148.4,146.8,36,0,139.6,150.7,149.5,139.7,7.738,7.721,8.288,8.094,7.917,8.353,7.556,4.704,-4.795,-8.452,1.241,-1.747,8.118,4.587,-4.324,-7.946,144.1,152.9,-7.833,141.6,148.2,151.1,141.5,146.7,36,144.8,0,5,prime,10,0,107,norm,36,-4.558,down,norm,145.276292097,135.4,138.6,1.901,138.5,1,139.8,165.3,150.2,10,5,8.317,4.995,1.705,-2.022,-4.485,-7.611,147.1,5,252.3,-7.629,-7.944,0,-7.851,-8.218,-5.269,-5.159,-4.952,-4.628,4.3,7.753,1,-1.149,1.476,5.217,7.718,-7.843,-8.316,-1.311,1.22,133.2,136.7,150.1,144.6,,158.5,147.1,137.9,139.3,137.8,2,norm,1.685,1.282,-1.547,-1.993,-5.264,-4.411,-1.616,-1.274,-1.371,-1.85,1.835,-1.293,145.3,146.8,-5.285,-8.021,125.3,-2.075,8.045,5.174,-4.831,-8.221,18,5.084,5.016,4.392,5.069,1.721,2.007,1.432,1.391,18,5.009,5.086,-60,333.095797952,norm,0,63,63,63,253.914,253.92,253.922289521,253.923,253.926,253.929,down,1,0.625150069133,9.37484993087,001,015,800_600,Intel(R) Core(TM) i7-2670QM CPU @ 2.20GHz,orientation_search,GRVLAPTOP3,Intel(R) HD Graphics Family,2018_jul_02_1425,testMonitor,
133.7,147.6,,144.2,36,0,142.0,130.9,139.9,147.2,7.508,7.937,7.778,7.561,7.907,8.21,8.259,5.292,-5.057,-8.499,1.984,-2.094,7.771,4.467,-4.711,-8.468,142.6,149.0,-7.918,133.2,145.6,161.8,153.3,153.1,36,125.7,3,5,prime,10,0,67,norm,36,-4.469,down,norm,145.276292097,139.7,137.4,1.715,129.9,2,155.0,141.0,125.3,10,5,8.372,4.316,1.371,-1.306,-4.744,-8.045,147.9,5,212.3,-8.096,-7.609,0,-7.609,-7.976,-4.316,-4.954,-4.466,-5.011,5.154,7.747,20,-1.935,1.456,5.037,7.834,-8.049,-7.584,-1.165,1.845,160.1,128.1,150.5,162.3,149.1,165.3,149.7,147.8,143.3,151.6,3,norm,1.472,1.458,-1.782,-1.908,-5.293,-4.463,-1.927,-1.69,-1.134,-1.141,1.61,-1.604,152.6,152.2,-4.327,-8.033,141.0,-1.567,7.922,4.452,-5.138,-8.15,18,4.689,4.405,4.869,4.572,1.794,2.095,1.556,1.789,18,4.468,4.755,-60,333.095797952,norm,0,64,64,64,254.563,254.57,254.571796202,254.572,254.575,254.579,down,1,0.678891512683,9.32110848732,001,015,800_600,Intel(R) Core(TM) i7-2670QM CPU @ 2.20GHz,orientation_search,GRVLAPTOP3,Intel(R) HD Graphics Family,2018_jul_02_1425,testMonitor,
147.4,147.9,145.8,139.3,36,0,132.8,139.6,150.0,,7.832,7.624,7.66,7.932,7.849,8.044,8.282,4.819,-4.321,-8.118,2.02,-1.378,8.431,5.064,-4.677,-8.428,142.7,141.2,-7.942,133.1,135.3,147.2,139.9,165.3,36,132.4,4,5,prime,10,0,65,norm,36,-4.839,up,norm,145.276292097,158.7,164.3,1.518,140.8,5,134.4,146.5,149.8,10,5,8.481,4.583,1.309,-1.492,-4.341,-7.751,138.0,5,210.3,-7.538,-7.932,0,-8.145,-7.798,-5.013,-5.134,-4.565,-5.062,4.475,7.833,29,-1.825,2.05,5.275,8.059,-7.856,-8.118,-2.019,1.898,147.5,137.1,148.2,163.2,130.2,147.8,148.8,139.8,140.2,132.3,4,norm,1.907,1.164,-1.413,-2.026,-4.681,-5.137,-1.342,-2.093,-1.574,-1.684,1.255,-1.17,134.0,125.3,-4.607,-8.027,149.3,-1.766,7.848,4.475,-4.803,-8.205,18,4.776,4.361,4.979,4.613,1.646,1.592,1.776,1.392,18,5.153,5.156,-60,333.095797952,norm,0,65,65,65,255.267,255.273,255.275225973,255.276,255.279,255.282,up,1,0.629765964531,9.37023403547,001,015,800_600,Intel(R) Core(TM) i7-2670QM CPU @ 2.20GHz,orientation_search,GRVLAPTOP3,Intel(R) HD Graphics Family,2018_jul_02_1425,testMonitor,
253.1,247.2,249.7,,36,10,246.3,249.6,244.6,244.4,8.455,7.652,7.788,7.735,7.741,7.879,7.617,4.92,-4.465,-7.577,1.828,-1.53,8.0,4.951,-4.786,-7.717,249.3,245.8,-7.667,253.0,243.5,245.2,252.8,258.8,36,247.9,3,5,probe,5,0,106,norm,36,-4.371,up,norm,248.845713325,246.4,250.0,2.092,243.1,3,247.2,249.7,248.9,10,5,8.058,4.894,2.064,-1.762,-4.606,-7.971,244.5,1,142.8,-7.728,-7.992,0,-8.143,-8.147,-4.609,-4.408,-4.985,-4.552,4.739,7.754,21,-1.814,1.423,5.284,8.208,-7.952,-7.943,-1.584,1.75,250.9,249.8,244.7,251.6,253.2,238.8,243.9,244.3,249.5,250.2,0,norm,2.041,1.609,-1.538,-2.09,-4.901,-5.083,-1.52,-1.669,-2.09,-1.272,1.244,-1.433,247.4,246.0,-4.723,-7.635,251.9,-2.082,8.421,4.883,-4.623,-7.668,19,5.221,5.201,5.241,4.588,1.301,1.435,1.222,1.551,19,4.871,4.931,0,145.276292097,norm,0,66,66,66,255.921,255.927,255.929444276,255.93,255.933,255.936,down,0,0.584089846758,-10,001,015,800_600,Intel(R) Core(TM) i7-2670QM CPU @ 2.20GHz,orientation_search,GRVLAPTOP3,Intel(R) HD Graphics Family,2018_jul_02_1425,testMonitor,
338.5,313.4,336.5,327.5,36,-80,325.4,308.9,316.7,,8.362,7.949,8.296,8.268,8.194,7.529,8.323,5.249,-4.307,-7.647,2.06,-1.934,7.774,4.915,-4.707,-7.678,323.1,343.2,-7.658,325.9,324.5,334.0,325.3,333.0,36,316.1,4,5,prime,10,0,114,norm,36,-4.686,up,norm,328.861900052,328.0,329.5,1.464,341.5,5,331.3,317.6,347.1,10,5,7.968,5.016,1.37,-1.955,-4.627,-8.047,333.1,5,442.9,-8.318,-8.253,-80,-7.611,-8.312,-5.04,-5.047,-4.464,-4.642,5.24,8.122,29,-1.3,1.952,5.015,8.381,-8.326,-7.85,-1.531,1.516,335.4,342.2,348.9,334.4,342.8,343.0,325.5,333.6,319.2,331.5,0,norm,1.797,1.419,-1.604,-1.111,-4.326,-5.219,-1.802,-1.659,-1.599,-1.699,1.849,-1.627,336.3,320.2,-4.994,-7.893,313.5,-1.249,8.238,4.404,-4.82,-7.692,20,5.287,4.978,4.413,4.477,1.469,1.535,1.672,1.449,20,4.545,4.317,10,145.276292097,norm,0,67,67,67,257.536,257.544,257.546172729,257.546,257.549,257.553,up,1,0.554286618853,9.44571338115,001,015,800_600,Intel(R) Core(TM) i7-2670QM CPU @ 2.20GHz,orientation_search,GRVLAPTOP3,Intel(R) HD Graphics Family,2018_jul_02_1425,testMonitor,
328.5,321.7,331.6,314.4,36,-80,326.6,331.7,328.5,322.2,7.886,8.475,7.818,7.696,8.486,7.896,7.679,5.128,-4.497,-8.136,1.346,-1.136,8.322,5.246,-4.518,-8.11,322.5,338.8,-7.947,321.3,336.4,336.3,315.5,332.2,36,327.7,0,5,prime,10,0,61,norm,36,-4.653,up,norm,328.861900052,321.7,328.4,1.103,338.4,3,340.7,313.5,343.0,10,5,7.565,5.29,1.813,-1.715,-4.597,-7.91,348.9,5,389.9,-8.023,-7.741,-80,-7.544,-7.987,-4.592,-4.966,-4.33,-4.765,4.702,7.898,3,-2.099,1.231,4.77,8.068,-8.162,-7.613,-1.68,1.357,341.6,327.8,,322.8,345.2,308.9,337.2,329.1,319.3,322.3,1,norm,1.609,1.263,-1.204,-1.611,-4.973,-5.248,-1.413,-1.461,-1.489,-1.883,1.656,-1.671,331.8,315.5,-4.845,-8.027,329.7,-1.209,7.901,5.121,-4.663,-7.576,20,5.032,4.643,4.518,5.288,1.957,1.8,1.777,1.768,20,5.233,5.148,10,145.276292097,norm,0,68,68,68,258.116,258.121,258.123239037,258.124,258.127,258.13,up,1,0.735296960607,9.26470303939,001,015,800_600,Intel(R) Core(TM) i7-2670QM CPU @ 2.20GHz,orientation_search,GRVLAPTOP3,Intel(R) HD Graphics Family,2018_jul_02_1425,testMonitor,
322.9,311.4,339.1,319.5,36,-80,308.9,312.5,340.2,326.4,7.911,8.005,8.118,8.273,7.974,8.407,7.53,4.822,-5.132,-7.598,1.452,-1.879,8.472,4.395,-4.348,-8.31,332.6,316.8,-8.081,334.4,333.7,348.9,327.5,330.8,36,334.4,1,5,prime,10,0,72,norm,36,-4.308,down,norm,328.861900052,334.8,313.6,2.053,319.3,2,333.6,320.4,332.0,10,5,8.222,4.437,1.559,-1.726,-5.145,-8.277,334.5,5,400.9,-7.577,-7.629,-80,-7.952,-8.494,-4.534,-5.234,-4.859,-5.074,5.03,8.277,8,-1.888,1.993,4.443,7.724,-7.728,-8.025,-1.572,1.154,335.3,,317.9,328.0,342.9,336.6,336.7,317.5,321.9,326.5,2,norm,1.625,1.502,-1.898,-2.078,-5.261,-5.173,-1.724,-1.459,-1.42,-1.877,1.113,-1.967,335.8,341.9,-4.637,-7.887,345.3,-1.506,7.634,4.743,-4.802,-8.4,20,4.354,4.839,4.665,4.826,1.951,1.238,1.42,1.138,20,5.138,4.589,10,145.276292097,norm,0,69,69,69,258.874,258.88,258.882145474,258.883,258.886,258.889,down,1,0.643751403798,9.3562485962,001,015,800_600,Intel(R) Core(TM) i7-2670QM CPU @ 2.20GHz,orientation_search,GRVLAPTOP3,Intel(R) HD Graphics Family,2018_jul_02_1425,testMonitor,
323.3,308.9,325.5,,36,-80,335.8,348.0,342.6,320.9,8.387,7.924,7.579,7.852,8.12,7.769,7.805,4.924,-4.68,-7.889,1.813,-1.816,8.085,4.597,-5.189,-7.574,318.9,336.4,-7.738,313.3,343.2,317.7,329.0,348.9,36,333.7,3,5,prime,10,0,66,norm,36,-5.106,up,norm,328.861900052,328.6,310.0,2.066,317.7,3,338.0,333.3,322.6,10,5,8.385,4.686,2.044,-1.253,-4.824,-8.352,333.3,5,394.9,-8.009,-8.193,-80,-7.553,-7.651,-4.668,-5.099,-4.699,-4.686,4.457,8.139,21,-1.669,1.601,4.76,7.904,-8.146,-7.957,-1.443,1.267,329.6,334.5,318.7,334.7,332.1,315.9,316.0,315.3,332.1,344.8,3,norm,1.318,2.084,-1.494,-1.948,-5.153,-4.415,-1.891,-1.37,-1.803,-2.081,2.065,-1.776,318.1,343.7,-4.684,-8.06,322.3,-1.139,7.843,4.739,-4.704,-8.163,20,4.879,5.037,4.71,5.292,1.445,1.471,1.988,1.315,20,4.928,4.73,10,145.276292097,norm,0,70,70,70,259.542,259.548,259.550097991,259.55,259.554,259.557,up,1,0.671895057373,9.32810494263,001,015,800_600,Intel(R) Core(TM) i7-2670QM CPU @ 2.20GHz,orientation_search,GRVLAPTOP3,Intel(R) HD Graphics Family,2018_jul_02_1425,testMonitor,
,308.9,332.8,319.4,36,-80,326.6,332.4,326.4,338.7,7.85,8.045,7.863,8.446,8.2,8.076,8.202,4.867,-5.178,-8.32,1.962,-1.651,8.411,5.211,-5.154,-8.485,327.9,333.5,-8.324,324.7,314.6,340.6,339.8,333.9,36,338.0,3,5,prime,10,0,74,norm,36,-4.905,up,norm,328.861900052,319.3,336.6,2.08,319.9,4,331.7,348.9,324.4,10,5,8.477,4.772,1.949,-1.402,-5.082,-7.599,337.7,5,402.9,-8.024,-7.735,-80,-7.584,-8.294,-4.844,-4.504,-4.322,-4.604,5.056,7.972,22,-1.93,1.207,4.405,8.332,-7.506,-8.317,-1.755,1.161,321.3,318.7,335.8,320.6,330.5,332.6,313.6,331.3,336.8,342.4,4,norm,1.104,2.017,-1.878,-1.907,-4.304,-4.402,-1.195,-1.703,-1.216,-1.357,1.966,-1.924,330.3,325.3,-4.678,-7.996,342.7,-1.853,8.058,4.768,-5.116,-8.388,20,4.913,4.623,5.179,4.377,1.244,1.316,1.291,1.333,20,4.966,5.075,10,145.276292097,norm,0,71,71,71,260.238,260.244,260.246086762,260.247,260.25,260.253,up,1,0.6343683181,9.3656316819,001,015,800_600,Intel(R) Core(TM) i7-2670QM CPU @ 2.20GHz,orientation_search,GRVLAPTOP3,Intel(R) HD Graphics Family,2018_jul_02_1425,testMonitor,
364.7,367.6,367.8,362.4,36,40,361.2,358.8,,355.0,8.473,8.473,7.657,8.296,7.98,8.42,7.716,4.529,-4.841,-7.653,1.271,-1.436,7.739,5.237,-4.428,-8.098,349.0,359.5,-8.173,358.7,352.8,351.6,351.0,356.8,36,368.1,4,5,probe,5,0,112,norm,36,-4.707,up,norm,359.035190343,357.9,358.3,1.327,358.0,4,352.0,361.1,360.0,10,5,8.202,4.989,1.932,-1.641,-4.657,-8.203,352.4,2,247.0,-8.392,-8.266,-80,-7.594,-7.934,-4.695,-5.079,-5.017,-4.388,4.78,7.627,28,-1.79,1.113,5.119,7.588,-8.051,-7.618,-1.723,1.539,357.5,360.4,352.0,366.3,365.0,367.2,363.2,369.0,350.6,356.4,0,norm,2.01,1.679,-1.277,-1.454,-4.426,-5.088,-1.524,-1.39,-1.281,-2.011,1.696,-1.139,360.7,356.6,-4.791,-7.595,354.3,-1.456,8.461,4.75,-5.006,-7.868,21,5.01,4.597,4.904,5.295,1.573,1.638,2.009,1.718,21,5.157,5.017,-80,328.861900052,norm,0,72,72,72,260.897,260.904,260.906030456,260.906,260.91,260.913,up,1,0.897437932901,9.1025620671,001,015,800_600,Intel(R) Core(TM) i7-2670QM CPU @ 2.20GHz,orientation_search,GRVLAPTOP3,Intel(R) HD Graphics Family,2018_jul_02_1425,testMonitor,
329.8,331.7,327.6,340.0,36,40,,328.2,321.5,326.5,8.449,7.693,8.137,7.927,8.007,7.551,7.522,4.714,-5.282,-8.144,2.032,-1.762,7.633,4.667,-4.416,-7.629,330.1,326.3,-7.811,325.7,336.6,336.2,337.6,330.7,36,333.6,4,5,probe,5,0,83,norm,36,-4.683,down,norm,330.035190343,337.0,321.3,1.759,330.1,0,327.0,335.2,334.0,10,5,8.383,4.701,1.151,-1.978,-4.78,-8.133,324.8,2,247.0,-7.65,-7.772,-80,-7.73,-8.155,-4.387,-5.188,-4.508,-4.45,5.008,7.599,24,-1.904,1.649,4.689,7.673,-7.501,-7.741,-1.894,1.468,324.2,323.7,320.0,333.3,327.1,326.8,332.7,331.2,337.0,332.5,1,norm,1.586,1.315,-1.141,-1.446,-4.528,-4.808,-1.981,-1.198,-1.297,-1.423,1.991,-1.83,330.2,327.5,-4.459,-7.76,331.5,-1.651,7.695,5.027,-4.774,-8.41,21,4.392,4.414,4.607,4.866,1.632,2.0,1.585,2.083,21,4.591,4.86,-80,328.861900052,norm,0,73,73,73,261.819,261.825,261.827400067,261.828,261.831,261.834,down,1,0.657911485945,9.34208851406,001,015,800_600,Intel(R) Core(TM) i7-2670QM CPU @ 2.20GHz,orientation_search,GRVLAPTOP3,Intel(R) HD Graphics Family,2018_jul_02_1425,testMonitor,
315.4,343.5,,307.5,36,10,303.5,326.6,318.3,327.4,8.342,8.043,8.167,7.799,7.553,7.998,7.745,4.415,-4.784,-8.398,1.601,-1.327,7.824,4.957,-4.444,-7.91,307.0,332.7,-8.017,325.4,316.8,321.3,329.6,317.5,36,325.1,3,5,prime,10,0,116,norm,36,-5.263,down,norm,323.515623316,318.6,335.0,1.226,321.9,2,338.1,324.0,328.0,10,6,7.686,4.886,1.368,-1.177,-4.312,-8.154,308.7,6,439.5,-7.951,-7.905,10,-7.915,-8.318,-4.889,-4.977,-4.338,-4.613,4.331,8.087,20,-1.59,1.188,4.582,7.794,-7.755,-8.026,-2.02,1.755,310.1,323.0,337.6,308.6,324.3,320.7,329.7,341.5,326.9,318.1,0,norm,1.134,1.629,-1.857,-1.298,-4.96,-4.384,-1.595,-1.726,-1.667,-1.264,1.667,-1.483,334.4,314.5,-4.577,-8.006,333.2,-1.19,7.518,4.928,-4.617,-8.022,22,5.129,5.027,5.221,4.765,1.974,1.77,2.098,1.77,22,4.867,4.973,40,328.861900052,norm,0,74,74,74,262.501,262.507,262.509140967,262.51,262.512,262.516,down,1,0.645018265124,9.35498173488,001,015,800_600,Intel(R) Core(TM) i7-2670QM CPU @ 2.20GHz,orientation_search,GRVLAPTOP3,Intel(R) HD Graphics Family,2018_jul_02_1425,testMonitor,
335.4,310.1,303.5,310.6,36,10,334.5,,314.7,306.4,8.439,8.061,7.86,7.873,8.438,7.566,8.105,4.384,-4.536,-7.553,1.432,-1.198,7.753,4.996,-4.663,-7.786,324.3,339.8,-7.926,330.2,311.1,324.3,307.8,336.6,36,332.2,4,5,prime,10,0,65,norm,36,-4.329,down,norm,323.515623316,312.3,329.5,1.484,318.7,1,332.3,317.4,316.6,10,6,7.553,4.487,1.5,-1.643,-4.43,-7.755,334.0,6,388.5,-8.232,-7.675,10,-8.279,-7.82,-4.692,-4.845,-4.778,-5.18,5.027,8.051,25,-1.603,1.435,4.799,8.377,-8.289,-8.366,-1.548,1.998,327.9,316.3,320.1,343.5,311.6,323.1,326.4,313.3,323.6,314.9,1,norm,1.415,1.865,-2.026,-1.208,-4.301,-4.828,-1.437,-1.133,-1.996,-1.378,1.77,-1.344,316.5,317.7,-4.508,-8.291,322.7,-1.223,7.547,4.773,-4.976,-8.294,22,5.259,4.366,4.632,4.438,1.976,1.767,1.979,2.081,22,4.464,4.781,40,328.861900052,norm,0,75,75,75,263.17,263.176,263.177810268,263.178,263.181,263.185,down,1,0.72354125331,9.27645874669,001,015,800_600,Intel(R) Core(TM) i7-2670QM CPU @ 2.20GHz,orientation_search,GRVLAPTOP3,Intel(R) HD Graphics Family,2018_jul_02_1425,testMonitor,
334.5,303.7,325.1,340.0,36,10,319.8,313.6,318.1,321.2,7.551,7.543,7.572,8.196,7.651,7.862,7.832,5.278,-4.4,-8.273,1.355,-1.439,8.381,5.069,-5.161,-8.381,326.3,329.5,-8.237,322.4,327.9,307.4,333.4,329.1,36,317.5,1,5,prime,10,0,77,norm,36,-4.474,up,norm,323.515623316,316.6,320.8,1.194,310.7,4,303.5,326.6,320.9,10,6,7.73,4.781,1.363,-2.099,-5.225,-8.222,,6,400.5,-7.55,-7.823,10,-7.88,-7.902,-4.707,-4.746,-4.77,-4.636,4.371,8.162,10,-1.931,1.262,4.331,7.71,-7.83,-7.554,-2.017,1.791,313.7,320.0,325.0,318.6,316.4,312.9,319.2,334.7,315.8,341.3,2,norm,1.771,2.001,-1.733,-1.438,-4.376,-4.548,-1.379,-1.297,-1.853,-1.757,1.323,-2.038,315.4,334.0,-5.289,-8.304,330.5,-1.294,7.951,4.653,-5.247,-8.328,22,4.878,4.93,4.489,4.639,1.705,2.056,1.674,1.548,22,4.337,5.002,40,328.861900052,norm,0,76,76,76,263.916,263.923,263.925235102,263.926,263.929,263.933,up,1,0.707730936025,9.29226906397,001,015,800_600,Intel(R) Core(TM) i7-2670QM CPU @ 2.20GHz,orientation_search,GRVLAPTOP3,Intel(R) HD Graphics Family,2018_jul_02_1425,testMonitor,
342.9,315.7,318.8,321.0,36,10,324.4,342.2,330.6,323.7,7.759,7.999,7.995,8.46,7.985,7.734,8.266,4.335,-5.068,-8.475,1.852,-1.106,8.169,4.484,-4.997,-7.611,325.8,338.0,-7.932,323.8,339.0,332.1,330.5,,36,319.1,4,5,prime,10,0,106,norm,36,-4.603,down,norm,323.515623316,337.3,329.1,1.622,327.8,2,303.5,330.4,314.8,10,6,7.943,4.623,1.334,-1.878,-5.057,-7.942,319.5,6,429.5,-8.146,-8.067,10,-8.069,-7.624,-5.111,-4.862,-4.324,-4.471,4.672,7.956,26,-2.039,1.362,5.095,8.332,-8.39,-7.506,-1.622,1.151,343.5,321.8,322.0,316.3,329.0,327.3,340.7,339.7,317.6,312.9,3,norm,1.823,1.535,-1.768,-1.256,-4.567,-4.808,-2.001,-1.604,-1.65,-1.879,1.34,-1.895,338.3,327.1,-4.679,-7.869,326.7,-2.026,7.781,4.72,-4.584,-8.34,22,5.042,4.817,5.058,4.609,1.633,1.779,2.014,1.36,22,5.15,4.375,40,328.861900052,norm,0,77,77,77,264.649,264.656,264.658221547,264.659,264.662,264.667,down,1,0.610860172224,9.38913982778,001,015,800_600,Intel(R) Core(TM) i7-2670QM CPU @ 2.20GHz,orientation_search,GRVLAPTOP3,Intel(R) HD Graphics Family,2018_jul_02_1425,testMonitor,
328.5,316.6,341.4,332.7,36,10,319.7,313.9,315.0,,8.08,8.046,7.815,7.748,7.999,8.257,8.259,4.457,-4.771,-8.273,1.759,-1.778,7.688,4.443,-4.305,-8.017,314.5,342.8,-7.711,311.3,322.4,315.1,341.5,320.5,36,303.5,4,5,prime,10,0,82,norm,36,-4.633,up,norm,323.515623316,324.9,338.9,1.215,336.8,5,343.5,331.1,321.2,10,6,8.229,4.619,1.551,-1.486,-4.566,-8.38,329.1,6,405.5,-8.487,-8.453,10,-7.708,-8.498,-4.941,-4.903,-5.074,-4.715,5.259,7.697,29,-1.717,1.56,4.629,7.588,-7.766,-8.113,-2.012,1.106,337.5,332.4,337.9,336.4,327.2,320.7,343.1,329.9,314.9,325.9,4,norm,1.695,1.299,-1.31,-1.694,-4.645,-4.643,-1.123,-1.825,-1.434,-1.718,2.053,-1.607,312.3,315.1,-5.192,-7.519,317.3,-1.132,7.778,4.421,-5.181,-7.925,22,4.719,4.88,5.056,4.806,1.849,1.821,1.745,1.238,22,5.189,5.228,40,328.861900052,norm,0,78,78,78,265.286,265.292,265.293996347,265.294,265.297,265.301,up,1,0.616089652503,9.3839103475,001,015,800_600,Intel(R) Core(TM) i7-2670QM CPU @ 2.20GHz,orientation_search,GRVLAPTOP3,Intel(R) HD Graphics Family,2018_jul_02_1425,testMonitor,
322.9,321.1,329.8,343.5,36,10,337.6,334.5,339.7,312.3,8.49,8.162,8.078,8.403,8.349,8.464,7.83,4.437,-4.662,-7.553,2.056,-1.63,8.195,5.035,-4.697,-7.972,311.7,327.4,-8.472,343.3,334.2,324.6,328.4,333.8,36,320.8,1,5,prime,10,0,87,norm,36,-4.407,down,norm,323.515623316,320.3,332.5,2.052,319.8,2,318.6,324.0,321.8,10,6,7.704,4.539,1.188,-1.433,-5.046,-8.276,321.1,6,410.5,-7.973,-8.444,10,-8.015,-8.356,-5.055,-5.168,-4.957,-5.259,4.736,7.869,8,-1.266,1.857,4.964,7.637,-8.47,-7.654,-1.442,1.817,332.0,,323.4,326.6,312.9,326.2,330.4,315.0,322.4,303.5,5,norm,1.492,1.98,-1.725,-1.439,-4.435,-5.289,-2.015,-1.267,-1.266,-1.779,1.595,-1.599,326.6,323.7,-4.938,-7.659,325.1,-1.543,8.352,5.26,-4.549,-8.386,22,4.75,4.514,4.798,4.685,1.803,1.376,2.044,1.877,22,4.664,5.054,40,328.861900052,norm,0,79,79,79,265.925,265.931,265.932844676,265.933,265.936,265.94,down,1,0.599886155256,9.40011384474,001,015,800_600,Intel(R) Core(TM) i7-2670QM CPU @ 2.20GHz,orientation_search,GRVLAPTOP3,Intel(R) HD Graphics Family,2018_jul_02_1425,testMonitor,
447.0,443.6,444.0,444.0,36,-40,447.0,449.1,441.1,447.4,7.501,7.557,8.153,7.855,8.469,7.854,7.593,4.322,-4.469,-7.788,2.075,-1.193,8.371,4.675,-4.338,-7.984,444.8,446.8,-7.91,446.7,443.9,450.9,444.9,447.1,36,441.7,0,5,probe,5,0,108,norm,36,-5.1,down,norm,446.267944243,439.9,456.3,1.633,437.0,2,454.6,444.7,444.3,10,6,7.775,4.415,1.921,-1.407,-5.007,-7.564,443.5,1,338.3,-7.846,-8.147,10,-7.868,-8.313,-4.4,-4.945,-5.026,-4.548,4.415,8.259,2,-1.566,1.224,4.903,8.192,-8.178,-7.7,-1.938,1.599,450.1,445.6,440.9,,448.9,443.5,440.0,445.1,436.3,447.2,0,norm,1.512,2.037,-1.187,-1.235,-4.354,-5.084,-1.279,-1.881,-1.149,-1.679,1.348,-1.622,439.3,443.6,-4.677,-8.161,441.0,-2.091,7.732,4.792,-4.971,-8.484,23,4.605,5.292,4.725,4.484,1.916,1.795,1.172,1.666,23,4.693,4.378,10,323.515623316,norm,0,80,80,80,266.548,266.554,266.556302016,266.557,266.559,266.563,down,1,0.81966721659,9.18033278341,001,015,800_600,Intel(R) Core(TM) i7-2670QM CPU @ 2.20GHz,orientation_search,GRVLAPTOP3,Intel(R) HD Graphics Family,2018_jul_02_1425,testMonitor,
266.5,250.9,255.4,258.6,36,-20,243.4,260.4,276.3,260.1,8.327,8.437,7.675,7.905,7.991,8.086,7.757,5.049,-4.838,-7.554,1.693,-1.905,8.058,5.06,-5.235,-7.812,266.3,248.9,-8.036,247.1,250.2,248.4,264.9,249.2,36,266.4,2,5,prime,10,0,90,norm,36,-4.653,up,norm,256.601531695,,244.7,1.764,253.0,5,261.0,236.6,252.7,10,5,7.572,4.851,1.291,-1.659,-4.489,-7.665,270.5,5,346.6,-7.743,-8.215,-20,-8.087,-7.843,-4.817,-5.269,-4.583,-4.653,5.132,7.823,17,-1.222,1.191,4.722,8.181,-7.668,-7.636,-1.297,1.822,264.9,243.6,272.2,259.3,259.4,254.2,252.5,248.7,245.8,244.8,0,norm,1.911,1.806,-1.772,-1.892,-4.394,-4.473,-2.081,-1.936,-1.894,-1.42,1.621,-1.487,251.6,243.7,-4.408,-7.61,276.6,-1.823,7.706,5.145,-4.406,-8.047,24,5.053,5.034,4.787,4.744,1.191,1.785,1.716,1.681,24,5.003,4.46,-40,323.515623316,norm,0,81,81,81,267.392,267.398,267.400552787,267.401,267.404,267.407,up,1,0.671440705707,9.32855929429,001,015,800_600,Intel(R) Core(TM) i7-2670QM CPU @ 2.20GHz,orientation_search,GRVLAPTOP3,Intel(R) HD Graphics Family,2018_jul_02_1425,testMonitor,
266.6,263.8,256.0,270.1,36,-20,257.7,236.6,254.8,246.1,7.558,8.428,8.27,7.984,8.437,7.802,7.517,4.312,-4.468,-7.755,1.479,-2.031,7.582,4.687,-4.31,-8.093,264.7,258.5,-7.915,252.6,254.3,266.3,270.9,242.9,36,276.6,0,5,prime,10,0,73,norm,36,-4.78,down,norm,256.601531695,256.4,261.1,1.49,246.3,2,237.1,246.8,259.0,10,5,7.511,4.827,1.15,-1.293,-4.956,-7.982,242.5,5,329.6,-7.524,-8.274,-20,-8.24,-8.332,-4.448,-4.81,-4.777,-4.948,4.74,8.286,2,-2.083,1.812,4.836,7.613,-8.279,-7.701,-1.975,1.524,260.9,255.9,258.8,,250.5,264.0,268.3,266.8,261.1,261.1,1,norm,1.115,1.735,-1.3,-1.557,-4.335,-4.798,-1.266,-1.852,-1.919,-1.411,1.42,-1.616,260.3,250.3,-4.74,-7.923,244.0,-1.873,7.976,5.295,-4.95,-7.975,24,4.362,4.591,4.773,5.066,1.495,2.052,2.088,1.122,24,4.385,5.257,-40,323.515623316,norm,0,82,82,82,268.087,268.093,268.094577992,268.095,268.098,268.101,down,1,0.709880350948,9.29011964905,001,015,800_600,Intel(R) Core(TM) i7-2670QM CPU @ 2.20GHz,orientation_search,GRVLAPTOP3,Intel(R) HD Graphics Family,2018_jul_02_1425,testMonitor,
265.2,242.0,,260.7,36,-20,264.1,272.6,252.5,261.1,8.091,8.409,7.525,7.716,8.413,7.982,7.857,4.34,-4.706,-7.858,1.242,-1.711,7.708,4.528,-4.933,-7.607,259.9,259.6,-8.004,257.2,257.2,245.8,269.8,254.1,36,252.0,3,5,prime,10,0,68,norm,36,-4.499,down,norm,256.601531695,255.7,252.9,1.763,236.6,2,245.1,253.5,272.0,10,5,7.647,4.56,1.821,-1.39,-5.235,-7.77,276.6,5,324.6,-8.178,-8.275,-20,-8.364,-7.715,-4.989,-5.29,-5.228,-4.547,5.273,7.562,20,-1.454,1.932,4.496,8.131,-8.376,-7.65,-1.963,1.644,261.6,256.7,253.5,265.8,262.2,269.7,263.2,258.7,254.8,257.5,2,norm,1.86,1.203,-1.517,-1.154,-4.731,-4.622,-1.31,-1.15,-1.129,-1.178,1.886,-1.963,246.1,254.0,-5.161,-7.928,251.6,-1.78,8.42,5.087,-5.101,-8.316,24,4.454,5.112,4.355,5.09,1.403,2.075,1.84,1.335,24,4.7,5.194,-40,323.515623316,norm,0,83,83,83,268.82,268.825,268.82749486,268.828,268.831,268.834,down,1,0.762540783082,9.23745921692,001,015,800_600,Intel(R) Core(TM) i7-2670QM CPU @ 2.20GHz,orientation_search,GRVLAPTOP3,Intel(R) HD Graphics Family,2018_jul_02_1425,testMonitor,
268.4,248.9,269.2,236.6,36,-20,266.8,261.8,268.9,238.4,7.973,8.258,7.921,8.008,7.531,8.38,8.216,4.507,-4.734,-8.069,1.108,-1.447,8.069,4.925,-5.172,-7.671,250.2,253.0,-8.335,243.9,247.9,,251.6,254.3,36,263.9,5,5,prime,10,0,81,norm,36,-4.639,up,norm,256.601531695,238.9,262.3,1.42,246.5,3,256.9,257.1,261.2,10,5,7.573,5.014,1.161,-1.827,-4.326,-8.293,242.9,5,337.6,-8.33,-8.399,-20,-8.486,-7.921,-4.394,-4.425,-4.59,-5.21,5.241,7.879,33,-1.867,1.71,4.751,8.054,-7.67,-7.995,-1.757,1.857,251.1,255.6,269.7,257.1,263.1,260.0,262.3,269.9,246.1,260.6,3,norm,1.522,1.361,-1.145,-1.38,-4.492,-4.526,-1.842,-1.316,-1.847,-1.405,1.37,-1.959,267.5,254.2,-4.674,-7.865,276.6,-1.866,8.295,4.987,-5.065,-8.25,24,4.705,4.79,4.543,4.46,1.223,1.143,1.689,1.255,24,4.714,5.298,-40,323.515623316,norm,0,84,84,84,269.605,269.61,269.612598663,269.613,269.616,269.619,up,1,1.15392388466,8.84607611534,001,015,800_600,Intel(R) Core(TM) i7-2670QM CPU @ 2.20GHz,orientation_search,GRVLAPTOP3,Intel(R) HD Graphics Family,2018_jul_02_1425,testMonitor,
255.3,261.6,260.3,257.8,36,-20,264.2,253.6,236.6,267.4,8.206,8.486,7.725,8.331,8.139,8.06,8.133,4.693,-4.698,-8.129,1.963,-1.155,7.565,4.961,-5.119,-7.794,251.1,257.8,-8.446,252.2,254.5,265.7,272.8,268.9,36,266.0,0,5,prime,10,0,107,norm,36,-4.498,down,norm,256.601531695,251.6,251.0,1.163,255.9,2,256.0,246.3,259.2,10,5,8.241,4.762,1.425,-1.344,-4.54,-8.215,257.1,5,363.6,-7.745,-7.979,-20,-7.77,-7.957,-4.616,-5.093,-4.739,-5.031,4.447,7.865,2,-1.506,1.619,4.683,7.96,-7.654,-8.385,-1.204,1.368,265.5,255.9,244.8,,268.9,264.4,237.6,261.4,270.4,276.6,4,norm,1.418,1.785,-1.3,-1.808,-4.565,-4.54,-1.302,-1.578,-1.476,-1.289,1.152,-1.993,267.1,263.6,-4.994,-7.644,268.9,-1.418,7.975,4.548,-4.977,-8.421,24,4.962,4.97,5.158,5.135,1.236,2.029,1.971,1.944,24,4.705,5.164,-40,323.515623316,norm,0,85,85,85,270.781,270.787,270.789099109,270.789,270.792,270.796,down,1,0.717229827697,9.2827701723,001,015,800_600,Intel(R) Core(TM) i7-2670QM CPU @ 2.20GHz,orientation_search,GRVLAPTOP3,Intel(R) HD Graphics Family,2018_jul_02_1425,testMonitor,
328.8,338.3,334.4,335.4,36,30,327.9,323.8,343.8,327.6,8.179,8.073,7.511,7.784,7.836,7.574,7.738,4.62,-5.123,-7.885,1.695,-1.684,8.292,4.575,-4.898,-7.972,330.9,327.1,-8.018,334.6,331.1,340.2,329.4,339.1,36,334.6,0,5,probe,5,0,99,norm,36,-4.89,down,norm,333.802290451,334.3,340.1,1.597,331.6,1,336.7,338.7,338.5,10,5,7.771,5.126,1.313,-1.177,-4.603,-7.976,337.2,1,234.8,-7.618,-8.494,-20,-7.857,-8.39,-4.549,-5.256,-4.306,-4.6,4.991,7.895,1,-2.094,1.536,4.389,8.184,-7.867,-8.258,-1.73,1.836,330.8,335.9,338.1,326.9,,328.9,333.4,333.6,337.4,329.6,0,norm,2.067,2.079,-1.293,-1.517,-4.871,-4.928,-1.876,-1.518,-1.623,-1.676,2.038,-1.512,332.2,333.8,-4.474,-7.717,328.6,-1.239,8.043,5.284,-4.999,-8.235,25,4.548,5.163,4.593,4.937,1.751,1.953,1.107,1.762,25,4.301,5.037,-20,256.601531695,norm,0,86,86,86,271.522,271.527,271.529025974,271.529,271.533,271.536,down,1,0.694113927863,9.30588607214,001,015,800_600,Intel(R) Core(TM) i7-2670QM CPU @ 2.20GHz,orientation_search,GRVLAPTOP3,Intel(R) HD Graphics Family,2018_jul_02_1425,testMonitor,
348.9,363.6,343.0,,36,30,356.0,349.7,360.9,342.9,7.97,7.665,8.086,7.874,7.745,8.201,8.014,4.31,-4.768,-7.767,1.727,-2.053,7.856,4.53,-4.822,-8.068,335.7,351.7,-7.56,349.1,331.3,356.6,346.8,355.1,36,345.1,3,5,prime,10,0,79,norm,36,-4.763,up,norm,350.280394481,350.0,344.1,1.156,350.4,3,359.9,357.0,340.9,10,6,7.522,4.904,1.719,-1.511,-5.161,-8.458,353.9,6,429.3,-7.745,-8.485,30,-7.51,-7.806,-4.948,-4.619,-4.655,-4.906,4.475,7.993,21,-1.809,1.829,5.092,7.59,-8.035,-8.09,-1.253,1.124,333.2,344.0,344.9,330.3,341.2,337.4,347.7,362.6,370.3,339.7,0,norm,1.795,1.606,-1.136,-1.613,-4.571,-4.321,-1.663,-1.538,-1.985,-1.609,1.571,-1.394,347.0,340.4,-4.578,-7.672,344.3,-1.687,8.274,4.912,-5.072,-7.58,26,4.594,4.398,4.597,4.712,1.773,1.206,2.044,1.658,26,4.884,4.87,30,256.601531695,norm,0,87,87,87,272.239,272.244,272.246496753,272.247,272.25,272.254,up,1,0.666818272875,9.33318172712,001,015,800_600,Intel(R) Core(TM) i7-2670QM CPU @ 2.20GHz,orientation_search,GRVLAPTOP3,Intel(R) HD Graphics Family,2018_jul_02_1425,testMonitor,
334.8,355.6,330.3,347.9,36,30,343.4,343.8,364.9,360.1,8.368,7.55,8.138,7.768,7.646,8.098,7.775,4.44,-4.406,-7.51,2.014,-1.617,7.513,4.58,-4.47,-7.535,346.9,367.3,-7.768,335.4,337.6,344.5,363.1,354.4,36,338.0,0,5,prime,10,0,105,norm,36,-5.233,up,norm,350.280394481,369.4,355.1,1.542,370.3,5,351.8,363.2,340.1,10,6,7.92,5.015,2.08,-1.172,-4.346,-7.903,345.4,6,455.3,-7.851,-8.035,30,-7.581,-8.366,-4.848,-4.604,-4.542,-4.808,5.115,8.403,5,-1.617,1.745,4.777,7.636,-7.904,-7.504,-1.203,1.767,345.7,346.4,348.1,346.0,340.9,370.3,346.3,367.4,,330.3,1,norm,1.675,1.286,-1.188,-1.507,-5.087,-4.652,-1.497,-1.501,-1.646,-2.031,1.224,-1.81,338.5,347.0,-5.195,-8.145,345.4,-1.651,8.052,4.458,-5.239,-7.966,26,4.464,4.851,5.104,4.762,1.648,1.755,1.702,1.515,26,4.504,4.859,30,256.601531695,norm,0,88,88,88,272.929,272.935,272.937306007,272.938,272.941,272.944,up,1,0.743719043498,9.2562809565,001,015,800_600,Intel(R) Core(TM) i7-2670QM CPU @ 2.20GHz,orientation_search,GRVLAPTOP3,Intel(R) HD Graphics Family,2018_jul_02_1425,testMonitor,
336.3,370.3,344.0,341.7,36,30,355.3,347.5,,343.1,8.182,7.762,8.104,7.618,8.477,8.492,7.808,4.836,-4.52,-7.6,1.62,-1.438,8.186,4.763,-4.824,-7.622,330.3,347.1,-8.409,355.2,354.9,348.5,343.7,338.6,36,355.9,4,5,prime,10,0,109,norm,36,-4.739,up,norm,350.280394481,333.6,349.3,1.548,341.7,4,348.6,345.6,350.8,10,6,8.363,5.046,1.42,-1.488,-4.737,-8.222,349.9,6,459.3,-8.181,-8.421,30,-8.276,-7.713,-5.075,-4.411,-4.988,-4.964,4.747,8.384,28,-1.513,1.977,5.049,7.794,-8.221,-7.536,-2.013,1.582,343.8,354.8,342.0,344.8,360.6,344.8,358.0,350.1,349.9,335.7,2,norm,1.977,1.923,-1.968,-1.284,-4.92,-4.791,-1.168,-1.613,-1.326,-1.534,1.582,-1.486,333.3,362.9,-5.281,-8.233,337.1,-1.515,7.648,5.116,-4.753,-8.49,26,4.367,4.649,5.021,4.722,1.191,1.33,1.787,1.972,26,5.234,4.991,30,256.601531695,norm,0,89,89,89,273.697,273.702,273.704482765,273.705,273.708,273.711,up,1,1.16673538755,8.83326461245,001,015,800_600,Intel(R) Core(TM) i7-2670QM CPU @ 2.20GHz,orientation_search,GRVLAPTOP3,Intel(R) HD Graphics Family,2018_jul_02_1425,testMonitor,
356.6,333.1,,352.6,36,30,344.0,339.7,348.4,356.3,7.87,8.261,7.59,7.51,7.94,7.992,8.419,4.78,-5.136,-7.674,1.284,-1.635,7.989,4.736,-4.773,-7.94,364.6,354.9,-8.038,348.0,337.7,356.3,330.3,346.9,36,363.9,3,5,prime,10,0,118,norm,36,-5.093,down,norm,350.280394481,349.0,343.0,1.88,356.6,2,370.3,368.5,348.2,10,6,8.439,5.057,1.17,-1.619,-4.571,-8.271,347.1,6,468.3,-8.17,-8.104,30,-7.944,-7.909,-4.351,-4.47,-4.384,-5.007,4.91,8.226,20,-1.767,1.473,4.554,7.61,-8.042,-8.441,-1.417,1.925,342.2,339.9,369.4,337.0,338.9,345.9,341.3,351.8,365.7,333.6,3,norm,1.829,2.03,-1.179,-1.51,-4.412,-5.01,-1.875,-1.214,-1.287,-1.213,1.868,-1.612,351.6,350.4,-4.899,-7.576,343.2,-1.504,7.761,4.617,-4.819,-7.592,26,5.015,4.393,4.562,4.804,1.221,1.571,1.97,1.602,26,4.519,4.805,30,256.601531695,norm,0,90,90,90,274.886,274.892,274.894207974,274.895,274.898,274.901,down,1,1.28306902643,8.71693097357,001,015,800_600,Intel(R) Core(TM) i7-2670QM CPU @ 2.20GHz,orientation_search,GRVLAPTOP3,Intel(R) HD Graphics Family,2018_jul_02_1425,testMonitor,
,349.0,332.9,330.3,36,30,341.5,343.8,341.2,370.3,8.044,7.699,8.229,7.56,7.881,8.395,7.641,4.319,-5.167,-8.233,1.889,-1.877,8.206,4.967,-4.776,-8.329,348.0,351.6,-8.241,369.8,348.0,352.4,346.8,336.6,36,344.2,3,5,prime,10,0,104,norm,36,-5.284,up,norm,350.280394481,351.0,336.5,1.926,346.6,4,361.1,361.6,357.2,10,6,8.448,4.321,1.403,-1.48,-5.254,-8.024,355.2,6,454.3,-8.419,-7.811,30,-7.583,-8.338,-4.612,-4.701,-4.873,-5.263,4.466,8.471,22,-1.29,1.256,4.984,7.68,-7.915,-7.738,-1.629,1.474,362.5,355.4,350.3,364.5,346.1,351.1,359.8,347.7,359.7,355.0,4,norm,1.9,1.989,-1.759,-1.552,-4.91,-4.491,-1.441,-1.654,-1.716,-1.686,1.248,-1.375,360.3,357.7,-4.659,-7.917,337.4,-1.246,7.946,5.053,-5.217,-8.352,26,4.967,4.749,4.605,4.606,1.927,1.913,1.922,1.938,26,5.029,5.154,30,256.601531695,norm,0,91,91,91,276.193,276.199,276.200709031,276.201,276.204,276.208,up,1,0.717186400456,9.28281359954,001,015,800_600,Intel(R) Core(TM) i7-2670QM CPU @ 2.20GHz,orientation_search,GRVLAPTOP3,Intel(R) HD Graphics Family,2018_jul_02_1425,testMonitor,
341.0,351.4,361.1,360.3,36,30,345.1,350.6,339.3,348.2,8.057,8.056,8.21,7.58,8.414,7.692,8.053,4.752,-5.172,-8.21,1.387,-2.07,8.201,4.797,-5.225,-8.383,347.6,350.0,-8.205,359.5,354.4,370.3,358.9,348.2,36,359.5,0,5,prime,10,0,88,norm,36,-4.33,up,norm,350.280394481,363.0,347.9,1.203,340.0,3,332.3,348.0,353.7,10,6,7.911,4.425,1.194,-1.221,-4.326,-8.495,347.9,6,438.3,-7.898,-8.184,30,-7.783,-8.208,-4.903,-4.715,-4.38,-4.301,4.978,8.216,3,-1.864,1.455,4.362,8.003,-7.963,-8.251,-1.399,1.965,354.1,346.9,,356.7,360.4,339.6,351.5,349.4,336.8,348.7,5,norm,1.218,1.939,-1.904,-1.557,-4.648,-4.33,-1.949,-1.485,-1.101,-1.172,1.34,-1.873,362.4,330.3,-4.957,-7.836,353.9,-1.999,7.858,4.831,-5.059,-7.75,26,4.507,5.272,5.286,4.603,1.995,1.724,1.588,2.023,26,4.775,4.32,30,256.601531695,norm,0,92,92,92,276.934,276.939,276.941329798,276.942,276.945,276.948,down,0,0.739849349502,-10,001,015,800_600,Intel(R) Core(TM) i7-2670QM CPU @ 2.20GHz,orientation_search,GRVLAPTOP3,Intel(R) HD Graphics Family,2018_jul_02_1425,testMonitor,
470.7,,470.9,474.6,36,-20,466.6,463.5,471.5,458.7,7.509,7.614,7.775,7.568,7.737,8.197,7.53,5.149,-5.18,-7.573,1.835,-1.202,8.007,4.801,-4.73,-7.6,461.2,474.2,-8.144,467.5,465.9,477.7,473.0,473.6,36,461.0,3,5,probe,5,0,90,norm,36,-5.195,up,norm,467.665646393,461.6,466.3,1.795,465.1,5,468.7,458.1,462.8,10,6,8.245,5.259,1.614,-1.234,-4.567,-8.012,462.7,1,377.7,-8.331,-7.675,30,-8.332,-8.318,-4.64,-4.466,-4.846,-4.729,4.46,7.542,23,-1.598,1.254,4.99,7.778,-7.642,-7.636,-1.129,2.005,474.8,460.0,466.9,467.1,462.4,469.2,457.7,465.2,462.9,462.4,0,norm,1.952,1.524,-1.423,-1.503,-5.271,-4.715,-1.72,-2.008,-1.34,-1.239,2.063,-1.224,468.5,467.9,-5.225,-7.603,464.8,-1.819,7.858,5.084,-4.625,-8.207,27,4.793,4.841,4.637,4.423,1.16,1.431,1.199,1.992,27,4.724,5.079,30,350.280394481,norm,0,93,93,93,278.705,278.711,278.712839007,278.713,278.716,278.719,up,1,0.816398966525,9.18360103348,001,015,800_600,Intel(R) Core(TM) i7-2670QM CPU @ 2.20GHz,orientation_search,GRVLAPTOP3,Intel(R) HD Graphics Family,2018_jul_02_1425,testMonitor,
84.2,60.6,91.0,66.1,36,-40,81.0,63.2,76.2,85.1,8.374,7.594,8.176,8.059,8.45,7.52,8.225,5.246,-5.048,-8.034,1.22,-1.366,8.211,5.17,-4.871,-7.507,61.7,82.2,-8.023,100.6,68.6,92.3,66.6,76.5,36,75.7,2,5,prime,10,0,112,norm,36,-4.71,down,norm,80.6044555306,85.9,80.8,1.144,84.3,0,75.2,78.0,,10,6,8.457,4.696,1.945,-1.282,-4.96,-8.411,77.4,6,192.6,-8.259,-7.907,-40,-7.819,-8.279,-5.1,-4.654,-4.54,-4.725,5.288,8.175,12,-1.1,1.484,4.541,8.42,-7.547,-8.191,-1.418,1.291,75.1,76.1,76.0,85.4,96.3,82.9,75.1,77.0,80.7,75.8,0,norm,1.95,1.529,-1.634,-1.354,-5.263,-5.242,-1.179,-1.187,-1.156,-1.159,1.57,-2.077,83.9,89.9,-5.241,-8.077,75.2,-1.321,8.299,5.223,-4.657,-8.119,28,4.476,4.302,4.615,4.67,1.652,1.612,1.472,2.042,28,5.091,5.216,-20,350.280394481,norm,0,94,94,94,279.544,279.549,279.551161725,279.552,279.554,279.558,down,1,0.700613538185,9.29938646181,001,015,800_600,Intel(R) Core(TM) i7-2670QM CPU @ 2.20GHz,orientation_search,GRVLAPTOP3,Intel(R) HD Graphics Family,2018_jul_02_1425,testMonitor,
