d_ori_22,d_ori_23,d_ori_20,d_ori_21,set_size,ctpd,d_ori_24,d_ori_25,d_ori_28,d_ori_29,stim_pos_x_30,stim_pos_x_31,stim_pos_x_32,stim_pos_x_33,stim_pos_x_34,stim_pos_x_35,stim_pos_y_11,stim_pos_y_10,stim_pos_y_13,stim_pos_y_12,stim_pos_y_15,stim_pos_y_14,stim_pos_y_17,stim_pos_y_16,stim_pos_y_19,stim_pos_y_18,d_ori_35,d_ori_34,stim_pos_x_3,d_ori_31,d_ori_30,d_ori_33,d_ori_32,d_ori_26,test_set_size,d_ori_27,targetCol,dsd_test,seq_type,dsd,blockRepN,targetDist,dtype_test,prime_set_size,stim_pos_y_25,correctResponse,dtype,distrMean,d_ori_17,d_ori_16,stim_pos_y_3,d_ori_14,targetRow,d_ori_11,d_ori_13,d_ori_12,dsd_prime,streak_length_prime,stim_pos_y_35,stim_pos_y_34,stim_pos_y_33,stim_pos_y_32,stim_pos_y_31,stim_pos_y_30,d_ori_10,nextProbe,targetOri,stim_pos_x_1,stim_pos_x_2,ctpd_prime,stim_pos_x_4,stim_pos_x_5,stim_pos_x_6,stim_pos_x_7,stim_pos_x_8,stim_pos_x_9,stim_pos_y_28,stim_pos_y_29,targetPos,stim_pos_y_20,stim_pos_y_21,stim_pos_y_22,stim_pos_y_23,stim_pos_y_24,stim_pos_x_0,stim_pos_y_26,stim_pos_y_27,d_ori_9,d_ori_8,d_ori_3,d_ori_2,d_ori_1,d_ori_0,d_ori_7,d_ori_6,d_ori_5,d_ori_4,trialN,dtype_prime,stim_pos_x_18,stim_pos_x_19,stim_pos_x_12,stim_pos_x_13,stim_pos_x_10,stim_pos_x_11,stim_pos_x_16,stim_pos_x_17,stim_pos_x_14,stim_pos_x_15,stim_pos_y_9,stim_pos_y_8,d_ori_19,d_ori_18,stim_pos_y_1,stim_pos_y_0,d_ori_15,stim_pos_y_2,stim_pos_y_5,stim_pos_y_4,stim_pos_y_7,stim_pos_y_6,totBlockN,stim_pos_x_27,stim_pos_x_26,stim_pos_x_25,stim_pos_x_24,stim_pos_x_23,stim_pos_x_22,stim_pos_x_21,stim_pos_x_20,blockN,stim_pos_x_29,stim_pos_x_28,prevDistrCTPD,prevDistrMean,prevDistrType,trials.thisRepN,trials.thisTrialN,trials.thisN,trials.thisIndex,timeStart,timeBeforeDraw,timeDraw,timeAfterSaving,timeAfterWritingToTemp,timeAfterPreparingNext,answer,correct,rt,trialScore,session,participant,resolution,cpu_info,expName,pc_name,graphic_card,date,monitorName,
45.0,68.8,52.2,36.2,36,-20,65.4,65.3,48.8,64.2,8.294,8.315,7.669,7.687,7.587,8.023,7.634,5.198,-4.689,-7.929,2.005,-1.354,7.533,5.241,-4.812,-7.82,56.6,62.3,-8.251,73.4,53.7,46.8,63.2,50.7,36,52.2,1,5,prime,10,0,83,norm,36,-5.074,up,norm,56.2261834881,54.9,61.1,1.41,51.7,3,36.9,71.1,56.2,10,5,7.564,4.521,1.952,-1.948,-5.003,-7.631,52.7,5,139.2,-7.769,-7.742,-20,-7.852,-8.044,-4.879,-4.848,-5.275,-4.338,4.915,7.957,9,-1.149,1.328,5.07,8.21,-7.5,-8.117,-1.337,2.069,,52.4,49.5,52.7,53.7,76.2,67.6,46.1,56.3,52.4,0,norm,1.138,1.718,-1.353,-1.519,-5.173,-4.915,-1.425,-1.852,-1.979,-1.507,1.928,-1.93,49.9,50.5,-4.915,-8.212,47.3,-1.536,7.793,4.711,-4.576,-8.127,0,4.968,4.739,4.461,5.265,1.804,1.228,1.799,2.096,0,5.166,4.32,,,,0,0,0,0,216.232,216.245,216.251882989,216.252,216.253,216.257,up,1,1.26486569024,8.73513430976,001,020,800_600,Intel(R) Core(TM) i7-2670QM CPU @ 2.20GHz,orientation_search,GRVLAPTOP3,Intel(R) HD Graphics Family,2018_jul_30_1325,testMonitor,
55.6,53.9,36.6,76.2,36,-20,59.5,47.3,49.8,36.2,7.982,7.704,8.103,7.935,7.917,8.053,7.72,4.528,-4.382,-7.954,1.271,-1.78,7.992,4.874,-4.566,-8.091,65.2,,-7.825,64.3,50.8,63.5,45.9,64.9,36,48.9,5,5,prime,10,0,74,norm,36,-5.05,up,norm,56.2261834881,67.1,49.0,1.534,57.0,4,52.0,53.4,52.6,10,5,8.274,4.714,1.566,-1.371,-4.821,-8.409,59.6,5,130.2,-7.843,-7.967,-20,-7.524,-7.79,-5.277,-4.914,-4.302,-4.434,4.518,8.395,34,-1.813,1.822,4.955,8.335,-8.398,-7.697,-2.081,1.647,71.8,72.2,57.0,63.6,57.9,46.7,64.5,53.3,61.5,52.1,1,norm,1.456,1.742,-2.015,-1.819,-5.074,-4.933,-1.34,-1.456,-1.953,-1.32,1.402,-1.375,65.6,61.1,-4.337,-8.281,48.7,-1.123,7.626,5.124,-4.713,-8.459,0,4.645,4.424,5.101,4.827,1.948,1.317,1.211,1.601,0,4.925,4.915,,,,0,1,1,1,217.535,217.542,217.545278589,217.546,217.548,217.552,up,1,0.740529487631,9.25947051237,001,020,800_600,Intel(R) Core(TM) i7-2670QM CPU @ 2.20GHz,orientation_search,GRVLAPTOP3,Intel(R) HD Graphics Family,2018_jul_30_1325,testMonitor,
46.5,60.2,60.4,49.0,36,-20,47.5,64.2,56.1,45.5,7.559,7.684,8.106,7.692,7.845,8.184,7.703,4.868,-4.987,-8.192,1.631,-1.268,7.819,4.403,-4.973,-7.956,52.0,64.8,-8.423,43.4,37.4,48.4,66.1,56.8,36,60.7,2,5,prime,10,0,118,norm,36,-5.14,down,norm,56.2261834881,50.1,48.6,1.842,76.2,0,64.9,60.6,,10,5,8.454,5.02,1.752,-2.024,-4.603,-7.785,45.8,5,174.2,-8.3,-8.279,-20,-8.497,-8.059,-4.366,-5.182,-4.939,-5.243,4.369,7.914,12,-1.142,1.859,4.35,8.056,-8.044,-8.025,-1.477,1.519,45.3,75.5,65.4,62.1,55.5,36.2,52.7,68.3,70.0,65.5,2,norm,1.986,1.824,-1.773,-2.052,-5.192,-5.153,-1.935,-1.712,-1.904,-1.532,1.134,-1.123,62.1,56.0,-4.435,-8.276,60.8,-1.458,7.779,4.867,-4.562,-7.94,0,5.271,4.374,5.14,4.48,1.268,1.833,1.305,1.651,0,4.995,4.499,,,,0,2,2,2,218.304,218.312,218.314431844,218.315,218.318,218.323,down,1,0.732566533834,9.26743346617,001,020,800_600,Intel(R) Core(TM) i7-2670QM CPU @ 2.20GHz,orientation_search,GRVLAPTOP3,Intel(R) HD Graphics Family,2018_jul_30_1325,testMonitor,
75.8,56.6,37.7,75.1,36,-20,55.0,70.4,57.8,53.6,7.531,7.99,8.327,7.533,8.267,8.497,7.618,4.313,-4.509,-8.432,1.744,-1.49,7.919,4.438,-4.334,-7.862,58.7,61.8,-8.319,52.5,58.3,42.9,,49.9,36,76.2,5,5,prime,10,0,110,norm,36,-5.058,down,norm,56.2261834881,51.8,60.6,1.852,44.1,2,58.6,48.2,46.0,10,5,7.997,4.583,1.418,-1.223,-4.847,-7.502,64.9,5,166.2,-7.596,-7.656,-20,-8.393,-8.202,-4.478,-4.332,-5.287,-4.928,4.638,7.966,32,-1.237,1.761,4.892,7.732,-7.632,-8.166,-1.741,1.653,53.2,57.7,52.0,66.2,56.6,42.5,57.9,54.6,53.4,72.3,3,norm,1.913,1.931,-1.799,-1.128,-5.02,-4.37,-1.137,-1.497,-1.294,-1.212,1.952,-1.819,59.7,59.4,-5.234,-7.725,36.2,-1.845,7.972,4.467,-5.242,-7.724,0,4.713,4.334,4.624,5.256,1.768,1.329,1.191,1.666,0,5.29,4.475,,,,0,3,3,3,219.065,219.073,219.07517994,219.076,219.079,219.084,up,0,0.979958366448,-10,001,020,800_600,Intel(R) Core(TM) i7-2670QM CPU @ 2.20GHz,orientation_search,GRVLAPTOP3,Intel(R) HD Graphics Family,2018_jul_30_1325,testMonitor,
51.0,54.6,54.3,46.7,36,-20,57.4,45.4,61.2,44.5,8.028,7.817,7.68,7.934,8.051,7.795,8.04,4.376,-4.85,-7.9,1.471,-1.162,7.757,4.631,-4.521,-7.957,59.0,72.3,-7.771,76.2,59.2,56.5,55.3,57.8,36,57.6,3,5,prime,10,0,89,norm,36,-4.361,down,norm,56.2261834881,61.0,72.3,1.494,59.9,0,66.1,66.4,55.7,10,5,7.547,4.746,1.489,-1.754,-5.061,-8.228,58.7,5,145.2,-7.645,-7.757,-20,-7.811,-7.742,-5.154,-4.582,-4.46,-4.823,4.677,7.52,18,-1.644,2.036,4.474,7.96,-7.815,-8.204,-1.723,1.532,56.6,41.4,36.2,52.9,70.5,39.7,41.6,65.1,58.5,49.3,4,norm,2.073,1.501,-1.377,-1.206,-5.126,-5.039,-1.579,-1.94,-1.405,-1.195,1.757,-1.511,47.5,,-4.572,-7.734,62.8,-1.232,7.879,4.582,-4.89,-8.394,0,4.529,5.011,4.388,4.807,1.575,1.136,1.53,1.221,0,4.91,4.389,,,,0,4,4,4,221.078,221.086,221.088597842,221.089,221.093,221.097,down,1,1.04974779855,8.95025220145,001,020,800_600,Intel(R) Core(TM) i7-2670QM CPU @ 2.20GHz,orientation_search,GRVLAPTOP3,Intel(R) HD Graphics Family,2018_jul_30_1325,testMonitor,
122.2,121.0,110.3,107.9,36,-20,109.3,108.4,112.2,123.6,8.406,7.991,7.804,8.212,7.596,7.581,7.739,4.345,-4.373,-8.181,1.487,-1.178,8.326,5.244,-4.977,-7.525,103.6,120.0,-7.808,106.6,114.6,111.9,117.6,122.6,36,108.8,2,5,probe,5,0,73,norm,36,-4.39,down,norm,113.560685322,112.7,110.0,1.309,,2,110.3,111.6,113.0,10,5,8.167,4.694,1.535,-1.534,-4.922,-7.838,113.9,2,40.6,-8.262,-8.242,-20,-7.884,-7.901,-4.468,-4.695,-4.49,-4.322,4.773,8.363,14,-1.181,1.471,4.479,7.781,-8.381,-8.206,-1.718,1.336,105.9,108.8,118.9,111.3,111.4,115.1,107.2,112.7,106.6,119.8,0,norm,1.514,1.386,-1.674,-1.436,-4.633,-5.118,-1.118,-1.845,-1.667,-1.552,1.896,-1.145,117.3,113.0,-4.609,-7.639,113.6,-1.645,7.576,4.605,-4.978,-7.591,1,4.683,5.216,4.442,5.008,2.042,1.113,1.549,1.663,1,4.437,4.99,-20,56.2261834881,norm,0,5,5,5,222.158,222.165,222.167582985,222.168,222.172,222.176,down,1,1.94453342498,8.05546657502,001,020,800_600,Intel(R) Core(TM) i7-2670QM CPU @ 2.20GHz,orientation_search,GRVLAPTOP3,Intel(R) HD Graphics Family,2018_jul_30_1325,testMonitor,
129.4,129.3,129.5,135.2,36,-20,134.5,132.1,124.8,125.5,8.3,8.161,7.527,8.378,7.542,8.324,8.487,4.73,-4.469,-8.369,1.138,-1.303,8.059,5.081,-4.811,-7.945,129.3,132.4,-8.353,120.7,127.1,131.0,127.5,122.9,36,130.7,0,5,probe,5,0,88,norm,36,-4.598,up,norm,128.560685322,124.1,131.2,1.959,130.9,5,127.8,125.7,138.6,10,5,8.32,4.397,1.208,-1.573,-5.049,-7.891,134.7,2,40.6,-8.375,-8.004,-20,-8.178,-8.436,-5.032,-4.353,-4.312,-4.929,4.847,8.213,5,-1.853,1.714,4.364,7.638,-7.894,-7.693,-1.964,1.677,133.1,126.0,118.6,132.2,134.7,133.2,121.0,129.1,,128.4,1,norm,1.613,1.476,-1.828,-1.28,-5.247,-5.199,-1.858,-1.56,-1.378,-1.993,1.883,-1.877,131.7,137.5,-5.209,-7.893,132.0,-1.5,8.04,4.458,-5.281,-8.058,1,4.965,5.026,5.074,4.687,1.856,1.635,1.254,1.689,1,4.7,5.044,-20,56.2261834881,norm,0,6,6,6,224.13,224.137,224.139684863,224.14,224.144,224.148,down,0,1.17891127048,-10,001,020,800_600,Intel(R) Core(TM) i7-2670QM CPU @ 2.20GHz,orientation_search,GRVLAPTOP3,Intel(R) HD Graphics Family,2018_jul_30_1325,testMonitor,
193.0,184.2,181.9,182.3,36,60,199.4,196.1,215.7,198.3,8.111,8.014,8.398,7.528,7.542,7.784,8.485,5.15,-4.688,-8.209,1.669,-1.673,7.704,4.777,-4.583,-8.028,210.9,206.4,-8.028,212.6,203.4,197.1,208.0,187.8,36,194.6,1,5,prime,10,0,90,norm,36,-4.97,up,norm,195.704509027,212.9,196.4,1.53,194.6,4,203.0,212.2,197.7,10,6,8.251,4.626,1.184,-1.627,-4.71,-7.525,,6,285.7,-7.508,-8.398,60,-7.632,-8.089,-4.674,-4.734,-5.097,-5.117,5.05,7.649,10,-1.62,1.63,5.223,8.463,-8.436,-7.946,-1.879,1.309,187.9,191.6,192.3,197.3,189.0,196.8,186.0,190.2,179.5,183.6,0,norm,1.702,1.43,-1.123,-1.139,-4.548,-4.934,-1.804,-1.202,-1.62,-1.783,1.483,-1.468,175.7,202.5,-4.861,-8.177,187.1,-1.224,8.318,5.226,-5.01,-8.494,2,4.63,5.075,4.836,4.763,1.37,1.688,1.208,1.525,2,4.422,5.147,-20,56.2261834881,norm,0,7,7,7,226.351,226.358,226.360317939,226.361,226.364,226.369,up,1,1.06647733269,8.93352266731,001,020,800_600,Intel(R) Core(TM) i7-2670QM CPU @ 2.20GHz,orientation_search,GRVLAPTOP3,Intel(R) HD Graphics Family,2018_jul_30_1325,testMonitor,
200.6,203.0,203.5,212.4,36,60,205.4,213.8,186.5,184.8,8.1,8.052,7.672,8.123,8.078,8.03,8.098,4.452,-4.684,-7.588,1.124,-1.406,8.064,4.351,-4.809,-8.174,203.2,196.6,-8.417,183.4,201.0,180.9,193.4,207.9,36,195.0,1,5,prime,10,0,68,norm,36,-4.48,down,norm,195.704509027,208.2,192.7,1.212,200.6,0,209.0,215.7,187.2,10,6,7.516,4.8,1.629,-1.36,-5.18,-8.174,213.7,6,263.7,-7.543,-7.623,60,-8.167,-8.038,-4.574,-4.656,-4.647,-4.439,5.298,8.089,6,-1.904,2.061,4.598,7.547,-8.02,-7.552,-1.747,1.863,208.4,184.4,209.8,201.4,209.0,204.0,213.9,,189.0,200.2,1,norm,1.266,2.022,-1.93,-1.727,-4.434,-5.178,-1.107,-1.25,-1.886,-1.409,1.219,-2.015,192.0,203.5,-4.458,-7.912,201.3,-1.222,8.146,4.695,-4.538,-8.094,2,4.885,4.801,5.258,5.297,1.196,1.922,1.107,1.696,2,4.413,4.365,-20,56.2261834881,norm,0,8,8,8,227.446,227.453,227.455191633,227.456,227.459,227.464,down,1,0.897859579686,9.10214042031,001,020,800_600,Intel(R) Core(TM) i7-2670QM CPU @ 2.20GHz,orientation_search,GRVLAPTOP3,Intel(R) HD Graphics Family,2018_jul_30_1325,testMonitor,
200.7,195.5,207.4,207.3,36,60,208.7,202.6,194.4,187.3,7.589,7.76,7.988,7.944,7.915,7.926,7.692,5.049,-4.369,-8.065,1.104,-1.481,7.866,4.838,-5.108,-7.857,177.5,198.0,-8.15,175.7,191.7,189.2,203.7,198.4,36,202.0,1,5,prime,10,0,114,norm,36,-4.96,down,norm,195.704509027,211.6,208.8,2.028,191.7,2,195.2,192.3,205.4,10,6,7.874,4.622,1.19,-1.473,-4.903,-8.314,196.6,6,309.7,-8.487,-7.535,60,-7.868,-8.107,-4.307,-4.664,-5.237,-4.912,4.702,7.53,8,-1.85,1.206,4.98,8.09,-8.103,-8.499,-1.44,1.853,193.3,,215.7,186.6,190.6,186.9,184.5,200.1,196.5,208.0,2,norm,1.796,1.592,-2.023,-1.36,-4.592,-4.555,-1.708,-1.886,-1.133,-2.031,1.669,-1.198,185.8,209.9,-4.723,-7.996,194.9,-1.427,7.989,4.302,-4.838,-8.43,2,5.24,4.362,4.861,5.244,2.046,1.471,1.698,1.373,2,4.895,4.517,-20,56.2261834881,norm,0,9,9,9,228.372,228.379,228.381073544,228.381,228.385,228.39,down,1,1.12657141443,8.87342858557,001,020,800_600,Intel(R) Core(TM) i7-2670QM CPU @ 2.20GHz,orientation_search,GRVLAPTOP3,Intel(R) HD Graphics Family,2018_jul_30_1325,testMonitor,
192.8,181.7,200.1,196.7,36,60,193.1,205.8,177.8,190.8,8.413,7.954,8.352,7.981,8.241,7.539,8.088,5.271,-4.803,-8.239,2.007,-1.293,7.862,5.056,-4.568,-8.397,,204.0,-7.534,211.2,199.3,194.7,198.1,213.1,36,204.3,5,5,prime,10,0,94,norm,36,-5.001,up,norm,195.704509027,200.6,179.0,1.48,189.5,5,187.7,215.7,184.4,10,6,8.135,4.994,1.342,-1.947,-4.354,-8.408,188.5,6,289.7,-8.304,-7.641,60,-8.246,-8.07,-4.832,-5.042,-4.935,-5.246,5.181,7.8,35,-1.223,1.396,4.825,7.786,-7.569,-7.607,-1.735,2.046,201.7,202.6,185.0,195.6,204.9,185.1,193.8,192.2,206.1,212.1,3,norm,1.852,1.243,-1.773,-1.147,-4.368,-5.012,-1.361,-2.049,-1.658,-1.186,1.331,-2.082,189.4,175.7,-4.462,-7.577,194.4,-1.368,7.844,4.588,-4.501,-7.565,2,4.642,4.487,4.322,4.995,2.087,1.871,1.902,1.897,2,4.723,4.446,-20,56.2261834881,norm,0,10,10,10,229.526,229.533,229.535492183,229.536,229.54,229.546,up,1,0.772123077671,9.22787692233,001,020,800_600,Intel(R) Core(TM) i7-2670QM CPU @ 2.20GHz,orientation_search,GRVLAPTOP3,Intel(R) HD Graphics Family,2018_jul_30_1325,testMonitor,
201.4,198.0,206.6,204.9,36,60,177.1,192.2,195.8,177.3,7.721,8.041,7.777,8.056,8.448,7.945,8.293,5.247,-4.691,-7.954,1.405,-1.15,7.71,4.587,-5.109,-7.858,196.2,192.9,-7.903,202.4,198.4,211.7,213.9,204.2,36,183.1,3,5,prime,10,0,71,norm,36,-5.176,down,norm,195.704509027,175.7,194.4,1.589,187.1,0,187.8,192.4,186.1,10,6,8.102,4.671,1.259,-1.472,-4.384,-8.466,194.6,6,266.7,-7.726,-8.135,60,-7.567,-7.855,-5.206,-5.053,-4.794,-4.569,4.488,7.685,18,-1.87,1.2,5.103,7.915,-7.783,-7.812,-1.382,1.775,205.1,215.7,178.3,187.7,205.3,199.2,181.3,189.4,190.4,193.0,4,norm,1.395,1.36,-1.261,-2.007,-4.925,-4.681,-1.775,-1.272,-1.619,-1.725,1.899,-1.313,195.6,,-4.501,-7.605,205.4,-1.191,7.654,5.29,-4.805,-7.955,2,4.587,4.593,4.498,4.376,1.871,1.146,1.737,2.063,2,4.526,4.931,-20,56.2261834881,norm,0,11,11,11,230.328,230.335,230.337640354,230.338,230.342,230.346,down,1,1.77776527381,8.22223472619,001,020,800_600,Intel(R) Core(TM) i7-2670QM CPU @ 2.20GHz,orientation_search,GRVLAPTOP3,Intel(R) HD Graphics Family,2018_jul_30_1325,testMonitor,
192.6,190.8,184.2,,36,60,198.7,177.4,197.0,196.6,7.587,7.999,7.773,7.902,8.394,7.946,7.616,4.349,-4.473,-8.356,1.338,-1.633,7.666,4.588,-4.975,-7.611,185.2,190.3,-7.542,202.9,181.8,198.2,195.8,209.6,36,206.6,3,5,prime,10,0,67,norm,36,-4.487,up,norm,195.704509027,178.5,188.2,1.449,185.9,3,189.2,208.7,206.6,10,6,8.243,4.477,1.408,-1.53,-4.983,-7.673,200.8,6,262.7,-7.746,-7.637,60,-8.254,-7.661,-5.169,-5.203,-4.329,-4.464,4.918,8.38,21,-1.494,1.376,4.701,8.425,-7.51,-7.698,-1.899,1.344,189.7,194.9,204.5,198.1,198.4,202.8,198.8,200.7,215.7,190.3,5,norm,1.951,1.111,-2.013,-2.089,-4.971,-4.448,-1.801,-1.797,-1.561,-1.521,1.209,-2.016,196.2,208.3,-4.334,-8.222,175.7,-1.851,8.262,4.738,-4.567,-7.885,2,5.248,5.295,4.321,4.32,1.621,1.432,1.643,1.748,2,4.608,5.19,-20,56.2261834881,norm,0,12,12,12,232.134,232.14,232.142728931,232.143,232.147,232.151,up,1,0.797371239976,9.20262876002,001,020,800_600,Intel(R) Core(TM) i7-2670QM CPU @ 2.20GHz,orientation_search,GRVLAPTOP3,Intel(R) HD Graphics Family,2018_jul_30_1325,testMonitor,
354.6,346.0,349.5,357.5,36,-30,346.5,351.0,354.1,344.1,7.774,8.409,7.7,7.579,8.207,8.131,8.43,5.222,-5.047,-7.895,1.617,-1.357,7.616,4.825,-5.158,-7.571,347.2,,-8.014,339.7,342.9,349.6,343.8,337.5,36,355.1,5,5,probe,5,0,87,norm,36,-4.447,up,norm,347.510687515,350.9,345.7,1.433,354.9,4,354.4,349.2,356.1,10,6,8.057,5.237,1.125,-1.821,-5.212,-8.448,341.1,2,260.5,-8.432,-7.865,60,-8.055,-8.244,-5.168,-5.26,-4.367,-4.67,5.071,7.597,34,-1.441,1.867,4.343,8.401,-7.746,-7.815,-2.012,1.583,341.4,354.6,346.9,338.8,356.2,348.7,347.0,345.5,346.1,352.3,0,norm,1.667,1.627,-1.477,-1.161,-4.939,-4.765,-1.85,-2.077,-1.204,-1.458,1.405,-1.81,343.3,349.9,-5.147,-7.593,344.9,-1.182,7.901,5.005,-5.185,-7.536,3,4.62,4.955,4.881,5.107,1.438,1.882,1.894,1.788,3,5.074,4.876,60,195.704509027,norm,0,13,13,13,232.959,232.966,232.968164995,232.969,232.972,232.977,up,1,1.94245968559,8.05754031441,001,020,800_600,Intel(R) Core(TM) i7-2670QM CPU @ 2.20GHz,orientation_search,GRVLAPTOP3,Intel(R) HD Graphics Family,2018_jul_30_1325,testMonitor,
338.9,353.7,353.8,339.4,36,-30,345.5,355.4,346.2,346.6,8.389,7.8,7.827,7.847,8.137,7.745,8.039,4.899,-4.983,-8.1,1.951,-1.359,7.82,4.374,-5.243,-8.193,344.7,343.5,-8.153,352.6,343.8,347.2,352.6,347.8,36,341.5,1,5,probe,5,0,86,norm,36,-4.366,down,norm,346.510687515,344.7,349.1,1.272,342.4,2,352.5,350.9,342.4,10,6,8.025,4.353,2.084,-1.179,-5.0,-7.968,340.5,2,260.5,-7.584,-7.806,60,-8.28,-8.467,-5.171,-5.237,-4.621,-5.086,4.676,7.771,8,-1.362,1.259,4.846,8.181,-8.316,-8.434,-1.199,1.88,350.2,,351.2,346.4,349.3,347.2,356.5,346.2,350.9,349.2,1,norm,1.59,1.904,-1.845,-1.395,-4.548,-4.561,-1.706,-1.464,-1.699,-1.638,1.922,-1.496,339.0,343.7,-5.294,-7.505,336.5,-1.218,7.518,4.821,-4.943,-8.436,3,4.784,5.172,4.754,4.463,1.588,1.395,1.911,1.453,3,5.073,4.813,60,195.704509027,norm,0,14,14,14,234.929,234.936,234.938502724,234.939,234.942,234.947,down,1,1.01959289148,8.98040710852,001,020,800_600,Intel(R) Core(TM) i7-2670QM CPU @ 2.20GHz,orientation_search,GRVLAPTOP3,Intel(R) HD Graphics Family,2018_jul_30_1325,testMonitor,
265.0,262.2,269.5,282.5,36,-10,274.0,276.4,265.3,263.7,8.1,8.209,8.012,7.974,8.444,7.761,7.793,4.984,-5.292,-8.072,1.626,-1.251,7.621,4.459,-4.602,-7.505,273.6,286.9,-7.6,,277.0,276.7,278.5,260.6,36,267.8,5,5,prime,10,0,105,norm,36,-4.57,down,norm,266.860579789,269.2,268.1,1.493,259.8,1,261.9,273.3,252.7,10,6,8.193,4.321,1.826,-1.192,-4.736,-7.555,268.0,6,371.9,-8.161,-8.36,-10,-8.454,-7.579,-5.162,-4.719,-4.941,-4.431,4.376,7.814,31,-1.73,1.92,4.372,8.083,-7.827,-8.029,-1.509,1.51,259.2,246.9,261.0,256.2,282.7,253.2,251.2,270.6,263.6,270.3,0,norm,1.371,1.316,-1.977,-1.634,-4.553,-4.442,-1.57,-1.919,-1.401,-1.233,1.75,-1.675,262.1,269.2,-4.594,-8.345,255.0,-1.139,8.428,5.049,-4.814,-7.641,4,4.63,4.747,5.067,4.551,2.082,1.512,1.445,1.895,4,4.623,5.074,-30,195.704509027,norm,0,15,15,15,235.976,235.983,235.985624844,235.986,235.99,235.994,down,1,3.87880368445,6.12119631555,001,020,800_600,Intel(R) Core(TM) i7-2670QM CPU @ 2.20GHz,orientation_search,GRVLAPTOP3,Intel(R) HD Graphics Family,2018_jul_30_1325,testMonitor,
278.8,262.0,278.8,272.1,36,-10,252.4,267.7,273.3,272.0,8.126,7.906,7.965,8.243,8.098,8.098,7.955,4.916,-4.994,-7.978,1.497,-1.45,8.483,4.353,-4.575,-7.666,267.3,246.9,-7.543,279.5,282.1,266.4,272.8,270.2,36,270.4,0,5,prime,10,0,63,norm,36,-4.576,down,norm,266.860579789,267.1,264.9,2.093,262.1,2,286.9,275.4,262.0,10,6,7.972,4.903,2.081,-1.265,-4.529,-7.926,250.1,6,329.9,-8.484,-8.236,-10,-7.783,-7.574,-4.765,-4.893,-5.272,-4.355,4.425,8.164,2,-1.498,1.632,5.071,7.661,-8.355,-8.204,-1.392,1.945,268.6,260.7,260.0,,279.7,261.5,277.3,263.6,260.5,262.2,1,norm,1.572,1.235,-1.233,-1.509,-5.284,-5.252,-2.093,-1.235,-1.582,-1.366,1.507,-2.011,247.2,252.2,-4.861,-7.515,273.9,-1.587,7.967,4.641,-4.616,-8.196,4,4.487,4.857,4.839,4.458,1.122,1.143,1.103,1.146,4,4.839,4.882,-30,195.704509027,norm,0,16,16,16,239.883,239.89,239.892616629,239.893,239.897,239.901,down,1,1.37218835773,8.62781164227,001,020,800_600,Intel(R) Core(TM) i7-2670QM CPU @ 2.20GHz,orientation_search,GRVLAPTOP3,Intel(R) HD Graphics Family,2018_jul_30_1325,testMonitor,
279.3,279.6,273.6,271.0,36,-10,271.2,265.0,277.4,275.7,7.848,8.053,7.522,7.713,8.142,7.758,7.739,4.524,-5.064,-7.928,1.4,-1.317,8.371,4.998,-4.467,-8.38,282.5,256.0,-8.279,273.1,,283.0,271.3,268.8,36,264.7,5,5,prime,10,0,110,norm,36,-5.068,down,norm,266.860579789,264.5,270.1,2.024,281.3,0,257.1,279.3,275.7,10,6,8.148,4.639,1.725,-1.251,-5.022,-8.241,257.8,6,376.9,-7.805,-7.993,-10,-8.425,-8.296,-5.023,-4.802,-4.895,-4.531,4.578,7.572,30,-1.985,1.4,5.044,8.084,-8.241,-8.038,-1.295,1.721,259.1,269.9,274.8,267.8,246.9,272.1,264.7,269.7,268.9,269.6,2,norm,1.815,2.016,-1.104,-1.122,-4.361,-5.212,-1.1,-1.204,-1.302,-1.111,1.495,-1.803,286.9,266.2,-4.319,-7.569,248.7,-1.502,7.555,4.969,-4.537,-7.931,4,4.982,4.723,4.714,5.007,2.046,1.181,1.32,1.158,4,4.633,4.971,-30,195.704509027,norm,0,17,17,17,241.284,241.291,241.29304305,241.293,241.297,241.301,up,0,1.01844652125,-10,001,020,800_600,Intel(R) Core(TM) i7-2670QM CPU @ 2.20GHz,orientation_search,GRVLAPTOP3,Intel(R) HD Graphics Family,2018_jul_30_1325,testMonitor,
266.0,254.0,265.4,261.2,36,-10,254.4,286.2,246.9,258.9,7.539,8.091,7.971,8.44,7.663,7.729,7.707,4.978,-5.0,-7.848,1.611,-1.303,8.07,5.296,-4.349,-7.83,264.9,,-8.308,271.8,261.7,271.1,269.4,273.7,36,286.9,5,5,prime,10,0,113,norm,36,-4.355,up,norm,266.860579789,253.9,274.4,1.7,273.9,4,273.7,279.8,272.8,10,6,8.393,4.781,1.72,-1.196,-5.182,-7.735,254.5,6,379.9,-8.096,-7.862,-10,-7.791,-8.102,-5.115,-4.615,-4.757,-4.82,5.094,8.179,34,-1.66,1.372,4.635,7.776,-8.357,-7.945,-1.428,1.145,275.1,272.3,254.0,260.6,269.2,272.5,258.2,274.8,281.8,283.2,3,norm,2.018,1.385,-1.827,-1.8,-4.667,-4.585,-1.631,-1.432,-1.567,-1.554,2.084,-1.677,270.4,276.9,-4.432,-8.148,270.9,-1.866,8.466,4.645,-4.803,-7.891,4,5.169,4.954,4.67,5.088,1.537,2.022,1.732,1.507,4,4.86,4.902,-30,195.704509027,norm,0,18,18,18,243.339,243.346,243.348171084,243.349,243.352,243.357,down,0,1.28169468542,-10,001,020,800_600,Intel(R) Core(TM) i7-2670QM CPU @ 2.20GHz,orientation_search,GRVLAPTOP3,Intel(R) HD Graphics Family,2018_jul_30_1325,testMonitor,
274.1,267.6,267.6,259.4,36,-10,273.3,284.9,261.4,258.4,8.4,8.125,8.021,8.341,7.523,8.273,8.101,4.698,-4.903,-7.807,1.767,-1.326,8.46,4.456,-5.095,-8.498,252.9,260.6,-8.475,253.2,276.9,252.9,259.6,286.9,36,275.9,2,5,prime,10,0,115,norm,36,-4.969,down,norm,266.860579789,276.5,265.6,1.618,,2,258.2,267.2,246.9,10,6,8.268,4.713,1.144,-2.054,-4.705,-8.182,256.0,6,381.9,-8.263,-8.079,-10,-7.836,-8.07,-4.351,-4.852,-4.824,-4.45,4.582,7.912,14,-1.646,1.995,5.209,8.446,-7.921,-8.305,-1.907,1.259,285.6,260.1,285.4,274.3,271.2,275.1,268.7,264.2,263.8,278.4,4,norm,1.761,1.936,-2.007,-1.216,-5.146,-4.673,-1.471,-1.302,-1.594,-1.727,1.7,-1.786,282.7,262.0,-4.39,-7.849,258.1,-1.507,7.685,4.616,-4.329,-7.799,4,4.851,4.424,4.412,4.519,1.47,1.232,2.003,1.554,4,4.396,4.795,-30,195.704509027,norm,0,19,19,19,245.647,245.653,245.654786131,245.655,245.658,245.662,down,1,2.64454537898,7.35545462102,001,020,800_600,Intel(R) Core(TM) i7-2670QM CPU @ 2.20GHz,orientation_search,GRVLAPTOP3,Intel(R) HD Graphics Family,2018_jul_30_1325,testMonitor,
276.8,269.3,274.0,271.9,36,-10,254.8,262.5,250.4,246.9,7.942,7.864,7.706,7.677,8.356,8.075,7.836,4.604,-4.754,-7.596,1.652,-1.788,8.354,4.576,-5.207,-7.611,266.2,286.9,-8.063,274.0,278.7,261.0,250.9,269.8,36,,4,5,prime,10,0,60,norm,36,-4.77,up,norm,266.860579789,257.0,263.1,1.664,277.6,3,282.0,286.5,260.6,10,6,7.888,4.498,1.907,-1.295,-4.499,-7.598,263.4,6,326.9,-8.338,-8.245,-10,-7.757,-7.902,-4.598,-5.129,-4.532,-4.321,4.96,8.376,27,-1.895,1.833,4.954,8.472,-8.006,-7.934,-1.961,1.905,261.3,273.5,252.5,273.1,266.6,279.5,270.0,264.0,248.6,261.4,5,norm,2.018,1.363,-1.957,-1.677,-4.341,-5.009,-1.515,-1.327,-1.315,-1.214,1.944,-2.021,270.7,280.4,-5.03,-8.146,275.5,-1.253,7.838,4.744,-4.759,-8.09,4,4.529,4.778,4.868,5.229,1.946,1.906,1.367,1.374,4,4.776,5.113,-30,195.704509027,norm,0,20,20,20,248.314,248.32,248.322422815,248.323,248.326,248.329,up,1,1.68486866006,8.31513133994,001,020,800_600,Intel(R) Core(TM) i7-2670QM CPU @ 2.20GHz,orientation_search,GRVLAPTOP3,Intel(R) HD Graphics Family,2018_jul_30_1325,testMonitor,
368.2,356.3,354.3,367.1,36,30,364.4,363.7,367.9,354.8,7.593,8.441,8.448,7.659,7.502,7.72,7.974,4.745,-4.844,-8.378,1.696,-1.76,8.036,5.2,-5.208,-7.858,356.0,363.6,-7.673,369.8,364.0,370.3,359.3,359.8,36,363.9,2,5,probe,5,0,106,norm,36,-4.697,down,norm,364.319662658,365.2,366.9,1.111,370.3,1,374.3,,360.0,10,6,7.87,4.354,1.38,-1.119,-4.632,-7.842,366.6,1,258.3,-7.808,-7.656,-10,-7.835,-7.89,-4.452,-4.627,-4.62,-4.478,4.39,7.911,13,-1.539,1.692,4.794,7.98,-8.22,-7.571,-1.115,1.426,370.7,365.5,370.9,365.2,361.0,359.2,367.5,364.8,363.9,358.1,0,norm,1.893,1.198,-1.286,-1.535,-4.918,-4.961,-1.648,-1.755,-1.93,-1.43,1.843,-1.375,370.3,365.1,-5.286,-7.517,354.9,-1.402,8.28,4.508,-4.421,-8.48,5,4.656,4.902,4.995,5.044,1.223,1.779,1.621,1.482,5,4.745,4.544,-10,266.860579789,norm,0,21,21,21,250.022,250.027,250.029281704,250.03,250.032,250.036,down,1,2.60794931876,7.39205068124,001,020,800_600,Intel(R) Core(TM) i7-2670QM CPU @ 2.20GHz,orientation_search,GRVLAPTOP3,Intel(R) HD Graphics Family,2018_jul_30_1325,testMonitor,
318.7,317.6,310.6,323.3,36,-60,312.9,307.5,303.2,305.4,7.975,8.003,8.108,7.656,8.086,7.831,7.81,4.618,-5.102,-7.638,1.511,-1.272,8.425,5.191,-5.231,-7.612,315.1,320.3,-7.926,315.1,294.4,318.8,298.6,323.2,36,315.8,1,5,prime,10,0,116,norm,36,-4.968,up,norm,314.449307829,305.7,300.9,1.231,301.8,4,323.9,313.0,305.6,10,6,7.714,4.859,1.309,-1.625,-4.601,-8.284,,6,430.4,-8.368,-7.636,-60,-7.977,-7.852,-4.684,-4.628,-4.692,-4.305,4.652,7.891,10,-1.856,1.693,5.067,7.704,-8.212,-7.809,-1.632,1.669,304.0,334.4,324.5,316.2,306.0,316.6,321.0,313.3,324.0,314.0,0,norm,1.555,1.255,-1.487,-1.628,-5.064,-4.506,-1.902,-1.238,-1.731,-1.649,2.067,-1.712,302.9,332.9,-5.295,-7.819,309.9,-1.288,8.051,4.914,-4.447,-8.405,6,4.561,5.031,4.558,4.733,1.403,1.852,1.645,2.088,6,4.584,5.263,30,266.860579789,norm,0,22,22,22,252.652,252.658,252.660426926,252.661,252.663,252.667,up,1,1.46801323532,8.53198676468,001,020,800_600,Intel(R) Core(TM) i7-2670QM CPU @ 2.20GHz,orientation_search,GRVLAPTOP3,Intel(R) HD Graphics Family,2018_jul_30_1325,testMonitor,
303.2,334.4,312.5,328.5,36,-60,323.8,308.9,294.4,321.9,7.502,8.112,7.58,8.196,8.407,8.123,8.372,4.746,-4.949,-7.731,1.454,-1.29,7.591,4.498,-5.047,-7.63,322.9,315.8,-7.889,323.5,305.4,301.8,318.1,323.8,36,315.5,0,5,prime,10,0,108,norm,36,-4.888,up,norm,314.449307829,310.0,311.0,2.045,316.4,4,318.0,306.4,309.5,10,6,8.069,4.444,1.34,-1.823,-4.922,-7.787,323.0,6,422.4,-7.68,-7.642,-60,-8.293,-7.524,-4.824,-4.604,-5.099,-5.064,5.148,7.748,4,-1.281,1.333,5.081,7.673,-8.155,-8.187,-1.315,2.043,327.1,315.3,317.9,322.2,312.2,306.2,303.7,307.5,318.4,,1,norm,1.322,1.555,-1.55,-1.736,-4.631,-4.626,-1.821,-1.976,-1.664,-1.959,1.984,-1.251,301.5,309.5,-4.792,-7.901,319.9,-1.723,7.884,4.866,-4.486,-7.855,6,4.346,4.379,4.713,4.578,1.939,1.373,1.627,1.615,6,5.219,4.672,30,266.860579789,norm,0,23,23,23,254.143,254.149,254.150536856,254.151,254.154,254.159,up,1,1.37934861889,8.62065138111,001,020,800_600,Intel(R) Core(TM) i7-2670QM CPU @ 2.20GHz,orientation_search,GRVLAPTOP3,Intel(R) HD Graphics Family,2018_jul_30_1325,testMonitor,
319.9,326.4,320.7,298.0,36,-60,302.2,334.4,312.6,311.7,8.045,8.377,8.368,8.274,7.706,8.169,8.368,5.254,-4.532,-8.292,1.417,-1.682,8.175,4.893,-4.598,-7.664,323.6,315.5,-8.182,321.5,316.1,309.7,310.3,310.6,36,325.1,2,5,prime,10,0,99,norm,36,-5.25,up,norm,314.449307829,311.2,331.7,1.392,325.6,3,296.5,313.9,326.0,10,6,8.305,4.646,1.645,-2.056,-4.461,-7.526,322.8,6,413.4,-7.985,-8.401,-60,-8.247,-8.319,-4.927,-5.268,-4.976,-4.924,4.352,7.976,15,-1.574,1.502,5.033,8.029,-8.364,-8.289,-1.405,1.832,305.0,302.9,308.8,300.3,294.4,308.3,328.9,325.5,309.3,312.5,2,norm,1.273,1.287,-1.548,-2.091,-4.541,-4.88,-1.701,-1.71,-1.282,-1.453,1.314,-1.843,307.5,308.6,-5.029,-7.917,,-1.844,8.097,4.304,-5.204,-8.11,6,4.367,4.567,4.942,5.024,1.207,1.379,1.979,1.487,6,5.105,5.063,30,266.860579789,norm,0,24,24,24,255.546,255.552,255.553882203,255.554,255.557,255.561,up,1,1.60505047298,8.39494952702,001,020,800_600,Intel(R) Core(TM) i7-2670QM CPU @ 2.20GHz,orientation_search,GRVLAPTOP3,Intel(R) HD Graphics Family,2018_jul_30_1325,testMonitor,
306.1,308.4,304.1,297.2,36,-60,314.1,332.1,315.3,305.9,8.438,8.313,8.061,8.365,8.142,7.898,7.806,4.885,-4.435,-8.054,1.465,-1.207,7.977,4.636,-4.572,-7.986,309.3,294.4,-8.483,315.8,,305.9,318.0,317.3,36,307.1,5,5,prime,10,0,104,norm,36,-4.997,down,norm,314.449307829,306.6,307.5,1.248,318.9,0,307.9,298.1,321.0,10,6,8.064,5.129,1.26,-1.615,-5.179,-8.425,324.9,6,418.4,-8.156,-7.923,-60,-8.365,-8.395,-4.436,-4.822,-5.178,-5.217,4.766,7.61,30,-1.946,1.332,4.92,7.886,-7.825,-7.596,-1.876,1.941,334.4,315.6,306.6,328.3,331.0,316.2,310.3,302.0,330.1,326.4,3,norm,1.333,1.289,-1.23,-1.952,-4.324,-4.725,-1.993,-1.272,-1.384,-1.547,1.834,-1.973,312.0,302.2,-4.642,-7.81,320.9,-1.275,8.293,4.979,-4.81,-8.084,6,4.747,5.277,4.799,4.718,2.031,1.901,1.884,1.387,6,4.603,4.52,30,266.860579789,norm,0,25,25,25,257.175,257.181,257.182824806,257.183,257.186,257.189,down,1,0.819144336184,9.18085566382,001,020,800_600,Intel(R) Core(TM) i7-2670QM CPU @ 2.20GHz,orientation_search,GRVLAPTOP3,Intel(R) HD Graphics Family,2018_jul_30_1325,testMonitor,
323.5,297.6,306.3,296.4,36,-60,312.8,311.1,309.9,294.4,8.289,8.385,7.563,7.831,7.705,7.741,8.242,4.399,-5.04,-8.422,1.183,-1.353,8.071,4.925,-5.242,-8.052,316.1,314.9,-8.49,311.4,312.7,334.4,309.2,,36,330.6,4,5,prime,10,0,100,norm,36,-4.832,down,norm,314.449307829,296.8,323.8,1.424,321.2,2,310.3,332.9,321.3,10,6,8.333,4.95,1.795,-1.294,-4.879,-7.881,297.1,6,414.4,-7.806,-7.91,-60,-7.932,-7.775,-5.249,-4.796,-5.266,-4.891,4.917,8.244,26,-2.007,1.298,4.829,8.364,-8.321,-7.971,-1.113,1.711,317.0,310.8,308.0,313.2,314.0,315.2,315.0,310.9,330.1,313.6,4,norm,1.221,2.079,-1.728,-1.284,-4.479,-4.778,-1.341,-1.928,-1.96,-1.11,1.248,-1.321,312.8,316.6,-4.886,-7.524,327.8,-1.715,7.878,4.698,-4.953,-8.09,6,4.983,5.27,5.288,5.141,1.63,1.854,1.395,1.833,6,4.602,4.352,30,266.860579789,norm,0,26,26,26,258.016,258.022,258.023942561,258.024,258.027,258.031,down,1,1.66780712216,8.33219287784,001,020,800_600,Intel(R) Core(TM) i7-2670QM CPU @ 2.20GHz,orientation_search,GRVLAPTOP3,Intel(R) HD Graphics Family,2018_jul_30_1325,testMonitor,
314.6,330.6,312.7,334.4,36,-60,317.3,318.6,319.6,317.0,8.195,8.24,7.545,8.182,8.447,7.793,7.547,5.202,-4.473,-7.572,1.275,-1.976,8.409,4.926,-5.154,-8.284,305.9,305.9,-8.037,312.6,309.7,309.0,313.1,321.5,36,311.4,1,5,prime,10,0,61,norm,36,-4.538,down,norm,314.449307829,322.0,323.7,1.15,294.4,0,318.0,303.9,312.8,10,6,7.869,4.355,1.186,-1.818,-4.356,-8.376,331.9,6,375.4,-8.114,-8.327,-60,-8.008,-7.721,-4.57,-5.283,-4.45,-4.892,4.666,7.828,6,-1.839,1.406,4.534,7.764,-8.403,-8.311,-1.479,1.311,311.7,311.8,303.6,318.5,309.6,329.1,327.8,,304.6,304.6,5,norm,1.495,1.321,-2.087,-1.77,-5.11,-4.605,-1.935,-1.129,-1.332,-1.856,1.165,-1.992,298.5,329.9,-4.906,-8.078,307.9,-1.843,8.473,4.749,-4.484,-7.655,6,5.113,4.658,5.003,5.274,1.859,1.199,1.707,1.913,6,4.459,4.839,30,266.860579789,norm,0,27,27,27,259.707,259.713,259.71531588,259.716,259.718,259.722,down,1,1.5899604117,8.4100395883,001,020,800_600,Intel(R) Core(TM) i7-2670QM CPU @ 2.20GHz,orientation_search,GRVLAPTOP3,Intel(R) HD Graphics Family,2018_jul_30_1325,testMonitor,
326.8,336.0,326.3,327.7,36,10,325.1,,333.5,334.9,8.118,8.029,7.769,7.875,8.159,8.002,7.848,5.236,-5.138,-7.982,1.274,-1.477,7.931,4.856,-4.497,-7.684,333.7,329.6,-8.372,338.3,330.3,327.6,318.4,335.3,36,318.3,4,5,probe,5,0,75,norm,36,-4.755,down,norm,328.328320741,325.9,328.8,1.209,327.5,1,328.9,330.1,324.4,10,6,7.794,4.704,1.827,-1.938,-5.218,-7.957,326.3,2,253.3,-8.241,-7.515,-60,-7.871,-8.076,-4.431,-4.881,-5.258,-4.626,4.731,8.242,25,-1.128,1.697,4.47,8.3,-8.061,-8.164,-1.313,1.414,334.8,329.8,334.5,329.7,329.4,328.3,327.8,324.1,321.2,330.3,0,norm,1.125,1.867,-1.616,-2.022,-4.346,-4.937,-1.605,-1.844,-1.989,-2.072,1.111,-1.958,325.3,321.3,-5.066,-7.665,327.4,-1.511,7.903,5.023,-4.979,-7.513,7,5.148,4.564,5.236,4.692,1.344,1.45,1.321,1.835,7,4.543,4.856,-60,314.449307829,norm,0,28,28,28,261.32,261.326,261.328139724,261.328,261.331,261.335,down,1,0.977836997827,9.02216300217,001,020,800_600,Intel(R) Core(TM) i7-2670QM CPU @ 2.20GHz,orientation_search,GRVLAPTOP3,Intel(R) HD Graphics Family,2018_jul_30_1325,testMonitor,
365.2,359.3,379.3,369.8,36,10,369.3,372.6,368.8,364.4,8.016,7.965,7.542,8.24,8.172,7.851,8.208,5.001,-4.825,-7.671,1.369,-1.109,7.845,5.014,-5.295,-7.554,373.3,369.3,-8.257,367.1,372.6,376.6,,365.2,36,377.7,5,5,probe,5,0,116,norm,36,-4.484,down,norm,369.328320741,370.5,371.2,2.03,369.5,2,369.9,377.8,374.0,10,6,7.788,5.118,1.81,-1.763,-4.619,-7.555,363.9,2,253.3,-8.387,-7.747,-60,-8.197,-8.167,-5.205,-4.364,-4.677,-4.871,5.058,7.651,32,-1.913,1.207,4.485,7.946,-7.688,-7.535,-1.291,1.987,366.4,365.7,368.0,368.2,372.1,366.8,363.0,374.7,370.4,366.6,1,norm,1.709,1.66,-2.015,-1.407,-5.203,-4.837,-1.649,-1.959,-1.727,-1.142,1.266,-1.803,369.8,366.3,-5.283,-7.861,365.6,-1.627,7.776,4.895,-4.436,-7.872,7,4.502,4.755,4.369,4.542,1.78,1.823,1.382,1.945,7,4.711,4.781,-60,314.449307829,norm,0,29,29,29,262.321,262.326,262.328472194,262.329,262.332,262.335,down,1,1.07382157343,8.92617842657,001,020,800_600,Intel(R) Core(TM) i7-2670QM CPU @ 2.20GHz,orientation_search,GRVLAPTOP3,Intel(R) HD Graphics Family,2018_jul_30_1325,testMonitor,
288.8,271.9,254.7,259.8,36,80,277.3,268.7,263.3,278.4,7.932,8.244,8.05,8.467,8.389,7.739,7.641,4.903,-5.231,-8.23,1.154,-1.984,7.572,4.977,-4.848,-8.489,271.9,,-7.807,281.4,276.5,273.6,267.1,287.8,36,266.5,5,5,prime,10,0,111,norm,36,-5.133,up,norm,274.676071361,282.7,269.4,1.955,264.8,4,288.4,272.9,267.4,10,6,7.528,4.694,1.651,-1.973,-4.482,-7.871,270.6,6,385.7,-8.155,-7.879,80,-8.279,-8.307,-5.117,-4.355,-4.606,-5.232,4.508,8.004,34,-1.83,1.73,5.142,8.116,-7.64,-8.145,-2.023,1.628,278.7,294.7,275.2,276.9,268.5,266.2,283.1,286.4,286.7,266.4,0,norm,1.414,1.606,-1.41,-1.24,-4.516,-4.36,-1.702,-1.542,-1.245,-1.967,1.358,-1.968,279.8,272.5,-5.196,-8.387,278.0,-1.744,8.184,4.428,-4.757,-7.731,8,5.179,5.151,5.197,4.815,1.242,2.098,1.868,1.704,8,5.245,5.103,10,314.449307829,norm,0,30,30,30,263.417,263.424,263.425896387,263.426,263.43,263.433,up,1,1.45354468883,8.54645531117,001,020,800_600,Intel(R) Core(TM) i7-2670QM CPU @ 2.20GHz,orientation_search,GRVLAPTOP3,Intel(R) HD Graphics Family,2018_jul_30_1325,testMonitor,
260.3,270.0,291.7,,36,80,294.7,279.8,271.6,281.3,8.217,7.962,7.983,7.904,8.496,8.173,7.559,4.352,-4.588,-7.971,1.568,-1.687,8.331,4.994,-4.357,-8.208,285.2,277.5,-8.045,282.4,287.7,258.5,274.0,259.0,36,283.7,3,5,prime,10,0,114,norm,36,-4.618,up,norm,274.676071361,271.8,272.5,1.989,285.9,3,275.8,268.8,276.0,10,6,7.971,5.009,1.194,-1.295,-4.333,-8.229,274.3,6,388.7,-7.924,-8.406,80,-7.855,-8.452,-4.999,-4.809,-5.071,-4.876,4.456,8.053,21,-1.112,1.647,5.006,8.064,-7.692,-8.37,-1.824,1.469,272.7,268.4,270.7,283.3,275.4,291.9,272.1,281.5,263.8,272.4,1,norm,1.427,1.824,-1.77,-1.454,-4.317,-4.451,-1.136,-1.198,-1.81,-1.965,1.72,-1.866,284.8,254.7,-4.578,-7.737,262.5,-1.269,7.511,4.504,-4.869,-8.337,8,4.767,4.875,5.255,4.702,1.376,1.652,1.481,1.529,8,4.391,4.876,10,314.449307829,norm,0,31,31,31,264.896,264.903,264.905391536,264.906,264.909,264.912,down,0,1.95689227669,-10,001,020,800_600,Intel(R) Core(TM) i7-2670QM CPU @ 2.20GHz,orientation_search,GRVLAPTOP3,Intel(R) HD Graphics Family,2018_jul_30_1325,testMonitor,
265.6,294.7,,267.7,36,80,256.5,276.2,267.4,266.2,8.475,7.802,8.452,8.444,8.331,7.798,7.736,5.293,-4.793,-8.171,1.509,-1.981,8.124,4.423,-4.519,-7.824,279.7,280.0,-7.814,279.1,284.4,266.7,287.9,266.0,36,262.7,3,5,prime,10,0,62,norm,36,-4.87,down,norm,274.676071361,265.3,284.7,1.343,282.6,2,254.7,269.9,277.3,10,6,7.856,4.423,1.192,-1.323,-4.499,-7.625,263.6,6,336.7,-8.038,-8.12,80,-8.224,-8.031,-4.602,-5.233,-4.667,-5.11,4.528,7.639,20,-2.041,1.221,5.218,7.915,-8.141,-8.37,-1.493,1.684,274.3,282.6,276.5,275.0,283.7,265.5,291.3,266.0,257.2,276.4,2,norm,1.846,1.772,-1.94,-1.839,-4.824,-4.805,-1.539,-1.719,-1.68,-1.778,1.159,-1.684,270.9,267.1,-4.917,-8.102,272.0,-1.814,8.368,4.997,-5.038,-8.211,8,4.611,4.355,5.225,5.265,1.691,1.125,1.204,1.471,8,5.07,4.918,10,314.449307829,norm,0,32,32,32,267.877,267.882,267.883849114,267.884,267.887,267.891,up,0,1.28374787887,-10,001,020,800_600,Intel(R) Core(TM) i7-2670QM CPU @ 2.20GHz,orientation_search,GRVLAPTOP3,Intel(R) HD Graphics Family,2018_jul_30_1325,testMonitor,
277.0,289.4,288.8,267.9,36,80,256.1,268.3,274.4,286.6,7.717,7.553,7.56,7.964,7.944,8.402,8.325,5.294,-4.478,-7.663,1.128,-1.913,8.162,4.45,-4.521,-8.432,263.4,257.0,-8.038,267.8,280.5,269.9,273.7,265.2,36,277.7,2,5,prime,10,0,105,norm,36,-4.892,up,norm,274.676071361,,268.7,1.224,262.4,5,279.4,280.1,273.6,10,6,7.885,4.356,1.385,-1.389,-5.264,-8.37,274.5,6,379.7,-7.858,-7.953,80,-7.565,-7.839,-5.285,-4.535,-4.816,-4.52,4.349,7.767,17,-1.317,1.796,4.364,7.982,-8.191,-8.139,-1.46,1.965,273.6,292.7,258.0,294.7,280.1,288.1,276.4,281.9,279.2,283.4,3,norm,2.027,1.913,-1.45,-1.31,-4.905,-5.05,-1.418,-1.86,-1.636,-1.683,1.978,-1.373,272.8,276.9,-4.98,-8.017,254.7,-1.588,8.49,4.548,-4.979,-8.024,8,5.116,4.739,5.266,4.934,1.452,1.213,1.613,1.481,8,5.244,4.97,10,314.449307829,norm,0,33,33,33,270.185,270.191,270.192709739,270.193,270.196,270.2,down,0,0.864408916566,-10,001,020,800_600,Intel(R) Core(TM) i7-2670QM CPU @ 2.20GHz,orientation_search,GRVLAPTOP3,Intel(R) HD Graphics Family,2018_jul_30_1325,testMonitor,
282.1,294.7,,282.6,36,80,265.5,281.9,278.2,285.8,8.333,8.329,7.522,7.606,8.108,8.419,7.558,4.817,-4.318,-7.556,1.834,-2.075,7.911,4.662,-5.238,-8.267,262.1,262.4,-8.151,274.5,265.9,273.7,277.9,261.9,36,281.6,3,5,prime,10,0,119,norm,36,-4.668,down,norm,274.676071361,263.8,266.1,1.585,274.2,2,276.4,275.9,289.7,10,6,8.317,5.217,2.016,-2.054,-5.189,-8.25,280.4,6,393.7,-8.005,-8.083,80,-7.598,-7.702,-5.141,-4.71,-5.065,-4.473,5.191,8.38,20,-1.317,1.955,4.708,8.263,-7.736,-7.661,-1.855,1.892,269.9,282.2,277.3,286.6,276.7,277.0,254.7,255.0,259.5,289.8,4,norm,1.182,1.924,-1.519,-1.409,-4.367,-5.297,-2.091,-1.928,-1.843,-1.259,1.334,-1.98,282.3,274.8,-5.167,-7.796,271.4,-1.105,7.871,4.81,-4.456,-8.433,8,5.162,5.007,4.999,5.185,1.265,1.817,1.336,1.605,8,4.712,4.86,10,314.449307829,norm,0,34,34,34,272.073,272.078,272.080450442,272.081,272.084,272.087,down,1,1.45334063026,8.54665936974,001,020,800_600,Intel(R) Core(TM) i7-2670QM CPU @ 2.20GHz,orientation_search,GRVLAPTOP3,Intel(R) HD Graphics Family,2018_jul_30_1325,testMonitor,
277.6,281.2,285.5,273.7,36,80,263.8,270.1,292.1,261.9,8.236,7.998,8.229,8.379,8.065,7.55,8.339,5.078,-4.602,-7.557,1.401,-1.127,7.77,4.874,-5.092,-7.591,280.0,271.3,-8.037,278.7,265.4,285.2,289.6,266.2,36,280.5,3,5,prime,10,0,105,norm,36,-4.427,down,norm,274.676071361,272.4,294.7,1.181,278.4,0,274.7,286.0,272.2,10,6,8.109,4.958,1.19,-1.864,-4.671,-7.58,282.5,6,379.7,-8.31,-8.273,80,-8.143,-8.441,-5.289,-4.747,-5.201,-4.469,4.747,7.756,18,-1.252,1.243,4.492,8.477,-8.216,-8.483,-2.027,1.877,267.8,265.5,277.5,274.5,254.7,286.0,259.9,285.3,282.4,279.4,5,norm,1.591,1.725,-1.493,-1.71,-4.358,-4.535,-1.596,-1.2,-1.157,-1.773,1.548,-1.348,275.7,,-4.371,-7.791,273.0,-1.951,7.681,5.203,-4.779,-8.034,8,4.428,5.102,4.803,4.579,1.853,1.333,1.166,1.219,8,4.717,4.53,10,314.449307829,norm,0,35,35,35,273.548,273.554,273.55602832,273.556,273.559,273.563,down,1,1.46323677051,8.53676322949,001,020,800_600,Intel(R) Core(TM) i7-2670QM CPU @ 2.20GHz,orientation_search,GRVLAPTOP3,Intel(R) HD Graphics Family,2018_jul_30_1325,testMonitor,
455.8,468.6,470.5,471.7,36,20,467.2,472.0,467.5,475.8,8.362,7.522,7.582,8.329,7.561,7.987,7.795,4.448,-4.593,-8.223,2.062,-1.759,8.484,4.659,-4.51,-8.463,464.3,468.6,-8.347,462.8,468.6,463.3,459.9,475.1,36,469.2,1,5,probe,5,0,106,norm,36,-4.682,down,norm,465.813404225,469.3,463.4,1.117,459.5,0,464.3,458.1,456.7,10,6,7.627,5.126,1.578,-1.15,-4.385,-7.814,467.0,2,359.8,-7.644,-8.15,80,-8.077,-7.629,-4.435,-5.185,-4.63,-4.338,5.059,8.433,6,-1.804,1.44,4.68,7.814,-7.758,-7.843,-1.98,1.135,469.0,468.2,462.9,472.5,462.8,469.5,465.7,,457.4,467.3,0,norm,1.128,1.241,-1.869,-1.568,-4.354,-4.793,-1.439,-1.452,-1.275,-1.935,1.386,-1.523,466.1,463.2,-4.971,-8.412,465.0,-1.927,7.823,4.547,-4.424,-7.523,9,5.294,4.895,5.005,4.669,1.373,1.73,1.999,1.947,9,4.799,5.222,80,274.676071361,norm,0,36,36,36,275.033,275.039,275.040670694,275.041,275.044,275.047,down,1,1.34972323681,8.65027676319,001,020,800_600,Intel(R) Core(TM) i7-2670QM CPU @ 2.20GHz,orientation_search,GRVLAPTOP3,Intel(R) HD Graphics Family,2018_jul_30_1325,testMonitor,
467.9,482.7,471.6,474.7,36,20,476.6,469.4,481.5,477.3,8.305,7.597,7.898,8.339,8.433,8.122,8.431,4.517,-4.633,-8.285,1.76,-1.971,7.607,4.961,-4.907,-8.497,469.9,470.3,-7.965,478.3,470.6,,477.0,473.9,36,477.2,5,5,probe,5,0,114,norm,36,-4.804,up,norm,473.813404225,478.2,464.7,1.758,480.8,3,476.2,472.3,474.0,10,6,7.571,4.874,1.14,-1.682,-4.702,-7.56,470.4,2,359.8,-7.761,-8.278,80,-8.166,-7.984,-5.088,-4.804,-4.986,-4.809,5.073,7.578,33,-1.384,1.404,4.536,8.317,-7.744,-8.022,-1.805,1.622,476.4,469.3,468.5,472.2,476.9,475.3,473.9,470.4,470.1,463.8,1,norm,1.682,1.564,-1.935,-2.005,-4.702,-5.037,-1.948,-1.932,-1.778,-1.73,1.252,-1.74,481.9,479.5,-4.494,-7.757,475.3,-1.118,7.7,4.368,-4.816,-8.3,9,5.18,4.493,4.966,5.123,1.393,1.846,1.98,1.824,9,4.616,4.947,80,274.676071361,norm,0,37,37,37,276.405,276.411,276.41295431,276.413,276.417,276.42,down,0,0.841248502247,-10,001,020,800_600,Intel(R) Core(TM) i7-2670QM CPU @ 2.20GHz,orientation_search,GRVLAPTOP3,Intel(R) HD Graphics Family,2018_jul_30_1325,testMonitor,
75.5,76.7,65.1,62.1,36,0,82.4,68.6,62.7,67.3,8.399,8.204,8.378,7.657,7.531,8.403,8.288,5.118,-4.679,-7.842,1.692,-1.503,8.068,5.083,-4.667,-8.449,70.3,81.8,-8.21,64.2,74.8,74.0,66.5,54.8,36,67.6,0,5,prime,10,0,87,norm,36,-4.443,up,norm,72.6658963991,88.7,81.1,2.056,84.3,4,58.3,86.4,75.9,10,5,8.465,4.85,1.966,-1.901,-4.818,-7.797,52.7,5,159.7,-8.244,-8.251,0,-7.665,-7.753,-4.413,-4.919,-4.683,-5.254,4.908,7.535,4,-1.364,1.47,5.126,8.149,-8.227,-7.559,-1.503,2.079,56.7,58.9,59.3,66.0,82.2,68.6,69.3,73.9,65.9,,0,norm,1.816,1.876,-1.645,-2.055,-5.161,-4.532,-1.528,-1.929,-1.615,-1.226,1.636,-1.207,73.1,92.7,-4.743,-7.508,65.1,-1.779,7.873,4.621,-4.406,-8.454,10,5.102,4.897,4.667,4.598,1.487,1.57,1.922,1.317,10,4.822,4.732,20,274.676071361,norm,0,38,38,38,278.281,278.287,278.288785837,278.289,278.292,278.295,down,0,2.82549676822,-10,001,020,800_600,Intel(R) Core(TM) i7-2670QM CPU @ 2.20GHz,orientation_search,GRVLAPTOP3,Intel(R) HD Graphics Family,2018_jul_30_1325,testMonitor,
82.2,84.9,58.9,66.8,36,0,74.2,90.2,87.5,68.4,8.354,7.768,8.096,7.769,7.793,7.939,8.392,4.986,-5.115,-8.43,1.62,-1.229,8.279,4.493,-4.344,-8.089,92.7,56.6,-8.305,80.3,80.4,,73.5,71.2,36,58.1,5,5,prime,10,0,70,norm,36,-5.145,up,norm,72.6658963991,78.8,75.5,1.176,61.7,3,84.6,60.3,73.7,10,5,7.509,5.023,1.222,-1.923,-4.378,-8.222,85.6,5,142.7,-8.348,-8.147,0,-7.73,-7.765,-5.124,-4.449,-5.02,-5.085,4.924,8.447,33,-1.291,1.445,4.533,7.568,-8.213,-7.504,-1.64,1.588,67.0,52.7,85.3,75.0,66.7,73.6,60.5,75.6,76.0,80.7,1,norm,1.327,1.343,-1.994,-2.056,-4.49,-5.147,-1.856,-1.676,-2.094,-1.777,1.897,-1.255,75.0,76.6,-4.614,-7.724,81.0,-1.674,8.469,4.695,-4.378,-8.059,10,4.802,4.561,4.837,5.039,1.942,1.777,1.99,1.47,10,5.124,4.452,20,274.676071361,norm,0,39,39,39,282.135,282.14,282.141977603,282.142,282.145,282.149,up,1,1.19343398355,8.80656601645,001,020,800_600,Intel(R) Core(TM) i7-2670QM CPU @ 2.20GHz,orientation_search,GRVLAPTOP3,Intel(R) HD Graphics Family,2018_jul_30_1325,testMonitor,
60.3,69.3,79.2,72.8,36,0,70.9,52.7,92.7,68.7,7.644,7.906,7.57,8.398,8.255,7.81,7.981,4.615,-5.054,-7.676,1.795,-1.871,8.324,4.959,-4.571,-7.785,64.4,79.9,-7.866,73.6,72.1,71.4,58.5,76.6,36,76.0,2,5,prime,10,0,116,norm,36,-5.218,up,norm,72.6658963991,75.9,,1.119,56.9,4,70.5,87.0,70.8,10,5,7.997,5.264,1.303,-1.495,-4.402,-7.538,79.7,5,188.7,-7.804,-7.532,0,-8.153,-7.692,-4.508,-4.399,-4.386,-5.034,4.652,7.964,16,-1.76,1.233,5.244,7.932,-7.737,-7.716,-1.893,1.955,81.0,71.4,65.0,65.3,68.7,64.8,71.2,65.8,60.6,76.7,2,norm,1.637,2.025,-1.791,-1.617,-4.848,-4.764,-1.629,-1.899,-1.784,-1.612,1.599,-1.658,81.9,83.1,-5.119,-8.382,80.3,-1.763,8.046,4.93,-4.916,-7.523,10,5.135,5.266,4.649,4.47,1.106,1.529,1.628,2.037,10,5.203,4.831,20,274.676071361,norm,0,40,40,40,283.35,283.356,283.357844955,283.358,283.361,283.365,up,1,3.00135603224,6.99864396776,001,020,800_600,Intel(R) Core(TM) i7-2670QM CPU @ 2.20GHz,orientation_search,GRVLAPTOP3,Intel(R) HD Graphics Family,2018_jul_30_1325,testMonitor,
70.5,66.9,83.8,92.7,36,0,72.9,89.0,86.8,63.7,8.436,7.818,7.99,8.208,8.436,7.957,8.184,4.932,-4.893,-8.187,1.731,-2.046,7.519,4.742,-4.588,-8.313,77.0,66.9,-8.421,80.0,70.8,75.6,58.3,76.2,36,,4,5,prime,10,0,80,norm,36,-4.634,up,norm,72.6658963991,65.7,67.5,1.692,84.1,3,77.6,70.2,67.0,10,5,8.069,4.634,1.197,-1.244,-5.009,-7.711,52.7,5,152.7,-8.288,-7.821,0,-8.207,-8.082,-4.755,-5.267,-4.839,-4.962,4.758,7.838,27,-2.047,1.248,4.343,8.376,-8.404,-7.569,-1.585,1.874,77.9,82.8,82.5,77.0,72.2,76.8,68.2,83.6,73.5,75.3,3,norm,1.756,1.39,-2.015,-1.544,-4.528,-5.131,-1.136,-1.156,-1.807,-1.19,1.987,-1.329,67.0,64.1,-4.658,-7.624,75.5,-1.675,7.953,5.097,-5.048,-7.809,10,4.903,4.493,4.583,4.905,1.76,2.051,1.408,1.294,10,4.489,4.694,20,274.676071361,norm,0,41,41,41,286.374,286.379,286.381190283,286.382,286.384,286.388,up,1,0.925123112225,9.07487688777,001,020,800_600,Intel(R) Core(TM) i7-2670QM CPU @ 2.20GHz,orientation_search,GRVLAPTOP3,Intel(R) HD Graphics Family,2018_jul_30_1325,testMonitor,
60.4,74.3,55.6,77.5,36,0,71.8,71.6,64.7,67.9,7.687,8.182,8.043,8.399,7.971,7.775,8.294,4.978,-5.264,-8.148,2.02,-1.736,8.173,5.002,-4.313,-7.622,,56.2,-8.375,72.0,76.1,67.2,83.5,92.7,36,76.5,5,5,prime,10,0,74,norm,36,-4.685,up,norm,72.6658963991,77.6,75.2,2.008,55.5,5,72.4,56.5,73.6,10,5,8.12,4.472,1.473,-1.606,-4.803,-8.499,52.7,5,146.7,-7.944,-8.387,0,-7.732,-7.831,-4.648,-4.692,-5.221,-4.645,4.812,7.696,35,-1.963,1.431,4.993,7.9,-7.61,-8.2,-1.796,1.731,67.0,66.3,65.6,68.0,84.8,66.4,86.4,72.4,72.6,66.2,4,norm,1.736,1.737,-1.302,-1.395,-4.731,-5.274,-1.635,-1.222,-1.78,-1.479,1.66,-1.238,67.2,79.9,-5.015,-8.454,64.2,-1.784,8.34,4.693,-4.512,-7.7,10,5.299,4.672,4.989,4.498,1.316,1.43,1.862,1.43,10,5.18,4.61,20,274.676071361,norm,0,42,42,42,287.321,287.327,287.328900857,287.329,287.332,287.336,up,1,1.28640484287,8.71359515713,001,020,800_600,Intel(R) Core(TM) i7-2670QM CPU @ 2.20GHz,orientation_search,GRVLAPTOP3,Intel(R) HD Graphics Family,2018_jul_30_1325,testMonitor,
167.7,163.1,170.7,176.0,36,0,165.6,165.4,164.1,156.0,7.611,8.086,8.46,7.872,7.958,7.511,8.061,4.425,-4.744,-7.614,1.388,-1.674,8.111,4.388,-4.716,-8.022,172.2,167.0,-8.223,167.4,171.5,166.5,166.7,161.9,36,161.5,0,5,probe,5,0,91,norm,36,-4.722,up,norm,165.995252594,165.9,164.4,1.149,169.5,3,162.9,166.4,162.1,10,5,8.335,4.797,2.035,-1.435,-4.91,-7.527,165.3,2,75.0,-7.951,-8.329,0,-7.843,-8.486,-4.446,-5.102,-5.217,-4.322,4.894,8.442,3,-1.85,1.239,4.795,7.823,-7.728,-7.964,-1.526,1.41,172.3,158.4,,169.1,161.6,164.8,166.8,162.9,159.1,157.7,0,norm,1.844,1.75,-2.028,-1.705,-5.074,-5.27,-1.842,-1.609,-1.203,-2.065,1.67,-1.147,170.1,164.5,-5.193,-8.254,164.9,-1.726,7.628,5.102,-4.663,-7.654,11,4.54,4.422,4.567,5.21,1.325,1.963,1.247,1.876,11,4.616,5.126,0,72.6658963991,norm,0,43,43,43,288.631,288.636,288.638245246,288.639,288.642,288.645,up,1,1.85257912289,8.14742087711,001,020,800_600,Intel(R) Core(TM) i7-2670QM CPU @ 2.20GHz,orientation_search,GRVLAPTOP3,Intel(R) HD Graphics Family,2018_jul_30_1325,testMonitor,
175.3,178.7,180.8,184.1,36,0,178.2,188.0,172.5,170.8,7.841,7.997,7.627,8.284,8.457,7.849,8.257,4.565,-4.461,-7.718,1.549,-1.788,7.505,5.073,-4.574,-7.51,179.2,,-8.006,175.8,175.1,182.0,180.0,178.4,36,182.0,5,5,probe,5,0,103,norm,36,-4.82,up,norm,177.995252594,177.8,177.2,2.061,181.6,4,174.5,180.8,179.7,10,5,7.976,5.173,1.85,-1.348,-4.94,-7.788,177.6,2,75.0,-7.899,-7.533,0,-7.674,-7.588,-4.732,-5.13,-4.704,-4.6,4.425,8.201,34,-1.537,2.086,4.559,7.56,-7.868,-8.267,-1.386,1.484,183.1,177.7,171.6,178.4,175.7,182.7,178.3,178.4,168.0,185.6,1,norm,1.11,1.873,-1.953,-1.662,-4.712,-4.585,-1.778,-1.665,-1.282,-1.292,2.053,-2.058,168.8,173.4,-5.204,-8.222,175.1,-1.166,7.717,4.745,-4.946,-7.803,11,4.564,4.678,4.48,4.407,1.781,1.757,1.478,1.726,11,4.405,4.352,0,72.6658963991,norm,0,44,44,44,290.506,290.511,290.513224583,290.514,290.516,290.521,up,1,1.23863972782,8.76136027218,001,020,800_600,Intel(R) Core(TM) i7-2670QM CPU @ 2.20GHz,orientation_search,GRVLAPTOP3,Intel(R) HD Graphics Family,2018_jul_30_1325,testMonitor,
164.0,184.1,177.2,175.9,36,40,150.5,165.6,182.1,167.1,8.081,8.072,8.425,8.189,8.279,7.839,8.415,4.529,-4.62,-7.511,1.151,-1.454,7.87,5.201,-4.456,-8.27,177.0,169.1,-7.862,171.7,162.3,173.0,179.4,171.4,36,190.5,1,5,prime,10,0,80,norm,36,-4.987,down,norm,170.459652738,177.7,167.2,1.6,165.6,2,170.5,178.9,176.3,10,6,7.559,4.959,1.113,-1.36,-4.633,-7.842,161.4,6,250.5,-7.857,-7.973,40,-8.387,-7.653,-4.847,-5.149,-5.0,-4.714,4.433,7.662,8,-1.498,1.409,4.924,8.159,-8.453,-7.618,-1.57,1.331,169.8,,177.4,167.8,163.3,150.5,164.3,165.2,162.3,173.2,0,norm,1.236,1.471,-1.818,-1.635,-4.691,-4.737,-1.626,-1.846,-1.645,-1.522,1.247,-1.383,172.3,164.9,-5.216,-8.434,178.1,-1.287,7.558,4.43,-5.234,-7.806,12,4.514,4.396,4.471,5.267,2.021,1.288,1.337,1.209,12,4.59,4.477,0,72.6658963991,norm,0,45,45,45,291.768,291.773,291.775616822,291.776,291.779,291.782,down,1,0.969804934948,9.03019506505,001,020,800_600,Intel(R) Core(TM) i7-2670QM CPU @ 2.20GHz,orientation_search,GRVLAPTOP3,Intel(R) HD Graphics Family,2018_jul_30_1325,testMonitor,
167.5,171.5,164.6,183.0,36,40,179.5,176.7,172.5,174.0,7.685,7.576,8.372,8.335,8.449,8.198,8.414,4.769,-4.829,-7.615,1.144,-1.957,7.991,4.364,-5.013,-7.634,178.9,169.3,-8.341,174.0,172.7,162.7,156.5,179.2,36,161.8,2,5,prime,10,0,72,norm,36,-4.595,up,norm,170.459652738,,160.6,1.578,185.1,5,180.7,172.9,171.5,10,6,8.443,4.507,1.674,-1.464,-4.667,-8.188,171.0,6,242.5,-8.389,-7.883,40,-7.963,-8.056,-4.829,-5.277,-4.522,-4.867,4.493,8.447,17,-1.642,1.223,5.109,7.986,-7.543,-7.741,-1.325,1.667,165.5,151.8,156.3,190.5,152.0,159.9,184.9,175.0,170.5,150.5,1,norm,1.659,1.125,-2.075,-1.152,-5.103,-4.476,-1.517,-1.934,-1.35,-1.245,1.473,-1.222,175.9,172.0,-4.39,-8.383,176.9,-2.035,8.311,5.218,-5.058,-8.057,12,4.463,4.383,5.227,4.445,1.261,1.135,2.035,1.14,12,5.22,4.616,0,72.6658963991,norm,0,46,46,46,292.76,292.766,292.768511661,292.769,292.772,292.776,down,0,1.95581174686,-10,001,020,800_600,Intel(R) Core(TM) i7-2670QM CPU @ 2.20GHz,orientation_search,GRVLAPTOP3,Intel(R) HD Graphics Family,2018_jul_30_1325,testMonitor,
,171.7,150.5,167.0,36,40,172.0,175.5,173.6,163.2,7.508,7.692,7.592,8.208,8.158,7.929,8.016,4.33,-4.901,-8.173,1.683,-1.766,7.762,4.464,-4.911,-7.591,174.6,176.9,-7.698,190.5,177.7,175.0,162.2,170.5,36,155.4,3,5,prime,10,0,92,norm,36,-5.251,up,norm,170.459652738,157.3,164.6,1.424,168.2,4,189.1,172.1,169.1,10,6,7.708,4.962,1.357,-1.495,-4.744,-7.565,176.9,6,262.5,-7.744,-8.187,40,-7.728,-7.784,-4.34,-4.919,-4.418,-4.753,4.898,7.92,22,-1.844,1.796,4.704,7.732,-8.091,-8.375,-1.291,1.254,182.4,166.8,167.9,189.8,178.0,162.7,176.3,181.5,165.6,184.8,2,norm,1.995,1.561,-1.846,-1.86,-5.01,-4.511,-1.805,-1.708,-1.63,-1.152,1.185,-1.218,175.4,171.4,-5.278,-7.638,185.1,-1.514,8.023,4.677,-4.946,-7.832,12,4.615,4.418,4.769,4.965,1.924,1.537,1.524,1.544,12,4.416,5.033,0,72.6658963991,norm,0,47,47,47,295.753,295.759,295.760543104,295.761,295.764,295.767,up,1,1.14210975082,8.85789024918,001,020,800_600,Intel(R) Core(TM) i7-2670QM CPU @ 2.20GHz,orientation_search,GRVLAPTOP3,Intel(R) HD Graphics Family,2018_jul_30_1325,testMonitor,
185.9,153.2,190.3,181.4,36,40,178.5,155.2,166.6,167.9,8.144,8.407,7.933,8.021,7.633,7.583,7.591,4.504,-5.001,-7.789,1.961,-1.847,8.288,4.789,-4.355,-8.038,150.6,150.5,-8.446,179.1,176.7,156.5,165.7,186.6,36,166.4,2,5,prime,10,0,82,norm,36,-5.26,up,norm,170.459652738,167.8,,1.203,186.3,4,168.9,176.1,174.5,10,6,7.723,5.178,1.276,-1.468,-5.182,-8.051,185.7,6,252.5,-8.307,-8.013,40,-7.63,-7.614,-4.521,-4.602,-4.924,-5.226,4.984,7.985,16,-2.025,1.322,5.266,7.504,-7.825,-7.67,-1.471,1.15,178.6,151.8,166.3,190.5,174.3,158.7,161.2,166.8,176.8,168.9,3,norm,1.192,1.568,-1.19,-1.804,-4.366,-4.765,-1.437,-1.672,-1.487,-1.686,2.021,-1.618,186.1,179.4,-4.672,-8.237,164.4,-1.523,8.199,5.027,-4.554,-8.414,12,5.084,5.127,4.796,4.391,1.286,1.811,1.221,1.298,12,4.321,4.464,0,72.6658963991,norm,0,48,48,48,296.917,296.923,296.924886367,296.925,296.928,296.932,up,1,3.09958291736,6.90041708264,001,020,800_600,Intel(R) Core(TM) i7-2670QM CPU @ 2.20GHz,orientation_search,GRVLAPTOP3,Intel(R) HD Graphics Family,2018_jul_30_1325,testMonitor,
158.7,170.5,167.4,178.0,36,40,171.1,159.8,156.4,173.6,8.243,7.711,8.268,8.258,8.085,7.631,7.668,4.307,-4.342,-7.95,1.121,-1.525,8.055,4.865,-4.478,-7.57,175.0,156.8,-8.187,156.6,172.3,179.5,167.7,168.7,36,174.5,0,5,prime,10,0,74,norm,36,-4.976,down,norm,170.459652738,172.0,169.9,1.729,161.6,2,150.5,176.2,174.7,10,6,7.88,5.297,1.308,-1.655,-4.324,-8.44,168.4,6,244.5,-7.628,-8.126,40,-7.817,-7.917,-4.551,-5.234,-4.97,-4.438,5.194,7.548,2,-1.302,1.337,4.43,7.571,-8.422,-7.721,-1.909,1.723,173.5,174.6,153.6,,174.3,190.5,160.9,186.9,163.4,176.5,4,norm,1.509,1.443,-1.648,-1.194,-4.488,-5.039,-1.93,-1.132,-1.607,-1.41,1.702,-1.217,164.5,180.0,-4.584,-8.302,180.1,-1.94,8.389,4.319,-5.225,-8.379,12,5.295,4.416,4.542,4.651,1.56,1.31,1.232,1.908,12,4.333,5.154,0,72.6658963991,norm,0,49,49,49,300.039,300.045,300.046833543,300.047,300.05,300.054,up,0,1.61549808502,-10,001,020,800_600,Intel(R) Core(TM) i7-2670QM CPU @ 2.20GHz,orientation_search,GRVLAPTOP3,Intel(R) HD Graphics Family,2018_jul_30_1325,testMonitor,
177.8,176.7,164.4,180.7,36,40,177.9,166.9,161.6,150.5,8.355,7.679,8.48,7.56,7.517,7.613,7.577,5.116,-4.559,-8.442,1.481,-1.224,7.568,4.83,-4.922,-8.279,182.0,161.8,-7.58,176.3,168.0,163.2,163.9,171.1,36,162.9,1,5,prime,10,0,79,norm,36,-4.756,down,norm,170.459652738,154.3,190.5,1.141,165.5,0,164.4,168.4,171.1,10,6,8.075,4.892,1.232,-1.766,-4.879,-7.598,164.6,6,249.5,-7.847,-8.082,40,-8.137,-8.483,-4.383,-4.572,-4.639,-4.958,5.069,8.076,6,-1.571,1.531,5.128,8.047,-8.398,-8.169,-1.973,1.806,181.8,179.1,185.7,159.7,157.2,178.3,173.9,,177.9,170.4,5,norm,1.305,1.859,-1.759,-2.036,-4.794,-4.729,-1.915,-1.9,-1.357,-1.827,1.751,-1.635,180.6,169.6,-4.799,-7.646,167.2,-1.27,7.673,5.097,-5.096,-8.147,12,4.403,4.814,4.487,5.09,1.933,1.888,1.108,1.186,12,4.536,4.546,0,72.6658963991,norm,0,50,50,50,302.679,302.685,302.686929325,302.687,302.69,302.694,up,0,3.09180020751,-10,001,020,800_600,Intel(R) Core(TM) i7-2670QM CPU @ 2.20GHz,orientation_search,GRVLAPTOP3,Intel(R) HD Graphics Family,2018_jul_30_1325,testMonitor,
307.8,303.9,293.7,313.7,36,-40,303.9,294.0,308.0,300.5,7.651,8.183,8.069,7.687,8.15,8.407,8.259,4.414,-5.277,-8.029,1.562,-1.74,7.716,5.271,-5.165,-7.517,298.8,301.2,-8.373,306.2,308.8,302.3,307.6,307.1,36,311.3,1,5,probe,5,0,96,norm,36,-5.12,up,norm,303.739284448,303.4,302.8,1.952,303.5,3,303.3,307.4,304.6,10,6,7.527,4.821,1.823,-2.035,-4.678,-8.077,299.1,1,207.7,-7.683,-7.772,40,-7.837,-8.178,-4.356,-5.161,-5.16,-5.251,5.005,7.81,9,-1.118,1.378,4.447,7.827,-7.659,-7.915,-1.702,1.712,,303.4,303.4,306.2,304.5,299.9,305.1,297.7,297.5,311.7,0,norm,2.09,1.703,-1.833,-1.454,-5.02,-4.764,-1.273,-1.128,-1.973,-1.278,1.442,-1.722,303.6,310.4,-4.96,-8.032,300.4,-1.92,8.297,4.774,-5.098,-8.239,13,5.048,4.971,4.767,4.711,1.578,1.127,1.433,1.292,13,4.658,4.409,40,170.459652738,norm,0,51,51,51,306.798,306.803,306.804780387,306.805,306.808,306.811,up,1,0.866089014366,9.13391098563,001,020,800_600,Intel(R) Core(TM) i7-2670QM CPU @ 2.20GHz,orientation_search,GRVLAPTOP3,Intel(R) HD Graphics Family,2018_jul_30_1325,testMonitor,
188.8,169.0,181.0,184.9,36,-30,171.3,176.9,174.5,179.2,8.192,7.872,7.839,8.023,8.476,8.401,8.011,5.089,-4.352,-7.615,1.124,-2.056,7.599,5.267,-4.331,-8.498,192.6,191.6,-8.282,183.5,177.2,173.8,171.3,174.6,36,158.4,0,5,prime,10,0,79,norm,36,-4.457,up,norm,178.352465417,191.7,180.1,1.398,179.7,4,180.3,170.5,171.3,10,6,7.815,5.05,2.041,-1.782,-4.848,-8.025,169.7,6,257.4,-8.026,-8.14,-30,-8.256,-8.282,-4.468,-5.123,-5.0,-4.521,4.994,7.565,4,-1.249,1.651,5.125,7.817,-8.034,-7.69,-1.557,2.014,176.5,184.8,198.4,175.6,187.0,170.8,170.3,173.7,169.6,,0,norm,2.093,1.926,-1.437,-1.499,-5.152,-4.544,-1.99,-1.101,-1.544,-1.351,1.227,-1.345,192.4,184.6,-4.879,-7.722,169.7,-1.935,7.802,4.582,-4.503,-8.479,14,4.815,4.329,5.039,4.419,1.696,1.495,1.665,1.69,14,4.562,4.537,-40,170.459652738,norm,0,52,52,52,307.685,307.691,307.692819006,307.693,307.696,307.7,up,1,3.14513887657,6.85486112343,001,020,800_600,Intel(R) Core(TM) i7-2670QM CPU @ 2.20GHz,orientation_search,GRVLAPTOP3,Intel(R) HD Graphics Family,2018_jul_30_1325,testMonitor,
181.8,189.8,198.4,165.2,36,-30,176.4,187.2,169.6,165.0,7.743,8.395,7.505,8.358,7.736,7.812,7.538,4.979,-4.41,-8.188,1.896,-1.448,8.136,4.428,-5.221,-7.811,173.1,175.5,-7.973,158.4,160.8,177.1,188.0,186.4,36,172.0,1,5,prime,10,0,66,norm,36,-4.638,up,norm,178.352465417,180.3,183.5,1.283,172.1,4,179.9,189.3,181.4,10,6,7.591,4.33,1.205,-1.342,-4.765,-7.624,,6,244.4,-8.018,-7.754,-30,-8.013,-8.273,-4.393,-4.596,-5.01,-5.185,4.412,8.439,10,-1.991,1.96,4.944,7.566,-8.018,-8.419,-1.752,1.48,173.0,184.0,172.2,183.1,190.2,184.0,180.1,162.2,184.4,180.1,1,norm,1.367,1.884,-1.664,-1.787,-4.691,-4.853,-1.667,-1.848,-2.06,-1.765,1.261,-1.916,182.8,173.1,-5.197,-7.504,181.4,-1.942,7.527,5.29,-4.551,-7.869,14,4.953,4.568,5.007,5.213,1.318,1.575,1.282,1.936,14,4.929,5.298,-40,170.459652738,norm,0,53,53,53,310.853,310.858,310.859875734,310.86,310.863,310.866,up,1,1.56900495064,8.43099504936,001,020,800_600,Intel(R) Core(TM) i7-2670QM CPU @ 2.20GHz,orientation_search,GRVLAPTOP3,Intel(R) HD Graphics Family,2018_jul_30_1325,testMonitor,
168.4,194.9,181.7,173.3,36,-30,178.5,162.6,191.6,169.8,8.497,8.346,7.659,8.192,8.09,8.356,7.546,5.271,-4.341,-8.053,1.3,-1.534,8.118,4.397,-4.369,-8.225,171.2,166.6,-8.019,165.9,179.6,186.9,174.2,,36,181.1,4,5,prime,10,0,111,norm,36,-4.346,down,norm,178.352465417,177.3,190.2,1.185,175.3,2,181.5,198.4,184.1,10,6,8.106,4.778,1.766,-2.077,-5.114,-8.454,187.1,6,289.4,-8.014,-7.539,-30,-7.893,-7.723,-4.415,-4.471,-4.795,-5.011,4.8,7.729,26,-1.671,1.191,4.734,7.841,-7.97,-7.511,-1.73,1.199,176.3,178.5,184.3,183.2,187.2,179.8,180.8,164.2,174.3,158.4,2,norm,2.004,1.905,-1.94,-1.621,-4.58,-5.142,-1.891,-1.825,-2.077,-1.82,1.95,-1.936,168.5,166.6,-5.113,-8.099,169.6,-1.837,7.788,4.728,-4.335,-7.873,14,4.57,4.967,4.927,4.962,1.299,1.589,1.234,1.4,14,5.234,4.418,-40,170.459652738,norm,0,54,54,54,312.444,312.45,312.451631581,312.452,312.455,312.458,down,1,0.862215170191,9.13778482981,001,020,800_600,Intel(R) Core(TM) i7-2670QM CPU @ 2.20GHz,orientation_search,GRVLAPTOP3,Intel(R) HD Graphics Family,2018_jul_30_1325,testMonitor,
180.4,173.5,187.3,180.6,36,-30,189.8,171.7,175.6,190.6,7.781,7.526,8.216,8.048,7.968,8.019,7.962,4.391,-4.851,-7.76,1.877,-1.27,7.67,4.375,-4.885,-7.913,182.5,163.2,-8.24,158.4,179.8,191.1,171.8,181.9,36,170.1,1,5,prime,10,0,90,norm,36,-4.919,up,norm,178.352465417,175.1,160.8,1.576,174.2,5,,198.4,185.9,10,6,7.935,5.297,1.38,-1.412,-5.226,-7.796,176.1,6,268.4,-8.06,-8.347,-30,-7.888,-7.528,-4.874,-5.047,-5.092,-4.713,4.556,8.146,11,-1.52,2.054,4.628,8.125,-8.273,-7.862,-1.809,1.818,178.0,172.3,174.4,189.2,173.7,186.3,177.3,174.0,185.9,171.9,3,norm,1.756,1.883,-1.633,-1.247,-5.216,-4.388,-1.97,-1.477,-1.372,-1.79,1.408,-1.279,185.4,187.9,-5.114,-7.884,180.1,-1.89,7.899,5.22,-4.896,-7.746,14,4.477,5.225,4.722,4.361,1.489,1.469,1.919,1.662,14,4.484,5.254,-40,170.459652738,norm,0,55,55,55,313.33,313.336,313.338457056,313.339,313.342,313.346,up,1,1.10791242945,8.89208757055,001,020,800_600,Intel(R) Core(TM) i7-2670QM CPU @ 2.20GHz,orientation_search,GRVLAPTOP3,Intel(R) HD Graphics Family,2018_jul_30_1325,testMonitor,
176.9,181.2,177.6,172.2,36,-30,188.9,183.4,178.1,171.4,8.337,8.152,8.141,8.052,7.573,8.13,8.295,5.01,-4.74,-7.998,1.649,-1.433,8.178,4.5,-4.636,-8.091,162.6,174.0,-7.671,175.0,175.9,187.8,176.5,166.7,36,181.6,1,5,prime,10,0,67,norm,36,-5.043,up,norm,178.352465417,174.0,177.1,1.398,175.1,5,,188.8,187.0,10,6,8.103,4.666,1.921,-1.212,-4.421,-8.144,178.5,6,245.4,-7.933,-8.164,-30,-8.192,-7.771,-5.184,-4.881,-5.037,-4.906,4.687,7.823,11,-1.88,1.103,4.827,7.521,-8.384,-8.346,-1.499,1.326,173.8,169.8,183.1,196.0,165.7,178.2,167.5,198.4,166.2,187.3,4,norm,1.309,1.435,-1.947,-1.427,-4.85,-4.444,-1.245,-1.39,-1.599,-1.604,1.308,-1.584,179.3,177.0,-4.614,-7.632,158.4,-1.786,7.624,4.692,-5.173,-7.599,14,4.831,4.456,5.188,5.131,1.865,1.473,1.386,1.968,14,4.626,5.125,-40,170.459652738,norm,0,56,56,56,314.462,314.468,314.470234999,314.471,314.474,314.477,up,1,1.41884305795,8.58115694205,001,020,800_600,Intel(R) Core(TM) i7-2670QM CPU @ 2.20GHz,orientation_search,GRVLAPTOP3,Intel(R) HD Graphics Family,2018_jul_30_1325,testMonitor,
165.2,182.1,166.8,171.0,36,-30,185.0,173.7,185.8,196.3,7.76,8.04,7.713,8.337,7.993,8.027,7.69,4.465,-5.23,-7.54,1.949,-1.967,8.416,5.24,-4.729,-8.345,176.5,183.0,-8.279,173.7,179.0,182.5,198.0,172.4,36,188.0,1,5,prime,10,0,108,norm,36,-4.502,up,norm,178.352465417,189.5,174.3,1.19,181.3,3,171.6,198.4,172.9,10,6,7.672,4.608,1.463,-1.749,-4.372,-7.857,177.2,6,286.4,-7.751,-8.226,-30,-7.907,-8.097,-4.991,-4.845,-5.137,-4.636,4.474,7.801,9,-1.654,1.669,4.822,8.161,-8.495,-8.401,-1.453,1.267,,179.8,158.4,182.3,164.8,179.6,173.0,195.7,173.0,178.9,5,norm,1.968,1.808,-1.583,-1.862,-5.239,-4.411,-1.339,-1.821,-1.518,-1.399,1.455,-2.048,177.2,191.1,-4.834,-8.016,193.9,-1.479,8.146,4.319,-4.912,-8.154,14,4.568,4.961,4.965,4.997,2.068,1.224,1.803,1.831,14,4.87,4.859,-40,170.459652738,norm,0,57,57,57,315.904,315.91,315.912448133,315.913,315.916,315.919,down,0,0.897396829014,-10,001,020,800_600,Intel(R) Core(TM) i7-2670QM CPU @ 2.20GHz,orientation_search,GRVLAPTOP3,Intel(R) HD Graphics Family,2018_jul_30_1325,testMonitor,
220.6,227.6,226.2,228.8,36,-80,227.5,234.2,221.4,235.6,7.773,8.107,8.295,8.178,7.958,8.462,8.211,4.372,-5.045,-7.967,1.564,-2.076,7.859,4.464,-4.585,-8.269,229.6,223.9,-7.874,225.5,229.2,227.5,215.6,226.1,36,230.2,2,5,probe,5,0,79,norm,36,-5.24,up,norm,225.58305005,,226.8,1.44,226.6,5,233.2,227.1,219.3,10,6,7.982,4.548,1.475,-1.874,-4.746,-8.098,227.6,1,146.6,-7.912,-8.217,-30,-7.624,-7.734,-5.173,-5.207,-5.279,-4.717,5.198,8.458,17,-1.197,1.907,4.585,7.983,-7.747,-7.801,-1.445,1.702,222.4,231.5,224.6,226.3,232.1,230.7,226.2,227.1,219.6,223.0,0,norm,1.843,1.154,-1.328,-1.563,-5.138,-4.475,-1.832,-1.95,-1.93,-1.121,1.403,-1.626,222.0,224.0,-5.13,-7.602,223.3,-2.076,8.069,4.673,-4.81,-8.188,15,5.072,5.114,5.04,4.912,1.399,1.848,1.173,1.866,15,5.079,4.647,-30,178.352465417,norm,0,58,58,58,317.826,317.833,317.834573406,317.835,317.838,317.842,up,1,0.945865642607,9.05413435739,001,020,800_600,Intel(R) Core(TM) i7-2670QM CPU @ 2.20GHz,orientation_search,GRVLAPTOP3,Intel(R) HD Graphics Family,2018_jul_30_1325,testMonitor,
160.2,167.5,171.9,156.8,36,-40,175.1,171.3,167.3,172.7,7.648,8.229,7.935,7.94,7.573,7.675,7.892,4.953,-5.006,-8.18,2.088,-1.65,8.052,4.445,-4.589,-7.867,159.8,168.6,-8.168,186.9,170.8,166.8,161.3,,36,189.8,4,5,prime,10,0,84,norm,36,-4.8,down,norm,169.773156182,188.4,180.3,1.789,162.8,2,172.7,180.6,175.7,10,6,8.369,4.791,1.231,-1.289,-5.079,-7.544,166.6,6,253.8,-8.236,-7.58,-40,-8.166,-8.131,-5.26,-4.669,-4.762,-5.011,5.15,7.596,26,-1.302,1.694,5.276,8.055,-7.706,-7.946,-1.299,1.283,187.2,166.0,161.3,149.8,166.9,156.2,176.0,151.0,161.7,152.7,0,norm,1.664,1.664,-1.415,-2.075,-4.621,-5.022,-1.284,-1.14,-1.522,-1.464,1.714,-1.238,156.1,154.8,-4.421,-7.923,164.4,-2.093,8.121,4.492,-4.362,-7.902,16,4.776,4.581,5.028,4.537,2.016,1.546,1.168,1.815,16,4.949,4.917,-80,178.352465417,norm,0,59,59,59,318.797,318.802,318.80412852,318.804,318.807,318.811,up,0,1.57418626392,-10,001,020,800_600,Intel(R) Core(TM) i7-2670QM CPU @ 2.20GHz,orientation_search,GRVLAPTOP3,Intel(R) HD Graphics Family,2018_jul_30_1325,testMonitor,
172.4,158.9,172.2,164.9,36,-40,176.1,177.3,167.3,165.4,8.022,7.718,7.617,7.515,7.557,8.27,8.276,4.905,-4.997,-7.732,1.134,-1.188,7.944,4.984,-4.873,-8.011,159.7,164.3,-7.764,,162.8,180.7,167.8,171.2,36,169.5,5,5,prime,10,0,102,norm,36,-5.115,down,norm,169.773156182,172.9,173.7,1.523,164.8,1,172.2,189.8,165.2,10,6,8.064,4.724,1.939,-2.079,-5.082,-7.85,169.8,6,271.8,-8.473,-8.256,-40,-7.832,-8.389,-4.808,-5.115,-5.181,-4.773,4.992,8.458,31,-1.963,2.022,4.618,7.998,-8.418,-7.693,-1.592,2.097,162.3,168.5,150.1,156.8,161.0,149.8,175.9,176.0,169.5,167.3,1,norm,1.681,1.542,-1.357,-1.298,-5.289,-4.38,-1.256,-1.576,-1.746,-1.537,1.584,-1.119,167.8,160.3,-5.124,-7.813,167.2,-1.152,8.097,5.242,-4.642,-8.114,16,5.207,5.226,5.094,5.278,1.687,1.158,1.883,1.657,16,4.993,5.259,-80,178.352465417,norm,0,60,60,60,321.399,321.404,321.406211972,321.407,321.409,321.413,down,1,1.58390262717,8.41609737283,001,020,800_600,Intel(R) Core(TM) i7-2670QM CPU @ 2.20GHz,orientation_search,GRVLAPTOP3,Intel(R) HD Graphics Family,2018_jul_30_1325,testMonitor,
173.2,156.1,169.8,156.6,36,-40,187.0,172.4,167.6,179.6,8.225,7.909,7.98,8.075,7.929,7.758,7.514,4.697,-4.671,-8.087,1.176,-1.101,8.154,5.281,-5.128,-8.108,177.2,157.5,-7.957,156.6,165.5,184.2,177.2,173.3,36,174.4,0,5,prime,10,0,115,norm,36,-4.789,up,norm,169.773156182,185.9,189.8,1.441,174.3,5,158.8,169.6,177.5,10,6,7.691,4.737,1.954,-1.16,-5.172,-8.24,172.6,6,284.8,-7.797,-8.488,-40,-8.03,-7.959,-4.708,-4.492,-5.136,-4.554,4.669,8.266,5,-1.924,2.059,4.386,8.413,-7.785,-7.938,-1.123,1.398,172.4,149.8,165.4,171.1,167.1,178.1,176.7,172.1,,160.6,2,norm,1.247,1.745,-1.965,-1.8,-5.089,-5.008,-1.212,-1.256,-1.853,-2.064,1.169,-1.322,172.6,181.7,-4.698,-7.816,164.9,-1.77,8.289,4.547,-4.876,-8.01,16,5.136,4.835,4.961,4.78,1.277,1.695,2.096,1.164,16,5.086,4.87,-80,178.352465417,norm,0,61,61,61,323.005,323.011,323.013115316,323.014,323.016,323.02,up,1,1.47263093603,8.52736906397,001,020,800_600,Intel(R) Core(TM) i7-2670QM CPU @ 2.20GHz,orientation_search,GRVLAPTOP3,Intel(R) HD Graphics Family,2018_jul_30_1325,testMonitor,
166.0,165.7,177.4,176.3,36,-40,163.7,174.5,178.8,168.6,8.412,8.293,7.727,7.855,8.209,7.918,7.866,5.193,-4.703,-7.856,1.976,-1.921,7.853,5.207,-5.216,-7.879,185.6,172.3,-8.289,162.7,189.8,159.2,165.0,181.8,36,188.0,1,5,prime,10,0,82,norm,36,-4.841,up,norm,169.773156182,165.8,174.0,1.711,185.6,5,,168.1,180.5,10,6,8.044,4.83,2.043,-1.557,-5.287,-7.924,172.6,6,251.8,-8.098,-7.81,-40,-7.837,-7.693,-4.524,-4.577,-5.15,-4.346,4.632,7.807,11,-1.926,1.92,4.75,7.801,-8.259,-8.141,-1.441,1.55,174.6,159.6,172.2,149.8,166.7,185.2,163.0,161.0,179.9,181.3,3,norm,1.492,1.838,-1.57,-1.395,-4.797,-4.482,-1.364,-2.048,-1.235,-1.74,1.734,-1.131,158.6,164.8,-4.975,-7.561,176.8,-1.981,8.059,4.3,-4.899,-7.827,16,4.886,4.46,4.451,5.171,1.197,1.805,1.854,1.627,16,4.668,5.02,-80,178.352465417,norm,0,62,62,62,324.501,324.507,324.509191508,324.51,324.512,324.516,up,1,1.58659134399,8.41340865601,001,020,800_600,Intel(R) Core(TM) i7-2670QM CPU @ 2.20GHz,orientation_search,GRVLAPTOP3,Intel(R) HD Graphics Family,2018_jul_30_1325,testMonitor,
178.6,163.3,159.3,182.0,36,-40,149.8,169.5,178.2,177.2,7.706,8.163,7.849,7.846,7.876,7.883,8.385,5.023,-4.986,-8.184,1.673,-1.338,7.972,4.953,-4.407,-7.526,157.8,178.1,-8.333,174.6,166.3,167.0,170.0,161.4,36,,4,5,prime,10,0,76,norm,36,-5.06,up,norm,169.773156182,177.8,168.7,1.205,160.0,3,157.8,176.5,168.2,10,6,8.253,4.43,1.978,-1.542,-4.73,-7.847,179.2,6,245.8,-8.183,-7.692,-40,-7.941,-8.446,-5.006,-4.747,-5.251,-5.048,4.965,8.475,27,-1.705,1.939,4.439,7.795,-8.494,-8.301,-1.402,2.03,174.9,158.4,169.9,185.7,157.1,177.4,186.8,150.2,167.5,168.9,4,norm,1.318,1.105,-1.309,-1.529,-4.763,-5.189,-2.038,-1.688,-1.992,-1.404,1.151,-1.61,189.8,157.0,-4.952,-8.098,164.1,-1.747,8.019,5.153,-4.945,-7.568,16,5.252,5.103,4.872,4.996,1.917,2.066,1.153,1.227,16,4.613,4.309,-80,178.352465417,norm,0,63,63,63,326.11,326.116,326.117834252,326.118,326.121,326.125,down,0,1.04522535631,-10,001,020,800_600,Intel(R) Core(TM) i7-2670QM CPU @ 2.20GHz,orientation_search,GRVLAPTOP3,Intel(R) HD Graphics Family,2018_jul_30_1325,testMonitor,
168.3,175.3,163.3,149.8,36,-40,157.1,174.8,162.4,174.0,8.159,8.245,8.382,8.237,7.777,8.058,8.273,4.884,-4.419,-7.855,1.537,-1.965,8.099,4.692,-4.523,-8.452,172.8,180.2,-8.094,175.4,181.5,166.1,149.8,156.5,36,156.2,2,5,prime,10,0,65,norm,36,-4.406,up,norm,169.773156182,180.4,,1.408,165.5,4,179.9,174.4,168.1,10,6,7.772,4.56,1.394,-1.914,-4.765,-7.969,180.3,6,234.8,-8.196,-8.04,-40,-7.602,-7.605,-4.357,-4.44,-5.208,-4.466,4.77,7.964,16,-1.21,1.695,4.527,7.763,-7.725,-7.634,-1.47,1.956,166.7,172.2,176.3,175.4,167.0,168.1,174.2,157.5,158.7,189.8,5,norm,1.412,1.782,-1.919,-1.155,-4.759,-4.704,-1.221,-1.613,-1.393,-1.699,2.074,-1.652,175.9,166.8,-4.362,-7.566,169.8,-2.03,8.227,4.913,-5.224,-8.161,16,5.036,5.048,4.818,4.406,1.306,2.046,1.317,1.97,16,5.294,4.704,-80,178.352465417,norm,0,64,64,64,328.185,328.191,328.192630357,328.193,328.196,328.199,up,1,0.785584406003,9.214415594,001,020,800_600,Intel(R) Core(TM) i7-2670QM CPU @ 2.20GHz,orientation_search,GRVLAPTOP3,Intel(R) HD Graphics Family,2018_jul_30_1325,testMonitor,
219.1,217.4,218.7,219.1,36,-60,217.1,209.3,222.6,219.8,8.117,7.745,7.555,8.412,8.044,8.221,8.233,4.53,-4.625,-7.839,1.626,-2.068,7.695,5.04,-4.33,-7.579,208.7,221.3,-7.628,217.6,213.6,223.8,220.1,219.5,36,217.5,0,5,probe,5,0,89,norm,36,-5.093,up,norm,218.71549686,212.4,216.8,1.427,209.3,5,218.8,226.7,223.2,10,6,8.351,5.188,1.84,-1.427,-4.923,-7.834,220.4,1,129.7,-7.519,-7.574,-40,-7.935,-7.638,-4.94,-4.482,-4.797,-4.798,5.148,7.72,5,-1.828,1.458,5.017,8.108,-7.831,-8.105,-1.156,1.608,218.2,216.7,220.4,220.2,227.9,220.8,227.5,228.7,,228.5,0,norm,1.402,1.595,-1.509,-1.522,-4.836,-4.33,-1.273,-1.812,-1.165,-1.138,2.034,-1.928,222.4,211.1,-4.558,-8.074,218.2,-1.934,7.916,5.132,-4.946,-7.547,17,4.539,5.154,4.326,5.061,1.378,1.102,1.138,1.593,17,4.719,5.221,-40,169.773156182,norm,0,65,65,65,328.995,329.003,329.005569818,329.006,329.01,329.016,up,1,1.5684030479,8.4315969521,001,020,800_600,Intel(R) Core(TM) i7-2670QM CPU @ 2.20GHz,orientation_search,GRVLAPTOP3,Intel(R) HD Graphics Family,2018_jul_30_1325,testMonitor,
124.9,131.4,128.8,116.5,36,40,124.9,129.1,114.2,125.1,8.343,7.976,8.001,8.293,7.963,7.759,7.931,4.625,-4.362,-8.411,1.759,-1.962,8.288,4.594,-5.121,-7.881,,113.8,-8.065,130.9,145.7,105.7,123.9,122.9,36,122.0,5,5,prime,10,0,96,norm,36,-4.932,up,norm,125.707998114,130.0,116.0,1.291,137.4,5,138.4,125.2,124.3,10,5,8.066,4.704,1.818,-1.913,-5.014,-8.131,128.1,5,221.7,-7.641,-8.316,40,-7.916,-8.279,-5.105,-5.296,-4.668,-5.202,5.254,8.107,35,-1.938,1.434,5.187,8.3,-7.886,-7.549,-1.161,1.209,121.8,129.9,129.3,131.1,136.8,107.3,116.6,125.3,144.4,126.0,0,norm,1.471,1.995,-1.925,-1.487,-5.119,-4.32,-1.605,-1.867,-1.315,-1.485,1.374,-1.747,114.2,121.7,-5.246,-8.302,135.1,-1.596,7.538,5.03,-4.729,-7.705,18,5.214,4.987,4.456,5.19,1.625,1.968,1.702,1.346,18,4.918,5.034,-60,169.773156182,norm,0,66,66,66,330.595,360.575,360.577650123,360.578,360.582,360.587,up,1,1.54566008979,8.45433991021,001,020,800_600,Intel(R) Core(TM) i7-2670QM CPU @ 2.20GHz,orientation_search,GRVLAPTOP3,Intel(R) HD Graphics Family,2018_jul_30_1325,testMonitor,
135.3,143.1,108.5,121.3,36,40,135.2,114.2,117.5,130.6,8.037,7.557,7.656,8.435,7.88,7.824,7.573,4.907,-5.18,-7.768,1.525,-1.149,7.797,4.332,-5.133,-7.961,109.3,123.7,-7.618,110.1,131.3,105.7,113.7,127.1,36,145.7,2,5,prime,10,0,99,norm,36,-5.234,down,norm,125.707998114,115.2,140.8,1.685,120.1,0,135.8,107.8,,10,5,7.684,5.26,1.244,-1.24,-5.13,-7.679,132.0,5,224.7,-8.088,-7.786,40,-7.871,-8.201,-5.131,-4.623,-4.734,-4.656,5.071,7.558,12,-1.409,1.361,4.421,7.515,-7.646,-7.97,-1.644,1.914,124.9,114.9,112.1,123.7,119.9,109.6,113.3,138.4,124.7,129.3,1,norm,1.675,1.991,-1.655,-1.782,-5.275,-5.229,-1.618,-1.243,-1.676,-1.601,1.512,-1.505,115.7,127.6,-5.1,-8.333,145.0,-1.798,8.411,4.716,-4.793,-7.715,18,4.606,5.281,5.089,4.684,1.201,1.549,1.298,2.066,18,4.497,4.419,-60,169.773156182,norm,0,67,67,67,362.144,362.151,362.15396943,362.154,362.158,362.163,down,1,0.811831848267,9.18816815173,001,020,800_600,Intel(R) Core(TM) i7-2670QM CPU @ 2.20GHz,orientation_search,GRVLAPTOP3,Intel(R) HD Graphics Family,2018_jul_30_1325,testMonitor,
123.3,145.7,129.8,135.6,36,40,126.4,141.3,124.4,126.2,8.154,7.838,8.027,8.184,7.993,8.129,8.491,4.348,-5.232,-7.56,1.264,-1.626,8.474,4.741,-5.293,-7.983,124.8,127.9,-8.125,130.5,142.3,125.6,114.4,117.9,36,122.2,2,5,prime,10,0,78,norm,36,-4.756,down,norm,125.707998114,137.6,131.9,1.73,,2,124.0,133.7,111.7,10,5,7.505,5.226,1.945,-1.524,-4.515,-8.377,138.1,5,203.7,-8.079,-8.478,40,-8.278,-7.526,-4.84,-4.751,-5.211,-4.743,4.392,8.052,14,-1.985,1.291,4.43,7.552,-7.689,-8.068,-1.858,1.31,105.7,142.8,126.1,128.7,120.3,129.3,132.1,127.9,134.0,131.5,2,norm,1.205,1.222,-1.449,-1.185,-4.426,-4.398,-1.271,-1.225,-1.984,-1.205,1.405,-1.34,129.8,132.0,-4.688,-7.535,145.2,-1.291,8.212,4.422,-5.284,-8.274,18,4.737,4.773,4.795,4.489,1.124,1.204,1.762,1.181,18,4.434,4.426,-60,169.773156182,norm,0,68,68,68,362.986,362.994,362.996378778,362.997,363.001,363.006,down,1,1.09482653154,8.90517346846,001,020,800_600,Intel(R) Core(TM) i7-2670QM CPU @ 2.20GHz,orientation_search,GRVLAPTOP3,Intel(R) HD Graphics Family,2018_jul_30_1325,testMonitor,
135.4,105.7,125.5,120.6,36,40,129.2,137.0,132.3,127.4,8.487,8.494,8.193,8.466,7.948,8.145,7.584,4.709,-4.917,-8.229,1.313,-1.542,7.652,4.811,-4.477,-7.772,112.0,109.9,-7.663,,118.5,129.0,130.4,137.5,36,131.0,5,5,prime,10,0,87,norm,36,-4.316,down,norm,125.707998114,129.1,121.8,1.106,128.5,1,107.4,132.0,120.0,10,5,8.17,4.679,1.199,-1.544,-5.232,-8.249,118.3,5,212.7,-8.029,-8.015,40,-7.66,-7.957,-4.681,-4.823,-4.958,-4.682,4.461,8.03,31,-1.696,1.345,4.445,8.463,-7.969,-8.41,-1.975,2.064,142.3,145.7,137.2,115.5,121.5,112.7,117.5,134.1,145.5,113.4,3,norm,1.305,1.231,-1.322,-2.067,-4.642,-4.856,-1.405,-1.633,-1.792,-1.451,1.768,-1.567,129.5,133.4,-4.879,-7.597,133.6,-1.737,8.245,4.331,-4.38,-7.621,18,4.484,5.27,5.033,4.306,1.714,1.178,1.819,1.627,18,5.25,4.694,-60,169.773156182,norm,0,69,69,69,364.112,364.119,364.122003678,364.122,364.126,364.131,down,1,1.3147092142,8.6852907858,001,020,800_600,Intel(R) Core(TM) i7-2670QM CPU @ 2.20GHz,orientation_search,GRVLAPTOP3,Intel(R) HD Graphics Family,2018_jul_30_1325,testMonitor,
129.7,122.6,120.3,125.7,36,40,124.8,129.5,119.2,119.8,7.781,8.169,8.397,7.527,7.883,8.169,7.829,5.265,-4.753,-7.88,2.032,-1.237,8.233,4.521,-5.026,-7.914,,140.3,-8.181,134.4,115.9,128.2,129.6,119.0,36,131.9,5,5,prime,10,0,78,norm,36,-4.92,up,norm,125.707998114,134.7,108.2,2.058,120.1,5,106.6,110.8,122.8,10,5,8.483,4.964,1.158,-1.619,-4.939,-7.52,124.8,5,203.7,-7.607,-8.278,40,-8.493,-7.79,-5.239,-4.545,-4.994,-4.979,5.058,8.098,35,-1.855,1.106,5.206,8.48,-7.715,-8.198,-1.139,1.225,125.5,110.4,115.8,139.8,116.0,139.6,105.7,122.0,106.0,135.5,4,norm,1.791,1.602,-1.81,-1.683,-4.755,-4.813,-1.178,-1.651,-1.343,-2.077,1.923,-2.011,145.7,122.2,-5.268,-7.96,107.9,-1.485,7.614,4.928,-4.861,-7.608,18,4.521,4.857,5.228,5.07,1.346,2.004,1.552,2.017,18,5.198,4.659,-60,169.773156182,norm,0,70,70,70,365.457,365.465,365.467361369,365.468,365.472,365.477,up,1,0.660469418764,9.33953058124,001,020,800_600,Intel(R) Core(TM) i7-2670QM CPU @ 2.20GHz,orientation_search,GRVLAPTOP3,Intel(R) HD Graphics Family,2018_jul_30_1325,testMonitor,
262.2,269.9,262.5,263.7,36,60,260.5,267.4,261.0,263.4,8.469,8.207,7.988,7.96,7.933,7.751,7.508,4.407,-4.743,-8.457,1.267,-1.407,7.994,5.004,-5.243,-8.478,271.9,255.6,-8.077,,261.6,258.5,270.0,265.7,36,259.1,5,5,probe,5,0,93,norm,36,-5.177,down,norm,261.93539953,269.4,263.0,1.633,269.8,1,263.0,256.5,261.3,10,5,8.049,4.697,2.084,-1.8,-4.957,-7.938,259.3,2,168.9,-7.904,-8.063,40,-8.473,-7.818,-4.845,-4.552,-5.268,-4.418,5.01,8.386,31,-1.333,2.053,5.166,7.84,-8.128,-7.987,-1.995,1.902,261.5,264.7,267.6,261.7,263.0,254.2,267.0,259.3,268.7,266.0,0,norm,1.227,2.076,-1.894,-1.479,-4.511,-4.955,-1.917,-1.761,-1.948,-1.893,1.743,-1.3,262.5,251.9,-4.494,-8.23,262.0,-1.118,8.192,4.916,-4.41,-7.564,19,4.941,5.104,4.438,5.246,1.113,1.254,1.872,1.593,19,4.743,4.54,40,125.707998114,norm,0,71,71,71,366.148,366.156,366.158748229,366.159,366.163,366.168,down,1,1.23599864023,8.76400135977,001,020,800_600,Intel(R) Core(TM) i7-2670QM CPU @ 2.20GHz,orientation_search,GRVLAPTOP3,Intel(R) HD Graphics Family,2018_jul_30_1325,testMonitor,
288.8,291.2,290.9,,36,60,281.9,294.9,287.6,280.5,7.528,8.053,8.053,7.792,8.355,7.715,7.627,5.28,-5.101,-7.903,1.232,-1.298,8.347,5.025,-5.178,-8.356,284.9,289.1,-7.82,287.9,282.3,285.0,285.4,285.3,36,274.9,3,5,probe,5,0,116,norm,36,-4.756,up,norm,284.93539953,281.3,282.0,1.685,288.2,3,284.9,284.8,288.6,10,5,8.114,4.532,1.773,-1.388,-4.32,-8.444,285.3,2,168.9,-7.872,-7.768,40,-8.44,-8.351,-5.198,-4.336,-4.312,-4.82,4.41,8.164,21,-1.62,1.748,4.304,8.025,-7.932,-8.133,-1.751,2.087,285.5,293.0,288.8,292.4,284.3,284.2,280.9,285.3,282.2,291.0,1,norm,1.209,1.285,-1.189,-1.871,-5.123,-5.087,-1.604,-1.665,-1.94,-1.489,2.048,-1.326,282.0,289.0,-4.639,-7.757,279.4,-2.021,7.64,4.634,-5.049,-8.234,19,4.356,5.089,4.459,5.257,1.168,1.189,1.252,1.3,19,4.384,4.323,40,125.707998114,norm,0,72,72,72,367.415,367.423,367.425277674,367.426,367.43,367.435,up,1,0.883912153018,9.11608784698,001,020,800_600,Intel(R) Core(TM) i7-2670QM CPU @ 2.20GHz,orientation_search,GRVLAPTOP3,Intel(R) HD Graphics Family,2018_jul_30_1325,testMonitor,
97.0,92.1,91.0,95.5,36,-10,90.5,106.7,95.9,89.0,7.878,8.45,8.266,8.38,8.415,8.105,8.356,4.999,-4.529,-8.216,1.684,-1.161,8.284,4.436,-5.165,-8.425,99.3,98.9,-8.041,109.6,110.2,96.5,110.9,77.8,36,94.5,0,5,prime,10,0,88,norm,36,-5.265,up,norm,97.1517111906,87.3,93.6,1.125,108.0,3,82.6,97.2,117.2,10,5,8.379,4.401,1.226,-1.733,-4.373,-8.012,101.5,5,185.2,-8.018,-7.835,-10,-8.124,-7.728,-4.533,-5.216,-5.097,-5.062,5.207,8.143,3,-1.564,1.206,4.474,8.026,-7.664,-8.401,-1.5,1.597,91.4,98.3,,83.5,91.3,77.2,97.9,92.6,101.0,97.6,0,norm,1.766,1.489,-1.971,-1.336,-4.597,-4.573,-1.685,-1.78,-1.986,-1.784,1.868,-1.847,80.0,82.5,-5.21,-8.173,94.6,-1.38,7.921,4.43,-5.151,-8.492,20,4.938,4.604,4.997,4.947,1.888,1.424,1.294,1.81,20,4.46,4.453,60,125.707998114,norm,0,73,73,73,368.329,368.337,368.339121997,368.34,368.343,368.349,up,1,1.53797917575,8.46202082425,001,020,800_600,Intel(R) Core(TM) i7-2670QM CPU @ 2.20GHz,orientation_search,GRVLAPTOP3,Intel(R) HD Graphics Family,2018_jul_30_1325,testMonitor,
95.7,97.1,96.8,102.4,36,-10,104.7,89.9,94.0,90.0,8.007,8.345,7.68,8.179,8.277,8.049,7.918,5.032,-4.983,-8.153,1.279,-1.825,7.822,5.232,-4.446,-8.257,99.6,117.2,-8.194,108.4,92.0,77.2,94.3,83.6,36,81.8,0,5,prime,10,0,118,norm,36,-4.394,down,norm,97.1517111906,81.9,88.6,1.305,105.4,2,98.9,113.8,106.3,10,5,8.092,4.542,1.89,-1.889,-4.75,-7.739,105.5,5,215.2,-7.703,-7.579,-10,-8.469,-8.138,-5.041,-5.085,-4.564,-4.822,4.392,7.833,2,-1.755,1.772,5.168,7.696,-7.638,-8.41,-1.289,1.271,93.9,91.3,83.3,,101.9,111.4,98.0,78.6,112.7,111.9,1,norm,1.595,1.691,-1.334,-1.539,-4.523,-4.378,-1.361,-1.591,-1.399,-1.519,1.462,-1.582,99.5,86.7,-4.455,-8.116,97.3,-2.049,7.6,5.034,-4.92,-7.906,20,4.406,4.726,4.889,4.774,1.696,1.657,2.021,1.262,20,5.132,4.998,60,125.707998114,norm,0,74,74,74,369.897,369.904,369.906850765,369.907,369.911,369.916,down,1,0.827812389391,9.17218761061,001,020,800_600,Intel(R) Core(TM) i7-2670QM CPU @ 2.20GHz,orientation_search,GRVLAPTOP3,Intel(R) HD Graphics Family,2018_jul_30_1325,testMonitor,
109.5,77.2,100.2,99.2,36,-10,,117.2,106.7,104.5,7.631,7.606,7.874,7.887,8.196,8.267,7.96,4.983,-4.352,-8.496,1.405,-1.454,8.258,4.314,-5.297,-8.489,94.9,99.5,-7.527,94.2,95.7,90.6,100.0,85.0,36,92.6,4,5,prime,10,0,92,norm,36,-4.83,down,norm,97.1517111906,95.7,85.8,1.729,95.7,0,99.1,92.8,79.6,10,5,8.098,4.716,1.805,-1.831,-4.769,-7.98,100.2,5,189.2,-7.873,-8.313,-10,-7.638,-8.125,-4.832,-4.498,-5.081,-5.2,4.545,7.829,24,-1.425,1.95,4.847,8.465,-8.13,-8.279,-1.661,1.362,102.2,80.0,108.7,96.1,109.4,96.1,99.3,95.8,91.5,93.7,2,norm,1.53,1.395,-1.897,-1.698,-4.859,-4.985,-1.938,-1.182,-1.383,-1.652,1.861,-1.378,97.4,108.8,-4.434,-7.689,84.9,-2.041,8.308,4.875,-5.243,-7.669,20,4.97,4.859,4.489,4.406,1.675,1.71,1.28,1.454,20,4.709,4.783,60,125.707998114,norm,0,75,75,75,370.755,370.762,370.765168743,370.766,370.77,370.775,up,0,1.40023357002,-10,001,020,800_600,Intel(R) Core(TM) i7-2670QM CPU @ 2.20GHz,orientation_search,GRVLAPTOP3,Intel(R) HD Graphics Family,2018_jul_30_1325,testMonitor,
112.4,113.8,77.2,,36,-10,99.6,84.4,79.9,105.5,8.437,7.777,8.359,8.162,7.679,7.722,7.521,4.656,-5.03,-8.029,1.706,-1.181,7.687,5.135,-4.844,-7.846,90.1,93.6,-7.964,78.5,102.9,97.9,96.2,85.0,36,83.5,3,5,prime,10,0,98,norm,36,-4.515,up,norm,97.1517111906,90.3,86.7,1.443,97.7,3,93.0,109.6,92.2,10,5,7.558,4.314,1.941,-2.065,-4.385,-7.852,86.7,5,195.2,-8.401,-7.502,-10,-8.235,-8.0,-5.076,-4.45,-4.444,-5.133,4.799,8.243,21,-1.564,1.993,5.166,8.284,-7.702,-7.686,-1.528,2.052,90.6,117.2,110.8,89.8,113.0,109.2,91.3,105.3,91.3,95.4,3,norm,1.587,1.95,-1.628,-1.142,-4.766,-4.483,-2.064,-2.051,-1.485,-1.267,1.349,-1.868,88.5,99.3,-4.939,-7.628,91.7,-1.572,8.419,5.133,-5.161,-8.123,20,4.731,5.299,4.374,4.609,1.266,1.767,1.682,1.398,20,4.8,4.419,60,125.707998114,norm,0,76,76,76,373.19,373.197,373.19960337,373.2,373.204,373.209,up,1,0.905838409893,9.09416159011,001,020,800_600,Intel(R) Core(TM) i7-2670QM CPU @ 2.20GHz,orientation_search,GRVLAPTOP3,Intel(R) HD Graphics Family,2018_jul_30_1325,testMonitor,
79.7,84.7,108.7,92.8,36,-10,117.2,91.7,92.8,96.0,7.849,8.435,7.586,7.711,7.756,8.478,8.063,5.08,-4.712,-8.112,1.825,-1.553,8.398,4.519,-5.034,-8.274,95.2,103.4,-8.462,96.5,89.1,107.9,97.8,86.1,36,92.0,2,5,prime,10,0,79,norm,36,-5.239,up,norm,97.1517111906,96.8,107.9,1.27,101.7,3,84.1,102.3,97.9,10,5,8.108,4.763,1.345,-1.713,-4.729,-8.258,96.5,5,176.2,-7.923,-7.627,-10,-8.342,-7.712,-5.02,-4.68,-5.134,-4.638,4.501,8.345,15,-1.514,2.06,4.697,8.118,-8.475,-7.547,-1.801,1.247,108.2,89.5,85.1,108.9,81.1,109.6,77.2,116.0,100.4,87.2,4,norm,1.893,1.299,-1.506,-1.435,-5.006,-4.839,-1.464,-1.763,-1.164,-2.054,1.131,-1.715,102.9,93.6,-4.929,-8.436,,-1.529,7.758,4.51,-4.888,-7.667,20,4.613,4.744,4.746,5.231,1.43,1.866,1.285,1.897,20,5.012,4.86,60,125.707998114,norm,0,77,77,77,374.125,374.133,374.135231529,374.136,374.139,374.144,up,1,2.3551501675,7.6448498325,001,020,800_600,Intel(R) Core(TM) i7-2670QM CPU @ 2.20GHz,orientation_search,GRVLAPTOP3,Intel(R) HD Graphics Family,2018_jul_30_1325,testMonitor,
196.6,194.4,196.2,186.8,36,80,200.1,194.3,193.9,196.1,8.445,8.061,7.781,7.715,7.937,8.151,8.293,5.139,-4.485,-7.656,1.383,-1.907,7.627,5.041,-4.304,-8.08,206.0,,-8.15,197.2,202.1,201.7,199.3,202.1,36,202.1,5,5,probe,5,0,106,norm,36,-4.491,up,norm,196.771556742,195.5,200.1,1.478,194.3,4,190.3,194.2,192.4,10,5,8.085,4.863,1.167,-1.175,-4.968,-8.264,198.2,1,90.8,-7.542,-8.394,-10,-7.821,-8.071,-4.728,-4.936,-5.087,-4.509,5.168,8.212,34,-1.706,2.015,4.833,7.805,-7.914,-8.115,-1.198,1.823,194.8,203.6,197.5,190.3,201.6,200.6,206.6,200.6,198.5,206.8,0,norm,1.897,1.929,-1.511,-1.563,-4.319,-5.156,-1.986,-1.764,-2.036,-2.064,1.518,-1.645,190.2,196.6,-5.199,-7.873,199.8,-1.801,7.6,4.388,-5.162,-7.555,21,4.316,4.363,4.529,4.301,1.685,1.159,1.195,1.806,21,5.125,5.246,-10,97.1517111906,norm,0,78,78,78,376.51,376.518,376.520194327,376.521,376.525,376.53,up,1,2.28019903415,7.71980096585,001,020,800_600,Intel(R) Core(TM) i7-2670QM CPU @ 2.20GHz,orientation_search,GRVLAPTOP3,Intel(R) HD Graphics Family,2018_jul_30_1325,testMonitor,
24.7,38.3,30.1,6.7,36,20,28.9,34.1,28.9,27.1,8.06,7.539,8.07,8.036,7.733,7.742,7.797,4.747,-4.627,-8.138,2.067,-1.709,8.254,4.462,-4.316,-8.158,25.7,2.5,-8.466,23.9,10.3,9.9,16.0,28.2,36,12.0,2,5,prime,10,0,67,norm,36,-4.519,down,norm,22.5398740017,31.2,11.7,1.993,,2,28.0,15.4,28.4,10,5,8.082,4.753,1.233,-1.947,-4.837,-8.413,13.3,5,89.5,-7.659,-7.772,20,-8.401,-7.568,-4.533,-4.464,-4.716,-5.282,4.426,8.277,14,-1.725,1.81,4.567,7.516,-7.58,-7.648,-1.963,1.707,27.3,42.5,25.5,13.6,7.6,19.5,27.8,20.0,17.4,25.9,0,norm,1.854,1.711,-1.832,-1.863,-4.654,-4.676,-1.5,-2.087,-1.982,-2.056,1.312,-1.112,11.8,39.4,-5.018,-7.846,3.6,-1.91,8.203,4.33,-4.464,-7.976,22,5.161,4.731,5.223,4.945,1.758,1.215,1.518,1.955,22,4.658,4.627,80,97.1517111906,norm,0,79,79,79,378.821,378.828,378.830854123,378.831,378.835,378.84,down,1,1.20716567782,8.79283432218,001,020,800_600,Intel(R) Core(TM) i7-2670QM CPU @ 2.20GHz,orientation_search,GRVLAPTOP3,Intel(R) HD Graphics Family,2018_jul_30_1325,testMonitor,
26.9,38.5,19.0,26.0,36,20,10.9,22.9,27.6,22.4,7.849,8.144,8.469,7.528,8.372,7.618,8.415,4.929,-5.17,-7.526,1.654,-1.574,7.618,5.296,-4.773,-7.617,30.3,21.3,-7.941,34.7,13.4,4.1,,16.4,36,18.6,5,5,prime,10,0,78,norm,36,-4.754,down,norm,22.5398740017,15.5,15.4,1.882,35.4,2,21.1,2.5,34.3,10,5,8.373,4.885,1.203,-1.899,-5.053,-8.407,11.5,5,100.5,-7.801,-7.58,20,-8.141,-7.507,-5.235,-4.372,-5.171,-5.03,4.942,7.934,32,-1.517,2.053,4.801,7.866,-8.049,-7.655,-2.077,1.887,24.7,17.7,21.8,26.8,28.4,10.9,20.6,30.7,14.7,19.0,1,norm,1.271,1.65,-1.764,-1.767,-4.687,-4.88,-1.388,-1.236,-1.639,-1.367,1.757,-1.738,26.9,34.1,-4.903,-7.526,42.5,-1.914,8.311,4.801,-5.184,-8.437,22,4.392,4.307,4.966,4.908,1.345,1.716,1.143,1.955,22,5.22,4.834,80,97.1517111906,norm,0,80,80,80,380.058,380.066,380.068078048,380.069,380.072,380.077,down,1,1.7360518729,8.2639481271,001,020,800_600,Intel(R) Core(TM) i7-2670QM CPU @ 2.20GHz,orientation_search,GRVLAPTOP3,Intel(R) HD Graphics Family,2018_jul_30_1325,testMonitor,
39.2,,16.2,13.6,36,20,17.7,18.5,23.7,3.1,8.307,8.489,7.778,8.035,7.676,7.929,8.23,4.576,-5.121,-7.987,1.292,-1.738,7.788,4.857,-4.541,-7.787,12.3,29.9,-7.912,28.0,12.9,42.5,33.6,23.1,36,21.1,3,5,prime,10,0,99,norm,36,-5.187,up,norm,22.5398740017,7.8,19.6,1.866,11.2,5,2.5,5.4,32.7,10,5,8.374,4.603,1.699,-2.004,-5.133,-7.982,11.6,5,121.5,-8.465,-8.201,20,-7.683,-8.23,-4.355,-4.986,-4.434,-5.143,4.63,8.472,23,-2.069,2.045,5.022,8.462,-7.546,-8.464,-1.688,1.406,41.5,8.5,25.7,29.3,24.5,32.7,12.1,20.7,22.3,24.5,2,norm,1.645,1.393,-1.234,-2.02,-4.729,-5.191,-1.815,-1.145,-1.451,-1.279,1.673,-1.567,21.8,31.5,-4.434,-8.324,14.6,-1.98,7.802,4.658,-5.101,-7.759,22,4.458,4.511,4.634,4.883,2.087,1.443,1.825,1.169,22,4.749,5.224,80,97.1517111906,norm,0,81,81,81,381.824,381.832,381.834177429,381.835,381.838,381.843,up,1,0.835191184671,9.16480881533,001,020,800_600,Intel(R) Core(TM) i7-2670QM CPU @ 2.20GHz,orientation_search,GRVLAPTOP3,Intel(R) HD Graphics Family,2018_jul_30_1325,testMonitor,
16.7,27.2,36.8,32.0,36,20,9.6,2.5,22.5,38.6,7.831,8.201,8.032,8.026,7.506,8.386,8.307,5.171,-4.827,-8.373,1.584,-2.076,7.782,4.513,-5.01,-8.151,13.0,38.3,-7.884,19.1,29.4,21.9,23.0,31.1,36,22.5,1,5,prime,10,0,61,norm,36,-4.817,down,norm,22.5398740017,20.0,8.9,1.179,31.8,1,38.2,28.0,6.7,10,5,7.721,5.287,1.122,-1.797,-5.132,-7.781,22.1,5,83.5,-8.322,-7.803,20,-7.514,-8.496,-4.626,-4.808,-4.987,-4.407,4.824,7.753,7,-1.31,1.618,4.616,7.72,-7.793,-7.554,-1.493,1.365,29.6,5.6,14.0,16.7,29.5,28.6,,12.0,42.5,27.3,3,norm,1.421,1.645,-1.926,-1.882,-4.455,-4.606,-1.349,-1.454,-1.739,-1.758,1.549,-1.828,7.1,24.0,-4.669,-7.566,27.4,-1.938,8.369,5.25,-4.631,-8.314,22,5.032,4.891,4.313,5.156,1.33,1.145,1.234,1.648,22,4.587,4.917,80,97.1517111906,norm,0,82,82,82,382.69,382.697,382.699513715,382.7,382.704,382.709,down,1,0.87625785532,9.12374214468,001,020,800_600,Intel(R) Core(TM) i7-2670QM CPU @ 2.20GHz,orientation_search,GRVLAPTOP3,Intel(R) HD Graphics Family,2018_jul_30_1325,testMonitor,
25.3,9.0,31.6,32.5,36,20,25.4,24.4,26.3,6.5,7.654,7.774,7.594,8.073,7.592,7.913,7.974,4.427,-4.326,-8.483,1.454,-1.93,7.689,4.467,-4.463,-8.34,32.4,28.4,-8.312,32.4,15.7,22.8,31.0,17.0,36,2.5,3,5,prime,10,0,74,norm,36,-4.346,down,norm,22.5398740017,23.8,24.4,1.166,25.6,0,33.1,13.0,29.8,10,5,7.964,4.422,1.905,-2.06,-4.94,-7.89,15.3,5,96.5,-7.784,-7.805,20,-7.51,-8.289,-4.964,-5.061,-4.839,-5.173,5.206,7.969,18,-1.119,1.264,4.63,8.056,-7.842,-8.489,-1.55,1.143,4.5,42.5,21.3,18.8,27.3,18.0,19.2,18.6,20.7,11.0,4,norm,1.863,1.766,-2.08,-1.661,-4.878,-4.354,-1.172,-1.8,-1.697,-1.755,1.977,-1.563,12.1,,-4.75,-8.14,12.8,-1.923,7.648,4.378,-4.406,-8.011,22,5.21,4.944,5.225,4.642,1.47,1.891,1.117,1.133,22,5.142,5.225,80,97.1517111906,norm,0,83,83,83,383.596,383.603,383.605997921,383.606,383.61,383.616,down,1,1.44656560553,8.55343439447,001,020,800_600,Intel(R) Core(TM) i7-2670QM CPU @ 2.20GHz,orientation_search,GRVLAPTOP3,Intel(R) HD Graphics Family,2018_jul_30_1325,testMonitor,
124.6,122.9,114.8,121.8,36,30,114.9,123.9,119.8,122.7,7.675,7.64,7.514,8.083,7.582,7.71,7.501,5.076,-4.427,-7.609,1.136,-1.633,8.217,4.704,-4.569,-7.82,121.1,124.2,-8.453,120.4,128.6,115.6,115.6,117.1,36,122.0,2,5,probe,5,0,79,norm,36,-5.268,up,norm,120.543207631,117.1,120.2,1.42,119.4,3,119.5,116.1,119.4,10,5,8.482,5.262,1.924,-1.314,-4.848,-7.969,116.9,2,41.5,-7.815,-7.823,20,-7.687,-7.556,-5.164,-5.092,-4.859,-4.763,4.867,7.544,15,-1.503,1.136,5.108,7.827,-8.448,-7.722,-2.097,1.22,116.6,119.7,122.8,124.4,119.3,127.3,127.8,110.5,113.1,130.5,0,norm,1.315,1.741,-1.372,-1.405,-5.051,-4.33,-1.518,-1.435,-1.119,-1.168,1.496,-2.078,119.7,124.7,-4.841,-8.112,,-2.021,7.874,4.894,-5.156,-7.708,23,4.989,4.672,4.392,4.905,1.711,2.017,1.961,1.872,23,4.686,5.207,20,22.5398740017,norm,0,84,84,84,385.073,385.08,385.082629713,385.083,385.087,385.092,up,1,1.21921914209,8.78078085791,001,020,800_600,Intel(R) Core(TM) i7-2670QM CPU @ 2.20GHz,orientation_search,GRVLAPTOP3,Intel(R) HD Graphics Family,2018_jul_30_1325,testMonitor,
157.8,159.1,147.7,154.8,36,30,157.8,156.4,149.6,156.5,7.56,7.993,7.529,8.297,7.757,7.714,8.459,4.722,-4.476,-7.622,1.34,-1.934,8.163,5.287,-4.383,-7.788,159.9,164.5,-8.194,160.9,152.4,155.8,152.3,161.7,36,150.9,1,5,probe,5,0,114,norm,36,-5.191,up,norm,155.543207631,158.2,155.6,1.347,160.0,5,,153.1,154.4,10,5,8.034,4.384,1.22,-1.249,-5.056,-8.381,152.1,2,41.5,-8.136,-8.061,20,-8.383,-7.879,-4.809,-4.388,-4.993,-4.457,5.273,7.558,11,-2.062,1.997,4.611,7.696,-8.393,-8.365,-1.287,1.45,158.3,160.1,153.9,162.7,145.5,149.6,165.5,153.7,151.5,152.4,1,norm,1.592,1.2,-1.362,-1.726,-4.375,-5.051,-1.133,-2.071,-1.289,-1.117,1.133,-2.003,151.6,160.1,-4.565,-8.118,157.3,-1.343,8.118,4.718,-4.701,-7.617,23,5.278,5.278,4.395,5.141,2.0,1.249,1.246,1.619,23,4.784,4.491,20,22.5398740017,norm,0,85,85,85,386.322,386.329,386.331975745,386.332,386.336,386.341,up,1,1.00967433746,8.99032566254,001,020,800_600,Intel(R) Core(TM) i7-2670QM CPU @ 2.20GHz,orientation_search,GRVLAPTOP3,Intel(R) HD Graphics Family,2018_jul_30_1325,testMonitor,
308.6,324.5,324.4,327.5,36,10,336.4,322.2,326.4,328.2,8.418,7.577,7.969,7.67,7.922,8.451,7.831,5.156,-5.088,-7.874,1.35,-1.452,7.558,4.428,-4.948,-8.15,336.6,328.8,-8.486,315.7,329.4,321.4,339.1,340.6,36,324.8,1,5,prime,10,0,103,norm,36,-4.538,down,norm,328.589643313,312.7,331.3,2.052,326.0,2,323.3,336.6,334.7,10,5,8.098,4.802,1.771,-1.131,-4.893,-8.403,316.2,5,431.6,-8.232,-8.465,10,-8.0,-7.736,-5.103,-4.798,-4.613,-5.283,4.886,7.858,8,-1.405,2.068,4.399,8.026,-7.618,-7.849,-1.697,1.95,326.3,,325.2,338.5,338.5,340.7,348.4,348.6,329.7,335.7,0,norm,1.723,1.732,-1.352,-1.59,-5.055,-5.155,-1.407,-1.652,-1.867,-2.057,1.211,-1.73,320.7,322.0,-4.434,-7.984,315.5,-1.917,8.326,5.161,-4.918,-7.543,24,5.285,4.947,4.739,4.651,1.314,2.096,1.919,1.88,24,4.779,4.994,30,22.5398740017,norm,0,86,86,86,387.362,387.369,387.371914256,387.372,387.376,387.382,down,1,0.829449994444,9.17055000556,001,020,800_600,Intel(R) Core(TM) i7-2670QM CPU @ 2.20GHz,orientation_search,GRVLAPTOP3,Intel(R) HD Graphics Family,2018_jul_30_1325,testMonitor,
339.4,,335.7,343.0,36,10,338.5,329.0,337.0,338.3,7.968,8.274,7.815,7.907,8.414,7.777,7.511,5.21,-4.325,-7.991,1.469,-1.758,7.927,4.462,-5.275,-8.445,341.6,309.2,-7.794,345.4,328.7,323.1,343.4,329.1,36,334.3,3,5,prime,10,0,88,norm,36,-4.491,up,norm,328.589643313,338.7,327.5,1.974,333.8,5,330.6,328.2,329.2,10,5,7.675,4.557,2.078,-1.571,-4.883,-8.077,322.3,5,416.6,-7.758,-7.963,10,-8.348,-8.119,-5.195,-4.537,-5.04,-4.681,5.062,7.745,23,-1.689,1.689,4.616,8.28,-7.676,-8.071,-2.064,1.157,308.6,323.2,331.5,339.5,339.9,322.6,337.8,344.3,337.3,348.6,1,norm,1.105,1.823,-1.811,-1.129,-5.198,-4.345,-1.864,-1.525,-1.168,-1.468,1.965,-1.683,318.2,343.5,-5.098,-8.498,310.6,-1.937,8.421,5.124,-4.875,-8.264,24,4.753,4.852,4.918,4.32,1.205,1.81,1.116,1.875,24,4.541,4.534,30,22.5398740017,norm,0,87,87,87,388.221,388.23,388.232976986,388.233,388.238,388.243,up,1,0.847000899352,9.15299910065,001,020,800_600,Intel(R) Core(TM) i7-2670QM CPU @ 2.20GHz,orientation_search,GRVLAPTOP3,Intel(R) HD Graphics Family,2018_jul_30_1325,testMonitor,
336.7,334.1,324.4,325.2,36,10,324.3,330.6,322.4,344.0,8.156,8.087,7.68,8.026,8.205,8.489,8.072,5.229,-4.867,-7.603,1.821,-1.575,8.392,5.033,-4.403,-7.9,330.3,329.5,-7.89,317.9,313.4,320.9,336.3,327.0,36,327.9,1,5,prime,10,0,65,norm,36,-4.415,up,norm,328.589643313,335.1,331.4,1.183,336.5,4,331.6,348.6,308.6,10,5,8.444,5.128,1.378,-1.317,-4.74,-8.483,,5,393.6,-8.141,-8.388,10,-7.888,-7.711,-4.378,-4.991,-5.271,-5.015,4.338,8.257,10,-1.852,1.857,4.88,8.1,-7.979,-8.138,-1.279,1.867,338.8,333.0,335.4,322.0,327.6,328.7,335.3,316.4,336.0,324.7,2,norm,1.791,1.151,-2.095,-1.291,-4.69,-5.215,-1.148,-1.763,-1.507,-1.555,1.873,-1.676,322.7,323.9,-4.579,-8.234,331.5,-1.66,8.33,5.027,-4.824,-8.38,24,5.203,4.677,4.32,4.452,1.892,1.192,1.457,2.095,24,5.064,5.176,30,22.5398740017,norm,0,88,88,88,389.1,389.109,389.111190441,389.112,389.116,389.121,up,1,1.21332712597,8.78667287403,001,020,800_600,Intel(R) Core(TM) i7-2670QM CPU @ 2.20GHz,orientation_search,GRVLAPTOP3,Intel(R) HD Graphics Family,2018_jul_30_1325,testMonitor,
327.0,340.2,342.9,,36,10,322.2,333.3,308.6,332.5,7.704,7.657,7.655,7.745,7.671,8.226,7.744,4.873,-4.732,-8.188,2.082,-1.507,7.573,4.592,-5.25,-7.935,324.2,317.4,-7.838,334.0,334.0,317.7,337.7,315.0,36,329.6,3,5,prime,10,0,113,norm,36,-4.486,up,norm,328.589643313,318.5,322.2,1.721,328.0,3,331.2,339.1,335.9,10,5,8.315,4.652,1.211,-1.358,-4.399,-8.401,343.4,5,441.6,-8.255,-8.087,10,-8.217,-8.215,-5.201,-4.526,-5.165,-5.257,4.608,8.353,21,-1.822,1.882,4.319,7.925,-8.426,-7.785,-2.065,2.089,338.1,335.1,321.2,331.3,334.1,312.9,311.7,322.3,320.0,331.7,3,norm,1.818,2.003,-1.776,-1.39,-4.671,-4.371,-1.919,-1.906,-1.126,-1.477,1.393,-1.441,348.6,337.3,-5.161,-7.552,330.9,-1.832,7.66,4.676,-4.948,-8.029,24,4.821,4.328,4.74,4.543,1.383,1.811,1.448,1.233,24,4.312,4.328,30,22.5398740017,norm,0,89,89,89,390.345,390.352,390.354335334,390.355,390.359,390.364,up,1,1.2661815645,8.7338184355,001,020,800_600,Intel(R) Core(TM) i7-2670QM CPU @ 2.20GHz,orientation_search,GRVLAPTOP3,Intel(R) HD Graphics Family,2018_jul_30_1325,testMonitor,
336.0,309.6,348.4,327.1,36,10,326.8,330.3,314.8,320.4,8.186,7.925,7.752,8.189,8.221,8.064,7.976,4.759,-4.479,-7.656,1.321,-1.795,8.172,4.374,-5.048,-7.621,323.7,332.3,-8.013,333.7,,318.8,324.5,325.3,36,332.7,5,5,prime,10,0,91,norm,36,-4.854,down,norm,328.589643313,339.2,333.9,1.559,329.0,0,308.6,330.5,327.8,10,5,8.437,4.999,1.859,-1.165,-4.321,-8.455,339.4,5,419.6,-7.79,-7.656,10,-7.587,-8.228,-4.622,-4.831,-4.943,-5.041,4.448,7.512,30,-1.333,1.443,4.327,7.613,-7.892,-7.7,-1.692,1.116,342.9,316.9,348.6,321.8,332.4,323.5,331.9,323.0,336.1,334.6,4,norm,1.555,1.129,-1.388,-1.266,-4.702,-4.364,-1.886,-1.825,-1.922,-1.287,2.073,-1.423,338.2,315.1,-4.779,-7.827,319.4,-1.814,8.438,4.595,-4.42,-7.94,24,5.219,5.035,5.295,4.523,1.105,1.999,1.477,1.764,24,4.491,4.76,30,22.5398740017,norm,0,90,90,90,391.64,391.648,391.650576547,391.651,391.655,391.66,down,1,0.920779980032,9.07922001997,001,020,800_600,Intel(R) Core(TM) i7-2670QM CPU @ 2.20GHz,orientation_search,GRVLAPTOP3,Intel(R) HD Graphics Family,2018_jul_30_1325,testMonitor,
426.0,415.8,421.7,417.3,36,-80,425.6,416.6,428.3,426.6,8.364,8.093,7.695,7.811,7.823,7.875,7.806,5.235,-4.861,-7.521,1.605,-1.146,8.007,4.91,-5.125,-7.951,432.5,426.3,-8.403,420.9,418.2,423.6,424.4,421.3,36,412.5,0,5,probe,5,0,83,norm,36,-4.655,up,norm,422.530809957,423.4,423.4,1.159,417.5,3,419.5,414.7,421.4,10,5,7.998,4.567,1.131,-1.449,-4.302,-7.823,418.9,2,339.5,-8.274,-8.247,10,-8.103,-7.897,-5.108,-5.064,-4.517,-5.041,5.265,8.054,3,-1.121,1.309,4.752,7.561,-7.932,-7.959,-1.444,1.445,430.6,419.2,,421.9,417.2,431.6,422.4,417.2,419.3,419.5,0,norm,1.547,1.539,-2.037,-1.51,-4.566,-4.587,-1.784,-1.905,-1.64,-1.761,1.524,-1.273,429.6,432.5,-4.641,-7.754,426.0,-1.937,8.166,4.665,-4.713,-7.878,25,5.042,4.682,4.718,4.744,1.236,1.229,1.66,2.007,25,4.328,4.425,10,328.589643313,norm,0,91,91,91,392.592,392.599,392.601603424,392.602,392.606,392.611,up,1,1.0742773198,8.9257226802,001,020,800_600,Intel(R) Core(TM) i7-2670QM CPU @ 2.20GHz,orientation_search,GRVLAPTOP3,Intel(R) HD Graphics Family,2018_jul_30_1325,testMonitor,
441.8,439.6,442.2,,36,-80,440.5,444.1,451.0,438.4,8.15,7.664,8.255,7.771,8.393,8.352,7.725,4.923,-5.082,-8.216,2.068,-1.308,8.401,4.668,-5.212,-8.126,441.7,437.9,-8.381,442.1,450.3,444.0,451.2,449.0,36,452.2,3,5,probe,5,0,104,norm,36,-5.184,up,norm,443.530809957,441.7,433.5,1.429,440.6,3,442.3,435.1,446.6,10,5,7.749,4.718,1.523,-1.346,-4.92,-7.991,448.8,2,339.5,-7.705,-7.887,10,-7.949,-7.893,-4.341,-5.025,-4.441,-5.258,4.726,7.56,21,-1.371,1.375,5.096,7.895,-8.451,-8.278,-1.262,1.992,443.1,445.1,442.8,440.7,448.9,446.6,447.8,449.9,439.7,446.5,1,norm,1.32,1.958,-1.896,-2.034,-4.395,-4.369,-1.255,-2.044,-1.719,-1.158,2.035,-1.675,438.5,449.3,-4.707,-8.197,453.5,-1.264,7.757,4.765,-4.617,-8.398,25,4.502,4.554,5.159,4.992,1.561,1.245,1.213,1.863,25,5.277,4.681,10,328.589643313,norm,0,92,92,92,393.696,393.704,393.706341505,393.707,393.711,393.716,up,1,1.33661912771,8.66338087229,001,020,800_600,Intel(R) Core(TM) i7-2670QM CPU @ 2.20GHz,orientation_search,GRVLAPTOP3,Intel(R) HD Graphics Family,2018_jul_30_1325,testMonitor,
342.8,340.8,333.5,,36,-80,345.2,349.1,356.3,366.5,7.939,7.582,8.234,8.08,8.399,8.271,7.777,4.848,-4.401,-7.745,1.977,-2.031,8.012,4.418,-5.147,-8.285,341.6,360.3,-7.761,333.8,348.0,329.9,333.6,341.8,36,367.0,3,5,prime,10,0,79,norm,36,-4.825,up,norm,347.356905099,336.2,349.1,1.72,346.4,3,327.4,349.9,350.3,10,6,7.833,5.14,1.578,-1.561,-4.306,-8.081,346.6,6,426.4,-7.807,-7.706,-80,-7.679,-8.324,-4.483,-4.752,-5.285,-4.739,4.69,8.297,21,-1.97,2.054,5.131,8.271,-7.581,-7.535,-1.557,1.415,360.7,351.6,345.9,350.0,366.7,349.6,330.7,353.4,344.6,352.2,0,norm,1.242,1.306,-1.245,-2.077,-5.267,-5.0,-1.471,-1.748,-1.796,-1.562,1.339,-1.541,361.7,367.4,-4.855,-8.128,345.6,-1.433,7.942,4.414,-4.817,-8.171,26,4.688,4.303,5.237,4.689,1.946,1.478,1.347,1.715,26,4.356,4.361,-80,328.589643313,norm,0,93,93,93,395.063,395.071,395.073567551,395.074,395.078,395.083,up,1,2.04037838156,7.95962161844,001,020,800_600,Intel(R) Core(TM) i7-2670QM CPU @ 2.20GHz,orientation_search,GRVLAPTOP3,Intel(R) HD Graphics Family,2018_jul_30_1325,testMonitor,
355.6,353.8,347.8,338.7,36,-80,367.4,348.9,332.2,351.8,8.455,8.338,7.633,8.353,7.831,8.292,7.632,4.692,-5.298,-8.472,1.686,-1.393,8.248,5.095,-4.8,-8.279,350.1,347.5,-8.422,338.7,332.1,367.0,355.9,332.6,36,355.7,2,5,prime,10,0,111,norm,36,-4.936,down,norm,347.356905099,352.9,356.2,1.849,348.3,0,351.2,347.8,,10,6,7.608,4.816,2.033,-1.61,-4.689,-8.411,363.1,6,458.4,-7.968,-7.834,-80,-8.041,-7.832,-4.381,-4.972,-5.074,-4.765,5.286,7.701,12,-2.017,1.766,5.285,8.187,-7.561,-8.382,-1.636,2.099,330.0,359.1,338.9,354.5,340.2,347.4,339.0,345.3,327.4,338.8,1,norm,1.744,1.466,-1.424,-1.943,-5.062,-5.256,-1.684,-1.604,-2.006,-1.621,1.502,-1.277,343.9,345.4,-4.366,-8.034,342.2,-1.201,7.539,4.473,-4.996,-8.243,26,4.788,4.49,4.794,4.641,1.397,1.391,1.402,1.234,26,4.94,4.522,-80,328.589643313,norm,0,94,94,94,397.134,397.142,397.144371205,397.145,397.149,397.154,down,1,2.20043921623,7.79956078377,001,020,800_600,Intel(R) Core(TM) i7-2670QM CPU @ 2.20GHz,orientation_search,GRVLAPTOP3,Intel(R) HD Graphics Family,2018_jul_30_1325,testMonitor,
347.9,342.3,340.9,327.4,36,-80,331.0,367.1,361.0,356.4,7.547,8.16,8.047,8.034,8.44,7.596,8.089,5.128,-4.404,-7.562,1.406,-1.132,7.835,4.322,-4.621,-8.153,338.9,,-8.277,342.4,344.3,356.8,354.9,353.6,36,355.8,5,5,prime,10,0,102,norm,36,-4.781,up,norm,347.356905099,365.0,351.7,1.826,340.9,4,348.1,349.8,351.0,10,6,7.761,4.783,1.342,-1.112,-4.55,-8.369,340.2,6,449.4,-8.12,-8.114,-80,-7.734,-8.434,-4.325,-4.966,-4.999,-4.712,4.786,8.485,34,-1.289,1.691,4.423,7.961,-7.522,-8.359,-1.298,1.329,340.1,332.1,338.4,330.6,343.7,338.5,350.9,367.4,340.1,335.2,2,norm,1.588,1.299,-1.766,-1.871,-4.591,-5.064,-1.699,-1.943,-1.31,-1.564,1.319,-1.859,344.4,336.7,-5.097,-7.921,348.2,-1.655,7.706,4.713,-5.097,-8.06,26,5.123,4.526,4.586,4.691,1.615,1.397,2.084,2.027,26,4.338,4.311,-80,328.589643313,norm,0,95,95,95,399.366,399.373,399.375874954,399.376,399.38,399.385,down,0,1.53689771202,-10,001,020,800_600,Intel(R) Core(TM) i7-2670QM CPU @ 2.20GHz,orientation_search,GRVLAPTOP3,Intel(R) HD Graphics Family,2018_jul_30_1325,testMonitor,
