d_ori_22,d_ori_23,d_ori_20,d_ori_21,set_size,ctpd,d_ori_24,d_ori_25,d_ori_28,d_ori_29,stim_pos_x_30,stim_pos_x_31,stim_pos_x_32,stim_pos_x_33,stim_pos_x_34,stim_pos_x_35,stim_pos_y_11,stim_pos_y_10,stim_pos_y_13,stim_pos_y_12,stim_pos_y_15,stim_pos_y_14,stim_pos_y_17,stim_pos_y_16,stim_pos_y_19,stim_pos_y_18,d_ori_35,d_ori_34,stim_pos_x_3,d_ori_31,d_ori_30,d_ori_33,d_ori_32,d_ori_26,test_set_size,d_ori_27,targetCol,dsd_test,seq_type,dsd,blockRepN,targetDist,dtype_test,prime_set_size,stim_pos_y_25,correctResponse,dtype,distrMean,d_ori_17,d_ori_16,stim_pos_y_3,d_ori_14,targetRow,d_ori_11,d_ori_13,d_ori_12,dsd_prime,streak_length_prime,stim_pos_y_35,stim_pos_y_34,stim_pos_y_33,stim_pos_y_32,stim_pos_y_31,stim_pos_y_30,d_ori_10,nextProbe,targetOri,stim_pos_x_1,stim_pos_x_2,ctpd_prime,stim_pos_x_4,stim_pos_x_5,stim_pos_x_6,stim_pos_x_7,stim_pos_x_8,stim_pos_x_9,stim_pos_y_28,stim_pos_y_29,targetPos,stim_pos_y_20,stim_pos_y_21,stim_pos_y_22,stim_pos_y_23,stim_pos_y_24,stim_pos_x_0,stim_pos_y_26,stim_pos_y_27,d_ori_9,d_ori_8,d_ori_3,d_ori_2,d_ori_1,d_ori_0,d_ori_7,d_ori_6,d_ori_5,d_ori_4,trialN,dtype_prime,stim_pos_x_18,stim_pos_x_19,stim_pos_x_12,stim_pos_x_13,stim_pos_x_10,stim_pos_x_11,stim_pos_x_16,stim_pos_x_17,stim_pos_x_14,stim_pos_x_15,stim_pos_y_9,stim_pos_y_8,d_ori_19,d_ori_18,stim_pos_y_1,stim_pos_y_0,d_ori_15,stim_pos_y_2,stim_pos_y_5,stim_pos_y_4,stim_pos_y_7,stim_pos_y_6,totBlockN,stim_pos_x_27,stim_pos_x_26,stim_pos_x_25,stim_pos_x_24,stim_pos_x_23,stim_pos_x_22,stim_pos_x_21,stim_pos_x_20,blockN,stim_pos_x_29,stim_pos_x_28,prevDistrCTPD,prevDistrMean,prevDistrType,trials.thisRepN,trials.thisTrialN,trials.thisN,trials.thisIndex,timeStart,timeBeforeDraw,timeDraw,timeAfterSaving,timeAfterWritingToTemp,timeAfterPreparingNext,answer,correct,rt,trialScore,session,participant,resolution,cpu_info,expName,pc_name,graphic_card,date,monitorName,
278.6,283.2,273.9,272.5,36,0,287.1,280.3,296.7,278.5,7.956,8.125,7.658,7.733,8.431,8.087,7.881,4.867,-4.399,-8.161,1.667,-1.107,8.475,5.248,-4.717,-7.687,295.4,271.9,-8.43,275.2,284.0,256.7,281.9,272.4,36,284.5,1,5,prime,10,0,102,norm,36,-4.679,down,norm,276.729631121,265.6,269.0,1.747,276.8,0,269.4,284.2,257.3,10,6,8.005,5.219,1.186,-1.467,-4.542,-8.396,294.6,6,378.7,-8.021,-8.097,0,-7.828,-7.989,-4.428,-5.205,-5.295,-4.632,4.676,7.873,6,-1.738,1.279,5.271,8.172,-8.078,-7.555,-1.52,1.765,279.6,293.1,275.6,291.6,284.3,269.8,282.7,,281.3,271.6,0,norm,1.706,1.101,-1.39,-2.075,-4.913,-4.715,-1.533,-1.366,-2.01,-1.304,1.845,-1.493,270.3,269.3,-4.46,-8.067,276.4,-1.893,8.393,4.531,-4.386,-7.996,0,5.153,4.666,4.599,4.482,1.627,1.869,1.417,1.479,0,5.288,4.578,,,,0,0,0,0,304.326,304.336,304.341291607,304.342,304.342,304.345,down,1,1.40715516161,8.59284483839,001,017,800_600,Intel(R) Core(TM) i7-2670QM CPU @ 2.20GHz,orientation_search,GRVLAPTOP3,Intel(R) HD Graphics Family,2018_jul_06_1514,testMonitor,
265.0,285.3,290.9,272.2,36,0,277.6,267.5,276.1,256.7,7.866,8.142,8.364,7.79,8.355,8.103,8.414,5.137,-5.028,-8.41,1.844,-1.274,8.117,5.025,-4.393,-8.0,277.9,281.1,-8.357,270.1,279.7,279.1,289.8,279.1,36,273.1,1,5,prime,10,0,61,norm,36,-4.864,down,norm,276.729631121,282.6,294.6,1.891,283.6,0,265.9,266.2,296.6,10,6,7.598,4.813,1.151,-1.6,-5.082,-7.7,276.1,6,337.7,-7.984,-8.433,0,-7.672,-8.288,-4.389,-5.242,-4.383,-5.061,4.686,7.969,6,-1.646,1.533,4.62,8.078,-7.872,-8.45,-1.227,1.213,281.1,287.5,271.7,278.3,282.1,282.0,271.3,,296.7,288.5,1,norm,1.256,1.459,-1.174,-1.716,-4.707,-4.457,-1.14,-1.984,-2.092,-1.72,1.731,-1.826,281.5,277.3,-4.445,-7.992,263.5,-1.219,7.745,4.601,-4.876,-7.61,0,5.161,5.071,5.074,5.192,2.023,1.863,1.342,1.304,0,5.007,4.623,,,,0,1,1,1,305.764,305.77,305.772721308,305.773,305.775,305.778,up,0,0.869110152998,-10,001,017,800_600,Intel(R) Core(TM) i7-2670QM CPU @ 2.20GHz,orientation_search,GRVLAPTOP3,Intel(R) HD Graphics Family,2018_jul_06_1514,testMonitor,
294.5,295.2,290.6,270.8,36,0,279.0,261.0,277.8,284.9,8.432,8.093,7.919,8.383,7.756,7.774,7.695,4.91,-4.965,-8.096,1.103,-1.215,7.653,4.625,-4.53,-8.38,275.5,283.4,-8.012,282.6,284.5,275.5,269.3,,36,264.0,4,5,prime,10,0,113,norm,36,-4.406,down,norm,276.729631121,281.9,291.2,1.243,296.7,2,265.5,277.5,279.0,10,6,8.04,4.551,2.065,-1.544,-4.389,-8.342,270.7,6,389.7,-7.621,-7.723,0,-8.221,-8.229,-4.524,-5.066,-4.582,-4.826,4.597,7.691,26,-1.737,1.168,4.703,7.523,-8.364,-8.428,-1.346,1.768,277.8,272.0,265.6,264.5,256.7,276.0,282.0,277.7,274.7,278.4,2,norm,1.749,1.835,-1.449,-1.305,-4.652,-4.926,-1.444,-1.358,-1.291,-1.674,2.082,-1.603,275.2,281.7,-5.023,-8.324,267.0,-1.732,7.887,4.645,-4.484,-7.827,0,4.305,5.123,4.79,4.853,1.456,1.513,1.125,1.991,0,4.478,4.916,,,,0,2,2,2,307.658,307.664,307.665459259,307.666,307.668,307.672,up,0,2.82051484403,-10,001,017,800_600,Intel(R) Core(TM) i7-2670QM CPU @ 2.20GHz,orientation_search,GRVLAPTOP3,Intel(R) HD Graphics Family,2018_jul_06_1514,testMonitor,
291.3,272.1,278.4,262.7,36,0,289.6,,287.3,290.7,7.715,8.239,7.713,7.831,8.243,7.826,7.765,5.163,-4.935,-8.067,2.085,-2.07,8.142,4.832,-5.114,-8.315,284.3,256.7,-8.158,284.9,282.2,277.5,264.4,280.4,36,296.7,4,5,prime,10,0,68,norm,36,-4.41,down,norm,276.729631121,269.4,283.4,1.303,286.6,1,275.1,264.4,277.4,10,6,8.387,5.223,1.506,-1.92,-4.317,-8.473,273.3,6,344.7,-8.442,-8.26,0,-7.806,-7.691,-4.361,-5.098,-4.832,-5.132,4.805,7.576,25,-1.157,1.373,5.126,8.036,-8.493,-8.496,-1.794,1.374,264.6,263.6,257.7,270.4,266.3,290.0,275.8,276.4,277.3,260.0,3,norm,1.339,2.026,-1.157,-1.32,-5.256,-4.409,-1.723,-1.688,-1.424,-1.277,2.089,-1.127,267.6,263.9,-4.709,-7.518,285.6,-1.706,8.266,4.857,-4.348,-7.957,0,4.693,5.025,4.571,4.89,1.528,1.425,1.315,1.363,0,4.346,4.954,,,,0,3,3,3,311.511,311.517,311.518858484,311.519,311.522,311.525,down,1,7.19957431767,2.80042568233,001,017,800_600,Intel(R) Core(TM) i7-2670QM CPU @ 2.20GHz,orientation_search,GRVLAPTOP3,Intel(R) HD Graphics Family,2018_jul_06_1514,testMonitor,
275.0,,279.0,277.6,36,0,269.5,291.1,281.6,276.1,8.206,7.737,7.669,8.365,7.75,8.404,8.067,5.079,-4.664,-7.701,1.693,-1.587,7.781,4.847,-4.558,-7.874,283.4,285.5,-7.646,268.9,271.3,283.9,279.9,269.9,36,283.9,3,5,prime,10,0,71,norm,36,-4.993,up,norm,276.729631121,269.2,296.7,1.582,267.9,5,278.2,277.5,270.2,10,6,8.429,5.003,1.902,-2.022,-4.661,-8.21,276.4,6,347.7,-8.274,-7.515,0,-7.916,-8.259,-4.913,-4.359,-5.283,-4.677,4.331,8.035,23,-1.74,2.055,4.66,7.587,-8.198,-8.481,-1.8,1.117,256.7,276.8,276.5,292.6,277.8,273.8,263.5,285.5,263.2,280.1,4,norm,1.647,1.478,-1.576,-1.22,-4.936,-4.348,-1.617,-1.134,-1.88,-1.553,1.656,-1.184,287.3,273.8,-4.907,-7.961,271.4,-1.313,8.469,4.48,-4.659,-7.82,0,4.663,5.145,4.932,5.191,1.284,1.529,1.925,1.524,0,4.493,4.834,,,,0,4,4,4,318.735,318.744,318.746220295,318.747,318.751,318.755,up,1,4.82819076133,5.17180923867,001,017,800_600,Intel(R) Core(TM) i7-2670QM CPU @ 2.20GHz,orientation_search,GRVLAPTOP3,Intel(R) HD Graphics Family,2018_jul_06_1514,testMonitor,
282.1,269.6,286.0,265.2,36,0,289.1,280.7,291.6,256.7,7.56,8.228,7.986,7.607,8.446,8.443,8.087,4.589,-4.724,-8.252,2.087,-1.763,8.032,4.506,-4.951,-8.163,270.2,283.7,-8.032,274.3,285.2,282.6,267.3,279.2,36,276.0,1,5,prime,10,0,104,norm,36,-5.006,down,norm,276.729631121,286.4,291.2,1.106,287.4,2,296.7,258.9,287.6,10,6,8.033,4.773,1.815,-2.003,-4.89,-7.949,289.9,6,380.7,-8.494,-8.399,0,-8.116,-7.822,-5.055,-4.334,-4.615,-4.57,5.108,7.933,8,-1.206,1.213,5.294,7.602,-7.763,-8.348,-1.115,1.673,269.3,,270.7,287.4,279.4,281.0,271.8,271.4,277.4,283.0,5,norm,1.307,2.039,-1.909,-2.064,-5.132,-4.43,-1.872,-2.076,-1.981,-1.223,1.231,-1.38,286.1,270.3,-4.411,-7.928,271.3,-1.487,7.923,4.479,-4.683,-8.14,0,4.836,5.043,5.148,4.544,1.38,2.09,1.496,1.957,0,4.761,5.138,,,,0,5,5,5,323.594,323.603,323.605248743,323.606,323.609,323.614,down,1,1.47661292093,8.52338707907,001,017,800_600,Intel(R) Core(TM) i7-2670QM CPU @ 2.20GHz,orientation_search,GRVLAPTOP3,Intel(R) HD Graphics Family,2018_jul_06_1514,testMonitor,
362.8,361.5,358.7,356.6,36,60,351.9,,358.0,359.5,7.629,8.0,7.545,7.965,7.818,8.226,7.62,5.13,-4.964,-7.724,1.502,-1.65,7.997,4.852,-5.175,-7.683,365.9,361.8,-8.223,352.4,349.6,350.0,361.2,359.1,36,361.4,4,5,probe,5,0,79,norm,36,-5.285,down,norm,359.613573636,363.5,354.6,1.376,353.0,1,351.1,353.9,355.1,10,6,7.72,4.403,1.86,-1.147,-4.547,-8.029,367.8,1,280.6,-7.929,-7.958,0,-8.27,-7.557,-4.686,-5.292,-4.799,-4.963,4.553,8.359,25,-1.675,1.551,4.582,8.462,-7.671,-7.823,-1.76,2.057,363.1,354.9,362.3,356.1,355.1,364.5,369.6,362.5,365.5,362.2,0,norm,1.599,1.392,-1.638,-1.888,-5.13,-4.955,-2.099,-1.843,-1.226,-1.184,1.211,-1.88,359.3,363.2,-5.188,-7.91,351.0,-1.717,8.158,4.366,-4.788,-7.504,1,4.372,5.026,4.31,5.195,1.771,1.815,1.419,1.983,1,4.739,5.133,0,276.729631121,norm,0,6,6,6,325.101,325.109,325.111655225,325.112,325.116,325.121,down,1,1.28192442411,8.71807557589,001,017,800_600,Intel(R) Core(TM) i7-2670QM CPU @ 2.20GHz,orientation_search,GRVLAPTOP3,Intel(R) HD Graphics Family,2018_jul_06_1514,testMonitor,
160.0,158.8,153.8,136.9,36,-40,133.3,137.0,144.3,140.1,7.534,7.684,8.303,8.469,8.233,8.11,8.246,5.153,-4.475,-7.762,1.482,-2.023,8.256,4.743,-5.195,-7.919,159.9,153.9,-8.446,151.7,162.1,147.4,147.9,133.0,36,142.1,0,5,prime,10,0,63,norm,36,-4.558,down,norm,142.976060645,144.6,137.4,1.748,147.8,1,144.1,158.3,140.6,10,6,8.071,5.181,1.741,-1.481,-4.369,-8.023,137.1,6,206.0,-7.75,-8.188,-40,-7.968,-8.21,-4.543,-4.771,-4.847,-5.295,4.765,7.96,1,-1.556,1.34,4.706,8.405,-7.736,-8.248,-1.929,1.75,130.6,141.0,152.5,151.7,,163.0,137.7,147.6,138.6,146.8,0,norm,1.356,2.074,-1.433,-2.053,-4.968,-4.892,-1.492,-1.324,-1.143,-1.936,1.392,-1.431,123.0,146.4,-4.683,-8.393,133.4,-1.293,7.836,4.731,-4.586,-8.16,2,5.046,5.292,4.375,4.95,1.556,1.604,2.011,1.967,2,4.513,5.113,60,276.729631121,norm,0,7,7,7,326.413,326.42,326.422753085,326.423,326.427,326.432,down,1,1.2163181653,8.7836818347,001,017,800_600,Intel(R) Core(TM) i7-2670QM CPU @ 2.20GHz,orientation_search,GRVLAPTOP3,Intel(R) HD Graphics Family,2018_jul_06_1514,testMonitor,
133.6,154.7,163.0,153.2,36,-40,138.4,139.9,133.7,143.1,7.814,7.56,8.459,8.11,7.592,8.482,8.029,4.345,-4.416,-8.264,1.617,-1.301,8.023,5.036,-4.572,-7.933,138.6,150.5,-8.124,130.5,152.3,149.3,147.4,160.4,36,123.0,1,5,prime,10,0,96,norm,36,-4.921,down,norm,142.976060645,153.4,138.1,1.654,148.2,2,155.6,154.3,153.4,10,6,8.428,4.541,1.421,-1.539,-4.67,-7.806,140.9,6,239.0,-8.121,-7.863,-40,-7.829,-7.618,-4.969,-4.661,-4.539,-5.045,4.975,8.33,8,-1.436,1.854,4.773,8.227,-8.169,-8.205,-1.898,1.189,148.6,,132.5,144.7,152.0,162.0,139.6,129.3,154.5,125.3,1,norm,1.85,1.233,-1.466,-1.533,-4.821,-5.28,-1.535,-2.01,-1.282,-2.082,1.182,-1.167,142.3,144.2,-5.231,-8.235,148.2,-1.57,7.967,4.758,-5.194,-7.678,2,4.536,5.181,5.234,4.56,1.73,1.771,2.095,1.336,2,4.88,5.23,60,276.729631121,norm,0,8,8,8,327.659,327.666,327.668868547,327.669,327.673,327.678,down,1,1.26825645351,8.73174354649,001,017,800_600,Intel(R) Core(TM) i7-2670QM CPU @ 2.20GHz,orientation_search,GRVLAPTOP3,Intel(R) HD Graphics Family,2018_jul_06_1514,testMonitor,
148.2,162.8,146.8,136.3,36,-40,140.0,155.9,145.0,146.9,8.169,8.444,8.464,8.481,8.001,8.123,7.801,4.92,-4.465,-7.774,2.034,-1.602,7.978,5.281,-5.138,-7.846,138.4,143.2,-8.231,141.6,162.2,147.2,163.0,152.9,36,139.0,3,5,prime,10,0,99,norm,36,-5.184,down,norm,142.976060645,138.9,123.0,1.439,153.6,0,134.2,139.7,135.1,10,6,8.038,4.898,1.337,-1.973,-5.138,-8.23,151.1,6,242.0,-7.602,-7.567,-40,-8.327,-7.856,-4.394,-5.176,-4.703,-4.449,4.624,7.987,18,-1.293,1.23,4.457,8.101,-7.845,-8.284,-1.234,2.045,149.9,146.7,131.3,137.7,146.0,148.6,138.0,135.2,148.2,146.5,2,norm,1.478,1.353,-1.841,-1.38,-5.072,-4.571,-1.464,-1.409,-1.459,-1.808,1.667,-1.353,147.6,,-4.391,-7.539,131.7,-2.093,7.903,4.856,-5.267,-8.369,2,5.234,4.984,4.615,5.027,1.449,2.048,1.85,1.516,2,4.345,5.055,60,276.729631121,norm,0,9,9,9,328.957,328.964,328.966307775,328.967,328.97,328.975,down,1,0.853109241463,9.14689075854,001,017,800_600,Intel(R) Core(TM) i7-2670QM CPU @ 2.20GHz,orientation_search,GRVLAPTOP3,Intel(R) HD Graphics Family,2018_jul_06_1514,testMonitor,
147.9,140.1,129.8,146.2,36,-40,130.3,155.7,153.6,123.0,7.578,7.845,7.545,7.628,8.359,8.079,7.922,4.51,-5.031,-7.888,1.986,-1.76,7.781,4.475,-4.507,-7.712,137.9,143.1,-7.956,128.7,155.6,141.8,149.6,163.0,36,142.3,2,5,prime,10,0,68,norm,36,-4.739,up,norm,142.976060645,131.9,,1.292,139.4,4,138.7,151.0,145.2,10,6,8.495,5.209,1.676,-1.125,-4.952,-8.352,157.0,6,211.0,-7.744,-8.219,-40,-8.306,-7.663,-4.43,-5.254,-5.076,-4.756,4.823,8.374,16,-1.4,1.95,4.631,7.66,-7.973,-7.671,-1.648,1.723,146.0,138.0,143.0,138.0,134.9,130.2,144.7,127.6,150.0,152.1,3,norm,1.606,1.448,-1.454,-1.255,-4.823,-5.217,-1.351,-1.582,-1.277,-1.225,1.961,-1.841,143.7,157.1,-4.573,-7.686,152.1,-1.998,8.456,5.131,-5.116,-8.21,2,4.521,4.978,4.909,4.631,1.882,1.189,1.539,1.589,2,4.44,4.491,60,276.729631121,norm,0,10,10,10,329.84,329.847,329.849522041,329.85,329.854,329.859,up,1,0.976310096274,9.02368990373,001,017,800_600,Intel(R) Core(TM) i7-2670QM CPU @ 2.20GHz,orientation_search,GRVLAPTOP3,Intel(R) HD Graphics Family,2018_jul_06_1514,testMonitor,
142.7,126.6,139.4,139.7,36,-40,150.5,144.6,148.0,146.6,7.983,7.54,7.821,7.857,7.872,7.675,7.977,5.286,-5.097,-8.319,1.165,-1.358,8.318,4.926,-4.534,-8.304,163.0,144.0,-7.668,152.2,128.1,137.9,158.2,152.6,36,130.6,3,5,prime,10,0,72,norm,36,-4.534,down,norm,142.976060645,146.3,137.6,1.785,154.6,0,162.0,140.9,141.6,10,6,8.042,4.714,1.952,-1.408,-5.212,-7.602,140.9,6,215.0,-7.77,-8.041,-40,-7.8,-7.735,-5.143,-4.738,-5.038,-5.281,5.026,8.324,18,-1.393,1.998,4.921,8.237,-7.552,-7.796,-1.311,1.197,151.4,148.1,135.3,143.2,134.0,125.7,133.5,135.6,158.3,123.8,4,norm,1.594,1.129,-1.736,-1.561,-5.128,-4.572,-1.758,-1.484,-2.083,-1.219,1.46,-1.188,136.7,,-4.461,-8.498,123.0,-1.935,8.098,5.251,-5.293,-7.552,2,4.687,4.533,4.797,5.15,1.165,1.518,1.531,1.59,2,5.249,4.712,60,276.729631121,norm,0,11,11,11,330.846,330.854,330.85663527,330.857,330.861,330.866,down,1,0.742945025035,9.25705497497,001,017,800_600,Intel(R) Core(TM) i7-2670QM CPU @ 2.20GHz,orientation_search,GRVLAPTOP3,Intel(R) HD Graphics Family,2018_jul_06_1514,testMonitor,
142.3,144.7,130.0,143.0,36,-40,158.9,162.5,147.2,123.0,7.614,7.552,8.299,7.997,7.804,7.513,8.022,4.649,-5.26,-8.059,1.597,-1.18,7.788,4.516,-4.731,-7.543,144.5,,-8.496,145.9,147.7,131.0,152.4,145.0,36,161.3,5,5,prime,10,0,98,norm,36,-4.9,up,norm,142.976060645,161.4,134.5,1.672,150.5,4,146.6,159.1,136.4,10,6,8.075,5.109,2.043,-1.893,-4.721,-7.622,146.1,6,241.0,-7.738,-8.362,-40,-8.043,-7.611,-4.405,-5.13,-4.667,-5.237,4.644,8.466,34,-1.218,1.749,4.522,7.516,-7.983,-7.919,-1.379,1.508,125.2,142.7,129.5,153.0,135.6,134.9,163.0,144.0,138.7,138.7,5,norm,2.051,1.332,-1.453,-1.122,-4.339,-4.616,-1.354,-1.331,-1.718,-1.406,1.471,-1.695,148.3,144.5,-4.346,-8.071,146.2,-1.459,8.488,4.757,-5.073,-8.291,2,4.909,5.198,4.616,5.283,1.744,1.872,1.542,1.82,2,5.098,4.672,60,276.729631121,norm,0,12,12,12,331.619,331.626,331.628631386,331.629,331.633,331.638,up,1,0.751370882965,9.24862911704,001,017,800_600,Intel(R) Core(TM) i7-2670QM CPU @ 2.20GHz,orientation_search,GRVLAPTOP3,Intel(R) HD Graphics Family,2018_jul_06_1514,testMonitor,
193.9,202.0,196.0,189.9,36,-60,193.9,201.2,193.3,195.6,7.76,8.168,8.499,8.46,8.444,8.359,8.213,5.103,-4.444,-8.385,1.703,-1.795,7.535,4.921,-4.327,-8.201,191.5,193.1,-8.25,189.2,195.0,191.8,188.0,,36,205.0,4,5,probe,5,0,91,norm,36,-4.341,down,norm,197.117620427,207.1,207.1,1.994,199.6,2,198.5,199.7,201.3,10,6,8.215,4.836,1.682,-1.839,-4.776,-8.107,194.0,2,106.1,-8.288,-8.118,-40,-7.87,-7.713,-5.022,-4.423,-5.129,-4.651,4.724,7.99,26,-1.638,1.936,4.453,8.253,-7.604,-8.151,-1.685,1.549,196.9,197.6,204.7,197.2,197.4,204.1,196.2,193.5,187.1,195.7,0,norm,1.608,2.009,-1.204,-1.22,-4.811,-5.008,-1.307,-1.885,-1.291,-1.86,2.096,-1.395,198.2,199.8,-5.143,-8.071,198.3,-1.114,7.834,4.661,-5.059,-7.835,3,5.097,4.416,5.176,4.748,1.416,1.534,1.952,1.588,3,4.741,4.869,-40,142.976060645,norm,0,13,13,13,332.4,332.407,332.409944791,332.41,332.414,332.419,down,1,1.29556717881,8.70443282119,001,017,800_600,Intel(R) Core(TM) i7-2670QM CPU @ 2.20GHz,orientation_search,GRVLAPTOP3,Intel(R) HD Graphics Family,2018_jul_06_1514,testMonitor,
165.9,168.0,178.1,165.4,36,-60,169.4,163.1,166.4,170.6,8.247,8.053,8.463,8.017,8.199,8.485,7.946,4.936,-4.514,-8.045,1.789,-1.827,8.27,4.397,-5.154,-7.874,174.6,164.9,-7.91,163.9,,158.1,168.1,172.3,36,169.4,5,5,probe,5,0,62,norm,36,-4.605,down,norm,168.117620427,171.8,175.8,1.625,173.0,0,169.7,171.6,166.3,10,6,8.487,4.485,1.851,-1.361,-4.74,-8.419,173.7,2,106.1,-7.957,-7.675,-40,-7.584,-8.101,-4.663,-4.941,-5.023,-5.235,4.454,8.079,30,-1.451,1.323,4.704,7.95,-8.067,-8.147,-1.637,2.099,168.7,162.5,169.4,169.7,164.1,170.1,158.8,174.5,168.4,164.2,1,norm,1.979,1.638,-1.819,-1.262,-4.706,-4.447,-1.98,-1.862,-2.061,-1.42,1.368,-1.338,159.1,158.9,-4.928,-7.883,172.1,-1.503,7.871,4.856,-4.83,-7.644,3,5.064,4.987,4.566,4.886,1.491,1.424,1.297,1.967,3,4.934,4.638,-40,142.976060645,norm,0,14,14,14,333.726,333.733,333.735710854,333.736,333.74,333.745,down,1,0.760685836081,9.23931416392,001,017,800_600,Intel(R) Core(TM) i7-2670QM CPU @ 2.20GHz,orientation_search,GRVLAPTOP3,Intel(R) HD Graphics Family,2018_jul_06_1514,testMonitor,
301.0,276.8,305.9,286.4,36,-20,295.2,286.3,289.8,,7.969,7.754,8.123,7.753,7.66,7.63,8.265,4.528,-4.896,-7.537,1.154,-1.753,8.12,4.991,-4.802,-7.966,278.5,275.9,-8.148,281.0,294.1,290.4,283.4,288.1,36,283.8,4,5,prime,10,0,102,norm,36,-4.847,up,norm,288.282476431,282.4,284.0,1.155,270.5,5,296.3,268.3,290.0,10,6,7.713,5.241,1.844,-1.285,-4.401,-7.936,274.9,6,390.3,-7.534,-8.067,-20,-7.9,-7.961,-4.849,-5.138,-4.428,-5.293,4.419,8.422,29,-1.367,1.847,4.436,7.63,-8.026,-7.909,-1.818,1.995,304.3,291.9,287.7,288.5,287.8,277.9,281.5,275.6,289.6,300.6,0,norm,1.516,1.22,-1.628,-1.402,-4.953,-4.543,-1.244,-1.508,-1.91,-1.458,1.33,-1.673,308.3,295.4,-5.265,-7.899,287.8,-1.278,7.828,4.751,-5.3,-8.044,4,5.122,4.934,4.717,4.429,1.122,2.033,1.951,1.181,4,4.612,4.649,-60,142.976060645,norm,0,15,15,15,334.516,334.523,334.52544498,334.526,334.53,334.534,up,1,1.16198016063,8.83801983937,001,017,800_600,Intel(R) Core(TM) i7-2670QM CPU @ 2.20GHz,orientation_search,GRVLAPTOP3,Intel(R) HD Graphics Family,2018_jul_06_1514,testMonitor,
299.9,300.0,300.3,298.9,36,-20,280.2,287.2,291.7,268.3,7.663,7.509,8.251,8.245,8.124,7.943,8.482,4.866,-4.579,-8.009,1.296,-1.426,8.048,5.152,-5.219,-7.98,288.2,288.7,-7.707,285.8,293.3,304.0,291.6,306.3,36,290.3,2,5,prime,10,0,66,norm,36,-4.513,up,norm,288.282476431,,281.7,1.422,282.5,5,288.3,280.4,294.9,10,6,8.41,4.967,1.27,-2.084,-4.604,-8.107,288.1,6,354.3,-7.593,-8.175,-20,-7.81,-8.378,-4.765,-5.124,-4.629,-4.591,4.354,7.578,17,-1.218,1.761,4.355,7.651,-7.628,-8.063,-1.782,1.678,280.3,302.7,282.4,293.6,305.3,298.0,279.8,288.1,287.4,272.4,1,norm,2.02,1.518,-1.681,-1.187,-4.781,-5.112,-1.378,-1.19,-2.056,-1.634,1.757,-1.181,290.9,297.3,-4.544,-8.238,293.7,-1.69,8.471,4.842,-4.752,-8.332,4,5.207,4.868,4.417,4.551,1.178,1.724,1.957,1.741,4,4.441,4.947,-60,142.976060645,norm,0,16,16,16,335.707,335.714,335.716671422,335.717,335.721,335.726,up,1,0.995102038141,9.00489796186,001,017,800_600,Intel(R) Core(TM) i7-2670QM CPU @ 2.20GHz,orientation_search,GRVLAPTOP3,Intel(R) HD Graphics Family,2018_jul_06_1514,testMonitor,
279.5,296.0,281.6,276.6,36,-20,296.9,280.3,293.2,272.9,7.664,7.738,7.752,7.979,7.526,8.255,7.659,5.198,-5.084,-7.886,1.858,-2.032,7.739,4.642,-4.778,-7.863,288.0,287.7,-7.505,274.0,294.2,292.0,274.1,290.9,36,288.8,0,5,prime,10,0,93,norm,36,-4.602,up,norm,288.282476431,279.5,277.0,1.972,281.1,4,278.1,299.5,291.7,10,6,8.243,4.709,1.929,-1.526,-5.07,-8.431,291.8,6,381.3,-7.515,-7.562,-20,-7.87,-7.551,-4.947,-4.489,-5.22,-4.639,4.48,8.096,4,-1.258,2.024,4.914,8.464,-7.706,-8.326,-1.596,1.934,293.0,308.3,286.1,290.1,268.3,302.8,295.2,296.9,274.3,,2,norm,1.406,1.479,-1.864,-1.919,-4.425,-4.965,-1.154,-1.67,-1.176,-2.071,1.599,-1.682,292.5,293.0,-5.244,-7.56,287.0,-1.214,8.284,4.561,-4.58,-8.432,4,4.318,4.906,5.125,5.108,1.482,1.421,1.521,1.274,4,4.386,4.912,-60,142.976060645,norm,0,17,17,17,336.733,336.74,336.743149087,336.744,336.747,336.752,down,0,0.739822451782,-10,001,017,800_600,Intel(R) Core(TM) i7-2670QM CPU @ 2.20GHz,orientation_search,GRVLAPTOP3,Intel(R) HD Graphics Family,2018_jul_06_1514,testMonitor,
284.6,278.9,283.5,297.4,36,-20,295.4,277.2,284.9,294.6,8.43,8.484,7.551,7.81,7.846,8.105,7.833,5.146,-5.229,-7.643,1.88,-1.594,8.222,4.554,-4.775,-7.945,272.5,273.7,-8.203,281.5,274.8,280.9,,301.4,36,303.3,5,5,prime,10,0,66,norm,36,-4.462,down,norm,288.282476431,286.3,308.3,1.388,286.0,2,274.8,289.5,291.9,10,6,8.166,5.167,1.168,-1.346,-4.816,-7.772,304.5,6,354.3,-7.854,-8.358,-20,-7.581,-8.201,-4.464,-5.078,-4.602,-5.184,5.265,8.308,32,-1.632,1.351,5.112,7.595,-8.387,-7.539,-1.545,1.179,284.6,305.5,278.3,286.9,295.5,286.9,283.6,291.5,283.8,284.8,3,norm,1.59,1.272,-1.414,-1.607,-5.188,-4.367,-1.514,-2.088,-1.199,-1.104,1.75,-1.893,282.2,284.4,-4.911,-8.415,268.3,-1.472,7.934,4.638,-4.546,-7.632,4,4.722,4.685,4.327,4.613,1.345,1.892,1.122,1.55,4,4.577,5.167,-60,142.976060645,norm,0,18,18,18,338.515,338.524,338.526758543,338.527,338.532,338.538,down,1,4.33755918161,5.66244081839,001,017,800_600,Intel(R) Core(TM) i7-2670QM CPU @ 2.20GHz,orientation_search,GRVLAPTOP3,Intel(R) HD Graphics Family,2018_jul_06_1514,testMonitor,
295.7,282.6,300.0,295.4,36,-20,297.0,305.6,277.2,286.9,8.079,7.633,8.113,8.349,8.199,7.709,7.633,4.369,-5.115,-8.402,1.478,-1.857,7.995,4.621,-4.634,-7.507,284.0,290.8,-8.49,287.5,268.3,288.9,295.5,270.5,36,294.6,0,5,prime,10,0,87,norm,36,-4.918,up,norm,288.282476431,282.0,288.1,1.594,297.3,5,275.0,292.4,295.4,10,6,7.702,4.765,1.643,-1.117,-4.485,-7.604,301.0,6,375.3,-8.158,-8.021,-20,-8.468,-8.266,-4.428,-5.224,-5.214,-4.628,5.011,8.136,5,-1.54,1.723,5.09,7.523,-7.911,-7.72,-2.094,1.808,282.3,306.2,291.1,281.9,289.8,290.0,272.5,285.5,,277.6,4,norm,1.949,1.613,-1.528,-1.554,-4.449,-4.662,-1.709,-1.5,-1.227,-1.765,1.779,-1.229,290.3,273.0,-4.655,-7.707,299.1,-1.822,8.079,4.832,-4.799,-7.551,4,4.458,4.663,4.958,4.844,1.712,1.921,1.632,1.942,4,4.327,5.149,-60,142.976060645,norm,0,19,19,19,342.887,342.895,342.897448661,342.898,342.902,342.907,up,1,1.09665781463,8.90334218537,001,017,800_600,Intel(R) Core(TM) i7-2670QM CPU @ 2.20GHz,orientation_search,GRVLAPTOP3,Intel(R) HD Graphics Family,2018_jul_06_1514,testMonitor,
288.9,299.6,296.7,283.6,36,-20,286.6,293.6,285.2,300.2,8.434,7.815,7.571,8.232,7.712,7.92,7.625,4.315,-4.762,-8.458,1.975,-1.682,7.662,4.461,-4.72,-8.474,298.5,268.3,-7.691,301.9,281.7,,293.3,274.5,36,280.1,5,5,prime,10,0,101,norm,36,-5.035,up,norm,288.282476431,285.4,291.0,1.966,295.4,3,294.4,308.1,284.2,10,6,8.322,4.44,1.201,-1.759,-5.172,-7.885,272.6,6,389.3,-7.924,-8.492,-20,-7.573,-8.453,-5.039,-4.953,-5.07,-4.331,5.203,8.01,33,-1.372,1.232,4.603,7.823,-7.7,-7.998,-1.924,1.931,304.3,282.4,289.1,293.7,297.6,280.4,277.7,299.9,305.3,305.8,5,norm,1.966,1.933,-1.345,-1.96,-4.487,-4.887,-1.32,-2.06,-2.064,-1.5,1.205,-1.675,293.5,308.3,-4.581,-7.545,291.2,-1.435,7.837,5.283,-4.696,-7.583,4,4.534,4.557,4.937,4.681,1.499,2.041,1.335,1.949,4,4.62,4.686,-60,142.976060645,norm,0,20,20,20,344.015,344.022,344.024145658,344.024,344.028,344.033,up,1,1.33132430818,8.66867569182,001,017,800_600,Intel(R) Core(TM) i7-2670QM CPU @ 2.20GHz,orientation_search,GRVLAPTOP3,Intel(R) HD Graphics Family,2018_jul_06_1514,testMonitor,
341.5,340.7,336.2,331.9,36,20,333.9,339.6,328.9,340.2,8.45,8.453,8.466,8.229,8.036,8.266,7.544,5.191,-4.971,-7.761,1.317,-2.083,8.03,4.369,-5.053,-8.017,335.5,335.0,-7.824,348.4,330.3,338.3,341.7,335.2,36,334.3,2,5,probe,5,0,66,norm,36,-4.773,up,norm,338.357200562,338.2,338.6,2.025,340.6,3,341.4,338.6,332.1,10,6,8.317,4.653,1.765,-1.857,-4.901,-8.468,347.7,1,272.4,-8.437,-8.169,-20,-7.719,-7.736,-4.501,-4.827,-4.885,-4.341,4.96,8.314,15,-1.181,1.609,4.304,7.573,-7.812,-7.841,-2.0,1.697,342.4,334.2,337.9,338.3,346.5,331.4,335.0,336.2,335.3,337.5,0,norm,1.66,1.487,-1.766,-1.316,-4.323,-4.407,-1.708,-1.471,-1.768,-1.804,1.768,-1.77,342.8,343.1,-4.592,-7.784,,-1.586,7.833,4.852,-4.478,-7.679,5,4.766,5.13,4.371,4.744,2.099,1.97,1.616,2.031,5,4.799,5.291,-20,288.282476431,norm,0,21,21,21,345.375,345.382,345.384793764,345.385,345.389,345.394,up,1,1.40546382609,8.59453617391,001,017,800_600,Intel(R) Core(TM) i7-2670QM CPU @ 2.20GHz,orientation_search,GRVLAPTOP3,Intel(R) HD Graphics Family,2018_jul_06_1514,testMonitor,
1.4,4.7,26.6,1.4,36,20,25.9,10.1,-5.2,11.2,8.278,8.152,7.83,8.418,7.574,8.468,7.521,4.997,-4.664,-8.206,1.418,-1.298,8.285,4.934,-4.509,-8.293,5.4,10.2,-8.441,2.4,12.1,-4.4,16.1,8.3,36,16.2,1,5,prime,10,0,80,norm,36,-4.784,up,norm,6.62360379498,2.3,-4.0,1.243,12.2,4,8.1,13.9,-0.9,10,5,7.664,4.453,1.774,-1.488,-4.697,-7.733,,5,86.6,-8.05,-8.186,20,-8.174,-8.232,-4.764,-4.941,-5.252,-5.01,5.024,7.659,10,-1.866,1.904,4.653,8.089,-7.552,-7.722,-1.995,1.98,8.2,7.6,10.3,-4.8,5.2,2.7,13.1,2.5,7.2,7.7,0,norm,1.837,1.707,-1.494,-1.119,-4.786,-4.622,-1.519,-1.914,-1.335,-1.778,2.076,-1.952,19.3,25.0,-4.53,-8.173,-13.4,-1.289,7.713,4.592,-4.559,-8.109,6,4.77,4.668,4.96,5.138,1.462,2.09,1.833,1.243,6,4.321,4.858,20,288.282476431,norm,0,22,22,22,346.812,346.82,346.822395299,346.823,346.827,346.832,up,1,1.24392307643,8.75607692357,001,017,800_600,Intel(R) Core(TM) i7-2670QM CPU @ 2.20GHz,orientation_search,GRVLAPTOP3,Intel(R) HD Graphics Family,2018_jul_06_1514,testMonitor,
-10.1,-5.3,1.1,-13.4,36,20,7.0,9.9,2.1,26.6,7.565,8.051,7.514,7.504,7.981,8.232,8.138,4.345,-4.645,-8.266,1.256,-1.444,7.791,4.495,-4.406,-8.13,21.5,-3.5,-8.225,17.6,14.1,7.9,6.0,-3.8,36,2.6,2,5,prime,10,0,73,norm,36,-4.39,up,norm,6.62360379498,5.4,19.2,1.229,-12.9,3,14.2,-1.6,16.8,10,5,7.908,5.076,1.713,-1.494,-4.694,-7.782,-1.5,5,79.6,-8.488,-8.399,20,-8.379,-8.167,-5.249,-5.111,-4.74,-4.55,5.198,8.331,15,-1.434,1.465,5.27,7.699,-7.781,-8.424,-1.274,1.637,14.5,6.0,-7.1,5.9,-7.1,10.8,6.5,-12.1,11.3,18.0,1,norm,1.325,2.088,-1.14,-1.413,-4.406,-4.313,-1.217,-1.291,-1.348,-1.335,1.74,-1.556,22.5,1.9,-4.958,-7.911,,-1.343,8.379,4.497,-4.446,-8.085,6,5.181,4.686,5.235,4.653,1.147,1.855,1.274,1.649,6,4.861,5.244,20,288.282476431,norm,0,23,23,23,348.087,348.095,348.097978382,348.099,348.102,348.107,up,1,4.16206281289,5.83793718711,001,017,800_600,Intel(R) Core(TM) i7-2670QM CPU @ 2.20GHz,orientation_search,GRVLAPTOP3,Intel(R) HD Graphics Family,2018_jul_06_1514,testMonitor,
1.5,-8.6,-2.7,8.7,36,20,26.6,5.7,7.1,18.3,8.05,7.953,7.706,7.825,8.206,8.276,7.577,4.413,-4.507,-8.349,1.858,-1.141,7.764,5.18,-4.467,-8.069,11.0,9.2,-7.52,2.1,-8.3,18.4,8.4,2.6,36,-1.2,3,5,prime,10,0,70,norm,36,-4.695,down,norm,6.62360379498,24.1,13.7,1.202,7.0,1,-13.4,5.5,14.4,10,5,7.502,5.203,1.24,-1.654,-5.194,-7.657,12.7,5,76.6,-7.832,-8.346,20,-7.743,-8.257,-4.425,-4.913,-4.933,-5.026,4.308,8.032,19,-1.53,1.256,4.868,7.656,-7.591,-7.74,-1.424,1.154,6.9,4.0,4.2,-4.3,11.3,15.5,13.1,11.9,7.4,3.4,2,norm,1.731,1.114,-1.427,-1.498,-4.39,-4.711,-1.234,-1.431,-1.986,-1.779,1.577,-2.085,,-0.9,-4.311,-7.528,16.9,-1.396,8.296,4.378,-4.516,-7.833,6,5.213,4.945,5.265,5.062,1.19,1.672,1.282,1.512,6,4.948,4.487,20,288.282476431,norm,0,24,24,24,352.281,352.288,352.290712644,352.291,352.295,352.3,down,1,1.98115902708,8.01884097292,001,017,800_600,Intel(R) Core(TM) i7-2670QM CPU @ 2.20GHz,orientation_search,GRVLAPTOP3,Intel(R) HD Graphics Family,2018_jul_06_1514,testMonitor,
7.8,-0.5,10.8,3.9,36,20,-11.3,-5.7,6.0,15.1,8.045,8.116,8.343,8.444,8.182,8.177,7.746,5.179,-4.801,-7.718,1.61,-1.198,8.5,4.82,-4.678,-8.263,-7.7,15.9,-7.533,0.8,17.6,-1.4,11.4,7.1,36,11.1,3,5,prime,10,0,100,norm,36,-4.324,down,norm,6.62360379498,9.3,-4.0,1.191,0.1,0,25.0,8.2,13.2,10,5,7.551,4.65,1.366,-2.005,-4.851,-7.691,9.5,5,106.6,-7.976,-7.782,20,-7.991,-8.475,-4.988,-4.799,-4.902,-4.584,5.289,8.11,18,-1.496,1.351,4.946,8.484,-8.408,-8.491,-1.19,1.433,21.5,-4.0,-0.7,-3.8,-10.1,26.6,10.3,11.6,-7.6,-6.9,3,norm,1.114,1.86,-1.175,-1.264,-5.265,-4.314,-1.396,-1.661,-1.903,-1.869,1.998,-1.925,13.1,,-5.262,-7.887,-13.4,-1.836,7.586,5.046,-4.397,-8.302,6,4.409,4.912,5.012,5.13,1.834,1.823,1.413,1.774,6,4.383,4.821,20,288.282476431,norm,0,25,25,25,354.292,354.3,354.302554794,354.303,354.307,354.312,up,0,1.67737565626,-10,001,017,800_600,Intel(R) Core(TM) i7-2670QM CPU @ 2.20GHz,orientation_search,GRVLAPTOP3,Intel(R) HD Graphics Family,2018_jul_06_1514,testMonitor,
17.0,12.2,17.8,13.7,36,20,,26.6,3.1,15.0,8.117,8.233,8.046,7.842,8.44,7.906,7.523,4.394,-5.159,-8.016,1.188,-2.072,8.226,4.417,-5.165,-7.875,-7.1,1.2,-8.467,0.3,10.9,18.8,-2.4,11.4,36,-13.4,4,5,prime,10,0,70,norm,36,-4.86,down,norm,6.62360379498,0.7,-12.3,1.304,11.2,0,18.9,9.6,12.8,10,5,7.544,5.159,1.649,-1.624,-5.038,-7.919,-1.8,5,76.6,-7.533,-8.117,20,-7.521,-7.629,-4.517,-4.495,-4.667,-5.188,5.279,7.562,24,-1.724,1.425,5.022,8.332,-7.673,-7.801,-1.925,2.087,13.0,-4.3,1.3,7.6,-0.7,-4.0,20.1,12.0,21.6,2.2,4,norm,2.017,2.011,-1.51,-2.046,-4.329,-5.246,-2.053,-1.991,-1.627,-1.615,1.927,-1.613,15.6,16.0,-4.856,-8.128,11.6,-1.859,7.878,5.249,-5.284,-8.098,6,4.773,5.299,5.241,4.648,2.022,1.523,1.167,1.801,6,5.067,5.231,20,288.282476431,norm,0,26,26,26,357.001,357.012,357.01646834,357.017,357.022,357.03,down,1,2.28374277317,7.71625722683,001,017,800_600,Intel(R) Core(TM) i7-2670QM CPU @ 2.20GHz,orientation_search,GRVLAPTOP3,Intel(R) HD Graphics Family,2018_jul_06_1514,testMonitor,
88.9,89.8,88.0,87.9,36,30,82.1,,98.2,90.3,8.333,8.316,7.706,7.553,8.124,8.13,7.838,4.836,-4.446,-7.656,1.669,-1.645,8.149,4.327,-4.439,-8.361,89.7,81.5,-7.555,86.9,93.5,84.2,90.3,89.5,36,90.4,4,5,probe,5,0,66,norm,36,-4.399,down,norm,88.1602553607,85.1,81.4,1.208,79.8,1,89.5,88.9,82.6,10,5,7.692,4.863,1.457,-1.708,-4.973,-7.912,85.8,1,22.2,-7.562,-8.153,20,-7.676,-7.597,-5.144,-4.985,-4.761,-4.539,4.856,7.83,25,-1.785,1.984,4.994,7.944,-7.585,-8.42,-1.654,1.549,89.0,84.9,78.2,94.6,86.9,87.5,85.3,83.7,83.9,85.5,0,norm,1.632,2.034,-1.69,-1.515,-5.065,-4.777,-1.7,-1.254,-1.882,-1.449,1.162,-1.451,87.7,80.7,-4.67,-7.615,84.0,-1.446,8.24,4.708,-4.654,-8.087,7,5.253,4.553,4.756,4.655,1.608,1.266,1.303,1.809,7,4.501,4.74,20,6.62360379498,norm,0,27,27,27,359.325,359.332,359.33457623,359.335,359.339,359.344,up,0,1.68483910599,-10,001,017,800_600,Intel(R) Core(TM) i7-2670QM CPU @ 2.20GHz,orientation_search,GRVLAPTOP3,Intel(R) HD Graphics Family,2018_jul_06_1514,testMonitor,
334.6,331.1,316.0,340.4,36,-30,337.4,327.2,349.5,342.5,7.625,8.278,8.133,7.687,8.381,7.727,7.813,4.728,-4.509,-7.892,1.789,-1.926,8.179,4.718,-4.534,-8.27,331.2,342.0,-7.618,322.7,337.0,356.0,354.3,338.4,36,342.5,0,5,prime,10,0,63,norm,36,-4.488,down,norm,336.040669151,325.3,339.6,2.001,316.3,0,335.4,352.9,340.6,10,6,8.178,5.05,1.564,-1.977,-4.586,-8.264,336.4,6,399.0,-7.548,-8.212,-30,-8.469,-7.962,-4.836,-4.723,-4.469,-4.649,4.758,7.98,0,-2.034,1.435,4.882,8.4,-8.366,-8.344,-1.25,2.076,341.5,334.7,346.1,334.4,328.5,,341.6,335.7,330.4,344.5,0,norm,1.564,1.598,-1.255,-1.943,-5.133,-4.508,-1.821,-1.988,-1.843,-1.462,1.487,-1.213,331.2,336.1,-4.31,-8.079,334.1,-1.723,7.892,4.304,-4.637,-7.923,8,4.499,4.453,5.246,4.351,1.382,1.538,1.568,1.931,8,4.369,4.559,30,6.62360379498,norm,0,28,28,28,362.04,362.054,362.057846755,362.058,362.064,362.073,down,1,0.0179971730104,9.98200282699,001,017,800_600,Intel(R) Core(TM) i7-2670QM CPU @ 2.20GHz,orientation_search,GRVLAPTOP3,Intel(R) HD Graphics Family,2018_jul_06_1514,testMonitor,
333.7,335.5,335.5,,36,-30,340.1,323.1,344.9,335.0,8.315,7.885,7.548,8.038,8.038,7.789,8.096,5.143,-5.26,-7.812,1.75,-1.598,8.352,5.001,-4.404,-8.036,345.7,349.6,-7.655,356.0,342.3,336.8,316.4,342.4,36,347.8,3,5,prime,10,0,95,norm,36,-4.627,up,norm,336.040669151,343.0,328.4,1.896,346.1,3,335.2,316.0,344.9,10,6,7.821,5.263,1.726,-1.619,-4.339,-7.524,331.2,6,431.0,-8.187,-7.887,-30,-7.543,-8.032,-5.067,-4.344,-4.64,-5.205,4.837,7.747,21,-1.549,1.243,5.194,7.764,-7.784,-8.245,-1.555,1.337,340.1,325.3,342.8,332.5,331.1,346.7,322.3,333.9,339.7,325.3,1,norm,1.918,1.322,-1.364,-1.339,-5.097,-4.553,-1.399,-1.474,-1.833,-1.375,1.466,-1.977,333.6,334.9,-4.429,-8.094,329.3,-2.046,7.579,5.11,-4.317,-8.411,8,4.825,5.159,4.568,4.849,1.227,1.468,2.062,1.844,8,5.208,4.79,30,6.62360379498,norm,0,29,29,29,362.109,362.121,362.125247081,362.126,362.132,362.141,up,1,1.45343200548,8.54656799452,001,017,800_600,Intel(R) Core(TM) i7-2670QM CPU @ 2.20GHz,orientation_search,GRVLAPTOP3,Intel(R) HD Graphics Family,2018_jul_06_1514,testMonitor,
343.3,340.8,342.6,321.6,36,-30,343.0,337.3,347.6,344.3,8.149,8.175,8.077,7.926,8.469,7.62,7.926,4.942,-5.097,-8.044,2.005,-1.344,8.249,4.72,-4.605,-7.764,,316.0,-8.279,330.0,350.0,338.8,344.8,339.8,36,332.3,5,5,prime,10,0,111,norm,36,-4.688,up,norm,336.040669151,341.5,320.9,1.987,343.7,5,343.6,334.3,351.3,10,6,8.062,5.078,1.489,-1.928,-4.644,-7.824,356.0,6,447.0,-8.432,-7.942,-30,-7.796,-8.037,-4.328,-4.893,-5.008,-4.567,4.869,8.132,35,-1.364,1.282,4.597,7.787,-8.134,-8.235,-1.69,1.999,350.7,340.2,348.2,331.2,345.3,352.5,346.5,333.4,342.3,346.1,2,norm,1.168,1.327,-1.383,-1.852,-4.361,-4.9,-1.204,-2.098,-1.638,-1.504,1.155,-1.944,323.7,342.2,-4.645,-7.685,341.9,-1.873,7.543,4.856,-4.955,-8.37,8,4.989,4.323,4.994,4.909,1.754,1.546,1.224,1.617,8,5.035,4.519,30,6.62360379498,norm,0,30,30,30,363.605,363.613,363.615142729,363.616,363.619,363.624,up,1,1.40998775163,8.59001224837,001,017,800_600,Intel(R) Core(TM) i7-2670QM CPU @ 2.20GHz,orientation_search,GRVLAPTOP3,Intel(R) HD Graphics Family,2018_jul_06_1514,testMonitor,
316.0,333.4,324.4,,36,-30,341.4,356.0,324.2,346.7,7.892,7.894,7.815,7.814,8.292,7.516,7.82,5.124,-4.59,-8.186,1.738,-1.293,8.326,4.712,-4.975,-8.178,346.8,346.1,-8.019,339.1,341.5,336.1,353.1,329.4,36,337.9,3,5,prime,10,0,77,norm,36,-5.139,up,norm,336.040669151,329.4,337.3,1.768,336.6,3,344.7,333.1,343.4,10,6,8.112,4.467,2.068,-1.668,-4.715,-7.73,346.2,6,413.0,-8.358,-7.643,-30,-7.504,-7.754,-5.158,-5.207,-5.172,-4.992,5.023,7.606,21,-1.74,1.326,4.759,8.141,-7.924,-8.478,-2.055,2.022,331.3,348.1,348.5,329.1,334.8,337.2,355.8,353.9,351.6,323.2,3,norm,1.994,1.621,-2.053,-1.508,-4.428,-5.117,-1.487,-1.378,-1.342,-1.839,1.594,-1.58,321.6,326.6,-4.822,-7.785,345.5,-2.006,7.632,5.014,-4.483,-7.6,8,5.151,4.877,5.265,4.608,1.495,1.884,1.92,1.406,8,4.602,5.255,30,6.62360379498,norm,0,31,31,31,365.046,365.056,365.058248342,365.059,365.063,365.068,up,1,1.75795410981,8.24204589019,001,017,800_600,Intel(R) Core(TM) i7-2670QM CPU @ 2.20GHz,orientation_search,GRVLAPTOP3,Intel(R) HD Graphics Family,2018_jul_06_1514,testMonitor,
340.9,330.3,332.8,352.9,36,-30,352.8,340.1,331.9,332.8,8.471,7.882,7.975,7.67,7.655,7.677,7.583,4.599,-5.203,-8.054,2.042,-1.712,7.708,4.369,-4.555,-7.842,342.8,341.8,-7.948,322.0,324.3,341.8,343.3,356.0,36,338.5,3,5,prime,10,0,80,norm,36,-4.92,down,norm,336.040669151,351.7,331.5,1.985,331.9,1,332.3,334.2,346.3,10,6,8.215,5.167,1.245,-1.555,-4.453,-8.358,316.0,6,416.0,-8.192,-7.63,-30,-7.775,-8.248,-4.814,-4.561,-4.417,-4.667,4.764,7.896,19,-1.129,1.771,5.269,7.777,-8.354,-8.218,-1.466,1.116,344.8,322.5,325.3,334.5,322.0,352.1,335.5,331.1,354.3,329.1,4,norm,1.954,1.547,-1.777,-1.673,-4.65,-4.335,-1.462,-1.27,-1.498,-1.746,1.882,-1.665,,341.1,-4.843,-7.746,331.2,-1.85,7.541,4.677,-4.571,-8.492,8,4.838,5.022,4.656,4.707,1.496,1.329,1.223,1.801,8,4.388,4.783,30,6.62360379498,norm,0,32,32,32,366.836,366.844,366.846764165,366.847,366.851,366.856,down,1,1.06064665801,8.93935334199,001,017,800_600,Intel(R) Core(TM) i7-2670QM CPU @ 2.20GHz,orientation_search,GRVLAPTOP3,Intel(R) HD Graphics Family,2018_jul_06_1514,testMonitor,
338.6,338.2,,322.8,36,-30,340.9,336.9,337.0,317.5,7.85,7.56,8.346,8.337,8.107,7.871,8.05,4.983,-4.686,-8.022,1.915,-1.704,7.723,4.678,-4.803,-8.009,316.0,351.1,-8.296,327.6,323.6,332.7,337.8,327.9,36,344.7,3,5,prime,10,0,85,norm,36,-5.298,down,norm,336.040669151,327.5,345.5,1.201,335.2,2,333.1,325.1,320.9,10,6,7.536,4.358,1.729,-1.616,-4.815,-8.031,341.0,6,421.0,-8.418,-8.325,-30,-8.293,-8.089,-5.178,-4.486,-5.125,-4.597,4.8,8.353,20,-1.171,1.661,4.863,7.511,-7.943,-7.537,-1.536,1.681,326.6,337.9,330.2,333.1,333.4,334.4,354.8,348.1,346.8,356.0,5,norm,1.328,1.808,-1.708,-1.653,-4.702,-4.431,-1.855,-1.669,-1.145,-1.485,2.044,-1.617,335.8,350.1,-4.922,-8.475,345.6,-1.324,7.696,4.482,-5.01,-8.381,8,4.511,4.592,4.378,4.912,1.665,1.523,1.192,1.698,8,4.419,4.893,30,6.62360379498,norm,0,33,33,33,367.927,367.934,367.936362919,367.937,367.941,367.945,down,1,1.47645975748,8.52354024252,001,017,800_600,Intel(R) Core(TM) i7-2670QM CPU @ 2.20GHz,orientation_search,GRVLAPTOP3,Intel(R) HD Graphics Family,2018_jul_06_1514,testMonitor,
421.4,422.7,423.1,427.3,36,60,431.6,414.8,427.8,414.6,8.314,7.973,8.148,8.137,7.982,8.165,8.057,4.703,-4.97,-8.301,1.151,-1.52,7.622,4.892,-5.051,-8.375,422.4,422.9,-7.925,427.2,428.8,,422.3,421.3,36,423.1,5,5,probe,5,0,115,norm,36,-5.275,up,norm,423.375639661,420.4,433.4,1.402,419.0,3,430.3,423.1,422.1,10,6,7.769,5.12,1.607,-1.297,-5.084,-8.02,425.8,1,308.4,-8.378,-7.794,-30,-8.093,-7.905,-4.946,-4.341,-5.182,-5.037,4.485,7.797,33,-1.466,1.629,4.303,8.495,-8.41,-8.302,-1.415,1.343,426.4,421.4,425.3,419.8,418.7,431.0,413.4,418.7,428.1,420.4,0,norm,1.386,2.089,-1.52,-1.438,-5.077,-5.149,-1.141,-1.999,-1.164,-1.982,1.692,-1.444,427.8,424.9,-5.088,-7.903,429.2,-1.525,8.096,5.007,-4.516,-8.313,9,5.02,4.486,4.873,4.432,1.591,1.863,2.021,1.899,9,4.321,4.682,-30,336.040669151,norm,0,34,34,34,369.433,369.441,369.443244768,369.444,369.447,369.452,up,1,2.00346485624,7.99653514376,001,017,800_600,Intel(R) Core(TM) i7-2670QM CPU @ 2.20GHz,orientation_search,GRVLAPTOP3,Intel(R) HD Graphics Family,2018_jul_06_1514,testMonitor,
343.8,333.7,332.7,336.0,36,-40,348.4,338.5,323.9,342.3,8.241,7.603,8.054,8.366,7.828,7.523,8.061,4.493,-4.617,-8.337,1.64,-1.819,7.618,4.434,-4.662,-7.92,334.6,349.9,-7.966,345.4,334.2,343.0,343.3,344.9,36,347.8,2,5,prime,10,0,101,norm,36,-4.645,up,norm,340.201462574,,332.6,1.66,360.2,5,341.9,320.2,328.1,10,5,7.537,4.684,1.478,-1.922,-5.182,-8.449,348.6,5,441.2,-7.556,-8.134,-40,-7.585,-8.061,-4.433,-4.824,-5.275,-4.755,5.222,8.193,17,-1.248,1.252,4.428,7.98,-8.445,-8.44,-1.631,1.68,355.3,332.6,332.0,335.7,321.7,334.3,344.1,332.0,331.8,347.6,0,norm,1.445,1.659,-1.828,-1.3,-4.458,-4.403,-2.0,-1.668,-1.326,-1.127,2.095,-1.17,341.9,343.3,-4.418,-8.455,342.5,-1.199,8.305,4.746,-4.897,-8.185,10,5.011,5.103,4.988,5.233,1.227,1.835,1.713,1.995,10,4.582,4.617,60,336.040669151,norm,0,35,35,35,371.467,371.475,371.477101363,371.477,371.481,371.486,up,1,2.93424991705,7.06575008295,001,017,800_600,Intel(R) Core(TM) i7-2670QM CPU @ 2.20GHz,orientation_search,GRVLAPTOP3,Intel(R) HD Graphics Family,2018_jul_06_1514,testMonitor,
320.2,,339.0,341.8,36,-40,340.5,337.5,331.6,352.9,8.199,7.719,8.121,8.3,8.109,7.945,7.668,4.365,-5.175,-8.119,1.973,-1.477,8.018,5.209,-4.596,-8.331,338.1,331.7,-8.237,338.1,354.0,335.7,344.1,338.2,36,339.7,3,5,prime,10,0,74,norm,36,-5.253,up,norm,340.201462574,342.0,340.4,1.261,325.8,5,336.7,338.6,348.2,10,5,7.895,4.653,2.036,-1.907,-4.908,-8.474,348.8,5,414.2,-7.951,-8.088,-40,-7.833,-7.509,-4.64,-5.231,-4.665,-4.607,4.686,8.021,23,-1.561,2.001,4.622,7.838,-7.7,-8.487,-1.456,1.7,344.6,349.2,352.6,339.0,350.5,347.5,329.7,354.4,340.4,360.2,1,norm,1.805,1.426,-2.095,-1.735,-4.525,-4.677,-1.119,-1.794,-1.723,-1.57,1.991,-1.867,333.3,332.9,-4.707,-7.989,336.7,-1.989,7.667,4.575,-4.521,-8.045,10,4.895,4.56,4.432,5.031,1.124,1.815,1.626,1.506,10,4.398,4.735,60,336.040669151,norm,0,36,36,36,374.431,374.438,374.44073298,374.441,374.445,374.45,up,1,0.936856497487,9.06314350251,001,017,800_600,Intel(R) Core(TM) i7-2670QM CPU @ 2.20GHz,orientation_search,GRVLAPTOP3,Intel(R) HD Graphics Family,2018_jul_06_1514,testMonitor,
341.8,348.8,351.3,325.1,36,-40,345.6,343.2,350.0,331.9,8.379,7.517,7.621,8.289,7.619,7.781,7.695,4.492,-5.205,-8.104,1.795,-1.111,7.809,5.027,-4.712,-7.874,,336.1,-8.086,345.7,331.2,353.7,336.4,332.9,36,336.0,5,5,prime,10,0,88,norm,36,-4.566,up,norm,340.201462574,335.6,320.2,1.621,355.1,5,355.7,336.7,345.6,10,5,7.661,4.979,1.699,-1.787,-4.909,-7.891,346.7,5,428.2,-8.021,-7.854,-40,-7.596,-7.719,-5.299,-4.974,-4.719,-4.565,4.396,8.315,35,-1.744,1.443,5.3,7.532,-8.041,-7.931,-1.979,1.142,360.2,344.4,320.3,345.5,334.0,339.5,335.2,356.1,337.8,331.7,2,norm,1.629,1.157,-1.616,-1.507,-4.637,-5.073,-1.659,-1.292,-1.456,-1.547,1.149,-1.173,333.6,356.3,-4.899,-8.114,351.7,-1.988,8.403,5.23,-4.44,-8.236,10,4.515,5.239,5.043,5.096,1.361,1.808,1.511,1.802,10,5.113,4.96,60,336.040669151,norm,0,37,37,37,375.401,375.41,375.413252281,375.414,375.418,375.424,up,1,2.81169673824,7.18830326176,001,017,800_600,Intel(R) Core(TM) i7-2670QM CPU @ 2.20GHz,orientation_search,GRVLAPTOP3,Intel(R) HD Graphics Family,2018_jul_06_1514,testMonitor,
325.5,340.5,322.3,329.2,36,-40,345.5,340.2,345.7,325.6,8.457,7.615,7.988,8.162,7.514,8.339,7.892,4.555,-5.295,-7.676,1.562,-1.324,8.228,5.207,-4.792,-7.688,360.2,320.2,-8.465,354.4,322.1,324.8,340.0,343.1,36,348.4,1,5,prime,10,0,77,norm,36,-4.978,up,norm,340.201462574,333.2,351.2,1.53,342.9,3,341.4,328.8,344.5,10,5,8.132,4.884,1.215,-1.161,-4.606,-8.42,351.7,5,417.2,-7.784,-8.307,-40,-8.443,-8.401,-4.387,-5.022,-4.332,-5.024,5.125,8.171,9,-1.781,1.991,4.966,7.998,-7.974,-8.168,-1.769,1.414,,344.1,343.0,349.3,341.4,339.7,332.8,359.4,346.2,329.2,3,norm,1.233,1.409,-1.767,-1.234,-5.118,-4.808,-1.568,-1.356,-1.401,-2.087,1.158,-1.393,326.5,348.9,-4.468,-8.425,348.7,-1.343,7.843,5.224,-5.055,-7.966,10,4.864,4.598,4.408,4.692,1.221,1.625,1.583,1.776,10,4.983,4.618,60,336.040669151,norm,0,38,38,38,378.25,378.26,378.262856041,378.263,378.268,378.274,up,1,2.08590321848,7.91409678152,001,017,800_600,Intel(R) Core(TM) i7-2670QM CPU @ 2.20GHz,orientation_search,GRVLAPTOP3,Intel(R) HD Graphics Family,2018_jul_06_1514,testMonitor,
360.2,340.8,347.2,323.0,36,-40,340.5,336.2,335.8,344.0,7.709,7.613,7.696,8.295,7.884,7.732,7.66,4.314,-4.723,-7.548,1.83,-1.856,7.931,4.588,-4.578,-8.25,346.7,340.1,-8.22,351.5,320.2,352.1,344.5,348.4,36,331.6,1,5,prime,10,0,60,norm,36,-4.306,up,norm,340.201462574,332.1,325.5,1.254,350.1,4,330.9,328.6,341.1,10,5,8.122,4.777,1.191,-1.71,-4.636,-7.873,,5,400.2,-7.547,-7.792,-40,-7.829,-7.957,-4.677,-4.581,-5.284,-4.557,5.049,7.743,10,-1.856,1.462,5.257,7.582,-8.033,-7.918,-1.727,1.805,342.4,338.7,337.8,341.8,353.1,338.1,330.4,335.3,355.4,340.5,4,norm,1.397,1.37,-1.344,-1.961,-4.831,-4.984,-1.802,-1.498,-1.912,-1.81,1.447,-1.546,333.4,352.5,-4.516,-8.268,326.7,-1.21,8.388,5.229,-4.688,-7.742,10,4.588,4.635,4.61,5.202,2.023,1.764,1.293,1.674,10,4.88,4.833,60,336.040669151,norm,0,39,39,39,380.375,380.386,380.389582457,380.39,380.396,380.403,up,1,1.43810165103,8.56189834897,001,017,800_600,Intel(R) Core(TM) i7-2670QM CPU @ 2.20GHz,orientation_search,GRVLAPTOP3,Intel(R) HD Graphics Family,2018_jul_06_1514,testMonitor,
373.6,376.0,367.7,373.8,36,80,380.0,375.9,372.1,,7.981,8.388,8.245,8.499,7.936,7.672,7.662,5.231,-4.973,-8.485,1.998,-1.135,7.814,4.301,-5.233,-7.508,374.0,364.4,-8.43,377.5,379.4,382.8,370.2,369.5,36,377.6,4,5,probe,5,0,82,norm,36,-4.707,up,norm,374.385197657,376.4,379.4,1.806,369.5,5,380.2,367.5,375.8,10,5,7.99,4.328,1.609,-1.733,-4.674,-7.664,377.9,1,292.4,-7.654,-7.513,-40,-8.476,-7.557,-5.132,-5.169,-4.451,-4.438,4.859,7.574,29,-2.002,1.262,5.127,7.868,-7.792,-8.114,-1.463,1.681,384.4,379.1,375.0,372.3,376.8,370.6,367.9,375.1,373.7,380.8,0,norm,1.916,1.718,-2.042,-2.019,-4.91,-5.201,-1.835,-1.4,-1.728,-1.878,1.239,-2.046,378.5,374.3,-4.705,-8.239,370.2,-1.256,7.501,5.004,-4.919,-7.655,11,5.133,5.271,4.673,4.96,1.286,1.569,2.036,2.098,11,5.289,4.575,-40,340.201462574,norm,0,40,40,40,381.859,381.872,381.876187425,381.877,381.883,381.891,up,1,1.50559163356,8.49440836644,001,017,800_600,Intel(R) Core(TM) i7-2670QM CPU @ 2.20GHz,orientation_search,GRVLAPTOP3,Intel(R) HD Graphics Family,2018_jul_06_1514,testMonitor,
268.6,259.1,,277.5,36,-10,287.6,275.2,260.5,268.3,7.875,7.935,8.188,7.541,8.177,7.503,7.533,5.004,-4.932,-8.338,1.398,-1.667,7.578,4.581,-5.246,-8.011,258.3,265.0,-7.893,259.8,265.7,280.2,276.9,273.3,36,256.1,3,5,prime,10,0,82,norm,36,-4.709,down,norm,267.6236606,272.7,267.4,1.743,268.9,2,272.5,277.4,260.1,10,5,8.216,4.509,1.971,-1.453,-5.286,-8.296,257.8,5,349.6,-8.479,-8.117,-10,-7.812,-7.826,-5.293,-4.843,-5.022,-4.486,5.22,7.789,20,-1.823,1.993,5.055,7.743,-7.803,-7.674,-1.226,1.317,262.5,269.5,250.1,280.7,279.4,263.1,258.5,247.6,253.8,255.6,0,norm,1.793,1.597,-1.924,-1.753,-4.333,-4.675,-1.532,-1.713,-1.325,-1.382,1.327,-1.482,254.4,269.7,-5.079,-8.388,258.0,-1.733,8.128,4.819,-4.516,-7.777,12,5.268,4.565,4.865,5.137,1.414,1.292,2.046,1.932,12,4.829,4.347,80,340.201462574,norm,0,41,41,41,383.436,383.463,383.471773329,383.473,383.487,383.507,down,1,2.68844311679,7.31155688321,001,017,800_600,Intel(R) Core(TM) i7-2670QM CPU @ 2.20GHz,orientation_search,GRVLAPTOP3,Intel(R) HD Graphics Family,2018_jul_06_1514,testMonitor,
283.4,263.5,263.3,264.3,36,-10,262.1,264.2,280.9,276.2,7.64,8.139,7.585,8.036,8.028,7.7,8.084,4.781,-4.331,-7.931,1.676,-1.613,8.319,4.84,-4.642,-8.451,272.7,273.6,-7.576,252.8,247.6,270.1,263.6,261.8,36,287.6,2,5,prime,10,0,106,norm,36,-5.11,up,norm,267.6236606,273.0,249.2,1.971,273.0,3,264.3,276.2,259.5,10,5,7.568,4.846,1.281,-1.28,-4.395,-8.164,255.9,5,373.6,-8.245,-8.052,-10,-8.056,-8.273,-4.544,-4.441,-4.737,-5.213,5.22,8.395,15,-2.009,1.488,4.962,7.924,-7.954,-7.628,-1.346,1.732,264.3,269.9,278.8,256.8,280.6,260.9,270.0,267.6,264.6,265.4,1,norm,1.425,1.663,-1.829,-1.246,-5.064,-4.481,-1.759,-1.815,-1.408,-1.602,1.514,-1.128,279.4,260.0,-4.768,-8.452,,-1.45,7.639,4.568,-5.136,-8.342,12,4.866,4.92,4.527,4.383,1.139,1.639,1.83,1.298,12,4.606,4.77,80,340.201462574,norm,0,42,42,42,386.235,386.263,386.272287734,386.273,386.288,386.307,up,1,1.74466577917,8.25533422083,001,017,800_600,Intel(R) Core(TM) i7-2670QM CPU @ 2.20GHz,orientation_search,GRVLAPTOP3,Intel(R) HD Graphics Family,2018_jul_06_1514,testMonitor,
251.1,256.6,261.3,252.2,36,-10,275.6,275.6,281.4,276.3,8.309,7.516,8.493,8.423,7.569,8.075,8.216,4.525,-4.599,-7.588,1.221,-1.256,8.213,4.677,-5.039,-8.082,249.4,271.1,-8.032,276.5,257.3,263.3,275.9,271.4,36,248.1,2,5,prime,10,0,88,norm,36,-4.613,up,norm,267.6236606,280.9,269.2,1.512,263.6,3,267.4,253.8,263.6,10,5,8.105,5.002,1.958,-1.243,-5.038,-7.656,261.4,5,355.6,-8.166,-8.097,-10,-7.513,-7.835,-4.839,-4.623,-5.293,-4.778,4.364,8.458,15,-1.317,1.18,4.317,8.082,-8.227,-7.579,-1.13,1.281,267.7,287.6,268.1,256.8,260.9,262.8,272.9,251.4,276.7,247.6,2,norm,1.633,2.05,-1.53,-1.581,-4.828,-5.163,-1.802,-1.964,-1.707,-1.381,1.482,-1.792,270.9,270.2,-4.407,-8.276,,-1.961,8.322,4.859,-4.888,-8.327,12,5.163,4.732,4.795,4.552,1.643,1.461,1.186,1.513,12,4.827,4.356,80,340.201462574,norm,0,43,43,43,388.092,388.121,388.130364048,388.132,388.145,388.165,up,1,2.6397446093,7.3602553907,001,017,800_600,Intel(R) Core(TM) i7-2670QM CPU @ 2.20GHz,orientation_search,GRVLAPTOP3,Intel(R) HD Graphics Family,2018_jul_06_1514,testMonitor,
269.0,277.3,259.0,278.2,36,-10,269.0,272.2,262.8,268.3,8.275,8.096,8.002,7.875,7.655,7.843,8.423,5.259,-4.904,-8.008,1.717,-1.43,7.674,5.207,-4.579,-7.531,270.5,270.8,-7.797,280.0,255.8,,285.2,263.5,36,287.6,5,5,prime,10,0,60,norm,36,-5.164,up,norm,267.6236606,278.1,278.4,1.573,278.4,3,266.0,275.2,268.9,10,5,8.403,4.892,1.549,-2.001,-4.763,-7.536,281.2,5,327.6,-7.636,-8.332,-10,-7.513,-7.519,-4.622,-4.892,-4.462,-4.591,4.887,7.864,33,-1.377,1.271,4.948,8.046,-7.676,-7.573,-1.706,1.716,271.8,260.2,274.1,274.6,274.3,264.4,263.9,280.1,263.1,247.6,3,norm,1.314,1.163,-1.14,-1.8,-4.881,-4.901,-1.95,-1.978,-1.876,-1.294,1.248,-1.938,265.7,267.3,-4.764,-7.745,280.7,-1.832,7.514,4.515,-4.368,-8.364,12,4.496,4.843,5.18,4.987,1.932,1.109,1.854,2.015,12,4.832,4.908,80,340.201462574,norm,0,44,44,44,390.845,390.872,390.880980788,390.882,390.896,390.915,down,0,2.33391968167,-10,001,017,800_600,Intel(R) Core(TM) i7-2670QM CPU @ 2.20GHz,orientation_search,GRVLAPTOP3,Intel(R) HD Graphics Family,2018_jul_06_1514,testMonitor,
256.4,267.0,285.4,260.9,36,-10,268.4,264.0,271.0,253.4,8.045,8.014,8.248,7.576,7.954,8.462,7.525,4.8,-4.873,-7.513,1.32,-1.763,8.169,4.953,-4.967,-8.326,278.2,252.5,-8.363,247.6,260.0,272.1,287.6,280.8,36,263.6,1,5,prime,10,0,91,norm,36,-4.769,down,norm,267.6236606,283.8,277.4,1.437,270.0,0,269.2,263.5,268.2,10,5,8.292,4.473,1.722,-2.059,-5.115,-7.587,264.6,5,358.6,-7.956,-8.215,-10,-7.779,-8.486,-4.993,-4.866,-4.872,-5.189,4.739,7.808,6,-1.45,1.97,4.71,7.818,-8.397,-8.437,-1.8,1.906,273.8,267.4,258.2,258.3,271.8,269.0,260.8,,264.4,261.2,4,norm,1.88,1.492,-1.642,-1.183,-5.137,-5.132,-1.77,-1.699,-1.397,-1.194,1.82,-1.42,252.1,280.6,-4.553,-7.737,271.1,-1.292,8.452,4.313,-4.486,-7.849,12,4.37,4.435,4.822,5.17,1.57,1.39,1.231,1.799,12,5.069,4.718,80,340.201462574,norm,0,45,45,45,394.304,394.331,394.34036282,394.341,394.355,394.374,down,1,2.20926750975,7.79073249025,001,017,800_600,Intel(R) Core(TM) i7-2670QM CPU @ 2.20GHz,orientation_search,GRVLAPTOP3,Intel(R) HD Graphics Family,2018_jul_06_1514,testMonitor,
348.4,337.2,343.8,338.9,36,-80,332.3,337.3,352.3,344.5,7.71,7.868,8.028,7.528,8.387,7.528,7.587,5.086,-4.758,-7.995,1.59,-1.444,7.997,5.038,-5.126,-8.379,338.5,340.9,-8.038,345.3,339.8,,348.2,347.4,36,345.5,5,5,probe,5,0,81,norm,36,-5.037,up,norm,342.346090155,340.3,348.1,1.71,340.4,3,344.6,346.3,341.6,10,5,7.822,5.114,2.09,-2.053,-4.67,-7.64,347.6,2,261.3,-7.925,-8.281,-10,-8.423,-7.639,-4.554,-4.687,-4.891,-5.282,4.757,8.461,33,-1.157,1.9,4.863,8.401,-8.275,-7.574,-1.473,1.246,349.5,351.2,337.4,342.7,337.2,336.7,346.1,350.2,336.0,344.0,0,norm,1.356,1.201,-1.585,-1.662,-4.983,-4.735,-1.36,-1.492,-1.698,-2.094,1.604,-1.705,342.1,338.9,-4.315,-8.303,338.8,-1.425,8.088,4.639,-5.162,-7.571,13,5.164,5.284,5.018,4.562,1.723,1.514,2.044,1.351,13,4.631,4.359,-10,267.6236606,norm,0,46,46,46,396.624,396.653,396.661479811,396.663,396.677,396.696,up,1,0.837223202572,9.16277679743,001,017,800_600,Intel(R) Core(TM) i7-2670QM CPU @ 2.20GHz,orientation_search,GRVLAPTOP3,Intel(R) HD Graphics Family,2018_jul_06_1514,testMonitor,
320.2,316.2,328.6,321.1,36,-80,330.3,320.9,325.3,317.8,8.114,7.8,8.287,8.48,7.539,8.498,8.491,4.511,-4.988,-7.618,2.053,-1.333,7.582,4.863,-5.108,-7.598,315.6,315.3,-7.702,315.0,321.4,330.1,331.3,325.7,36,316.3,0,5,probe,5,0,62,norm,36,-4.655,up,norm,323.346090155,326.1,332.8,1.509,329.3,5,315.1,328.5,317.6,10,5,8.234,5.189,1.293,-2.02,-4.631,-8.239,314.2,2,261.3,-7.719,-8.375,-10,-8.187,-7.814,-4.59,-4.691,-4.705,-4.707,5.163,7.871,5,-1.163,1.426,4.423,8.331,-8.064,-7.577,-1.735,1.549,319.2,326.1,317.4,325.0,329.4,325.1,323.8,324.1,,317.3,1,norm,1.333,1.275,-1.805,-1.796,-4.613,-4.375,-1.421,-1.527,-1.884,-1.146,1.965,-1.692,333.3,313.3,-4.49,-7.899,327.3,-1.786,7.6,5.002,-4.638,-8.286,13,5.24,4.986,5.143,4.8,1.255,1.493,1.676,2.052,13,5.094,4.399,-10,267.6236606,norm,0,47,47,47,397.572,397.6,397.608620674,397.61,397.623,397.642,up,1,0.775007086108,9.22499291389,001,017,800_600,Intel(R) Core(TM) i7-2670QM CPU @ 2.20GHz,orientation_search,GRVLAPTOP3,Intel(R) HD Graphics Family,2018_jul_06_1514,testMonitor,
200.4,,194.8,203.0,36,-20,190.8,200.0,195.0,186.9,8.139,7.852,7.571,8.178,7.599,7.782,7.937,4.537,-4.455,-8.348,1.407,-1.781,8.329,5.282,-4.799,-8.338,175.1,195.5,-7.86,178.5,205.7,172.9,200.6,192.5,36,180.9,3,5,prime,10,0,96,norm,36,-4.744,up,norm,185.659333269,185.1,180.8,1.43,185.1,5,188.4,172.2,184.9,10,5,8.467,4.382,1.401,-1.969,-4.812,-7.97,195.2,5,281.7,-8.203,-8.188,-20,-7.883,-8.019,-4.987,-4.424,-4.428,-5.129,5.058,7.723,23,-1.229,1.427,4.594,8.476,-7.904,-8.293,-2.024,1.124,188.4,190.8,191.6,180.9,191.1,193.1,179.9,182.8,189.8,184.4,0,norm,1.669,1.905,-1.402,-1.956,-5.035,-4.956,-1.363,-1.961,-1.971,-1.932,1.567,-1.97,172.7,175.5,-4.411,-7.675,165.7,-1.45,7.944,5.208,-4.886,-7.841,14,4.973,4.955,4.629,5.207,1.24,1.606,1.159,1.981,14,4.667,4.811,-80,267.6236606,norm,0,48,48,48,398.456,398.484,398.492814626,398.494,398.508,398.527,up,1,1.2830843571,8.7169156429,001,017,800_600,Intel(R) Core(TM) i7-2670QM CPU @ 2.20GHz,orientation_search,GRVLAPTOP3,Intel(R) HD Graphics Family,2018_jul_06_1514,testMonitor,
185.6,187.9,196.8,177.7,36,-20,195.1,165.7,192.5,185.2,8.226,7.929,8.244,7.727,8.138,7.575,8.413,5.188,-5.143,-8.314,1.351,-1.539,7.955,4.332,-4.88,-8.093,173.1,205.7,-7.727,178.6,187.9,177.5,182.5,188.1,36,179.9,1,5,prime,10,0,86,norm,36,-5.107,up,norm,185.659333269,187.2,193.7,1.388,172.6,4,185.8,183.7,185.4,10,5,7.574,5.295,1.633,-1.541,-4.776,-7.847,,5,271.7,-8.342,-8.488,-20,-8.076,-8.401,-4.581,-5.256,-4.649,-4.598,4.922,7.563,10,-2.05,1.972,5.193,7.674,-7.712,-7.699,-1.254,2.041,179.4,184.5,194.2,194.1,172.3,192.6,184.2,195.1,177.0,203.4,1,norm,1.839,1.427,-1.835,-1.682,-5.001,-5.133,-1.551,-1.912,-1.315,-1.103,1.305,-1.739,175.5,177.3,-4.607,-8.382,187.8,-1.713,8.274,4.965,-4.986,-7.522,14,4.777,4.805,5.195,4.777,1.597,1.834,1.818,2.044,14,4.674,4.466,-80,267.6236606,norm,0,49,49,49,399.849,399.879,399.888402678,399.89,399.904,399.923,up,1,1.80684874125,8.19315125875,001,017,800_600,Intel(R) Core(TM) i7-2670QM CPU @ 2.20GHz,orientation_search,GRVLAPTOP3,Intel(R) HD Graphics Family,2018_jul_06_1514,testMonitor,
172.6,173.1,,174.4,36,-20,189.9,165.7,180.7,187.4,8.185,8.165,7.515,8.207,7.779,7.72,8.483,4.806,-4.319,-7.565,1.719,-2.099,8.495,4.963,-5.14,-7.699,190.3,184.4,-8.491,183.1,176.5,188.5,184.2,199.6,36,193.1,3,5,prime,10,0,84,norm,36,-5.148,down,norm,185.659333269,174.7,190.8,1.595,194.3,2,193.8,183.0,189.2,10,5,8.4,4.579,2.093,-1.407,-4.428,-7.706,193.3,5,269.7,-7.992,-7.641,-20,-7.603,-8.185,-4.786,-5.249,-4.977,-4.402,4.912,7.757,20,-1.962,1.866,4.965,8.342,-7.733,-8.455,-1.557,1.564,183.0,174.9,178.6,195.9,190.8,185.5,185.4,190.7,201.3,205.7,2,norm,1.873,1.37,-1.378,-1.79,-4.818,-4.758,-1.954,-1.566,-1.135,-1.477,1.906,-1.533,194.7,171.4,-4.925,-7.722,194.0,-1.63,7.642,4.36,-5.165,-8.09,14,5.228,5.092,4.598,4.765,1.236,1.735,1.643,1.115,14,4.429,4.495,-80,267.6236606,norm,0,50,50,50,401.77,401.798,401.806944468,401.808,401.822,401.841,down,1,1.2326809722,8.7673190278,001,017,800_600,Intel(R) Core(TM) i7-2670QM CPU @ 2.20GHz,orientation_search,GRVLAPTOP3,Intel(R) HD Graphics Family,2018_jul_06_1514,testMonitor,
168.7,195.9,177.7,183.3,36,-20,183.4,181.4,188.7,168.9,7.643,7.717,8.048,7.83,7.565,7.553,8.195,4.517,-4.665,-7.525,1.291,-1.119,7.826,4.805,-5.103,-8.242,173.0,205.7,-7.929,186.9,165.7,,189.7,199.0,36,184.4,5,5,prime,10,0,117,norm,36,-4.79,up,norm,185.659333269,203.3,183.9,1.279,186.2,3,191.4,184.1,181.1,10,5,8.244,5.118,1.66,-1.44,-5.22,-8.23,184.0,5,302.7,-8.247,-7.659,-20,-7.951,-8.325,-4.875,-5.225,-4.793,-4.534,4.326,8.46,33,-1.953,1.522,5.036,7.962,-8.222,-8.12,-1.412,1.92,192.8,192.8,172.7,182.0,175.9,193.2,176.9,192.5,188.7,177.1,3,norm,1.297,1.711,-1.447,-1.49,-5.063,-4.914,-1.358,-2.064,-1.35,-1.774,1.717,-1.564,174.2,185.3,-5.098,-8.225,192.1,-1.761,7.962,4.313,-5.03,-7.972,14,4.576,4.74,4.334,4.828,1.535,1.607,1.665,2.016,14,4.599,5.165,-80,267.6236606,norm,0,51,51,51,403.114,403.141,403.150961731,403.152,403.167,403.186,up,1,2.29101616947,7.70898383053,001,017,800_600,Intel(R) Core(TM) i7-2670QM CPU @ 2.20GHz,orientation_search,GRVLAPTOP3,Intel(R) HD Graphics Family,2018_jul_06_1514,testMonitor,
187.4,205.7,189.9,191.8,36,-20,185.8,205.2,180.9,187.8,8.382,7.705,8.138,7.692,8.393,8.122,8.385,4.558,-5.242,-7.788,2.061,-1.736,7.927,4.492,-4.869,-7.868,192.9,184.0,-8.254,174.4,187.6,169.7,190.5,179.7,36,186.4,2,5,prime,10,0,117,norm,36,-4.968,up,norm,185.659333269,181.9,176.1,1.687,198.7,3,181.8,195.8,192.3,10,5,8.472,5.033,1.367,-1.474,-4.73,-8.313,200.1,5,302.7,-8.495,-8.156,-20,-8.14,-8.242,-5.173,-5.134,-5.1,-5.147,5.249,8.132,15,-1.186,1.115,5.111,8.295,-8.124,-8.308,-1.171,1.324,165.7,186.2,176.7,175.0,182.0,180.4,170.9,183.1,184.2,178.1,4,norm,1.219,1.563,-1.228,-2.019,-4.37,-4.821,-1.339,-1.486,-1.191,-1.826,1.877,-1.388,185.0,187.7,-5.13,-7.81,,-1.6,7.917,4.798,-4.757,-8.369,14,4.533,5.05,4.947,5.031,1.693,1.693,1.636,1.178,14,5.071,5.132,-80,267.6236606,norm,0,52,52,52,405.515,405.544,405.553743329,405.555,405.569,405.588,down,0,2.06068728369,-10,001,017,800_600,Intel(R) Core(TM) i7-2670QM CPU @ 2.20GHz,orientation_search,GRVLAPTOP3,Intel(R) HD Graphics Family,2018_jul_06_1514,testMonitor,
246.4,256.1,247.8,253.7,36,-30,263.0,256.7,257.4,,8.324,8.474,8.49,7.795,7.564,7.871,7.83,4.462,-5.196,-7.629,2.086,-1.652,8.338,4.846,-4.924,-8.403,250.8,257.4,-7.591,256.1,254.2,246.2,253.2,249.0,36,252.2,4,5,probe,5,0,92,norm,36,-5.112,up,norm,252.951311921,253.3,260.5,1.399,260.0,5,253.2,245.5,248.9,10,5,7.52,4.595,1.537,-1.949,-5.276,-7.908,255.7,1,161.0,-8.343,-8.309,-20,-8.331,-7.818,-4.689,-4.912,-5.234,-4.821,4.629,8.355,29,-1.233,1.618,5.229,8.066,-7.906,-8.157,-1.259,1.765,257.5,262.8,254.9,249.2,257.0,260.7,256.7,244.7,252.7,249.0,0,norm,1.318,1.342,-1.997,-1.195,-4.916,-5.198,-1.318,-1.381,-1.738,-1.471,1.71,-1.598,258.9,246.7,-4.5,-7.998,243.0,-1.394,8.308,4.857,-4.474,-7.942,15,4.889,5.123,4.66,4.721,1.733,1.497,1.492,1.165,15,5.284,5.146,-20,185.659333269,norm,0,53,53,53,408.703,408.732,408.74107998,408.742,408.756,408.776,up,1,1.13997131924,8.86002868076,001,017,800_600,Intel(R) Core(TM) i7-2670QM CPU @ 2.20GHz,orientation_search,GRVLAPTOP3,Intel(R) HD Graphics Family,2018_jul_06_1514,testMonitor,
313.0,311.3,315.0,344.2,36,10,314.5,335.8,323.1,313.7,7.949,7.598,7.893,8.349,8.256,7.514,8.381,5.153,-4.466,-7.588,1.308,-1.259,8.492,5.004,-4.521,-8.181,310.7,338.3,-8.394,328.0,311.4,322.8,320.8,323.1,36,309.4,2,5,prime,10,0,64,norm,36,-4.97,down,norm,324.184536913,317.4,330.0,1.355,327.6,0,337.6,335.3,,10,5,8.333,5.253,1.202,-1.818,-4.618,-7.532,328.0,5,388.2,-8.343,-8.07,10,-7.799,-7.563,-5.017,-4.78,-4.966,-4.925,5.065,7.838,12,-1.518,1.414,5.142,7.554,-7.763,-8.056,-1.419,1.888,333.6,313.1,320.6,318.1,312.9,329.2,304.2,317.7,328.9,328.1,0,norm,1.97,1.671,-1.843,-1.862,-4.655,-4.545,-1.818,-1.7,-1.701,-1.247,1.218,-1.828,322.6,342.5,-5.193,-7.835,314.4,-1.873,8.276,4.411,-4.863,-7.891,16,4.621,4.881,4.595,4.836,1.212,1.681,2.039,1.67,16,5.25,5.045,-30,185.659333269,norm,0,54,54,54,409.955,409.982,409.990949814,409.992,410.006,410.025,down,1,1.29261831526,8.70738168474,001,017,800_600,Intel(R) Core(TM) i7-2670QM CPU @ 2.20GHz,orientation_search,GRVLAPTOP3,Intel(R) HD Graphics Family,2018_jul_06_1514,testMonitor,
330.0,316.7,333.2,335.0,36,10,311.0,330.9,329.7,312.1,7.63,7.826,8.188,7.57,8.244,7.501,8.068,5.109,-4.526,-8.076,1.111,-2.043,8.105,4.371,-5.112,-8.071,327.4,312.6,-8.201,324.0,329.0,307.2,331.3,327.5,36,319.0,2,5,prime,10,0,66,norm,36,-4.548,down,norm,324.184536913,324.1,319.1,1.688,325.3,1,339.0,,304.2,10,5,7.878,4.371,1.298,-1.645,-5.149,-8.051,325.6,5,390.2,-7.734,-8.101,10,-8.176,-7.994,-4.624,-5.201,-5.208,-4.669,5.177,8.008,13,-1.355,1.754,5.141,7.604,-8.128,-7.678,-2.003,2.017,312.3,343.0,316.6,340.7,320.7,334.8,344.2,311.8,312.6,329.3,1,norm,1.202,1.976,-1.525,-1.376,-5.256,-4.689,-1.975,-1.257,-1.862,-1.725,1.666,-1.515,321.3,317.8,-4.713,-7.568,332.3,-1.786,7.925,4.646,-4.364,-7.695,16,4.778,4.726,4.881,4.605,1.317,1.672,2.079,1.654,16,5.007,5.018,-30,185.659333269,norm,0,55,55,55,411.358,411.387,411.395719735,411.397,411.411,411.43,down,1,0.942444161861,9.05755583814,001,017,800_600,Intel(R) Core(TM) i7-2670QM CPU @ 2.20GHz,orientation_search,GRVLAPTOP3,Intel(R) HD Graphics Family,2018_jul_06_1514,testMonitor,
314.1,334.3,323.7,307.7,36,10,321.9,316.6,326.3,309.5,8.272,8.288,8.132,8.197,7.883,8.285,7.615,4.685,-4.622,-8.43,2.06,-1.645,7.707,4.601,-4.852,-8.387,318.7,344.2,-8.231,320.7,325.3,325.5,312.2,318.4,36,316.6,2,5,prime,10,0,66,norm,36,-5.063,up,norm,324.184536913,328.0,,1.859,329.3,4,333.6,319.1,334.7,10,5,7.542,4.802,1.651,-1.289,-4.405,-7.755,321.0,5,390.2,-7.593,-8.267,10,-7.764,-8.347,-4.916,-4.523,-4.61,-4.573,5.248,8.055,16,-1.106,1.391,4.738,7.792,-8.475,-7.696,-2.009,1.925,335.4,331.2,325.4,324.7,324.9,322.3,326.7,304.2,310.2,310.9,2,norm,1.192,1.915,-1.618,-1.508,-4.448,-4.985,-1.646,-1.602,-1.379,-1.845,1.782,-1.591,320.9,323.7,-4.632,-7.509,327.9,-1.912,8.388,4.382,-5.187,-7.919,16,4.897,4.505,5.26,4.49,1.428,1.192,1.892,1.235,16,5.031,5.135,-30,185.659333269,norm,0,56,56,56,412.411,412.438,412.447226084,412.448,412.462,412.481,down,0,0.944866292528,-10,001,017,800_600,Intel(R) Core(TM) i7-2670QM CPU @ 2.20GHz,orientation_search,GRVLAPTOP3,Intel(R) HD Graphics Family,2018_jul_06_1514,testMonitor,
322.0,314.9,315.5,320.7,36,10,325.0,325.0,323.1,304.2,7.826,7.66,8.104,8.218,8.423,8.427,7.7,4.441,-4.993,-7.736,1.886,-1.913,7.518,4.748,-4.794,-7.82,327.1,323.5,-8.481,337.4,307.4,326.5,329.6,,36,320.9,4,5,prime,10,0,109,norm,36,-4.648,down,norm,324.184536913,334.8,318.2,1.379,326.9,2,326.9,344.2,316.1,10,5,8.487,4.794,1.653,-1.633,-5.282,-8.289,329.1,5,433.2,-7.77,-8.057,10,-8.2,-8.387,-5.272,-4.782,-4.899,-5.278,4.553,7.626,26,-2.085,1.146,4.898,7.845,-8.199,-7.823,-1.127,1.63,333.8,311.0,326.8,309.0,325.7,326.9,329.3,331.7,317.4,328.4,3,norm,1.831,1.367,-1.421,-2.048,-5.199,-4.394,-1.671,-1.476,-1.998,-1.568,1.884,-2.086,329.7,312.0,-4.416,-8.428,329.5,-1.693,8.1,4.375,-5.121,-8.365,16,5.116,4.935,5.119,4.653,2.093,1.153,1.599,1.222,16,4.714,4.379,-30,185.659333269,norm,0,57,57,57,414.475,414.503,414.512302341,414.514,414.528,414.547,down,1,1.02069761284,8.97930238716,001,017,800_600,Intel(R) Core(TM) i7-2670QM CPU @ 2.20GHz,orientation_search,GRVLAPTOP3,Intel(R) HD Graphics Family,2018_jul_06_1514,testMonitor,
331.2,318.7,324.2,337.3,36,10,324.6,321.0,325.3,329.4,7.513,8.209,8.047,8.424,7.508,8.43,8.276,5.085,-5.121,-8.163,1.689,-1.842,8.26,4.788,-4.412,-8.136,326.4,315.0,-8.405,331.1,322.4,313.5,325.2,309.6,36,316.0,2,5,prime,10,0,108,norm,36,-4.679,down,norm,324.184536913,334.9,329.4,2.028,336.5,1,343.1,,323.4,10,5,8.348,4.688,1.788,-1.326,-4.845,-8.416,304.2,5,432.2,-8.106,-8.424,10,-8.12,-8.142,-5.151,-4.79,-4.868,-5.252,5.0,7.921,13,-1.385,1.834,4.353,8.448,-8.084,-7.513,-1.27,1.531,319.6,317.8,304.9,326.2,307.6,322.7,330.4,344.2,309.3,336.2,4,norm,1.902,1.52,-1.627,-1.941,-4.771,-4.896,-1.479,-1.155,-1.752,-1.241,1.324,-2.057,333.9,327.8,-4.752,-7.783,315.9,-1.19,8.458,4.318,-5.164,-8.104,16,4.816,4.713,4.406,4.505,1.686,1.134,2.001,1.827,16,5.285,4.867,-30,185.659333269,norm,0,58,58,58,415.607,415.637,415.645555481,415.647,415.661,415.68,down,1,0.729164049728,9.27083595027,001,017,800_600,Intel(R) Core(TM) i7-2670QM CPU @ 2.20GHz,orientation_search,GRVLAPTOP3,Intel(R) HD Graphics Family,2018_jul_06_1514,testMonitor,
447.6,456.2,450.5,447.7,36,-80,450.5,452.9,450.3,445.9,7.781,7.95,7.823,8.429,7.733,8.351,7.978,5.284,-4.446,-8.129,1.104,-1.233,7.562,4.367,-4.753,-7.858,447.8,447.6,-8.405,453.6,451.2,450.5,442.1,446.8,36,445.8,2,5,probe,5,0,111,norm,36,-5.208,down,norm,449.313633307,447.3,449.4,1.683,,2,442.7,444.3,447.8,10,5,7.91,4.796,1.937,-1.425,-4.467,-8.349,445.4,1,338.3,-7.528,-8.085,10,-8.291,-7.709,-5.062,-4.315,-4.835,-4.709,5.01,8.175,14,-1.573,1.927,4.337,8.003,-8.414,-8.086,-1.208,1.403,443.5,447.7,453.4,448.1,459.3,446.5,441.2,441.5,458.5,442.4,0,norm,1.889,1.857,-1.62,-1.828,-4.828,-4.618,-1.648,-1.98,-1.193,-1.738,1.167,-1.251,449.7,439.3,-5.165,-8.492,449.0,-2.099,8.238,4.918,-5.049,-7.85,17,4.482,4.89,5.193,4.515,1.713,1.963,1.182,1.91,17,4.472,5.217,10,324.184536913,norm,0,59,59,59,416.448,416.478,416.487834946,416.489,416.504,416.524,down,1,2.88202444732,7.11797555268,001,017,800_600,Intel(R) Core(TM) i7-2670QM CPU @ 2.20GHz,orientation_search,GRVLAPTOP3,Intel(R) HD Graphics Family,2018_jul_06_1514,testMonitor,
26.4,32.0,18.4,30.5,36,40,40.5,37.6,17.6,23.5,8.127,7.66,8.306,8.228,8.1,8.467,8.324,4.509,-5.049,-7.767,1.706,-1.84,8.092,4.505,-4.967,-7.764,27.9,28.3,-7.959,46.0,29.4,26.3,,16.8,36,36.9,5,5,prime,10,0,82,norm,36,-4.327,down,norm,27.7608906543,16.9,34.5,1.252,23.9,2,29.7,32.9,7.8,10,5,7.606,4.883,1.274,-1.379,-4.756,-7.95,20.6,5,109.8,-7.595,-8.349,40,-8.351,-7.805,-5.274,-4.579,-5.298,-4.41,4.37,8.392,32,-1.225,1.61,4.736,8.483,-8.013,-8.187,-1.237,1.399,31.3,47.8,22.3,33.3,39.1,23.9,18.6,33.3,25.1,34.9,0,norm,1.792,1.928,-1.783,-1.215,-5.07,-4.414,-1.488,-1.322,-1.871,-1.108,1.763,-1.193,15.1,32.6,-5.125,-7.576,39.6,-2.058,7.898,4.733,-5.126,-7.834,18,4.318,4.81,4.615,4.367,1.323,1.37,1.171,1.376,18,4.474,5.243,-80,324.184536913,norm,0,60,60,60,419.447,437.82,437.825342295,437.826,437.833,437.843,down,1,1.42412408476,8.57587591524,001,017,800_600,Intel(R) Core(TM) i7-2670QM CPU @ 2.20GHz,orientation_search,GRVLAPTOP3,Intel(R) HD Graphics Family,2018_jul_06_1514,testMonitor,
22.4,30.8,35.9,27.4,36,40,21.1,38.4,41.9,7.8,7.788,7.839,7.91,7.669,8.428,7.653,7.716,4.797,-4.954,-7.612,1.327,-1.857,8.351,4.302,-4.792,-7.901,24.8,26.3,-7.769,47.8,18.4,34.1,24.3,38.6,36,,4,5,prime,10,0,78,norm,36,-4.994,up,norm,27.7608906543,29.0,47.0,1.419,32.1,3,16.2,32.9,41.8,10,5,8.174,4.574,1.406,-1.973,-4.381,-8.056,18.0,5,105.8,-7.738,-8.132,40,-7.669,-8.206,-5.219,-4.652,-5.124,-4.534,5.112,8.46,27,-1.237,1.24,4.611,8.25,-7.735,-7.685,-1.908,1.256,30.5,17.3,25.4,39.1,42.3,42.2,9.3,11.7,20.5,22.2,1,norm,1.6,1.135,-1.175,-1.289,-5.084,-4.405,-1.229,-1.107,-1.43,-1.131,1.759,-1.789,22.5,27.7,-5.215,-8.405,27.6,-1.271,8.312,4.31,-4.935,-7.583,18,4.908,4.322,4.793,4.732,1.399,1.608,1.483,1.127,18,4.339,4.352,-80,324.184536913,norm,0,61,61,61,439.289,439.304,439.309424736,439.31,439.318,439.328,up,1,1.64937195979,8.35062804021,001,017,800_600,Intel(R) Core(TM) i7-2670QM CPU @ 2.20GHz,orientation_search,GRVLAPTOP3,Intel(R) HD Graphics Family,2018_jul_06_1514,testMonitor,
23.0,33.1,23.4,36.9,36,40,18.5,23.6,28.1,30.3,7.869,7.924,7.981,7.72,8.421,7.629,8.089,5.186,-4.737,-8.172,1.235,-2.063,8.122,4.928,-4.892,-8.076,46.7,24.0,-7.717,27.9,42.8,37.8,17.4,,36,47.8,4,5,prime,10,0,71,norm,36,-4.475,down,norm,27.7608906543,25.8,23.9,1.669,22.5,2,32.3,28.1,31.7,10,5,7.501,5.167,1.153,-1.77,-5.248,-8.313,31.9,5,98.8,-8.27,-7.622,40,-8.236,-8.418,-4.305,-4.669,-4.556,-4.82,4.468,7.584,26,-1.919,1.98,4.738,8.481,-7.783,-8.315,-1.145,1.541,29.9,22.5,30.0,7.8,21.6,21.7,24.4,24.9,38.4,21.2,2,norm,1.567,1.345,-1.774,-1.715,-4.913,-4.681,-1.263,-1.721,-1.316,-1.392,1.768,-1.14,25.2,28.3,-4.572,-8.289,22.3,-1.519,8.022,4.388,-5.233,-8.181,18,4.397,4.614,4.499,4.352,1.154,1.873,1.902,1.995,18,4.749,4.919,-80,324.184536913,norm,0,62,62,62,440.997,441.012,441.016121855,441.017,441.024,441.034,down,1,1.06864804763,8.93135195237,001,017,800_600,Intel(R) Core(TM) i7-2670QM CPU @ 2.20GHz,orientation_search,GRVLAPTOP3,Intel(R) HD Graphics Family,2018_jul_06_1514,testMonitor,
30.4,46.3,19.7,24.7,36,40,23.9,47.8,39.9,39.2,8.398,8.494,7.854,7.685,7.879,7.769,7.688,5.113,-4.369,-7.764,2.03,-1.682,7.932,4.788,-5.004,-7.96,22.8,26.5,-8.023,18.3,19.9,16.0,34.6,24.6,36,26.3,0,5,prime,10,0,111,norm,36,-4.711,down,norm,27.7608906543,20.5,40.6,1.211,18.8,1,33.5,17.2,37.6,10,5,8.003,4.425,1.174,-1.168,-4.874,-7.993,25.4,5,138.8,-7.504,-7.732,40,-7.848,-8.479,-4.642,-5.139,-5.188,-4.748,5.191,8.089,1,-1.927,1.578,4.838,8.277,-7.821,-8.405,-1.126,1.149,21.9,20.3,7.8,33.8,,24.7,21.9,15.9,31.2,15.4,3,norm,2.043,1.204,-1.546,-1.428,-4.48,-5.03,-1.123,-1.212,-1.601,-1.696,1.598,-1.841,32.1,19.5,-4.506,-7.922,25.7,-1.399,8.178,4.714,-4.748,-7.95,18,4.319,4.946,4.852,4.629,1.933,1.795,1.862,1.502,18,4.88,4.303,-80,324.184536913,norm,0,63,63,63,442.124,442.139,442.143399285,442.144,442.152,442.162,down,1,1.31884055265,8.68115944735,001,017,800_600,Intel(R) Core(TM) i7-2670QM CPU @ 2.20GHz,orientation_search,GRVLAPTOP3,Intel(R) HD Graphics Family,2018_jul_06_1514,testMonitor,
7.8,30.3,29.1,21.7,36,40,35.5,25.4,,31.4,7.648,7.531,7.971,7.805,7.553,7.643,8.235,4.85,-5.27,-8.011,2.034,-1.124,8.374,4.769,-4.312,-7.821,19.1,29.5,-7.899,21.7,23.3,26.3,29.1,24.7,36,24.7,4,5,prime,10,0,118,norm,36,-4.349,up,norm,27.7608906543,24.6,41.7,2.066,25.2,4,13.8,20.6,31.3,10,5,7.754,5.254,1.725,-1.491,-4.989,-7.7,23.4,5,145.8,-7.616,-8.211,40,-8.418,-7.722,-4.729,-5.085,-4.913,-4.803,5.041,8.351,28,-1.11,2.071,4.578,8.098,-7.84,-7.901,-1.533,1.885,10.8,31.5,28.1,28.8,33.7,17.3,27.3,34.1,18.6,29.6,4,norm,1.265,2.01,-1.499,-1.855,-4.627,-4.571,-1.936,-1.474,-1.541,-1.761,1.24,-1.204,33.7,15.4,-4.374,-7.718,16.6,-1.395,8.309,5.258,-4.731,-8.394,18,5.206,5.172,4.806,4.484,1.721,2.082,1.245,1.469,18,4.443,4.724,-80,324.184536913,norm,0,64,64,64,443.502,443.517,443.522116009,443.523,443.53,443.541,up,1,1.25349906116,8.74650093884,001,017,800_600,Intel(R) Core(TM) i7-2670QM CPU @ 2.20GHz,orientation_search,GRVLAPTOP3,Intel(R) HD Graphics Family,2018_jul_06_1514,testMonitor,
134.7,137.6,142.4,138.5,36,-10,,127.6,137.6,143.1,7.95,7.641,7.942,8.477,7.952,8.126,7.731,4.836,-5.18,-7.705,2.1,-1.865,8.494,5.098,-5.261,-8.068,135.2,144.9,-8.041,139.3,131.3,131.0,127.1,141.4,36,146.1,4,5,probe,5,0,69,norm,36,-4.842,down,norm,137.119083673,136.0,136.8,1.261,147.1,0,128.7,136.0,139.8,10,5,7.766,4.886,1.137,-1.657,-4.918,-8.01,137.5,2,68.1,-7.701,-8.071,40,-8.138,-7.669,-4.409,-5.079,-5.014,-5.281,5.083,7.981,24,-1.102,1.974,4.653,8.376,-8.06,-7.694,-1.693,1.575,131.3,131.6,129.4,143.4,137.0,135.7,132.7,137.9,131.9,136.6,0,norm,1.934,1.295,-1.85,-1.405,-4.428,-4.476,-1.946,-1.895,-1.854,-1.132,1.539,-1.899,142.3,129.1,-5.268,-8.454,137.1,-1.119,8.132,4.929,-4.301,-8.089,19,4.8,4.475,4.339,4.409,2.045,1.535,1.841,1.434,19,5.257,4.463,40,27.7608906543,norm,0,65,65,65,444.815,444.83,444.834994861,444.836,444.843,444.853,down,1,1.1383645038,8.8616354962,001,017,800_600,Intel(R) Core(TM) i7-2670QM CPU @ 2.20GHz,orientation_search,GRVLAPTOP3,Intel(R) HD Graphics Family,2018_jul_06_1514,testMonitor,
180.7,169.2,,176.7,36,-10,172.7,181.6,180.5,174.8,8.235,8.087,8.303,7.808,8.405,7.773,7.522,5.028,-5.266,-8.416,1.873,-1.223,8.073,5.238,-4.504,-7.931,179.5,183.1,-8.463,175.9,165.1,176.9,174.7,179.2,36,175.8,3,5,probe,5,0,107,norm,36,-5.073,down,norm,175.119083673,168.7,178.0,1.923,166.7,2,171.3,176.2,172.8,10,5,8.495,4.878,1.224,-2.084,-5.118,-7.899,170.8,2,68.1,-8.055,-8.242,40,-8.234,-8.292,-4.837,-4.809,-4.335,-4.585,5.06,8.324,20,-1.762,1.695,4.449,7.944,-8.421,-8.496,-1.384,2.04,184.5,175.7,176.1,169.9,173.0,168.5,177.1,182.3,179.9,185.1,1,norm,1.812,1.994,-1.961,-1.665,-5.049,-4.794,-1.448,-1.74,-1.941,-1.401,1.192,-1.991,169.2,183.4,-4.838,-7.686,175.4,-1.797,7.854,4.978,-4.868,-7.616,19,4.344,5.265,5.14,5.266,2.066,1.212,1.332,1.732,19,5.055,5.235,40,27.7608906543,norm,0,66,66,66,446.013,446.027,446.032634556,446.033,446.04,446.05,down,1,1.02655938378,8.97344061622,001,017,800_600,Intel(R) Core(TM) i7-2670QM CPU @ 2.20GHz,orientation_search,GRVLAPTOP3,Intel(R) HD Graphics Family,2018_jul_06_1514,testMonitor,
130.6,152.2,,132.3,36,80,138.4,114.5,146.5,139.0,8.089,8.108,7.535,8.009,8.303,8.198,8.088,4.893,-4.953,-7.624,1.114,-1.69,8.197,5.215,-4.585,-7.917,135.3,147.7,-8.36,152.6,133.3,120.7,118.3,136.2,36,131.3,3,5,prime,10,0,105,norm,36,-4.589,down,norm,134.484132753,142.2,142.8,1.841,134.0,2,133.7,120.6,132.8,10,6,8.142,4.694,1.368,-1.298,-5.119,-8.316,142.7,6,239.5,-7.824,-8.372,80,-8.298,-8.248,-4.942,-5.272,-4.604,-5.273,5.23,7.648,20,-1.697,1.734,5.232,8.218,-8.32,-8.378,-1.806,1.506,128.5,119.5,135.6,137.7,154.5,120.0,123.5,145.4,146.6,147.1,0,norm,1.685,2.047,-1.134,-1.64,-5.241,-5.179,-1.466,-1.799,-1.217,-1.955,1.667,-1.698,116.7,140.5,-4.769,-8.244,130.9,-2.037,7.947,4.647,-5.11,-8.132,20,4.305,4.853,4.755,5.076,1.823,2.065,1.304,1.162,20,4.472,5.077,-10,27.7608906543,norm,0,67,67,67,447.097,447.116,447.121198056,447.122,447.129,447.139,down,1,1.1515869929,8.8484130071,001,017,800_600,Intel(R) Core(TM) i7-2670QM CPU @ 2.20GHz,orientation_search,GRVLAPTOP3,Intel(R) HD Graphics Family,2018_jul_06_1514,testMonitor,
129.8,122.9,120.1,135.2,36,80,,125.0,149.3,125.4,7.893,7.866,8.486,8.238,8.04,7.906,7.914,4.833,-5.198,-7.558,1.215,-1.147,8.391,4.836,-5.149,-8.183,154.5,129.2,-8.399,130.6,121.4,126.9,137.5,123.3,36,135.2,4,5,prime,10,0,108,norm,36,-4.645,down,norm,134.484132753,137.0,132.2,1.29,124.9,0,135.0,129.8,137.4,10,6,7.507,5.044,1.738,-1.137,-4.51,-8.208,140.7,6,242.5,-7.683,-8.159,80,-8.343,-8.013,-4.823,-5.064,-4.432,-4.761,4.35,8.089,24,-1.585,1.167,5.124,8.352,-7.913,-7.536,-1.948,1.18,143.9,120.2,124.0,123.1,122.5,152.3,142.9,129.3,122.7,144.2,1,norm,1.783,1.83,-2.09,-1.864,-4.574,-4.341,-1.581,-1.275,-1.163,-1.836,1.791,-1.992,131.3,143.5,-4.56,-8.04,114.5,-1.923,8.095,5.144,-5.193,-8.325,20,5.157,5.225,4.59,4.819,1.75,1.967,1.438,1.85,20,4.96,4.703,-10,27.7608906543,norm,0,68,68,68,448.311,448.325,448.329594682,448.33,448.338,448.348,down,1,1.04073073913,8.95926926087,001,017,800_600,Intel(R) Core(TM) i7-2670QM CPU @ 2.20GHz,orientation_search,GRVLAPTOP3,Intel(R) HD Graphics Family,2018_jul_06_1514,testMonitor,
132.0,118.1,139.8,125.0,36,80,132.6,145.2,,132.1,7.581,8.278,7.609,8.068,7.611,8.143,8.246,4.458,-4.951,-7.973,1.39,-1.703,7.778,4.373,-4.51,-7.729,129.5,144.3,-7.962,129.7,137.1,138.0,131.4,148.8,36,149.4,4,5,prime,10,0,84,norm,36,-4.563,up,norm,134.484132753,143.7,142.6,1.654,139.8,4,130.5,152.7,114.5,10,6,7.989,5.125,1.734,-1.723,-5.112,-7.748,144.4,6,218.5,-8.466,-7.619,80,-8.014,-7.902,-4.387,-4.344,-5.183,-4.518,4.565,8.363,28,-2.044,1.995,4.37,7.763,-7.687,-7.519,-1.62,1.426,138.3,117.0,131.5,128.0,139.7,135.3,145.0,152.6,144.5,134.0,2,norm,2.033,1.695,-1.789,-2.02,-4.51,-4.709,-1.595,-1.311,-1.433,-1.533,1.917,-1.842,127.5,152.1,-5.139,-8.394,154.5,-1.84,8.261,4.818,-4.737,-7.56,20,4.81,4.526,4.926,4.593,1.494,1.653,2.082,1.631,20,4.764,5.092,-10,27.7608906543,norm,0,69,69,69,449.409,449.424,449.428093727,449.429,449.436,449.446,up,1,0.698024238111,9.30197576189,001,017,800_600,Intel(R) Core(TM) i7-2670QM CPU @ 2.20GHz,orientation_search,GRVLAPTOP3,Intel(R) HD Graphics Family,2018_jul_06_1514,testMonitor,
124.2,139.8,121.2,135.9,36,80,133.1,125.8,114.5,149.3,8.326,7.783,7.612,7.534,7.862,7.652,8.359,5.107,-4.881,-7.935,1.387,-2.073,8.458,4.673,-4.757,-8.39,143.1,128.5,-7.975,118.8,130.9,121.6,137.8,154.5,36,135.9,1,5,prime,10,0,106,norm,36,-5.029,down,norm,134.484132753,126.8,128.2,1.243,132.7,1,122.2,135.7,137.6,10,6,8.261,4.508,1.812,-1.356,-5.033,-8.366,142.7,6,240.5,-8.114,-8.418,80,-7.743,-8.008,-4.692,-4.657,-5.032,-5.079,4.756,7.772,7,-1.442,1.626,4.746,8.277,-7.743,-7.543,-1.929,1.133,137.6,130.4,139.6,146.7,140.2,118.7,,138.7,134.2,135.8,3,norm,1.581,1.118,-1.51,-1.918,-4.624,-4.84,-2.057,-1.755,-2.045,-1.957,1.739,-2.051,119.1,122.3,-4.917,-8.354,141.2,-1.697,8.351,4.396,-5.244,-8.218,20,4.934,5.1,4.975,4.956,1.209,1.873,1.781,1.227,20,4.374,5.288,-10,27.7608906543,norm,0,70,70,70,450.163,450.178,450.182555896,450.183,450.19,450.2,down,1,0.633411673945,9.36658832605,001,017,800_600,Intel(R) Core(TM) i7-2670QM CPU @ 2.20GHz,orientation_search,GRVLAPTOP3,Intel(R) HD Graphics Family,2018_jul_06_1514,testMonitor,
137.1,141.1,135.8,122.1,36,80,147.1,142.6,141.2,142.1,8.133,7.545,8.354,8.254,7.932,7.781,7.95,4.365,-4.558,-7.874,1.84,-1.982,8.486,5.035,-5.097,-8.481,123.1,142.3,-7.879,128.0,140.6,139.1,150.5,140.4,36,,4,5,prime,10,0,84,norm,36,-4.541,up,norm,134.484132753,140.2,138.8,1.793,132.7,3,114.5,122.6,126.0,10,6,7.954,5.298,2.036,-1.631,-4.599,-7.907,141.5,6,218.5,-8.345,-8.224,80,-7.758,-8.166,-4.991,-4.961,-4.542,-5.097,4.605,7.928,27,-1.34,1.53,4.706,7.619,-7.652,-8.079,-2.086,1.78,139.7,145.8,135.7,144.6,130.1,128.6,145.8,154.5,122.2,145.6,4,norm,2.043,1.326,-1.281,-1.169,-4.711,-4.378,-1.95,-1.35,-1.969,-1.467,1.515,-1.218,138.6,144.7,-4.367,-7.871,130.9,-1.826,8.439,4.865,-4.55,-7.685,20,5.295,4.42,4.621,5.018,1.88,1.252,1.551,1.908,20,5.245,4.631,-10,27.7608906543,norm,0,71,71,71,450.855,450.869,450.874093569,450.875,450.882,450.892,up,1,0.833964743477,9.16603525652,001,017,800_600,Intel(R) Core(TM) i7-2670QM CPU @ 2.20GHz,orientation_search,GRVLAPTOP3,Intel(R) HD Graphics Family,2018_jul_06_1514,testMonitor,
135.0,137.2,142.8,128.7,36,80,143.6,122.1,133.2,126.8,8.193,7.648,8.214,8.08,7.651,8.246,8.297,4.893,-5.296,-7.561,2.081,-1.625,7.754,4.303,-5.063,-7.815,114.5,154.5,-8.496,138.9,145.3,138.1,138.8,132.5,36,145.5,2,5,prime,10,0,82,norm,36,-4.747,up,norm,134.484132753,143.5,,2.019,135.4,4,135.0,127.6,135.2,10,6,7.618,4.916,1.482,-1.161,-4.337,-7.685,141.0,6,216.5,-8.351,-7.854,80,-8.48,-8.148,-4.535,-4.736,-5.083,-5.053,4.652,8.18,16,-1.443,1.108,4.478,7.668,-7.72,-8.444,-1.535,1.59,130.6,120.6,148.9,126.3,140.8,124.5,128.2,129.3,117.1,152.8,5,norm,1.702,2.043,-2.059,-1.499,-5.154,-4.456,-1.638,-1.421,-1.667,-1.963,1.875,-1.96,128.9,136.0,-4.942,-8.084,131.2,-1.307,7.68,5.277,-4.841,-8.068,20,4.714,4.803,5.266,4.966,1.679,1.675,1.748,1.835,20,5.232,4.88,-10,27.7608906543,norm,0,72,72,72,451.746,451.76,451.764560685,451.765,451.772,451.782,up,1,0.770906694932,9.22909330507,001,017,800_600,Intel(R) Core(TM) i7-2670QM CPU @ 2.20GHz,orientation_search,GRVLAPTOP3,Intel(R) HD Graphics Family,2018_jul_06_1514,testMonitor,
316.5,312.0,313.2,321.8,36,30,311.7,320.7,313.8,317.4,7.699,8.418,7.915,8.317,7.831,8.234,7.989,4.865,-4.464,-7.815,1.944,-2.018,7.617,4.435,-4.935,-7.641,311.2,323.1,-7.597,318.1,305.1,320.3,310.6,315.6,36,313.9,2,5,probe,5,0,110,norm,36,-4.995,up,norm,315.073354835,317.8,,1.849,311.0,4,323.0,320.9,325.0,10,6,8.284,4.708,1.214,-1.565,-5.102,-8.486,306.2,1,205.1,-8.322,-8.389,80,-7.695,-7.713,-5.051,-5.147,-4.872,-4.536,4.683,8.417,16,-1.868,2.042,5.094,8.383,-8.368,-8.204,-1.939,1.849,317.3,321.9,317.9,313.3,309.5,315.5,316.3,325.1,312.4,315.5,0,norm,1.788,1.889,-1.28,-2.037,-4.451,-5.215,-1.903,-1.887,-1.395,-1.662,1.975,-1.701,317.6,313.2,-5.053,-8.237,314.1,-1.127,8.05,5.194,-4.758,-8.115,21,4.329,5.096,4.555,4.411,1.306,1.991,1.375,1.67,21,5.104,4.448,80,134.484132753,norm,0,73,73,73,452.573,452.588,452.592738838,452.593,452.601,452.611,up,1,0.623184277618,9.37681572238,001,017,800_600,Intel(R) Core(TM) i7-2670QM CPU @ 2.20GHz,orientation_search,GRVLAPTOP3,Intel(R) HD Graphics Family,2018_jul_06_1514,testMonitor,
132.9,129.3,129.8,147.4,36,-60,138.2,154.3,142.9,150.4,7.533,8.195,7.919,8.481,8.172,8.496,7.823,4.501,-4.96,-8.152,1.25,-1.362,8.254,5.117,-4.818,-7.859,,139.4,-7.902,160.0,120.1,146.4,129.9,136.0,36,133.5,5,5,prime,10,0,87,norm,36,-4.499,up,norm,140.071456137,144.9,125.1,1.586,120.8,5,150.1,139.5,126.9,10,6,8.141,4.701,1.282,-1.937,-4.59,-7.58,138.5,6,227.1,-7.55,-7.675,-60,-8.146,-8.174,-5.23,-4.571,-4.734,-4.437,4.501,8.051,35,-2.062,1.422,5.291,8.066,-8.235,-7.856,-1.505,2.023,140.0,131.2,149.3,131.1,136.3,157.5,135.3,149.0,143.9,148.3,0,norm,1.106,1.557,-1.593,-1.24,-4.392,-5.1,-1.618,-1.985,-1.987,-1.818,1.866,-1.919,151.8,160.1,-5.19,-7.854,146.7,-1.461,8.391,4.802,-4.789,-8.141,22,5.133,4.349,4.529,5.289,1.663,2.065,1.612,1.203,22,4.45,5.255,30,134.484132753,norm,0,74,74,74,453.255,453.269,453.274087405,453.275,453.282,453.292,up,1,1.1648309622,8.8351690378,001,017,800_600,Intel(R) Core(TM) i7-2670QM CPU @ 2.20GHz,orientation_search,GRVLAPTOP3,Intel(R) HD Graphics Family,2018_jul_06_1514,testMonitor,
148.6,155.1,145.9,148.1,36,-60,157.6,131.9,131.2,153.5,8.269,8.069,8.326,7.54,8.139,8.353,7.758,5.236,-5.206,-8.036,1.744,-2.005,7.843,4.993,-5.151,-7.82,154.7,129.8,-8.296,140.7,127.0,131.9,125.1,137.3,36,,4,5,prime,10,0,60,norm,36,-4.477,up,norm,140.071456137,120.1,135.6,1.149,135.9,3,155.7,140.9,135.0,10,6,8.269,4.369,1.34,-1.393,-4.931,-7.954,136.8,6,200.1,-8.218,-7.642,-60,-8.002,-8.454,-5.044,-4.455,-4.548,-4.397,4.566,8.124,27,-1.523,1.255,4.478,7.97,-8.322,-8.144,-1.559,1.583,139.2,154.2,148.0,132.2,140.1,139.2,160.1,153.5,140.2,144.1,1,norm,1.747,1.834,-1.18,-1.852,-4.827,-4.354,-1.895,-1.257,-1.567,-1.304,1.635,-1.929,140.9,130.7,-4.308,-8.471,141.9,-1.394,7.619,4.983,-4.506,-8.393,22,5.237,4.932,4.484,5.144,1.233,1.443,1.551,1.163,22,5.26,4.527,30,134.484132753,norm,0,75,75,75,454.477,454.492,454.496594214,454.497,454.504,454.514,up,1,0.944764961838,9.05523503816,001,017,800_600,Intel(R) Core(TM) i7-2670QM CPU @ 2.20GHz,orientation_search,GRVLAPTOP3,Intel(R) HD Graphics Family,2018_jul_06_1514,testMonitor,
152.4,146.0,144.4,140.2,36,-60,134.6,125.3,124.7,134.8,8.028,7.9,8.468,7.922,7.96,7.508,7.888,4.41,-4.778,-8.281,1.952,-1.86,8.494,4.356,-4.947,-8.405,138.3,120.1,-7.891,120.8,132.4,145.8,141.9,148.3,36,143.3,1,5,prime,10,0,115,norm,36,-5.068,down,norm,140.071456137,124.4,137.2,1.103,122.8,2,136.2,135.7,146.5,10,6,7.824,4.321,1.553,-1.993,-4.765,-8.353,120.8,6,255.1,-7.604,-8.094,-60,-7.517,-8.109,-4.596,-4.363,-4.477,-5.21,4.61,8.121,8,-1.234,1.116,5.196,8.363,-7.789,-8.056,-1.8,1.46,139.3,,160.1,148.8,143.5,151.6,145.2,148.4,145.9,134.1,2,norm,2.022,2.047,-1.915,-1.494,-4.899,-4.692,-1.129,-1.257,-1.527,-1.394,1.166,-1.699,152.7,143.8,-4.421,-8.037,136.8,-1.959,8.128,4.654,-5.182,-7.658,22,5.198,5.055,4.354,5.104,1.857,1.993,1.496,1.651,22,4.484,4.97,30,134.484132753,norm,0,76,76,76,455.479,455.494,455.498905208,455.499,455.507,455.516,down,1,0.721352246532,9.27864775347,001,017,800_600,Intel(R) Core(TM) i7-2670QM CPU @ 2.20GHz,orientation_search,GRVLAPTOP3,Intel(R) HD Graphics Family,2018_jul_06_1514,testMonitor,
160.1,130.6,144.6,139.2,36,-60,129.2,133.4,141.1,131.7,8.483,8.293,8.091,8.305,8.052,8.005,7.762,5.03,-4.741,-7.912,1.556,-1.367,8.139,5.172,-4.379,-7.766,128.2,150.4,-8.083,129.6,139.0,137.5,145.3,135.5,36,146.6,1,5,prime,10,0,101,norm,36,-5.203,down,norm,140.071456137,145.8,159.4,1.955,134.0,0,139.6,135.2,134.6,10,6,8.051,4.842,1.982,-1.407,-4.503,-7.519,151.7,6,241.1,-7.502,-7.603,-60,-8.459,-7.641,-5.171,-4.631,-4.833,-4.651,4.552,8.059,6,-2.058,1.344,4.968,8.205,-7.664,-7.935,-1.971,1.675,156.2,122.0,158.2,140.5,144.6,132.2,124.2,,128.7,142.3,3,norm,1.106,2.095,-1.58,-1.854,-4.752,-5.234,-1.785,-1.709,-1.958,-1.15,1.694,-1.314,135.3,120.1,-5.074,-8.094,143.0,-2.056,8.253,4.573,-4.737,-8.352,22,4.355,4.536,5.172,4.78,1.797,1.723,1.516,1.429,22,5.007,4.386,30,134.484132753,norm,0,77,77,77,456.259,456.273,456.27741871,456.278,456.286,456.296,down,1,1.04268263921,8.95731736079,001,017,800_600,Intel(R) Core(TM) i7-2670QM CPU @ 2.20GHz,orientation_search,GRVLAPTOP3,Intel(R) HD Graphics Family,2018_jul_06_1514,testMonitor,
153.3,143.0,140.5,131.6,36,-60,158.7,147.2,144.0,140.1,8.188,8.327,8.163,7.632,8.015,8.105,8.285,5.074,-4.568,-8.397,1.911,-1.411,7.944,4.759,-4.909,-8.33,150.3,158.0,-7.724,123.2,134.7,154.1,137.8,145.0,36,120.1,2,5,prime,10,0,97,norm,36,-4.924,up,norm,140.071456137,153.1,,1.47,139.4,4,148.1,140.7,129.9,10,6,7.769,4.81,1.997,-1.456,-4.757,-7.696,123.2,6,237.1,-8.183,-8.34,-60,-8.281,-8.16,-5.177,-5.189,-4.34,-5.272,5.189,8.224,16,-2.036,1.249,4.865,7.717,-8.033,-7.765,-1.639,1.58,132.0,137.8,150.1,156.0,129.6,141.2,133.9,154.6,137.3,143.8,4,norm,1.61,1.623,-1.365,-1.444,-4.825,-4.665,-1.717,-1.472,-1.616,-1.689,1.113,-1.46,136.5,135.3,-4.31,-8.483,160.1,-1.871,8.169,4.804,-5.133,-8.479,22,4.404,5.233,4.993,4.93,1.502,1.881,2.044,1.356,22,4.427,4.967,30,134.484132753,norm,0,78,78,78,457.36,457.374,457.378978222,457.38,457.387,457.397,up,1,0.697962132224,9.30203786778,001,017,800_600,Intel(R) Core(TM) i7-2670QM CPU @ 2.20GHz,orientation_search,GRVLAPTOP3,Intel(R) HD Graphics Family,2018_jul_06_1514,testMonitor,
154.1,120.1,146.5,155.9,36,-60,138.5,160.1,130.9,146.1,8.165,7.776,8.161,8.385,8.497,7.599,7.52,4.57,-4.929,-7.929,2.065,-1.112,8.276,4.913,-4.691,-8.064,128.2,144.4,-7.651,145.7,137.2,127.8,122.4,147.3,36,129.6,1,5,prime,10,0,83,norm,36,-4.389,up,norm,140.071456137,148.0,134.2,1.935,143.7,4,149.6,127.0,159.3,10,6,8.068,4.637,1.964,-2.056,-4.676,-8.05,,6,223.1,-8.476,-7.993,-60,-8.088,-8.208,-4.773,-4.311,-4.902,-5.214,4.381,7.704,10,-2.093,1.657,4.329,8.106,-7.539,-8.076,-1.986,1.749,141.1,120.4,159.8,125.7,127.9,143.4,151.8,131.2,129.8,150.6,5,norm,1.95,1.337,-1.406,-1.842,-4.745,-4.382,-1.743,-1.184,-1.101,-1.552,1.647,-2.06,122.4,139.1,-4.461,-8.295,135.9,-1.737,8.202,4.781,-4.441,-7.654,22,4.972,4.759,4.857,4.892,1.94,1.952,1.611,1.514,22,4.494,4.931,30,134.484132753,norm,0,79,79,79,458.116,458.13,458.135190565,458.136,458.143,458.153,up,1,0.688980589795,9.3110194102,001,017,800_600,Intel(R) Core(TM) i7-2670QM CPU @ 2.20GHz,orientation_search,GRVLAPTOP3,Intel(R) HD Graphics Family,2018_jul_06_1514,testMonitor,
184.8,171.8,181.8,187.6,36,0,187.1,179.5,175.9,,8.045,8.145,7.806,8.07,8.261,7.548,7.958,4.354,-4.587,-8.397,1.213,-1.767,7.553,4.512,-4.624,-7.517,183.9,181.8,-7.711,182.8,175.1,185.5,190.2,182.7,36,184.1,4,5,probe,5,0,99,norm,36,-4.918,up,norm,181.756055478,177.3,182.6,1.847,173.9,5,189.5,177.1,182.1,10,6,8.391,4.446,1.375,-1.168,-4.607,-8.24,179.7,1,82.8,-7.767,-8.332,-60,-7.573,-8.007,-4.977,-4.603,-4.767,-5.254,4.719,8.116,29,-1.41,1.1,5.119,8.382,-8.43,-8.05,-1.824,1.494,184.9,172.8,180.2,185.7,191.8,182.2,178.8,179.7,181.8,186.6,0,norm,1.735,1.426,-1.175,-1.123,-5.228,-4.61,-1.34,-1.56,-2.051,-2.092,1.547,-1.171,185.9,182.5,-5.07,-7.583,187.5,-1.244,7.776,4.73,-4.338,-7.879,23,5.092,5.077,4.501,4.432,1.674,1.672,1.412,1.969,23,5.296,4.892,-60,140.071456137,norm,0,80,80,80,458.863,458.877,458.882082818,458.883,458.89,458.9,up,1,2.43421746313,7.56578253687,001,017,800_600,Intel(R) Core(TM) i7-2670QM CPU @ 2.20GHz,orientation_search,GRVLAPTOP3,Intel(R) HD Graphics Family,2018_jul_06_1514,testMonitor,
58.4,74.8,83.6,61.5,36,10,63.4,81.1,84.6,71.4,7.991,8.395,8.061,8.384,7.64,8.095,8.414,4.572,-4.607,-7.952,1.826,-2.027,8.021,5.095,-4.643,-8.03,75.3,83.7,-8.225,83.3,66.2,56.8,70.0,68.3,36,76.3,0,5,prime,10,0,75,norm,36,-4.708,up,norm,74.2693857778,61.6,70.6,1.965,54.3,5,84.5,84.9,67.6,10,6,8.364,4.566,1.911,-1.299,-4.697,-7.712,75.7,6,149.3,-8.153,-8.185,10,-7.501,-7.813,-4.973,-5.152,-5.24,-4.322,5.289,8.064,5,-1.436,1.247,4.869,7.827,-8.46,-7.662,-1.584,1.66,80.4,71.3,76.7,94.3,83.9,73.2,74.8,71.4,,78.0,0,norm,2.07,1.904,-1.764,-1.222,-4.596,-4.827,-1.336,-1.515,-2.056,-1.653,1.969,-1.79,78.9,75.1,-4.526,-8.27,84.7,-1.72,7.938,4.943,-4.983,-8.055,24,5.296,5.054,4.355,5.059,1.49,2.045,1.455,1.239,24,4.482,4.554,0,140.071456137,norm,0,81,81,81,461.354,461.368,461.373354135,461.374,461.381,461.391,down,0,1.24682851246,-10,001,017,800_600,Intel(R) Core(TM) i7-2670QM CPU @ 2.20GHz,orientation_search,GRVLAPTOP3,Intel(R) HD Graphics Family,2018_jul_06_1514,testMonitor,
80.6,72.0,94.3,56.6,36,10,,71.9,63.2,54.3,7.767,7.942,8.232,7.697,7.889,8.151,8.284,4.912,-4.616,-8.317,1.425,-1.494,7.593,4.601,-4.726,-8.141,61.8,88.3,-8.08,66.9,91.6,80.4,85.1,94.0,36,82.3,4,5,prime,10,0,86,norm,36,-4.571,down,norm,74.2693857778,78.0,82.1,1.218,60.1,0,54.8,77.8,79.8,10,6,8.15,4.828,1.629,-1.964,-5.275,-8.005,86.0,6,160.3,-8.158,-8.169,10,-7.733,-7.631,-4.54,-5.218,-5.271,-4.726,4.457,8.342,24,-1.357,1.196,4.425,7.869,-8.208,-7.999,-1.857,2.038,93.0,74.2,82.6,78.9,90.8,79.0,81.0,89.5,70.3,64.4,1,norm,1.695,1.296,-1.74,-1.691,-4.965,-4.63,-1.701,-1.448,-1.523,-1.995,1.468,-1.412,75.2,64.3,-4.605,-7.654,67.7,-1.243,7.528,4.466,-4.658,-7.949,24,5.095,4.895,4.473,4.901,2.06,1.218,1.386,1.475,24,4.372,5.03,0,140.071456137,norm,0,82,82,82,463.674,463.689,463.693657212,463.694,463.702,463.711,down,1,2.25044886698,7.74955113302,001,017,800_600,Intel(R) Core(TM) i7-2670QM CPU @ 2.20GHz,orientation_search,GRVLAPTOP3,Intel(R) HD Graphics Family,2018_jul_06_1514,testMonitor,
73.3,66.7,61.3,66.3,36,10,83.4,68.4,94.3,91.6,7.944,7.721,8.011,8.224,8.282,8.112,7.901,4.305,-4.904,-8.46,1.146,-1.64,8.319,4.875,-5.117,-7.611,75.6,87.4,-7.513,57.7,81.9,87.9,54.3,72.6,36,77.5,2,5,prime,10,0,104,norm,36,-5.074,up,norm,74.2693857778,,71.4,1.386,80.0,5,66.5,79.6,70.7,10,6,7.85,5.297,1.543,-1.926,-4.347,-7.883,79.2,6,178.3,-7.979,-8.244,10,-7.809,-8.441,-4.667,-5.132,-5.296,-5.055,5.258,7.574,17,-1.641,1.155,4.538,7.568,-8.237,-7.629,-1.157,1.802,68.5,81.4,79.0,71.6,68.7,75.2,82.8,72.9,59.1,79.8,2,norm,1.562,1.563,-1.527,-1.111,-4.388,-4.519,-1.712,-1.138,-2.002,-1.655,2.085,-1.954,62.4,78.3,-4.902,-8.254,80.8,-1.922,8.026,4.798,-4.443,-7.916,24,4.391,4.539,5.227,5.121,1.877,1.616,1.609,1.425,24,4.535,4.725,0,140.071456137,norm,0,83,83,83,465.981,465.994,465.997864584,465.998,466.005,466.014,up,1,1.93390436529,8.06609563471,001,017,800_600,Intel(R) Core(TM) i7-2670QM CPU @ 2.20GHz,orientation_search,GRVLAPTOP3,Intel(R) HD Graphics Family,2018_jul_06_1514,testMonitor,
77.6,73.3,71.6,90.6,36,10,71.5,88.9,80.6,57.3,7.957,8.378,8.245,8.466,8.011,7.947,8.089,4.62,-4.341,-8.221,1.508,-1.154,8.428,4.924,-4.819,-8.254,91.2,59.1,-8.223,78.7,73.1,71.6,77.3,58.4,36,,4,5,prime,10,0,95,norm,36,-4.959,up,norm,74.2693857778,70.1,66.7,1.73,74.2,3,81.2,67.7,54.3,10,6,7.682,4.981,1.592,-1.661,-4.746,-7.881,70.7,6,169.3,-8.061,-8.157,10,-7.781,-7.984,-4.422,-5.288,-5.012,-4.65,5.012,7.774,27,-1.883,1.226,4.793,8.435,-8.339,-8.147,-1.596,1.157,74.6,78.0,80.7,64.8,93.8,74.1,69.6,94.3,62.4,78.3,3,norm,1.86,1.553,-1.305,-1.803,-4.727,-4.741,-1.686,-1.483,-1.842,-1.81,1.931,-1.913,80.3,74.3,-4.968,-7.72,65.0,-1.629,8.069,4.961,-4.791,-7.631,24,4.91,5.133,4.663,4.838,1.14,2.059,1.67,1.78,24,4.902,5.156,0,140.071456137,norm,0,84,84,84,467.966,467.979,467.9831212,467.984,467.99,467.999,up,1,1.30797481956,8.69202518044,001,017,800_600,Intel(R) Core(TM) i7-2670QM CPU @ 2.20GHz,orientation_search,GRVLAPTOP3,Intel(R) HD Graphics Family,2018_jul_06_1514,testMonitor,
66.2,73.4,77.9,84.5,36,10,94.3,84.1,67.5,78.6,7.62,7.605,7.706,8.134,8.173,8.199,7.977,4.811,-4.705,-8.157,2.065,-1.516,8.001,4.989,-4.524,-8.441,75.4,75.0,-7.888,73.1,78.7,75.9,78.6,70.7,36,63.6,1,5,prime,10,0,76,norm,36,-4.749,up,norm,74.2693857778,76.9,70.3,1.338,61.7,4,54.3,73.7,74.4,10,6,7.63,4.711,1.8,-1.975,-4.61,-8.013,,6,150.3,-7.872,-8.011,10,-8.237,-8.215,-4.432,-5.274,-4.504,-5.136,4.899,7.61,10,-1.901,1.281,5.17,7.603,-7.925,-7.991,-1.473,1.524,70.9,65.3,75.5,91.6,88.9,74.7,84.1,82.6,65.9,65.7,4,norm,2.024,1.635,-1.497,-1.167,-4.631,-5.156,-1.97,-1.349,-1.922,-1.332,1.802,-1.794,59.7,54.8,-4.912,-7.853,65.1,-1.501,7.692,4.425,-4.512,-8.478,24,4.544,5.257,4.999,4.473,2.046,1.546,1.684,1.134,24,5.16,4.551,0,140.071456137,norm,0,85,85,85,469.326,469.34,469.344144276,469.345,469.351,469.36,up,1,2.58326651889,7.41673348111,001,017,800_600,Intel(R) Core(TM) i7-2670QM CPU @ 2.20GHz,orientation_search,GRVLAPTOP3,Intel(R) HD Graphics Family,2018_jul_06_1514,testMonitor,
67.7,63.8,88.0,73.2,36,10,88.1,84.0,78.7,73.7,8.252,7.683,7.744,7.877,7.534,8.011,8.479,4.847,-4.553,-8.086,1.827,-1.845,8.089,4.43,-5.023,-8.389,72.3,88.2,-8.466,93.4,71.0,,54.3,94.3,36,70.6,5,5,prime,10,0,104,norm,36,-5.166,up,norm,74.2693857778,69.1,85.9,1.336,84.1,3,75.3,71.6,69.9,10,6,8.416,4.816,1.52,-1.16,-5.17,-7.538,67.3,6,178.3,-8.387,-8.116,10,-8.119,-7.512,-4.862,-4.517,-5.136,-4.781,5.059,7.643,33,-1.723,1.873,4.676,8.058,-8.402,-7.922,-1.648,1.386,69.1,82.9,64.0,71.0,76.5,71.6,83.3,63.8,81.8,75.0,5,norm,1.792,1.878,-1.397,-1.66,-4.385,-5.1,-1.87,-1.675,-1.365,-1.273,1.808,-1.134,60.5,89.4,-4.4,-8.188,87.2,-1.575,8.241,4.792,-4.835,-7.643,24,5.292,4.417,4.909,5.139,1.663,1.562,1.411,1.827,24,4.977,5.056,0,140.071456137,norm,0,86,86,86,471.962,471.975,471.979714714,471.98,471.987,471.996,up,1,1.1540796347,8.8459203653,001,017,800_600,Intel(R) Core(TM) i7-2670QM CPU @ 2.20GHz,orientation_search,GRVLAPTOP3,Intel(R) HD Graphics Family,2018_jul_06_1514,testMonitor,
151.2,151.7,157.7,158.3,36,40,152.1,150.8,157.9,150.3,7.616,7.98,8.41,7.873,7.615,7.647,7.917,4.726,-4.845,-7.592,1.873,-1.201,8.04,4.39,-4.769,-7.58,150.9,151.8,-7.721,154.9,148.0,148.6,162.4,143.0,36,147.6,2,5,probe,5,0,65,norm,36,-4.76,down,norm,152.967175672,163.0,152.1,1.857,,2,156.2,155.6,155.7,10,6,7.948,5.277,1.207,-1.233,-4.749,-7.941,144.6,2,88.0,-7.561,-7.628,10,-7.748,-7.906,-4.777,-4.423,-5.149,-4.645,4.542,7.632,14,-1.843,1.19,4.965,8.223,-7.971,-7.639,-1.263,1.286,153.6,159.9,148.7,154.6,147.9,152.2,149.1,150.0,155.3,156.2,0,norm,1.955,1.87,-1.319,-1.573,-4.643,-4.913,-1.365,-1.719,-1.588,-1.309,1.92,-1.951,153.5,162.1,-4.577,-8.308,156.7,-1.913,8.423,4.397,-4.913,-7.647,25,4.972,4.455,5.167,4.415,2.053,1.965,1.593,1.335,25,4.534,4.679,10,74.2693857778,norm,0,87,87,87,473.169,473.182,473.18589514,473.186,473.193,473.202,down,1,2.0085113119,7.9914886881,001,017,800_600,Intel(R) Core(TM) i7-2670QM CPU @ 2.20GHz,orientation_search,GRVLAPTOP3,Intel(R) HD Graphics Family,2018_jul_06_1514,testMonitor,
165.0,177.8,170.7,169.1,36,40,172.8,185.0,180.7,174.2,8.18,7.616,7.891,8.176,8.245,7.7,8.279,5.259,-4.3,-7.895,1.393,-1.279,8.311,4.585,-4.618,-8.39,169.1,174.5,-8.283,,171.0,177.7,181.3,174.0,36,178.8,5,5,probe,5,0,87,norm,36,-4.39,down,norm,174.967175672,172.2,171.1,1.713,168.2,1,175.2,170.7,171.2,10,6,8.197,4.644,1.801,-2.053,-4.438,-7.732,177.5,2,88.0,-7.964,-7.824,10,-8.479,-8.284,-5.038,-5.101,-4.662,-4.627,4.466,8.204,31,-1.934,1.146,5.04,7.837,-8.34,-8.076,-1.359,1.536,171.2,177.2,169.4,182.4,174.4,174.0,180.7,166.8,177.0,182.0,1,norm,2.025,1.105,-1.436,-1.5,-5.191,-4.899,-1.11,-1.949,-1.755,-2.077,1.358,-1.313,176.6,177.9,-5.066,-8.108,176.6,-1.363,7.772,4.441,-5.026,-7.54,25,5.294,4.86,4.827,4.802,1.561,2.061,2.07,1.528,25,4.738,4.834,10,74.2693857778,norm,0,88,88,88,475.229,475.244,475.248139741,475.249,475.255,475.264,down,1,2.79645230476,7.20354769524,001,017,800_600,Intel(R) Core(TM) i7-2670QM CPU @ 2.20GHz,orientation_search,GRVLAPTOP3,Intel(R) HD Graphics Family,2018_jul_06_1514,testMonitor,
89.5,93.8,99.2,102.7,36,40,96.1,83.4,105.6,95.8,8.036,8.391,8.188,8.389,8.33,8.445,7.9,4.894,-5.062,-8.48,2.027,-1.915,7.837,4.571,-5.023,-8.109,100.9,84.4,-7.678,89.6,76.5,106.5,77.2,93.1,36,96.2,3,5,prime,10,0,87,norm,36,-4.926,down,norm,96.4794842903,112.9,90.7,1.907,116.5,1,93.5,80.7,104.6,10,6,7.896,4.568,1.322,-1.668,-4.823,-8.363,81.3,6,183.5,-7.623,-8.336,40,-8.015,-7.648,-4.395,-4.381,-5.2,-4.975,4.468,8.386,19,-1.243,1.773,5.087,7.825,-7.924,-7.624,-1.128,1.493,101.3,76.5,112.3,92.2,96.9,80.4,97.0,97.7,103.1,97.9,0,norm,1.56,1.608,-1.604,-1.628,-4.713,-4.659,-1.95,-1.115,-2.091,-1.948,1.971,-1.382,,88.5,-5.054,-8.273,98.2,-1.739,8.209,4.685,-4.445,-8.143,26,4.603,5.174,4.8,4.464,1.381,2.01,1.335,1.583,26,5.049,4.784,40,74.2693857778,norm,0,89,89,89,478.08,478.093,478.097692602,478.098,478.105,478.114,down,1,2.6781774296,7.3218225704,001,017,800_600,Intel(R) Core(TM) i7-2670QM CPU @ 2.20GHz,orientation_search,GRVLAPTOP3,Intel(R) HD Graphics Family,2018_jul_06_1514,testMonitor,
102.5,,88.8,116.5,36,40,92.0,98.3,98.0,93.8,7.98,8.358,8.451,7.896,8.487,8.32,8.316,4.914,-5.279,-8.48,2.036,-2.044,7.909,4.505,-4.741,-8.218,89.1,112.3,-7.665,101.7,114.2,101.6,103.1,97.3,36,115.3,3,5,prime,10,0,100,norm,36,-5.086,up,norm,96.4794842903,101.7,89.0,1.538,97.9,5,105.1,110.6,108.0,10,6,7.552,4.302,1.654,-1.41,-4.734,-8.326,95.6,6,196.5,-8.087,-7.558,40,-8.322,-8.252,-4.765,-5.146,-5.055,-5.294,5.133,8.298,23,-1.718,1.181,4.333,8.228,-7.617,-8.433,-1.613,1.64,102.4,97.1,91.0,94.7,98.1,91.8,90.2,76.5,109.8,78.7,1,norm,1.268,1.27,-1.406,-1.376,-4.684,-4.617,-1.898,-1.638,-1.876,-1.465,2.038,-1.369,92.3,93.4,-4.958,-7.541,92.3,-1.994,8.09,5.3,-4.824,-8.328,26,5.125,4.512,5.102,4.468,1.622,1.512,1.872,1.442,26,4.97,4.63,40,74.2693857778,norm,0,90,90,90,480.811,480.824,480.828049739,480.829,480.835,480.844,up,1,2.47166639508,7.52833360492,001,017,800_600,Intel(R) Core(TM) i7-2670QM CPU @ 2.20GHz,orientation_search,GRVLAPTOP3,Intel(R) HD Graphics Family,2018_jul_06_1514,testMonitor,
88.0,85.3,92.1,81.5,36,40,84.6,110.1,95.6,116.5,7.953,8.492,8.075,8.493,8.443,7.857,7.706,4.711,-5.232,-7.976,2.029,-1.155,7.569,4.949,-4.532,-8.303,100.9,79.6,-8.41,107.1,82.3,109.8,98.5,79.0,36,82.0,1,5,prime,10,0,99,norm,36,-4.514,down,norm,96.4794842903,96.8,91.0,1.618,94.4,1,98.3,106.0,85.1,10,6,7.594,4.905,1.584,-1.925,-4.937,-7.542,97.2,6,195.5,-8.086,-8.232,40,-8.306,-8.065,-4.917,-4.645,-5.228,-4.574,4.837,7.687,7,-1.242,1.439,4.86,7.889,-7.853,-8.047,-1.528,1.501,84.5,107.2,88.5,108.4,88.7,97.5,,94.8,109.9,112.7,2,norm,1.677,1.188,-1.314,-1.164,-4.391,-4.797,-1.724,-1.495,-1.94,-1.312,1.753,-1.473,90.8,105.8,-5.156,-7.969,87.4,-1.641,7.741,4.779,-5.023,-7.788,26,5.085,4.998,4.815,5.041,1.264,1.287,1.42,1.254,26,4.933,4.342,40,74.2693857778,norm,0,91,91,91,483.334,483.348,483.352016317,483.353,483.359,483.368,down,1,2.06900480646,7.93099519354,001,017,800_600,Intel(R) Core(TM) i7-2670QM CPU @ 2.20GHz,orientation_search,GRVLAPTOP3,Intel(R) HD Graphics Family,2018_jul_06_1514,testMonitor,
88.9,97.8,114.5,109.3,36,40,116.2,101.9,113.6,95.4,8.155,7.817,7.656,8.037,8.266,8.306,7.572,4.339,-5.059,-8.208,1.133,-1.74,8.265,4.994,-4.908,-8.274,116.5,98.5,-7.673,76.5,91.9,91.3,88.6,100.2,36,107.5,2,5,prime,10,0,93,norm,36,-4.939,up,norm,96.4794842903,,90.2,1.15,93.2,5,106.4,105.9,81.7,10,6,7.621,5.234,1.742,-1.848,-4.347,-8.469,84.3,6,189.5,-7.959,-7.826,40,-8.195,-8.276,-5.075,-4.798,-4.991,-4.623,4.407,8.244,17,-1.683,1.587,4.479,7.635,-8.298,-7.823,-1.537,2.023,102.8,101.0,94.9,104.1,91.4,84.0,95.0,102.5,90.0,101.2,3,norm,1.69,1.185,-1.66,-1.822,-5.248,-5.145,-1.919,-1.896,-1.149,-1.697,1.344,-1.518,101.1,90.4,-4.94,-8.059,91.3,-1.728,8.329,4.646,-5.009,-8.499,26,4.817,4.863,4.449,4.445,2.047,2.01,1.504,1.488,26,4.379,5.088,40,74.2693857778,norm,0,92,92,92,485.455,485.469,485.473311501,485.474,485.481,485.489,up,1,1.67648282537,8.32351717463,001,017,800_600,Intel(R) Core(TM) i7-2670QM CPU @ 2.20GHz,orientation_search,GRVLAPTOP3,Intel(R) HD Graphics Family,2018_jul_06_1514,testMonitor,
110.5,77.5,104.5,88.9,36,40,112.1,97.9,104.2,116.5,7.973,8.219,7.995,8.485,8.139,7.52,8.34,4.762,-4.48,-8.464,1.813,-1.394,7.619,5.002,-4.855,-8.091,94.6,104.0,-8.474,94.4,102.1,90.0,88.5,97.8,36,91.5,3,5,prime,10,0,107,norm,36,-4.889,down,norm,96.4794842903,90.6,106.4,2.088,106.6,1,99.9,111.3,98.1,10,6,8.412,5.026,1.813,-2.013,-5.089,-7.828,94.2,6,203.5,-8.028,-8.305,40,-8.358,-7.74,-4.944,-5.243,-4.991,-4.391,5.238,7.568,19,-1.415,1.214,5.035,7.753,-7.733,-7.777,-1.831,1.372,98.9,103.7,93.6,108.3,90.8,109.7,98.8,99.9,83.2,85.3,4,norm,1.472,1.34,-1.873,-1.32,-4.492,-4.417,-1.207,-1.546,-1.398,-1.942,1.992,-1.204,,88.8,-4.428,-7.54,100.8,-1.113,8.357,5.069,-4.324,-8.359,26,4.428,4.656,4.505,5.151,1.967,1.168,2.042,1.855,26,4.797,4.772,40,74.2693857778,norm,0,93,93,93,487.184,487.197,487.201204948,487.202,487.208,487.217,down,1,1.48324751353,8.51675248647,001,017,800_600,Intel(R) Core(TM) i7-2670QM CPU @ 2.20GHz,orientation_search,GRVLAPTOP3,Intel(R) HD Graphics Family,2018_jul_06_1514,testMonitor,
81.6,109.1,107.5,83.2,36,40,99.3,86.8,90.8,94.6,8.253,7.583,7.875,8.352,7.978,8.065,8.353,4.552,-5.194,-7.672,1.444,-1.595,7.746,5.136,-4.522,-8.414,85.4,78.5,-7.548,89.6,76.5,92.6,103.3,100.8,36,116.5,2,5,prime,10,0,105,norm,36,-5.163,down,norm,96.4794842903,89.2,100.9,1.803,,2,96.4,95.3,103.1,10,6,8.495,4.603,1.981,-2.033,-4.391,-7.519,83.5,6,201.5,-8.279,-7.947,40,-8.173,-7.663,-4.683,-4.645,-4.492,-4.483,4.485,7.682,14,-1.683,1.559,5.205,8.279,-8.315,-7.697,-2.081,1.719,109.9,109.0,98.4,92.8,97.1,91.0,112.0,77.6,85.1,103.0,5,norm,1.234,1.693,-1.836,-1.989,-4.46,-4.456,-1.975,-1.727,-1.67,-1.509,2.02,-2.003,87.8,113.3,-5.256,-7.974,103.7,-1.127,7.5,4.312,-4.73,-8.124,26,4.516,5.215,4.735,5.146,1.645,1.257,1.385,1.615,26,5.25,5.084,40,74.2693857778,norm,0,94,94,94,488.719,488.733,488.73744655,488.738,488.745,488.754,down,1,3.00377818756,6.99622181244,001,017,800_600,Intel(R) Core(TM) i7-2670QM CPU @ 2.20GHz,orientation_search,GRVLAPTOP3,Intel(R) HD Graphics Family,2018_jul_06_1514,testMonitor,
226.1,223.9,,225.2,36,10,220.3,225.2,223.6,221.8,8.097,7.989,8.07,8.121,8.173,8.392,7.537,4.586,-4.753,-7.695,1.677,-1.686,8.46,4.439,-5.055,-7.679,226.0,216.2,-8.064,231.3,232.4,228.8,224.6,219.2,36,230.3,3,5,probe,5,0,86,norm,36,-4.432,down,norm,226.191133803,225.5,223.7,1.769,236.2,2,225.2,228.7,220.9,10,6,7.905,5.097,2.015,-1.509,-5.243,-8.026,225.0,2,140.2,-8.241,-7.951,40,-7.671,-7.565,-4.623,-4.35,-5.16,-5.126,4.967,8.335,20,-2.045,1.926,4.334,8.375,-8.212,-7.961,-2.011,1.284,220.7,230.9,224.9,219.9,227.1,227.0,225.4,228.1,221.6,217.0,0,norm,1.701,1.788,-1.326,-1.422,-4.47,-4.566,-1.749,-1.743,-1.989,-1.22,1.305,-1.713,224.8,223.2,-4.678,-8.113,226.7,-1.34,8.214,4.901,-4.506,-8.467,27,4.648,5.088,4.307,4.478,1.246,1.825,1.377,1.896,27,5.188,4.398,40,96.4794842903,norm,0,95,95,95,491.776,491.789,491.79335448,491.794,491.8,491.809,down,1,1.91550700605,8.08449299395,001,017,800_600,Intel(R) Core(TM) i7-2670QM CPU @ 2.20GHz,orientation_search,GRVLAPTOP3,Intel(R) HD Graphics Family,2018_jul_06_1514,testMonitor,
