d_ori_22,d_ori_23,d_ori_20,d_ori_21,set_size,ctpd,d_ori_24,d_ori_25,d_ori_28,d_ori_29,stim_pos_x_30,stim_pos_x_31,stim_pos_x_32,stim_pos_x_33,stim_pos_x_34,stim_pos_x_35,stim_pos_y_11,stim_pos_y_10,stim_pos_y_13,stim_pos_y_12,stim_pos_y_15,stim_pos_y_14,stim_pos_y_17,stim_pos_y_16,stim_pos_y_19,stim_pos_y_18,d_ori_35,d_ori_34,stim_pos_x_3,d_ori_31,d_ori_30,d_ori_33,d_ori_32,d_ori_26,test_set_size,d_ori_27,targetCol,dsd_test,seq_type,dsd,blockRepN,targetDist,dtype_test,prime_set_size,stim_pos_y_25,correctResponse,dtype,distrMean,d_ori_17,d_ori_16,stim_pos_y_3,d_ori_14,targetRow,d_ori_11,d_ori_13,d_ori_12,dsd_prime,streak_length_prime,stim_pos_y_35,stim_pos_y_34,stim_pos_y_33,stim_pos_y_32,stim_pos_y_31,stim_pos_y_30,d_ori_10,nextProbe,targetOri,stim_pos_x_1,stim_pos_x_2,ctpd_prime,stim_pos_x_4,stim_pos_x_5,stim_pos_x_6,stim_pos_x_7,stim_pos_x_8,stim_pos_x_9,stim_pos_y_28,stim_pos_y_29,targetPos,stim_pos_y_20,stim_pos_y_21,stim_pos_y_22,stim_pos_y_23,stim_pos_y_24,stim_pos_x_0,stim_pos_y_26,stim_pos_y_27,d_ori_9,d_ori_8,d_ori_3,d_ori_2,d_ori_1,d_ori_0,d_ori_7,d_ori_6,d_ori_5,d_ori_4,trialN,dtype_prime,stim_pos_x_18,stim_pos_x_19,stim_pos_x_12,stim_pos_x_13,stim_pos_x_10,stim_pos_x_11,stim_pos_x_16,stim_pos_x_17,stim_pos_x_14,stim_pos_x_15,stim_pos_y_9,stim_pos_y_8,d_ori_19,d_ori_18,stim_pos_y_1,stim_pos_y_0,d_ori_15,stim_pos_y_2,stim_pos_y_5,stim_pos_y_4,stim_pos_y_7,stim_pos_y_6,totBlockN,stim_pos_x_27,stim_pos_x_26,stim_pos_x_25,stim_pos_x_24,stim_pos_x_23,stim_pos_x_22,stim_pos_x_21,stim_pos_x_20,blockN,stim_pos_x_29,stim_pos_x_28,prevDistrCTPD,prevDistrMean,prevDistrType,trials.thisRepN,trials.thisTrialN,trials.thisN,trials.thisIndex,timeStart,timeBeforeDraw,timeDraw,timeAfterSaving,timeAfterWritingToTemp,timeAfterPreparingNext,answer,correct,rt,trialScore,session,participant,resolution,cpu_info,expName,pc_name,graphic_card,date,monitorName,
134.9,108.7,140.8,118.9,36,10,121.1,111.4,,134.9,7.667,8.299,8.046,8.5,8.221,8.023,7.734,4.726,-4.595,-8.23,1.114,-1.747,7.626,4.496,-5.166,-8.003,130.4,129.3,-7.521,131.8,118.6,123.9,122.5,134.7,36,101.8,4,5,prime,10,0,95,norm,36,-4.989,up,norm,121.448005059,108.2,128.6,1.804,127.4,4,134.8,128.9,114.7,10,5,8.435,4.496,1.924,-1.648,-4.362,-7.812,122.5,5,216.4,-7.528,-7.956,10,-8.268,-7.574,-4.989,-5.273,-4.687,-5.047,5.158,8.412,28,-1.539,1.353,4.736,8.188,-8.163,-7.774,-1.955,1.109,141.4,126.7,107.8,130.5,125.0,124.9,109.6,135.8,128.0,114.5,0,norm,1.167,1.704,-2.088,-1.887,-4.899,-4.891,-1.68,-1.175,-1.975,-1.629,1.578,-1.497,127.6,112.2,-5.179,-8.255,131.5,-1.77,8.042,4.876,-4.734,-7.692,0,4.953,5.222,5.3,5.191,2.023,1.915,1.502,1.676,0,4.72,5.17,,,,0,0,0,0,221.601,221.612,221.619660492,221.62,221.62,221.624,up,1,3.20880097389,6.79119902611,001,010,800_600,Intel(R) Core(TM) i7-2670QM CPU @ 2.20GHz,orientation_search,GRVLAPTOP3,Intel(R) HD Graphics Family,2018_jun_07_1306,testMonitor,
112.7,114.3,122.0,112.0,36,10,124.7,123.2,123.7,135.8,7.82,7.656,7.891,7.9,8.257,8.359,7.893,4.367,-4.633,-8.047,1.351,-1.203,7.895,4.484,-4.432,-7.893,123.9,,-7.749,131.6,141.4,112.4,124.1,120.5,36,124.9,5,5,prime,10,0,89,norm,36,-5.029,up,norm,121.448005059,137.8,108.1,1.915,138.6,4,126.7,122.2,125.0,10,5,7.685,4.988,1.34,-1.768,-4.739,-7.935,108.3,5,210.4,-8.397,-7.637,10,-8.266,-7.629,-4.549,-5.139,-4.774,-4.836,4.64,8.176,34,-1.766,1.485,5.054,8.439,-8.409,-8.497,-1.614,1.992,133.7,127.0,101.4,122.1,123.7,119.7,120.5,106.6,112.5,102.8,1,norm,1.39,2.051,-1.472,-1.548,-4.963,-5.057,-1.329,-1.969,-1.677,-1.251,1.732,-1.944,135.5,127.1,-4.308,-8.399,115.9,-1.276,8.334,4.918,-4.364,-7.891,0,5.289,5.221,4.934,4.904,1.109,1.424,2.043,1.827,0,4.88,4.869,,,,0,1,1,1,224.843,224.848,224.850222716,224.851,224.852,224.856,down,0,2.33392185805,-10,001,010,800_600,Intel(R) Core(TM) i7-2670QM CPU @ 2.20GHz,orientation_search,GRVLAPTOP3,Intel(R) HD Graphics Family,2018_jun_07_1306,testMonitor,
122.2,118.7,123.4,113.7,36,10,121.6,141.4,117.4,129.9,8.295,7.944,7.788,7.514,7.849,7.512,7.971,4.933,-5.156,-7.825,1.661,-1.137,7.582,4.717,-4.854,-8.479,132.1,125.6,-8.179,135.9,123.6,,118.3,115.8,36,132.9,5,5,prime,10,0,101,norm,36,-4.336,up,norm,121.448005059,128.1,120.8,1.883,117.9,3,118.3,121.5,137.2,10,5,7.772,5.026,1.664,-1.624,-5.087,-7.598,109.5,5,222.4,-7.595,-7.692,10,-7.899,-7.752,-4.452,-4.707,-4.365,-4.666,4.913,7.897,33,-2.04,1.895,4.761,7.927,-7.62,-7.767,-1.255,1.734,109.8,120.8,122.6,101.4,119.2,114.7,136.4,125.2,109.8,128.0,2,norm,1.773,1.908,-2.091,-1.512,-5.067,-5.156,-1.212,-1.607,-1.755,-1.379,1.799,-1.33,131.9,107.6,-4.413,-7.956,127.9,-2.059,7.727,5.159,-5.243,-8.084,0,4.446,4.518,4.583,4.417,1.917,1.129,1.276,1.397,0,4.824,4.558,,,,0,2,2,2,228.212,228.217,228.219393952,228.22,228.223,228.226,up,1,1.09620814816,8.90379185184,001,010,800_600,Intel(R) Core(TM) i7-2670QM CPU @ 2.20GHz,orientation_search,GRVLAPTOP3,Intel(R) HD Graphics Family,2018_jun_07_1306,testMonitor,
127.6,111.6,108.3,120.8,36,10,120.1,,125.9,110.3,8.127,7.619,8.415,8.296,7.796,7.524,8.023,4.833,-5.068,-7.636,1.465,-1.602,7.661,4.879,-4.799,-8.263,112.0,114.6,-7.604,125.8,125.8,115.6,101.4,126.7,36,112.0,4,5,prime,10,0,115,norm,36,-5.135,down,norm,121.448005059,124.6,128.3,1.817,119.3,1,130.2,129.2,120.8,10,5,8.312,5.108,1.705,-1.906,-4.996,-7.717,112.3,5,236.4,-7.76,-7.777,10,-7.806,-7.681,-5.03,-4.811,-5.064,-4.338,5.039,8.214,25,-1.482,1.862,5.07,7.968,-7.713,-8.225,-2.0,1.673,122.8,120.8,121.4,116.4,141.4,110.1,119.1,108.7,106.1,104.4,3,norm,1.116,1.944,-1.929,-1.802,-4.359,-4.89,-1.683,-1.583,-1.681,-1.944,1.566,-1.81,114.9,106.6,-4.339,-8.052,126.4,-1.787,8.349,4.595,-4.923,-7.833,0,4.403,4.327,4.839,4.613,1.24,1.141,1.873,1.119,0,5.13,4.687,,,,0,3,3,3,229.332,229.338,229.340423336,229.341,229.344,229.348,down,1,1.2806655855,8.7193344145,001,010,800_600,Intel(R) Core(TM) i7-2670QM CPU @ 2.20GHz,orientation_search,GRVLAPTOP3,Intel(R) HD Graphics Family,2018_jun_07_1306,testMonitor,
117.0,141.4,121.0,120.9,36,10,131.7,119.3,131.9,122.9,8.498,8.184,7.928,7.55,7.58,7.763,7.751,4.337,-5.282,-7.992,1.145,-1.87,7.625,5.002,-4.757,-8.431,122.2,115.9,-7.782,125.6,125.8,141.1,109.0,,36,128.1,4,5,prime,10,0,78,norm,36,-5.028,down,norm,121.448005059,131.0,103.5,1.517,122.3,2,119.7,122.7,105.2,10,5,8.475,4.596,1.248,-2.013,-4.921,-8.318,128.9,5,199.4,-8.156,-7.845,10,-8.271,-7.948,-4.592,-5.088,-4.317,-4.414,4.957,7.546,26,-1.619,1.284,4.86,8.25,-7.987,-8.222,-1.746,1.524,101.4,135.2,122.2,132.6,103.0,131.7,109.8,114.4,121.5,133.1,4,norm,1.434,1.246,-1.875,-1.659,-5.009,-5.289,-1.565,-1.376,-1.869,-1.435,1.585,-2.021,122.6,115.6,-5.19,-7.813,112.9,-1.831,7.624,4.328,-4.989,-8.456,0,4.524,5.007,4.796,4.435,1.139,2.03,1.464,1.183,0,4.624,4.827,,,,0,4,4,4,230.637,230.642,230.643548276,230.644,230.647,230.65,up,0,1.97820232705,-10,001,010,800_600,Intel(R) Core(TM) i7-2670QM CPU @ 2.20GHz,orientation_search,GRVLAPTOP3,Intel(R) HD Graphics Family,2018_jun_07_1306,testMonitor,
202.4,199.6,202.6,212.2,36,-80,206.7,207.4,207.0,208.6,8.227,8.202,8.247,7.909,7.573,8.127,7.816,4.381,-5.197,-8.2,1.626,-2.051,8.267,4.779,-5.188,-7.516,198.3,205.8,-8.009,200.2,206.4,200.5,209.9,207.4,36,205.4,1,5,probe,5,0,69,norm,36,-5.265,down,norm,203.666054146,201.9,202.9,1.327,208.9,1,194.4,204.1,202.7,10,5,7.871,4.52,1.714,-2.08,-4.458,-7.629,210.2,2,134.7,-7.806,-8.46,10,-7.669,-8.359,-4.749,-5.019,-5.012,-5.254,4.841,8.381,7,-1.733,1.15,5.189,7.763,-8.383,-7.921,-1.303,1.717,203.8,199.4,213.7,203.8,200.2,203.8,,196.7,205.6,200.3,0,norm,1.642,2.09,-1.907,-2.071,-5.022,-4.72,-1.913,-1.726,-1.519,-1.367,1.163,-1.59,200.0,204.2,-5.112,-8.04,193.7,-1.881,7.943,4.338,-4.661,-8.095,1,4.792,4.667,4.7,5.066,1.799,1.301,1.862,1.97,1,4.898,5.197,10,121.448005059,norm,0,5,5,5,233.641,233.647,233.648626462,233.649,233.652,233.655,down,1,1.24862328643,8.75137671357,001,010,800_600,Intel(R) Core(TM) i7-2670QM CPU @ 2.20GHz,orientation_search,GRVLAPTOP3,Intel(R) HD Graphics Family,2018_jun_07_1306,testMonitor,
221.7,218.8,223.7,224.4,36,-80,229.2,218.6,,217.7,8.306,8.156,7.757,8.158,7.691,7.815,7.881,5.199,-4.767,-7.987,1.636,-1.901,7.86,4.805,-5.285,-7.817,224.7,230.5,-7.672,221.4,218.4,216.7,220.4,216.3,36,229.8,4,5,probe,5,0,87,norm,36,-4.474,up,norm,221.666054146,218.5,231.7,1.279,225.0,4,217.8,225.0,225.7,10,5,8.469,4.501,1.599,-1.807,-4.809,-7.994,217.7,2,134.7,-8.04,-7.853,10,-7.663,-8.401,-4.396,-4.57,-4.703,-4.853,4.701,8.382,28,-1.394,1.352,4.771,7.854,-8.059,-7.588,-1.319,1.723,223.1,221.2,224.5,230.3,220.3,221.0,223.7,211.7,222.7,222.4,1,norm,1.613,1.586,-1.222,-1.972,-5.294,-4.831,-1.179,-1.359,-1.164,-1.435,1.525,-1.387,218.0,215.2,-4.627,-7.982,221.5,-1.769,8.198,5.061,-4.537,-7.712,1,4.353,4.744,4.886,5.017,1.557,1.442,1.843,1.622,1,5.024,5.177,10,121.448005059,norm,0,6,6,6,234.913,234.92,234.921758588,234.922,234.925,234.928,up,1,0.728566672255,9.27143332775,001,010,800_600,Intel(R) Core(TM) i7-2670QM CPU @ 2.20GHz,orientation_search,GRVLAPTOP3,Intel(R) HD Graphics Family,2018_jun_07_1306,testMonitor,
296.4,,309.0,320.6,36,-20,304.8,302.8,316.5,299.0,7.904,8.38,7.854,7.659,7.95,8.135,7.764,4.73,-4.38,-8.483,1.262,-1.373,7.857,4.34,-4.882,-8.087,307.6,310.3,-7.876,295.7,287.8,300.6,322.3,292.8,36,298.5,3,5,prime,10,0,79,norm,36,-4.627,up,norm,302.31430501,282.3,300.4,1.803,302.5,5,320.4,316.0,300.1,10,3,7.692,4.908,1.257,-1.341,-4.865,-7.573,290.0,3,381.3,-8.226,-7.88,-20,-7.767,-8.417,-4.78,-4.458,-5.083,-5.181,5.241,7.605,23,-1.337,1.242,4.575,7.823,-8.452,-8.186,-1.37,1.551,295.0,287.7,312.8,312.2,316.8,301.1,299.8,306.9,288.3,295.2,0,norm,1.507,1.614,-1.716,-1.411,-4.496,-4.696,-1.233,-1.623,-1.513,-2.039,1.524,-1.672,312.8,298.1,-4.316,-7.699,304.4,-1.51,8.358,4.84,-4.917,-7.893,2,4.979,4.946,4.931,4.633,1.438,1.303,1.399,1.38,2,4.832,5.111,-80,121.448005059,norm,0,7,7,7,235.665,235.67,235.672217259,235.673,235.676,235.679,up,1,1.62423529533,8.37576470467,001,010,800_600,Intel(R) Core(TM) i7-2670QM CPU @ 2.20GHz,orientation_search,GRVLAPTOP3,Intel(R) HD Graphics Family,2018_jun_07_1306,testMonitor,
309.3,301.2,310.0,306.3,36,-20,295.6,301.4,303.8,315.5,7.711,7.514,8.088,8.403,7.502,8.342,8.214,4.712,-4.819,-7.781,1.396,-1.382,8.407,4.398,-4.493,-8.469,305.6,309.7,-7.877,285.7,309.2,299.3,303.8,317.7,36,310.0,1,5,prime,10,0,94,norm,36,-5.297,up,norm,302.31430501,303.1,303.9,1.585,298.7,4,299.1,298.8,322.3,10,3,7.639,5.104,1.63,-1.265,-4.35,-8.062,,3,396.3,-7.651,-7.827,-20,-8.204,-8.339,-5.071,-4.558,-5.253,-5.242,4.957,8.43,10,-1.56,1.315,5.285,7.827,-8.315,-8.399,-1.871,1.376,311.6,302.8,299.1,282.3,298.9,310.9,316.1,298.7,293.4,283.2,1,norm,1.152,1.224,-1.121,-1.637,-4.329,-5.221,-1.558,-1.163,-1.325,-1.357,1.133,-1.585,304.0,290.2,-5.233,-8.029,302.3,-2.059,8.435,5.012,-5.026,-8.438,2,4.426,4.482,4.411,5.066,1.737,2.056,2.029,1.675,2,5.23,4.937,-80,121.448005059,norm,0,8,8,8,237.312,237.32,237.321455438,237.322,237.325,237.328,up,1,1.31204853765,8.68795146235,001,010,800_600,Intel(R) Core(TM) i7-2670QM CPU @ 2.20GHz,orientation_search,GRVLAPTOP3,Intel(R) HD Graphics Family,2018_jun_07_1306,testMonitor,
305.1,307.2,,300.2,36,-20,296.5,302.3,307.3,309.8,8.067,7.753,7.918,7.865,7.613,7.994,8.282,4.444,-4.592,-8.239,1.11,-1.692,7.532,4.387,-5.238,-7.788,296.4,306.1,-8.473,307.9,290.8,299.6,311.0,294.5,36,297.1,3,5,prime,10,0,72,norm,36,-5.265,down,norm,302.31430501,305.7,316.8,1.804,286.1,2,300.9,292.0,303.2,10,3,8.174,4.825,1.338,-1.32,-5.017,-7.825,301.9,3,374.3,-7.56,-8.495,-20,-7.929,-7.648,-4.424,-4.92,-4.918,-4.808,4.965,8.055,20,-1.402,1.178,5.188,7.58,-8.087,-8.182,-2.07,2.059,296.4,302.6,295.4,310.0,282.3,298.3,292.4,322.3,289.3,310.6,2,norm,1.388,2.018,-1.396,-1.516,-4.98,-5.124,-1.508,-1.511,-1.557,-1.151,1.489,-1.416,307.3,303.3,-5.294,-8.332,295.4,-1.156,8.397,4.655,-4.886,-8.27,2,5.241,5.107,4.421,4.544,1.455,2.082,1.333,1.68,2,4.926,5.019,-80,121.448005059,norm,0,9,9,9,238.649,238.654,238.656272458,238.657,238.66,238.663,down,1,1.74246152136,8.25753847864,001,010,800_600,Intel(R) Core(TM) i7-2670QM CPU @ 2.20GHz,orientation_search,GRVLAPTOP3,Intel(R) HD Graphics Family,2018_jun_07_1306,testMonitor,
406.4,413.7,402.0,395.4,36,-80,398.6,408.4,401.9,396.8,8.155,8.471,7.624,7.728,8.054,8.074,8.137,4.823,-5.124,-7.983,1.755,-1.355,8.478,5.239,-5.15,-7.817,399.8,403.3,-7.976,410.9,393.7,400.7,407.6,395.1,36,409.6,0,5,probe,5,0,118,norm,36,-4.905,up,norm,403.727636597,404.3,401.8,1.296,401.1,4,398.4,408.6,402.2,10,3,7.891,4.308,1.309,-1.179,-4.324,-8.294,411.5,2,285.7,-7.738,-7.695,-20,-8.01,-7.52,-4.573,-4.541,-5.135,-4.784,4.546,8.143,4,-1.509,1.565,5.052,7.545,-8.153,-8.465,-1.753,1.546,398.6,413.5,406.8,409.5,399.7,401.8,399.6,410.3,407.0,,0,norm,1.399,1.879,-1.333,-2.092,-4.441,-5.007,-1.503,-1.929,-1.293,-1.492,1.658,-1.715,400.7,404.6,-4.511,-8.285,407.0,-1.201,8.377,4.927,-5.119,-7.539,3,5.3,4.703,4.324,4.533,1.989,2.081,1.528,1.149,3,4.717,4.409,-20,302.31430501,norm,0,10,10,10,240.414,240.421,240.422832362,240.423,240.426,240.43,up,1,1.56878431277,8.43121568723,001,010,800_600,Intel(R) Core(TM) i7-2670QM CPU @ 2.20GHz,orientation_search,GRVLAPTOP3,Intel(R) HD Graphics Family,2018_jun_07_1306,testMonitor,
401.1,402.6,403.4,400.8,36,-80,397.5,398.1,413.1,400.8,8.379,8.164,7.891,8.368,8.092,8.103,8.229,5.291,-5.232,-8.213,1.794,-1.156,7.521,4.454,-4.524,-7.645,404.0,404.1,-8.239,406.3,405.8,404.8,395.2,402.3,36,404.9,0,5,probe,5,0,118,norm,36,-4.427,down,norm,403.727636597,407.4,405.0,1.896,404.5,2,399.8,394.4,407.5,10,3,8.275,5.276,1.635,-1.891,-4.302,-7.963,405.0,2,285.7,-8.378,-8.199,-20,-7.639,-8.379,-4.302,-4.6,-4.908,-4.88,4.339,7.891,2,-1.335,1.938,4.388,7.731,-8.055,-8.269,-1.16,1.551,398.2,413.7,402.2,,409.3,393.8,394.1,406.7,393.7,404.5,1,norm,1.67,1.741,-1.105,-1.107,-4.954,-4.729,-1.611,-1.289,-1.845,-1.776,1.586,-2.092,403.7,406.3,-5.122,-7.835,401.6,-1.507,8.058,4.603,-4.777,-7.807,3,4.57,4.314,4.705,4.366,1.448,1.109,1.765,1.932,3,4.672,4.617,-20,302.31430501,norm,0,11,11,11,242.008,242.014,242.016031189,242.017,242.019,242.023,down,1,1.10747728358,8.89252271642,001,010,800_600,Intel(R) Core(TM) i7-2670QM CPU @ 2.20GHz,orientation_search,GRVLAPTOP3,Intel(R) HD Graphics Family,2018_jun_07_1306,testMonitor,
67.5,,54.4,73.2,36,10,72.2,78.1,82.1,60.0,8.482,7.549,7.817,7.81,8.374,8.286,7.568,5.071,-4.621,-7.605,1.583,-1.511,7.667,4.407,-4.758,-7.637,73.2,82.9,-8.424,77.7,84.3,85.6,73.9,92.3,36,94.4,3,5,prime,10,0,73,norm,36,-4.492,up,norm,74.3677579204,78.2,54.6,2.046,76.8,5,84.1,66.4,88.9,10,6,8.24,5.175,1.162,-1.694,-5.17,-8.008,74.9,6,147.4,-8.256,-8.134,10,-7.68,-7.775,-4.999,-5.214,-4.538,-4.565,4.979,8.131,23,-1.475,1.191,4.855,8.286,-7.614,-8.47,-1.882,1.117,71.0,62.6,80.5,77.0,62.0,69.9,60.9,68.4,82.0,64.9,0,norm,1.839,1.953,-1.384,-1.787,-4.377,-4.487,-1.454,-1.825,-1.683,-1.463,1.928,-1.38,67.6,78.5,-5.199,-8.401,85.5,-2.081,8.424,4.989,-4.813,-8.143,4,4.875,5.023,4.447,4.665,1.552,1.313,1.627,1.843,4,5.287,4.962,-80,302.31430501,norm,0,12,12,12,243.138,243.144,243.145506471,243.146,243.149,243.152,up,1,0.799354475083,9.20064552492,001,010,800_600,Intel(R) Core(TM) i7-2670QM CPU @ 2.20GHz,orientation_search,GRVLAPTOP3,Intel(R) HD Graphics Family,2018_jun_07_1306,testMonitor,
84.9,82.4,87.8,85.8,36,10,90.5,94.4,66.9,70.9,7.856,8.102,8.15,8.473,8.047,7.746,8.372,5.103,-5.27,-7.998,1.519,-1.382,7.527,5.069,-4.502,-8.115,68.2,63.1,-7.846,69.9,91.5,68.1,68.0,63.8,36,71.4,2,5,prime,10,0,90,norm,36,-5.284,up,norm,74.3677579204,79.6,,1.66,75.3,4,67.3,82.7,77.8,10,6,7.509,4.541,1.199,-1.569,-4.608,-7.51,71.6,6,164.4,-8.357,-8.13,10,-7.777,-7.993,-4.925,-4.939,-4.786,-5.07,4.323,7.594,16,-1.557,1.486,4.452,7.616,-7.604,-7.779,-1.717,2.088,69.0,71.5,63.6,61.5,70.6,79.3,66.1,54.4,73.5,72.7,1,norm,1.762,1.277,-1.5,-1.805,-4.893,-4.322,-2.038,-1.945,-1.734,-1.458,1.33,-1.917,77.9,65.1,-4.698,-7.962,67.4,-1.979,7.728,4.359,-5.129,-8.433,4,5.053,4.366,4.439,5.128,1.624,1.924,1.327,1.761,4,4.743,4.336,-80,302.31430501,norm,0,13,13,13,243.96,243.965,243.967009306,243.968,243.97,243.974,down,0,0.808794529848,-10,001,010,800_600,Intel(R) Core(TM) i7-2670QM CPU @ 2.20GHz,orientation_search,GRVLAPTOP3,Intel(R) HD Graphics Family,2018_jun_07_1306,testMonitor,
61.7,94.4,72.1,81.1,36,10,70.5,61.5,67.6,74.1,7.999,7.553,8.392,8.475,7.924,8.102,7.672,4.607,-4.573,-8.044,2.039,-1.18,8.439,5.186,-4.448,-7.828,78.5,57.9,-7.789,65.7,71.8,84.6,79.8,67.3,36,92.5,1,5,prime,10,0,97,norm,36,-5.142,down,norm,74.3677579204,78.7,67.1,1.491,54.4,1,73.0,78.9,78.5,10,6,7.997,4.636,1.827,-1.11,-5.1,-7.948,57.9,6,171.4,-8.352,-7.835,10,-7.655,-8.117,-5.196,-5.049,-5.139,-4.672,5.193,8.007,7,-1.957,1.732,5.125,8.274,-7.927,-7.838,-1.705,1.838,79.7,71.8,77.3,77.4,75.8,73.1,,93.1,78.8,68.5,2,norm,1.79,1.647,-2.041,-1.728,-4.89,-4.622,-1.581,-1.591,-1.831,-1.381,1.251,-2.094,70.1,81.9,-4.513,-7.735,83.5,-1.441,7.723,5.112,-5.226,-7.662,4,4.397,4.829,5.269,5.115,1.707,1.101,1.274,1.184,4,4.807,5.07,-80,302.31430501,norm,0,14,14,14,245.793,245.799,245.801103239,245.802,245.804,245.808,down,1,1.66867256935,8.33132743065,001,010,800_600,Intel(R) Core(TM) i7-2670QM CPU @ 2.20GHz,orientation_search,GRVLAPTOP3,Intel(R) HD Graphics Family,2018_jun_07_1306,testMonitor,
70.8,72.0,73.9,85.7,36,10,74.0,77.6,76.1,79.1,8.436,7.705,8.147,8.249,7.75,8.086,8.296,4.584,-4.4,-7.986,2.065,-1.409,8.46,4.348,-4.865,-7.856,79.4,87.2,-7.96,77.0,64.7,66.0,,81.5,36,83.7,5,5,prime,10,0,73,norm,36,-4.502,down,norm,74.3677579204,63.1,84.3,2.071,73.5,2,58.3,94.4,59.2,10,6,8.271,4.913,1.262,-1.443,-4.326,-8.244,80.6,6,147.4,-7.83,-7.895,10,-8.359,-7.75,-4.836,-4.967,-4.353,-4.408,4.496,7.652,32,-1.855,1.581,4.336,8.314,-7.864,-8.062,-1.306,1.159,57.2,76.9,69.1,57.3,75.8,60.6,54.4,77.9,60.0,60.6,3,norm,1.78,1.575,-1.526,-1.343,-4.843,-4.951,-1.349,-1.484,-1.491,-1.396,1.905,-1.564,84.9,79.0,-4.541,-8.258,70.7,-1.815,8.416,5.043,-4.496,-7.641,4,4.537,4.384,4.704,4.348,1.472,1.465,1.96,2.087,4,4.463,4.567,-80,302.31430501,norm,0,15,15,15,247.484,247.489,247.491028539,247.492,247.494,247.498,down,1,2.19399602057,7.80600397943,001,010,800_600,Intel(R) Core(TM) i7-2670QM CPU @ 2.20GHz,orientation_search,GRVLAPTOP3,Intel(R) HD Graphics Family,2018_jun_07_1306,testMonitor,
81.0,83.5,85.7,73.8,36,10,86.4,72.6,73.7,75.4,8.04,7.567,7.561,8.126,8.051,7.934,7.994,4.524,-5.064,-8.338,1.819,-1.91,7.539,4.581,-5.27,-7.809,,54.4,-8.272,87.4,69.0,82.4,73.3,78.1,36,65.5,5,5,prime,10,0,109,norm,36,-4.636,up,norm,74.3677579204,94.4,77.1,2.021,75.9,5,61.4,72.1,70.2,10,6,7.798,4.531,1.476,-1.956,-4.633,-7.585,83.4,6,183.4,-8.141,-7.848,10,-8.168,-7.646,-4.998,-4.772,-4.974,-5.019,5.112,8.259,35,-1.426,1.212,5.281,8.318,-7.999,-7.611,-1.469,1.546,78.0,72.1,62.2,57.9,80.3,58.7,85.0,81.0,66.3,81.6,4,norm,1.464,1.518,-1.872,-2.078,-5.141,-4.694,-1.886,-1.297,-1.632,-1.16,1.22,-1.115,71.2,74.5,-4.921,-7.566,78.8,-1.661,7.916,4.824,-5.19,-7.532,4,5.202,4.431,4.384,4.418,1.392,1.25,1.31,1.337,4,4.415,4.96,-80,302.31430501,norm,0,16,16,16,249.701,249.706,249.707875227,249.708,249.711,249.715,up,1,3.19586899543,6.80413100457,001,010,800_600,Intel(R) Core(TM) i7-2670QM CPU @ 2.20GHz,orientation_search,GRVLAPTOP3,Intel(R) HD Graphics Family,2018_jun_07_1306,testMonitor,
79.8,68.2,93.0,59.8,36,10,72.0,71.0,66.8,84.3,7.732,7.645,8.292,7.982,8.172,8.237,8.301,5.252,-4.52,-7.82,1.211,-1.502,7.889,5.272,-4.777,-7.683,70.0,67.5,-7.553,75.5,60.9,94.4,79.3,76.3,36,76.0,2,5,prime,10,0,92,norm,36,-5.208,up,norm,74.3677579204,,66.9,1.538,75.0,5,74.1,64.9,57.3,10,6,7.999,5.028,1.611,-1.197,-5.192,-7.741,72.5,6,166.4,-7.976,-8.169,10,-7.59,-8.076,-4.336,-4.513,-4.715,-4.418,4.756,8.43,17,-2.029,1.442,4.628,7.627,-7.613,-8.411,-1.501,1.858,76.5,70.2,79.4,62.5,65.2,76.5,70.3,54.4,64.7,79.5,5,norm,1.281,1.333,-1.116,-1.607,-4.81,-4.62,-1.47,-2.032,-1.971,-2.027,1.163,-1.133,58.6,92.7,-4.448,-7.667,67.1,-2.016,7.895,4.939,-4.96,-7.935,4,4.427,4.551,4.359,5.203,1.568,1.969,1.911,1.398,4,4.317,5.093,-80,302.31430501,norm,0,17,17,17,252.92,252.926,252.927584376,252.928,252.931,252.935,up,1,2.09295343993,7.90704656007,001,010,800_600,Intel(R) Core(TM) i7-2670QM CPU @ 2.20GHz,orientation_search,GRVLAPTOP3,Intel(R) HD Graphics Family,2018_jun_07_1306,testMonitor,
201.5,205.5,207.2,202.9,36,30,195.4,,212.7,209.0,7.575,7.703,8.236,7.643,8.051,8.163,8.369,5.209,-5.106,-7.887,2.067,-1.237,7.797,4.818,-4.817,-7.737,202.7,202.7,-7.731,201.0,198.1,209.4,193.4,207.9,36,199.3,4,5,probe,5,0,117,norm,36,-4.833,down,norm,203.366173645,199.9,202.3,1.513,200.1,1,202.4,199.0,205.0,10,6,8.162,5.032,1.846,-1.447,-4.999,-7.618,205.8,2,86.4,-8.395,-8.037,10,-8.018,-7.673,-5.111,-4.845,-5.163,-4.903,5.052,8.167,25,-1.636,1.178,4.931,8.358,-8.415,-8.091,-1.763,1.279,199.4,207.9,206.7,204.0,203.2,202.8,207.5,201.4,202.8,206.1,0,norm,2.065,1.814,-1.695,-1.848,-4.524,-4.703,-1.992,-1.232,-1.62,-1.116,2.041,-1.679,205.4,208.4,-4.648,-8.021,213.4,-1.327,7.83,4.763,-4.971,-7.569,5,5.15,5.179,4.924,4.67,1.373,1.118,1.349,1.302,5,5.142,4.422,10,74.3677579204,norm,0,18,18,18,255.037,255.042,255.044050165,255.045,255.047,255.051,down,1,1.54471768325,8.45528231675,001,010,800_600,Intel(R) Core(TM) i7-2670QM CPU @ 2.20GHz,orientation_search,GRVLAPTOP3,Intel(R) HD Graphics Family,2018_jun_07_1306,testMonitor,
171.8,,163.5,165.0,36,30,156.4,163.9,170.3,168.8,7.827,7.512,8.23,8.017,8.066,8.227,7.961,4.855,-4.935,-8.061,2.035,-1.64,8.0,5.124,-4.898,-8.446,173.3,162.8,-7.666,176.4,170.1,172.0,174.0,162.9,36,162.5,3,5,probe,5,0,80,norm,36,-4.33,up,norm,166.366173645,159.1,162.9,2.058,170.6,5,160.6,161.6,169.2,10,6,8.23,5.241,1.51,-1.327,-5.162,-7.803,166.2,2,86.4,-7.885,-7.6,10,-8.213,-7.892,-4.656,-4.383,-4.943,-5.211,4.545,8.293,23,-1.78,1.711,4.349,7.806,-8.303,-7.932,-1.612,1.761,163.1,162.1,160.7,164.4,159.9,167.4,169.5,167.1,165.1,164.3,1,norm,1.528,1.49,-1.875,-1.798,-4.977,-4.975,-1.974,-1.219,-1.388,-2.052,1.817,-1.959,161.4,162.3,-5.09,-8.368,171.0,-1.762,8.489,4.709,-4.736,-8.294,5,4.953,5.012,4.552,4.751,1.797,2.085,1.448,1.951,5,4.627,4.673,10,74.3677579204,norm,0,19,19,19,256.604,256.61,256.611616647,256.612,256.615,256.618,up,1,1.10854148446,8.89145851554,001,010,800_600,Intel(R) Core(TM) i7-2670QM CPU @ 2.20GHz,orientation_search,GRVLAPTOP3,Intel(R) HD Graphics Family,2018_jun_07_1306,testMonitor,
137.3,126.2,106.9,129.8,36,-10,137.3,123.9,146.9,121.3,7.717,8.283,8.396,7.549,7.963,7.674,7.691,4.863,-4.922,-8.405,1.595,-1.151,8.16,4.854,-4.965,-8.296,112.9,130.8,-7.957,113.3,121.0,109.7,131.7,143.7,36,114.4,1,5,prime,10,0,100,norm,36,-5.236,up,norm,126.863009862,137.5,135.4,1.732,126.4,5,,125.2,140.0,10,6,8.11,4.437,1.823,-1.2,-5.253,-7.719,131.2,6,226.9,-8.134,-8.416,-10,-8.424,-8.359,-4.81,-5.116,-4.732,-5.015,4.66,8.432,11,-1.574,1.49,5.023,7.864,-8.5,-8.373,-1.136,1.574,129.7,123.0,134.0,128.2,126.4,113.3,128.7,123.0,125.0,124.1,0,norm,1.108,1.132,-1.26,-1.541,-4.372,-4.924,-1.294,-1.289,-2.088,-1.61,1.356,-1.82,121.1,142.5,-4.512,-8.459,135.8,-1.57,7.963,4.655,-5.071,-7.702,6,4.871,4.343,4.92,4.556,2.075,1.43,1.313,1.187,6,4.993,4.776,30,74.3677579204,norm,0,20,20,20,257.736,257.742,257.743692427,257.744,257.747,257.751,up,1,1.41369256222,8.58630743778,001,010,800_600,Intel(R) Core(TM) i7-2670QM CPU @ 2.20GHz,orientation_search,GRVLAPTOP3,Intel(R) HD Graphics Family,2018_jun_07_1306,testMonitor,
115.3,106.9,136.4,120.6,36,-10,119.6,122.6,136.2,136.7,7.702,7.925,8.375,8.198,7.653,8.258,7.558,5.248,-4.619,-8.04,1.201,-1.275,7.888,4.325,-5.284,-7.547,139.5,107.5,-7.77,122.5,120.7,129.9,128.4,138.2,36,,4,5,prime,10,0,61,norm,36,-4.79,up,norm,126.863009862,143.1,146.9,1.863,109.6,3,114.3,124.3,125.6,10,6,7.81,5.006,1.32,-1.167,-4.308,-7.768,128.2,6,187.9,-8.438,-8.244,-10,-7.553,-8.196,-4.659,-4.703,-4.424,-4.495,4.807,8.209,27,-1.647,1.577,4.9,7.897,-7.826,-7.552,-1.757,1.972,120.7,132.0,127.2,108.7,113.0,127.7,138.6,133.4,136.6,130.7,1,norm,1.311,1.238,-1.197,-1.486,-5.239,-5.085,-1.858,-1.634,-1.406,-2.08,1.537,-1.762,123.5,123.6,-4.745,-7.753,122.7,-1.594,8.012,4.821,-5.069,-8.116,6,4.513,5.138,5.076,4.989,1.13,1.247,1.333,1.318,6,4.997,5.239,30,74.3677579204,norm,0,21,21,21,259.173,259.178,259.179489454,259.18,259.183,259.187,up,1,1.43690372181,8.56309627819,001,010,800_600,Intel(R) Core(TM) i7-2670QM CPU @ 2.20GHz,orientation_search,GRVLAPTOP3,Intel(R) HD Graphics Family,2018_jun_07_1306,testMonitor,
138.6,132.7,114.6,116.7,36,-10,127.0,106.9,124.1,144.8,7.941,8.223,7.866,7.702,7.624,8.192,8.456,4.863,-4.668,-8.096,2.012,-1.699,7.754,4.493,-4.504,-8.349,133.1,124.0,-7.988,126.3,111.9,129.0,131.1,120.6,36,130.4,1,5,prime,10,0,100,norm,36,-4.851,up,norm,126.863009862,116.2,114.2,1.649,113.1,3,136.9,146.9,109.3,10,6,8.387,4.641,1.225,-2.091,-4.428,-7.797,134.4,6,226.9,-8.367,-7.651,-10,-7.888,-8.376,-4.91,-4.707,-5.167,-5.019,4.963,8.009,9,-1.133,1.183,5.131,8.388,-7.79,-7.868,-1.955,1.949,,124.5,126.3,120.6,116.1,127.3,135.4,129.4,119.4,126.4,2,norm,1.586,1.914,-1.316,-1.924,-4.529,-4.684,-1.295,-1.767,-1.417,-1.998,1.619,-1.905,116.3,131.7,-4.873,-8.004,128.6,-1.623,7.857,5.289,-5.19,-7.925,6,4.657,5.115,4.641,4.723,1.444,1.194,1.151,2.039,6,5.074,4.447,30,74.3677579204,norm,0,22,22,22,260.633,260.639,260.640479885,260.641,260.644,260.647,up,1,1.00326358047,8.99673641953,001,010,800_600,Intel(R) Core(TM) i7-2670QM CPU @ 2.20GHz,orientation_search,GRVLAPTOP3,Intel(R) HD Graphics Family,2018_jun_07_1306,testMonitor,
139.1,115.7,129.3,115.2,36,-10,131.6,122.4,137.5,137.7,8.403,8.165,8.019,8.221,7.599,7.523,7.986,4.585,-5.275,-7.999,1.334,-1.327,7.943,4.385,-4.846,-8.417,126.3,119.7,-7.979,109.3,132.0,115.7,122.9,,36,120.2,4,5,prime,10,0,112,norm,36,-4.915,down,norm,126.863009862,109.8,143.9,1.969,119.2,2,134.3,111.6,127.6,10,6,8.337,4.512,1.857,-1.246,-4.348,-8.212,126.8,6,238.9,-7.507,-8.122,-10,-8.308,-8.231,-4.67,-4.952,-5.111,-4.824,4.589,7.554,26,-1.28,1.646,4.397,8.133,-7.644,-7.856,-1.985,1.482,125.7,142.7,116.8,127.2,127.6,112.2,126.6,127.4,138.8,125.0,3,norm,2.082,1.224,-1.198,-2.023,-4.509,-5.198,-1.422,-2.061,-1.958,-2.095,1.285,-2.062,106.9,114.0,-4.487,-7.911,120.9,-1.149,7.618,5.213,-4.846,-7.572,6,4.984,5.171,4.506,4.743,1.847,1.178,1.486,1.252,6,5.018,4.541,30,74.3677579204,norm,0,23,23,23,261.659,261.665,261.666666511,261.667,261.67,261.673,down,1,0.955279281516,9.04472071848,001,010,800_600,Intel(R) Core(TM) i7-2670QM CPU @ 2.20GHz,orientation_search,GRVLAPTOP3,Intel(R) HD Graphics Family,2018_jun_07_1306,testMonitor,
132.6,123.5,130.8,144.6,36,-10,146.9,141.7,130.3,137.3,8.022,8.428,8.445,7.749,8.09,8.364,7.904,5.107,-4.659,-7.589,1.141,-1.523,8.028,5.226,-4.345,-7.966,112.0,125.3,-8.204,122.6,122.6,112.4,106.9,125.1,36,112.9,2,5,prime,10,0,73,norm,36,-4.908,up,norm,126.863009862,,129.3,2.017,130.9,5,143.4,121.7,136.5,10,6,7.94,4.704,1.128,-1.327,-4.913,-7.978,119.8,6,199.9,-7.893,-8.381,-10,-8.0,-8.473,-5.24,-4.849,-5.137,-4.764,4.474,7.88,17,-2.052,1.526,5.152,8.321,-8.453,-7.811,-1.378,1.739,139.3,125.1,118.9,112.8,135.8,139.0,132.6,129.1,117.8,126.6,4,norm,1.966,1.364,-1.464,-1.972,-4.331,-4.354,-1.614,-2.024,-1.802,-1.567,1.913,-1.619,110.0,114.2,-5.228,-7.753,112.0,-1.718,8.312,5.289,-4.931,-7.675,6,4.841,4.901,4.542,5.139,1.135,1.114,1.243,1.518,6,4.602,5.031,30,74.3677579204,norm,0,24,24,24,262.637,262.642,262.64394239,262.645,262.647,262.651,up,1,0.940507015368,9.05949298463,001,010,800_600,Intel(R) Core(TM) i7-2670QM CPU @ 2.20GHz,orientation_search,GRVLAPTOP3,Intel(R) HD Graphics Family,2018_jun_07_1306,testMonitor,
123.7,141.2,123.9,,36,-10,133.8,131.3,141.3,146.9,7.735,8.059,8.39,8.082,7.616,8.485,8.071,5.106,-4.812,-7.687,1.126,-1.384,7.965,4.985,-5.153,-7.659,108.8,120.2,-7.706,125.9,141.1,141.5,133.6,106.9,36,131.1,3,5,prime,10,0,86,norm,36,-4.989,up,norm,126.863009862,134.9,115.3,1.825,140.3,3,115.2,128.4,127.8,10,6,7.525,4.391,1.585,-1.449,-4.351,-8.033,142.6,6,212.9,-7.757,-7.738,-10,-8.236,-7.823,-4.328,-5.051,-4.434,-4.972,4.69,8.478,21,-1.407,1.355,4.393,8.295,-8.063,-8.437,-1.463,1.178,119.4,116.9,130.4,113.6,138.9,143.6,117.3,123.2,130.4,131.1,5,norm,1.692,1.307,-1.643,-1.241,-5.047,-4.691,-1.596,-1.934,-1.758,-1.298,1.927,-1.161,134.5,134.1,-5.261,-7.818,115.0,-1.11,8.378,4.372,-4.516,-8.062,6,5.295,4.658,5.147,4.334,1.385,1.84,1.289,1.126,6,4.883,4.975,30,74.3677579204,norm,0,25,25,25,263.6,263.606,263.607718001,263.608,263.611,263.615,up,1,1.75624943673,8.24375056327,001,010,800_600,Intel(R) Core(TM) i7-2670QM CPU @ 2.20GHz,orientation_search,GRVLAPTOP3,Intel(R) HD Graphics Family,2018_jun_07_1306,testMonitor,
229.0,221.1,224.2,225.2,36,-40,230.2,229.5,230.7,,7.637,8.342,8.359,7.854,7.996,7.859,8.173,4.532,-5.162,-7.832,1.832,-1.332,7.671,5.262,-4.33,-7.76,237.1,227.5,-8.21,234.0,237.8,224.4,223.6,219.2,36,229.1,4,5,probe,5,0,109,norm,36,-4.314,up,norm,227.839509482,237.5,228.8,1.498,233.7,5,228.3,237.1,235.1,10,6,8.13,4.602,1.6,-1.258,-4.826,-8.043,223.7,2,118.8,-7.958,-8.427,-10,-8.484,-8.207,-5.036,-4.427,-4.493,-4.501,4.624,8.332,29,-1.68,1.154,5.242,8.351,-7.863,-7.63,-1.46,2.077,220.3,217.8,230.9,227.2,230.1,230.9,229.1,228.3,221.1,227.8,0,norm,1.275,1.299,-1.824,-1.824,-4.633,-4.987,-1.194,-1.941,-1.226,-1.549,1.561,-1.723,227.4,219.2,-4.449,-8.148,230.0,-1.607,8.085,5.043,-4.746,-7.782,7,5.242,4.609,4.331,5.215,1.508,1.469,1.649,1.919,7,4.444,5.079,-10,126.863009862,norm,0,26,26,26,265.38,265.386,265.387713733,265.388,265.391,265.395,up,1,0.898954617598,9.1010453824,001,010,800_600,Intel(R) Core(TM) i7-2670QM CPU @ 2.20GHz,orientation_search,GRVLAPTOP3,Intel(R) HD Graphics Family,2018_jun_07_1306,testMonitor,
,206.5,208.0,208.5,36,-40,207.1,207.2,212.1,210.3,8.216,8.407,8.413,7.543,7.647,8.437,7.853,4.315,-4.706,-7.829,1.619,-1.463,7.503,4.945,-5.117,-8.189,214.3,204.3,-8.442,212.7,220.8,219.8,206.4,208.0,36,207.5,3,5,probe,5,0,92,norm,36,-5.205,up,norm,210.839509482,206.0,219.7,1.399,213.0,4,214.9,207.6,216.6,10,6,7.526,4.654,1.479,-1.252,-4.787,-8.055,201.9,2,118.8,-8.27,-7.81,-10,-8.401,-7.861,-4.499,-4.381,-5.113,-4.685,5.155,8.327,22,-2.033,1.319,4.98,8.476,-7.519,-8.44,-1.253,1.925,203.6,211.9,210.5,208.6,212.4,210.7,204.4,211.3,212.8,200.8,1,norm,1.679,2.096,-1.258,-1.541,-4.375,-4.406,-1.655,-1.743,-1.842,-2.047,2.055,-1.418,204.7,207.2,-4.844,-8.191,213.3,-1.323,8.335,4.754,-5.281,-7.825,7,4.528,5.175,4.78,5.246,1.97,1.804,1.599,2.02,7,4.414,4.398,-10,126.863009862,norm,0,27,27,27,266.302,266.308,266.310097114,266.311,266.314,266.317,up,1,1.17036132865,8.82963867135,001,010,800_600,Intel(R) Core(TM) i7-2670QM CPU @ 2.20GHz,orientation_search,GRVLAPTOP3,Intel(R) HD Graphics Family,2018_jun_07_1306,testMonitor,
92.1,89.4,102.9,91.0,36,80,92.5,97.9,106.4,,8.367,8.485,7.79,8.079,7.963,7.718,7.668,4.598,-4.815,-7.666,1.806,-1.349,8.165,5.215,-4.626,-7.518,88.6,86.9,-8.423,106.6,89.1,95.4,90.0,94.2,36,87.5,4,5,prime,10,0,71,norm,36,-4.59,up,norm,93.8892431983,106.0,91.3,2.031,92.3,5,93.7,88.7,91.7,10,3,7.978,5.223,1.604,-1.243,-4.748,-8.017,106.8,3,164.9,-8.014,-8.034,80,-8.066,-7.608,-4.478,-5.181,-5.233,-4.666,5.024,7.573,29,-1.559,1.26,4.564,7.867,-8.062,-8.378,-1.347,1.138,73.9,89.9,95.2,113.9,84.2,103.7,97.8,103.1,94.5,101.1,0,norm,1.91,1.254,-1.846,-1.986,-4.823,-5.03,-1.936,-1.213,-1.717,-2.013,1.765,-1.254,102.4,85.1,-4.404,-8.266,93.7,-1.226,7.986,4.877,-5.174,-7.802,8,4.734,5.09,4.48,4.913,1.766,1.917,1.666,1.295,8,5.01,4.86,-40,126.863009862,norm,0,28,28,28,267.496,267.502,267.503789143,267.504,267.507,267.511,up,1,1.41409414745,8.58590585255,001,010,800_600,Intel(R) Core(TM) i7-2670QM CPU @ 2.20GHz,orientation_search,GRVLAPTOP3,Intel(R) HD Graphics Family,2018_jun_07_1306,testMonitor,
86.5,108.5,108.3,92.7,36,80,81.4,99.2,107.5,105.2,8.438,7.884,8.195,7.763,8.108,7.792,7.544,4.524,-4.671,-7.506,1.849,-1.156,8.216,5.132,-4.304,-7.576,77.5,92.3,-8.064,103.7,94.6,85.9,99.1,91.3,36,110.9,2,5,prime,10,0,83,norm,36,-4.626,up,norm,93.8892431983,94.6,87.6,1.359,93.3,3,93.1,104.6,94.2,10,3,7.955,4.924,1.675,-2.08,-4.665,-8.431,107.4,3,176.9,-7.905,-7.779,80,-7.684,-7.687,-4.936,-5.044,-4.701,-4.439,4.535,7.776,15,-1.466,1.377,4.87,8.222,-8.167,-7.833,-1.787,1.593,103.9,89.7,96.6,85.7,88.2,86.6,88.1,73.9,113.9,92.6,1,norm,1.157,1.332,-1.956,-1.811,-5.075,-4.645,-1.18,-1.176,-1.749,-1.557,1.786,-2.017,78.9,84.5,-4.355,-8.378,,-1.315,7.921,4.434,-4.825,-8.142,8,4.416,4.951,4.983,4.981,1.905,1.368,1.633,1.863,8,4.945,4.726,-40,126.863009862,norm,0,29,29,29,268.934,268.94,268.941574018,268.942,268.945,268.949,up,1,1.55065273944,8.44934726056,001,010,800_600,Intel(R) Core(TM) i7-2670QM CPU @ 2.20GHz,orientation_search,GRVLAPTOP3,Intel(R) HD Graphics Family,2018_jun_07_1306,testMonitor,
82.6,82.9,87.1,91.4,36,80,103.6,86.9,103.9,95.5,8.39,8.257,8.101,8.373,8.37,7.507,7.605,5.035,-4.309,-8.128,1.75,-2.059,7.769,5.227,-4.996,-8.111,93.2,89.5,-8.365,99.4,79.3,95.0,96.2,86.0,36,87.1,0,5,prime,10,0,87,norm,36,-5.284,down,norm,93.8892431983,89.3,99.3,1.245,110.8,2,80.7,108.2,95.3,10,3,8.498,5.04,2.015,-1.383,-5.212,-8.406,97.7,3,180.9,-7.928,-8.105,80,-7.78,-8.212,-4.873,-4.37,-4.341,-4.913,4.853,8.22,2,-1.303,1.345,4.813,8.241,-8.005,-8.208,-1.358,1.477,96.1,93.0,90.7,,96.8,113.9,96.6,90.6,97.7,85.2,2,norm,1.585,1.552,-1.33,-1.155,-4.823,-4.777,-1.909,-2.096,-1.725,-1.513,1.275,-1.916,87.6,73.9,-4.867,-7.72,79.0,-1.994,7.741,4.843,-5.268,-7.894,8,5.226,4.921,4.723,5.075,1.568,1.535,1.285,1.906,8,4.606,4.93,-40,126.863009862,norm,0,30,30,30,270.508,270.513,270.515327715,270.516,270.519,270.522,down,1,1.24130462902,8.75869537098,001,010,800_600,Intel(R) Core(TM) i7-2670QM CPU @ 2.20GHz,orientation_search,GRVLAPTOP3,Intel(R) HD Graphics Family,2018_jun_07_1306,testMonitor,
251.1,,250.0,254.1,36,-30,243.2,243.7,255.3,251.6,8.217,8.381,8.13,8.175,8.04,8.411,7.817,4.565,-4.655,-8.189,1.71,-1.347,8.292,5.261,-5.096,-8.195,254.4,245.7,-7.557,250.8,247.1,242.5,242.7,249.8,36,243.3,3,5,probe,5,0,83,norm,36,-4.357,up,norm,248.526615951,243.1,251.1,1.475,258.5,5,248.5,244.8,252.9,10,3,8.456,5.027,1.902,-1.331,-4.79,-8.057,247.6,1,165.5,-8.16,-8.177,80,-7.753,-7.515,-4.551,-4.847,-4.481,-5.058,5.254,8.179,23,-1.912,1.841,4.562,7.654,-7.518,-8.454,-1.177,1.447,252.6,250.4,245.7,251.9,250.6,253.0,240.1,250.7,256.3,255.4,0,norm,1.201,1.722,-1.211,-1.499,-4.587,-4.972,-1.743,-1.335,-1.554,-1.576,1.766,-1.74,238.5,251.9,-4.562,-7.622,247.1,-1.671,8.397,5.221,-4.389,-8.072,9,5.084,4.651,4.975,5.128,1.283,1.856,1.503,1.51,9,5.093,4.342,80,93.8892431983,norm,0,31,31,31,271.773,271.778,271.780265635,271.781,271.784,271.787,up,1,1.91382354438,8.08617645562,001,010,800_600,Intel(R) Core(TM) i7-2670QM CPU @ 2.20GHz,orientation_search,GRVLAPTOP3,Intel(R) HD Graphics Family,2018_jun_07_1306,testMonitor,
124.5,122.6,127.2,140.1,36,10,131.2,122.5,127.7,137.1,7.523,7.721,8.445,7.915,7.984,7.904,7.786,5.028,-5.104,-7.963,1.869,-1.618,8.128,4.542,-4.526,-7.562,129.9,118.1,-8.148,117.2,136.1,126.3,137.5,132.3,36,133.1,2,5,prime,10,0,112,norm,36,-5.287,up,norm,126.70645828,106.7,146.7,1.238,116.9,3,133.9,122.3,129.0,10,2,7.81,4.883,1.402,-1.688,-5.1,-8.33,132.2,2,238.7,-8.07,-7.954,10,-7.72,-8.371,-4.794,-4.986,-5.168,-4.784,4.365,8.017,15,-1.436,1.661,4.455,7.614,-8.119,-7.658,-1.499,1.518,123.7,108.7,122.6,124.9,109.0,130.7,139.0,119.4,134.2,126.9,0,norm,1.254,1.666,-1.87,-1.505,-5.183,-4.693,-2.061,-1.821,-1.881,-1.695,1.718,-1.169,118.4,137.5,-4.971,-8.246,,-2.0,7.596,5.287,-5.237,-8.2,10,4.642,4.949,4.403,5.046,1.162,1.49,1.912,1.372,10,5.294,4.833,-30,93.8892431983,norm,0,32,32,32,273.712,273.719,273.720803936,273.721,273.724,273.727,up,1,1.90272017961,8.09727982039,001,010,800_600,Intel(R) Core(TM) i7-2670QM CPU @ 2.20GHz,orientation_search,GRVLAPTOP3,Intel(R) HD Graphics Family,2018_jun_07_1306,testMonitor,
140.2,125.8,121.5,,36,10,130.8,123.2,131.6,116.6,8.354,7.836,7.582,7.651,7.722,7.587,8.453,4.383,-5.164,-7.532,1.937,-1.105,8.254,4.997,-4.419,-7.587,138.5,139.4,-8.44,135.1,111.9,133.0,127.2,120.2,36,115.8,3,5,prime,10,0,64,norm,36,-5.047,up,norm,126.70645828,106.7,131.5,1.156,119.8,3,140.4,127.7,142.5,10,2,7.667,5.248,1.318,-1.175,-4.619,-7.607,139.6,2,190.7,-7.596,-8.059,10,-8.283,-7.677,-5.29,-4.739,-4.477,-4.787,4.817,7.981,21,-1.245,1.679,5.063,8.015,-8.494,-7.527,-1.144,1.218,117.5,116.3,138.2,146.7,134.6,131.3,118.3,122.6,118.7,120.9,1,norm,1.792,1.564,-1.928,-1.607,-5.161,-5.235,-1.397,-1.387,-1.821,-1.217,1.53,-1.331,130.2,128.4,-4.821,-7.699,130.2,-1.165,8.395,4.325,-4.942,-7.867,10,5.268,4.348,4.845,4.809,1.345,1.805,1.41,1.752,10,5.151,4.741,-30,93.8892431983,norm,0,33,33,33,275.641,275.649,275.65115925,275.652,275.656,275.661,up,1,1.33911958508,8.66088041492,001,010,800_600,Intel(R) Core(TM) i7-2670QM CPU @ 2.20GHz,orientation_search,GRVLAPTOP3,Intel(R) HD Graphics Family,2018_jun_07_1306,testMonitor,
213.9,217.7,209.2,211.5,36,-30,211.6,209.6,204.9,209.2,8.374,7.891,7.927,8.333,8.127,7.587,8.07,4.691,-4.493,-7.528,1.912,-1.178,8.476,4.66,-4.398,-7.679,212.9,222.8,-7.571,211.4,219.2,216.5,218.5,221.5,36,206.3,1,5,probe,5,0,73,norm,36,-5.002,down,norm,212.772823387,217.1,210.5,2.093,212.7,1,214.4,214.1,217.8,10,2,8.1,4.714,1.829,-1.151,-5.103,-7.864,219.2,1,139.8,-7.849,-7.904,10,-7.635,-8.08,-4.372,-4.582,-4.624,-4.386,4.489,8.202,7,-1.913,1.412,4.569,8.215,-8.318,-8.351,-1.739,1.87,208.2,210.9,211.3,214.6,208.4,208.4,,210.0,215.1,221.0,0,norm,1.593,1.965,-1.991,-1.948,-4.94,-5.279,-1.735,-1.331,-1.227,-1.946,1.266,-1.481,212.1,208.4,-4.773,-7.873,211.3,-1.125,7.714,4.423,-4.828,-8.229,11,4.997,4.577,4.73,4.826,1.18,1.416,1.937,1.857,11,4.467,4.369,10,126.70645828,norm,0,34,34,34,277.012,277.019,277.021320907,277.022,277.026,277.031,down,1,2.303843124,7.696156876,001,010,800_600,Intel(R) Core(TM) i7-2670QM CPU @ 2.20GHz,orientation_search,GRVLAPTOP3,Intel(R) HD Graphics Family,2018_jun_07_1306,testMonitor,
319.5,308.5,315.8,325.7,36,30,318.6,321.6,332.8,348.5,8.272,7.986,7.855,8.38,8.051,8.178,7.642,4.992,-4.542,-8.384,1.365,-1.751,8.218,4.785,-4.387,-8.142,331.4,330.0,-8.211,312.2,339.0,334.6,343.0,333.1,36,328.4,3,5,prime,10,0,97,norm,36,-4.767,down,norm,328.480523419,326.4,335.0,1.365,318.8,1,346.1,335.0,334.5,10,2,7.693,4.448,1.898,-1.16,-5.145,-7.787,318.7,2,425.5,-7.873,-8.315,30,-8.278,-7.841,-4.313,-5.052,-5.142,-4.312,4.96,8.396,19,-1.143,1.683,5.057,7.708,-8.195,-7.95,-1.792,1.137,324.6,330.5,330.1,339.0,320.0,333.7,325.4,317.5,337.1,319.4,0,norm,1.639,1.54,-1.313,-1.627,-5.08,-4.931,-1.237,-1.856,-1.245,-2.061,1.15,-1.937,,322.1,-4.457,-8.035,317.2,-1.319,7.682,4.72,-4.913,-7.861,12,5.187,5.146,4.948,4.739,1.299,1.197,1.61,1.162,12,4.965,4.649,-30,126.70645828,norm,0,35,35,35,279.346,279.354,279.356072552,279.357,279.361,279.366,down,1,1.22800421945,8.77199578055,001,010,800_600,Intel(R) Core(TM) i7-2670QM CPU @ 2.20GHz,orientation_search,GRVLAPTOP3,Intel(R) HD Graphics Family,2018_jun_07_1306,testMonitor,
330.2,348.5,328.5,335.7,36,30,326.6,334.2,313.4,328.1,8.267,7.776,8.036,7.833,7.885,7.667,7.859,5.071,-4.417,-8.074,1.604,-1.322,7.754,5.016,-4.452,-7.563,,334.9,-8.093,332.6,339.2,325.3,308.5,343.7,36,330.8,5,5,prime,10,0,100,norm,36,-4.68,up,norm,328.480523419,337.3,331.4,1.108,318.2,5,328.1,342.8,318.8,10,2,8.281,5.254,1.205,-1.376,-5.067,-8.442,325.6,2,428.5,-7.873,-7.952,30,-8.493,-8.49,-4.742,-5.243,-4.91,-4.777,5.037,7.83,35,-2.093,2.022,4.596,7.843,-7.649,-8.287,-1.775,1.812,328.0,326.8,337.1,317.8,318.6,324.1,327.7,318.6,309.5,321.1,1,norm,1.384,1.665,-1.41,-1.163,-4.549,-4.601,-1.857,-2.038,-2.047,-1.692,1.718,-1.645,333.5,313.6,-4.618,-7.536,309.6,-1.31,7.768,4.781,-4.688,-7.816,12,5.231,4.972,4.719,5.173,1.557,1.345,1.963,1.451,12,4.563,4.751,-30,126.70645828,norm,0,36,36,36,280.605,280.612,280.614876958,280.616,280.619,280.624,up,1,0.795124755254,9.20487524475,001,010,800_600,Intel(R) Core(TM) i7-2670QM CPU @ 2.20GHz,orientation_search,GRVLAPTOP3,Intel(R) HD Graphics Family,2018_jun_07_1306,testMonitor,
432.3,430.0,432.4,420.4,36,-20,432.8,,431.2,432.1,8.328,7.692,7.827,7.998,8.473,8.031,8.469,4.552,-4.826,-8.239,1.561,-1.124,7.658,4.935,-5.038,-7.732,422.9,429.3,-8.09,429.8,437.4,431.0,425.5,427.4,36,433.3,4,5,probe,5,0,67,norm,36,-4.636,down,norm,430.395613912,440.4,436.9,2.034,427.0,1,428.1,427.7,433.4,10,2,7.975,4.76,1.172,-1.583,-4.713,-8.301,433.5,2,363.4,-7.578,-8.39,30,-7.661,-8.404,-5.081,-4.431,-4.793,-4.502,4.858,8.262,25,-1.885,1.348,5.235,7.879,-7.805,-7.561,-1.498,1.668,437.6,429.9,427.6,424.5,429.0,428.0,428.9,433.1,425.6,428.7,0,norm,1.615,1.641,-1.354,-1.2,-4.989,-5.255,-1.457,-1.457,-1.532,-1.834,1.399,-2.084,421.7,428.0,-4.764,-8.406,433.7,-1.548,7.709,4.815,-4.426,-7.767,13,4.827,4.91,4.897,4.93,2.009,1.59,1.386,1.355,13,5.022,4.643,30,328.480523419,norm,0,37,37,37,281.431,281.438,281.44052546,281.441,281.445,281.45,down,1,1.7880895423,8.2119104577,001,010,800_600,Intel(R) Core(TM) i7-2670QM CPU @ 2.20GHz,orientation_search,GRVLAPTOP3,Intel(R) HD Graphics Family,2018_jun_07_1306,testMonitor,
480.8,479.4,483.6,475.1,36,-20,480.1,471.5,483.6,476.9,7.74,7.737,7.825,8.053,7.892,8.105,8.481,4.998,-4.616,-8.034,1.146,-1.776,7.886,4.714,-4.542,-8.313,480.4,482.5,-7.53,470.4,484.8,483.2,,480.5,36,481.3,5,5,probe,5,0,117,norm,36,-4.841,down,norm,480.395613912,482.9,484.2,1.206,474.0,2,487.9,473.4,470.4,10,2,7.52,4.479,1.214,-2.003,-4.487,-8.368,488.1,2,363.4,-8.103,-8.183,30,-8.401,-8.183,-5.017,-4.707,-5.29,-4.87,4.724,7.836,32,-1.619,1.764,5.114,7.904,-8.239,-7.79,-1.783,1.808,482.7,481.3,486.3,483.9,474.0,490.4,480.8,472.1,473.4,476.0,1,norm,1.704,1.241,-1.429,-1.694,-4.812,-4.85,-2.081,-1.917,-1.133,-1.502,1.609,-1.381,482.0,482.3,-4.421,-8.187,471.7,-1.322,7.662,5.234,-4.455,-8.181,13,4.49,4.78,4.524,4.305,2.006,2.029,1.655,2.095,13,4.944,5.164,30,328.480523419,norm,0,38,38,38,283.25,283.257,283.259704237,283.26,283.264,283.269,up,0,1.40055045195,-10,001,010,800_600,Intel(R) Core(TM) i7-2670QM CPU @ 2.20GHz,orientation_search,GRVLAPTOP3,Intel(R) HD Graphics Family,2018_jun_07_1306,testMonitor,
212.2,249.1,216.3,236.7,36,-80,237.6,224.4,209.1,235.4,7.809,8.006,8.328,8.488,7.915,8.152,8.071,5.133,-4.417,-7.757,1.93,-1.28,8.42,4.953,-4.744,-7.739,229.0,218.9,-7.661,216.3,231.8,236.4,238.6,235.6,36,237.1,1,5,prime,10,0,97,norm,36,-4.919,down,norm,229.13679445,220.9,221.5,1.814,238.6,0,246.3,222.9,222.0,10,6,7.503,4.575,1.996,-1.695,-5.147,-8.299,228.5,6,326.1,-7.902,-8.143,-80,-8.1,-8.215,-4.9,-5.055,-5.121,-4.64,4.806,8.446,6,-1.242,1.939,4.38,8.338,-8.453,-8.009,-1.833,1.529,230.8,228.1,230.6,237.6,216.3,233.2,214.7,,246.4,235.4,0,norm,1.537,1.941,-1.737,-1.328,-4.315,-4.783,-1.809,-1.512,-1.939,-1.856,1.207,-1.871,226.6,218.9,-4.939,-8.42,224.6,-1.398,7.811,4.783,-4.436,-8.317,14,5.102,4.458,4.659,5.172,1.618,1.265,1.284,1.179,14,5.285,4.328,-20,328.480523419,norm,0,39,39,39,285.682,285.69,285.692010275,285.693,285.697,285.701,down,1,1.31945264866,8.68054735134,001,010,800_600,Intel(R) Core(TM) i7-2670QM CPU @ 2.20GHz,orientation_search,GRVLAPTOP3,Intel(R) HD Graphics Family,2018_jun_07_1306,testMonitor,
237.7,213.4,,228.4,36,-80,213.4,241.3,209.1,237.5,8.34,7.771,8.06,7.541,7.673,7.818,7.571,4.37,-5.095,-7.948,1.77,-1.262,8.147,4.344,-4.323,-8.33,230.2,220.9,-7.743,239.0,239.1,243.8,216.6,235.2,36,228.8,3,5,prime,10,0,118,norm,36,-4.324,down,norm,229.13679445,216.3,236.2,1.353,249.1,2,227.6,230.7,233.0,10,6,7.739,5.222,1.47,-1.753,-4.834,-8.422,224.1,6,347.1,-8.346,-8.298,-80,-7.612,-8.471,-4.832,-4.719,-4.607,-4.535,4.762,7.927,20,-1.706,1.413,4.558,7.696,-7.89,-8.275,-1.406,1.49,225.6,226.0,231.7,230.2,229.7,225.2,209.5,224.5,235.7,228.9,1,norm,1.894,1.654,-1.172,-1.679,-4.932,-4.534,-1.647,-1.147,-1.808,-1.673,1.536,-1.417,221.2,233.9,-4.807,-7.727,225.4,-1.363,8.473,5.033,-4.803,-8.231,14,4.362,4.44,5.213,5.268,1.519,1.108,1.263,1.114,14,4.303,4.851,-20,328.480523419,norm,0,40,40,40,287.033,287.041,287.042752951,287.043,287.047,287.052,down,1,1.42408474756,8.57591525244,001,010,800_600,Intel(R) Core(TM) i7-2670QM CPU @ 2.20GHz,orientation_search,GRVLAPTOP3,Intel(R) HD Graphics Family,2018_jun_07_1306,testMonitor,
229.4,233.5,233.6,212.7,36,-80,217.8,232.9,232.5,246.2,8.197,8.077,7.789,8.352,8.493,8.398,8.305,5.17,-5.151,-8.052,1.545,-1.316,8.128,4.816,-4.751,-8.233,227.9,216.6,-7.663,236.1,232.2,229.2,212.4,223.3,36,220.5,2,5,prime,10,0,86,norm,36,-4.735,up,norm,229.13679445,,249.1,1.23,228.9,5,239.8,244.6,240.3,10,6,7.521,4.517,2.021,-1.333,-4.672,-7.931,223.8,6,315.1,-8.092,-8.208,-80,-7.713,-7.846,-5.017,-4.739,-5.026,-4.517,4.878,8.084,17,-1.438,1.117,4.31,7.592,-8.446,-8.295,-1.165,1.439,224.5,236.8,235.4,223.9,242.3,209.1,214.4,235.4,241.9,234.8,2,norm,1.79,1.264,-1.978,-2.02,-4.532,-4.796,-1.733,-1.866,-1.494,-1.561,1.378,-1.253,215.9,213.0,-4.742,-8.198,210.7,-1.194,8.437,4.795,-5.072,-7.787,14,4.36,5.105,4.494,5.257,2.016,1.168,1.547,1.595,14,4.766,4.327,-20,328.480523419,norm,0,41,41,41,288.487,288.496,288.497766766,288.498,288.502,288.507,up,1,0.99668225222,9.00331774778,001,010,800_600,Intel(R) Core(TM) i7-2670QM CPU @ 2.20GHz,orientation_search,GRVLAPTOP3,Intel(R) HD Graphics Family,2018_jun_07_1306,testMonitor,
233.2,215.8,213.8,227.3,36,-80,228.3,232.9,238.0,,8.179,8.304,7.542,8.289,7.507,8.422,8.375,4.68,-4.623,-7.985,1.586,-1.632,8.399,4.747,-4.775,-7.632,248.5,244.1,-8.066,224.5,230.4,242.1,209.1,249.1,36,218.0,4,5,prime,10,0,69,norm,36,-5.259,up,norm,229.13679445,227.7,222.4,1.628,229.3,5,242.5,235.9,236.8,10,6,8.455,5.046,1.793,-1.208,-4.507,-8.379,232.2,6,298.1,-7.733,-7.891,-80,-7.778,-8.346,-5.07,-4.481,-4.424,-5.198,4.932,8.299,29,-1.363,1.747,4.714,7.944,-7.59,-8.425,-1.461,1.105,229.1,231.0,237.6,227.0,235.5,218.6,241.2,218.7,225.5,217.0,3,norm,1.343,1.257,-1.698,-2.019,-5.107,-4.769,-1.404,-2.059,-1.698,-1.334,1.391,-1.462,213.1,233.7,-5.04,-8.216,220.8,-1.941,7.509,4.359,-5.127,-7.62,14,5.034,4.955,5.132,5.232,1.358,1.663,1.823,1.6,14,5.083,5.031,-20,328.480523419,norm,0,42,42,42,289.516,289.524,289.525818428,289.526,289.53,289.535,up,1,1.27440972808,8.72559027192,001,010,800_600,Intel(R) Core(TM) i7-2670QM CPU @ 2.20GHz,orientation_search,GRVLAPTOP3,Intel(R) HD Graphics Family,2018_jun_07_1306,testMonitor,
249.1,246.1,227.5,222.7,36,-80,238.9,232.3,228.2,239.9,7.717,8.198,7.759,7.589,8.283,8.342,7.694,4.815,-4.725,-7.876,1.374,-1.47,7.783,4.524,-5.024,-7.889,,224.2,-8.284,223.1,217.3,229.7,241.5,226.6,36,239.9,5,5,prime,10,0,61,norm,36,-5.057,up,norm,229.13679445,234.1,233.8,2.001,235.1,5,209.1,237.3,239.4,10,6,7.908,5.265,2.033,-1.159,-5.141,-8.082,248.0,6,290.1,-7.511,-7.935,-80,-8.488,-8.001,-4.569,-4.662,-4.74,-5.274,4.648,8.006,35,-1.188,1.597,4.882,8.114,-7.508,-7.716,-1.894,1.324,212.6,227.1,240.8,226.0,217.1,216.6,230.1,223.3,228.2,229.8,4,norm,2.004,1.273,-1.38,-1.319,-5.135,-4.419,-2.02,-1.941,-1.513,-1.679,1.246,-1.804,232.4,231.8,-4.467,-8.159,230.4,-2.076,8.472,4.529,-4.769,-7.56,14,4.952,4.471,4.658,5.262,1.323,1.76,1.946,1.955,14,4.735,4.995,-20,328.480523419,norm,0,43,43,43,290.821,290.829,290.831100255,290.832,290.836,290.841,up,1,1.88428788431,8.11571211569,001,010,800_600,Intel(R) Core(TM) i7-2670QM CPU @ 2.20GHz,orientation_search,GRVLAPTOP3,Intel(R) HD Graphics Family,2018_jun_07_1306,testMonitor,
237.0,210.4,230.7,249.1,36,-80,228.7,236.8,240.0,214.2,8.331,7.895,8.41,7.941,7.538,7.725,8.082,5.139,-4.921,-7.806,1.274,-1.318,7.982,5.102,-4.383,-7.621,243.6,223.2,-8.36,235.1,240.1,236.8,234.1,223.7,36,231.5,1,5,prime,10,0,60,norm,36,-4.703,down,norm,229.13679445,215.4,243.3,1.163,233.8,2,234.8,236.1,220.1,10,6,8.011,5.278,1.448,-1.53,-4.599,-7.81,238.7,6,289.1,-8.112,-8.141,-80,-7.618,-7.973,-4.941,-4.523,-5.106,-4.395,4.417,8.139,8,-1.796,1.82,4.314,8.318,-8.055,-7.934,-1.546,1.322,227.2,,239.4,234.6,240.0,233.0,243.1,240.4,209.1,224.0,5,norm,1.955,1.609,-1.131,-1.472,-4.557,-5.248,-2.031,-1.775,-1.189,-1.632,1.611,-1.344,232.7,228.3,-5.018,-7.706,225.6,-2.066,8.148,4.672,-4.785,-8.334,14,4.534,5.019,5.216,4.65,1.651,1.642,1.281,1.844,14,4.31,5.185,-20,328.480523419,norm,0,44,44,44,292.736,292.744,292.746708519,292.747,292.751,292.756,down,1,2.39317108979,7.60682891021,001,010,800_600,Intel(R) Core(TM) i7-2670QM CPU @ 2.20GHz,orientation_search,GRVLAPTOP3,Intel(R) HD Graphics Family,2018_jun_07_1306,testMonitor,
223.4,222.6,218.9,219.2,36,0,229.5,219.8,222.4,217.1,7.931,7.645,8.217,8.439,8.3,8.443,8.216,5.075,-4.941,-8.028,1.798,-1.411,7.863,5.262,-5.052,-7.586,219.4,217.3,-7.863,223.4,221.1,225.8,219.8,217.1,36,211.5,0,5,probe,5,0,80,norm,36,-4.903,up,norm,221.483140719,225.3,222.9,2.002,219.5,5,228.3,226.2,222.6,10,6,7.847,4.743,1.909,-1.569,-4.875,-8.171,216.4,2,141.5,-8.345,-8.375,-80,-8.433,-7.809,-5.206,-4.426,-5.298,-4.63,4.641,8.282,5,-1.632,1.834,4.34,7.707,-7.813,-7.5,-1.984,1.617,221.7,220.0,223.2,228.0,222.0,215.6,218.6,220.0,,217.8,0,norm,1.154,1.487,-1.281,-1.831,-4.769,-5.276,-1.495,-1.912,-2.039,-1.209,1.434,-1.874,231.5,218.3,-4.673,-8.371,224.0,-1.137,7.818,4.548,-5.137,-8.402,15,5.131,4.968,4.592,4.986,1.163,1.458,1.833,1.669,15,4.822,4.64,-80,229.13679445,norm,0,45,45,45,295.16,295.168,295.170058739,295.171,295.174,295.179,up,1,0.739052249508,9.26094775049,001,010,800_600,Intel(R) Core(TM) i7-2670QM CPU @ 2.20GHz,orientation_search,GRVLAPTOP3,Intel(R) HD Graphics Family,2018_jun_07_1306,testMonitor,
254.1,263.6,257.6,259.9,36,0,253.7,257.6,252.7,259.9,7.566,8.082,8.487,7.742,7.535,7.76,7.617,5.099,-4.698,-8.247,1.445,-1.117,7.922,4.807,-4.739,-7.965,257.0,259.2,-8.323,255.4,255.3,258.8,262.4,255.3,36,255.4,2,5,probe,5,0,116,norm,36,-5.238,up,norm,257.483140719,260.3,260.2,1.598,253.5,3,259.2,248.4,251.1,10,6,7.637,4.775,1.458,-1.333,-4.871,-8.243,260.9,2,141.5,-8.371,-7.703,-80,-7.706,-7.634,-4.961,-5.181,-5.111,-4.585,5.148,8.119,15,-1.777,1.735,4.975,7.516,-8.444,-7.594,-1.223,1.503,256.2,247.5,248.3,260.4,256.5,253.6,255.6,253.5,249.6,267.5,1,norm,1.554,1.234,-1.379,-1.844,-5.049,-4.388,-1.735,-1.995,-1.868,-2.085,2.018,-1.932,254.5,249.3,-4.754,-7.943,,-1.441,7.99,4.308,-5.283,-8.15,15,4.926,4.771,4.309,5.074,2.072,1.731,1.17,1.312,15,5.048,4.752,-80,229.13679445,norm,0,46,46,46,295.929,295.937,295.938933362,295.939,295.943,295.948,up,1,1.22484850664,8.77515149336,001,010,800_600,Intel(R) Core(TM) i7-2670QM CPU @ 2.20GHz,orientation_search,GRVLAPTOP3,Intel(R) HD Graphics Family,2018_jun_07_1306,testMonitor,
105.0,125.2,114.3,112.3,36,-60,121.7,103.4,98.8,118.7,8.446,7.994,8.07,8.302,8.182,7.532,7.844,4.901,-4.483,-8.182,1.66,-1.863,8.324,4.403,-5.261,-8.032,119.8,120.2,-7.673,123.2,127.0,109.8,112.1,112.6,36,119.4,0,5,prime,10,0,89,norm,36,-5.039,down,norm,116.952603827,114.8,101.8,1.353,124.6,0,124.3,125.9,110.8,10,3,8.308,4.988,1.296,-1.654,-4.984,-8.017,100.9,3,206.0,-7.535,-7.614,-60,-7.624,-7.635,-4.887,-4.967,-4.429,-4.481,5.125,8.388,0,-1.124,1.725,4.98,8.089,-7.733,-8.376,-1.128,1.742,137.0,113.9,110.3,122.5,97.0,,107.6,108.9,114.1,124.7,0,norm,1.777,1.41,-1.731,-1.312,-4.9,-5.097,-1.903,-2.095,-1.555,-1.495,1.101,-1.725,123.4,128.2,-5.139,-7.948,128.6,-1.471,8.375,5.287,-5.116,-8.133,16,4.752,5.247,4.526,4.804,2.048,1.9,1.812,1.28,16,5.224,5.013,0,229.13679445,norm,0,47,47,47,297.185,297.193,297.194936944,297.196,297.2,297.204,down,1,1.34454051878,8.65545948122,001,010,800_600,Intel(R) Core(TM) i7-2670QM CPU @ 2.20GHz,orientation_search,GRVLAPTOP3,Intel(R) HD Graphics Family,2018_jun_07_1306,testMonitor,
118.3,114.6,132.9,117.3,36,-60,125.1,113.3,110.0,113.3,7.992,7.895,7.935,8.289,8.277,8.171,8.163,5.124,-4.813,-7.971,1.565,-1.791,7.989,5.232,-4.321,-7.906,107.8,116.8,-8.312,121.1,116.5,112.6,,120.4,36,127.0,5,5,prime,10,0,96,norm,36,-4.794,down,norm,116.952603827,137.0,104.1,1.335,110.3,2,119.2,118.1,117.1,10,3,7.762,4.307,1.833,-1.182,-4.939,-7.917,127.6,3,213.0,-7.794,-7.985,-60,-8.44,-7.581,-5.252,-5.102,-5.146,-4.753,4.802,8.349,32,-1.79,1.946,4.96,7.877,-7.552,-8.201,-1.644,1.534,109.1,106.5,97.0,106.6,115.2,127.7,111.3,113.1,112.6,116.9,1,norm,1.86,1.245,-1.39,-2.004,-4.636,-4.921,-1.994,-1.666,-1.371,-1.59,2.088,-1.214,125.5,102.0,-4.352,-8.434,103.3,-1.368,8.083,4.678,-5.15,-7.654,16,4.585,4.8,4.585,4.388,1.429,1.202,1.366,1.555,16,5.102,4.744,0,229.13679445,norm,0,48,48,48,298.561,298.568,298.570830997,298.571,298.575,298.58,down,1,1.57239110853,8.42760889147,001,010,800_600,Intel(R) Core(TM) i7-2670QM CPU @ 2.20GHz,orientation_search,GRVLAPTOP3,Intel(R) HD Graphics Family,2018_jun_07_1306,testMonitor,
118.8,113.4,120.9,125.1,36,-60,106.5,108.5,122.1,107.9,8.479,8.184,8.326,7.605,7.701,8.043,7.543,4.407,-5.299,-8.198,1.441,-1.29,8.032,5.216,-4.795,-7.516,124.8,102.7,-7.835,126.2,105.5,113.9,120.5,110.0,36,97.0,1,5,prime,10,0,75,norm,36,-4.703,down,norm,116.952603827,118.5,120.2,1.451,114.5,2,99.6,115.6,114.6,10,3,7.913,4.748,2.085,-1.892,-5.261,-7.663,119.9,3,192.0,-7.735,-7.736,-60,-7.95,-7.598,-4.92,-5.047,-4.305,-4.552,4.489,8.162,8,-1.831,1.246,5.161,7.801,-8.276,-7.924,-2.026,1.267,117.6,,121.5,115.1,115.6,104.8,116.4,106.1,105.5,120.6,2,norm,1.16,1.76,-1.702,-1.79,-4.441,-4.383,-1.492,-1.67,-1.771,-1.793,1.826,-1.174,109.6,137.0,-4.949,-8.048,107.1,-1.318,8.338,4.418,-4.713,-8.46,16,4.577,4.358,4.956,4.979,1.624,1.719,1.366,1.213,16,4.435,4.708,0,229.13679445,norm,0,49,49,49,300.164,300.172,300.174316943,300.175,300.179,300.184,down,1,1.09214186419,8.90785813581,001,010,800_600,Intel(R) Core(TM) i7-2670QM CPU @ 2.20GHz,orientation_search,GRVLAPTOP3,Intel(R) HD Graphics Family,2018_jun_07_1306,testMonitor,
176.3,183.5,178.2,168.6,36,-10,164.5,181.6,179.1,166.9,7.594,8.36,7.624,8.006,7.777,8.336,7.829,4.444,-4.497,-8.09,1.203,-1.235,7.764,5.123,-4.466,-7.514,174.7,171.5,-8.108,173.0,171.6,,180.3,177.9,36,173.4,5,5,probe,5,0,112,norm,36,-4.692,up,norm,174.49594891,178.5,168.6,1.392,174.7,3,172.5,171.3,177.4,10,3,7.815,5.162,2.09,-1.271,-4.877,-7.752,170.6,2,62.5,-7.614,-7.862,-60,-8.439,-7.693,-5.073,-4.904,-4.865,-4.343,4.483,7.974,33,-1.7,1.676,4.326,8.445,-8.083,-8.449,-1.493,1.146,169.7,169.3,179.1,175.2,184.5,169.6,170.4,176.5,177.6,178.5,0,norm,1.899,1.669,-1.371,-1.194,-4.83,-4.879,-1.847,-1.208,-1.311,-1.853,1.865,-1.468,174.0,172.2,-4.946,-7.549,180.1,-1.751,7.523,5.123,-4.323,-8.347,17,4.601,4.772,4.489,4.678,1.109,1.337,2.024,1.747,17,4.944,4.464,-60,116.952603827,norm,0,50,50,50,301.287,301.295,301.296978818,301.298,301.302,301.307,up,1,0.816448931198,9.1835510688,001,010,800_600,Intel(R) Core(TM) i7-2670QM CPU @ 2.20GHz,orientation_search,GRVLAPTOP3,Intel(R) HD Graphics Family,2018_jun_07_1306,testMonitor,
152.9,148.2,146.2,150.6,36,-10,147.6,139.2,148.4,,7.714,7.78,8.112,7.728,8.029,8.409,8.401,5.241,-4.543,-8.243,1.836,-2.001,8.493,5.288,-5.222,-7.922,143.9,147.2,-7.88,153.6,142.3,146.6,145.3,154.1,36,143.7,4,5,probe,5,0,82,norm,36,-4.4,up,norm,144.49594891,149.4,144.2,1.765,146.2,5,148.6,140.8,146.3,10,3,7.781,5.129,1.23,-1.523,-4.806,-7.599,150.8,2,62.5,-7.655,-8.437,-60,-7.732,-7.501,-5.081,-5.284,-4.607,-4.8,4.731,8.141,29,-1.703,1.185,4.992,7.615,-8.09,-7.974,-1.981,1.823,146.1,149.5,134.5,153.9,154.5,151.6,138.9,144.6,145.1,139.0,1,norm,1.642,1.184,-1.69,-1.685,-4.608,-4.627,-1.464,-2.018,-1.332,-1.999,1.812,-1.451,148.3,142.6,-4.407,-8.328,145.0,-1.341,7.765,4.331,-4.557,-8.41,17,5.02,5.205,4.616,5.034,1.922,1.39,1.473,1.883,17,4.948,5.02,-60,116.952603827,norm,0,51,51,51,302.135,302.143,302.145880506,302.146,302.151,302.156,up,1,0.944651281594,9.05534871841,001,010,800_600,Intel(R) Core(TM) i7-2670QM CPU @ 2.20GHz,orientation_search,GRVLAPTOP3,Intel(R) HD Graphics Family,2018_jun_07_1306,testMonitor,
134.5,130.2,119.6,120.1,36,-60,112.5,116.0,112.2,127.6,7.744,8.301,8.15,8.25,8.297,8.101,8.079,5.229,-4.617,-7.878,1.605,-1.656,8.092,4.508,-4.707,-7.92,132.2,135.3,-8.491,108.6,118.6,130.0,118.9,121.8,36,117.9,2,5,prime,10,0,78,norm,36,-5.063,down,norm,125.563285168,126.2,119.3,2.035,126.3,1,126.4,,128.1,10,5,7.957,4.577,1.993,-1.756,-4.376,-7.743,130.1,5,203.6,-7.569,-8.426,-60,-7.727,-8.258,-4.527,-4.704,-4.953,-5.158,4.327,8.123,13,-1.307,1.381,4.434,8.081,-7.777,-8.457,-1.174,1.909,115.7,145.6,126.0,105.6,125.8,106.7,133.4,122.8,113.4,133.0,0,norm,1.14,1.314,-1.944,-1.834,-4.688,-5.188,-1.365,-1.29,-1.486,-1.787,1.74,-2.017,114.5,133.7,-5.091,-8.425,135.6,-1.767,8.183,4.407,-4.37,-8.49,18,5.292,4.58,4.626,5.25,1.928,2.069,1.511,1.862,18,4.741,4.877,-10,116.952603827,norm,0,52,52,52,303.112,303.119,303.121467859,303.122,303.126,303.131,down,1,1.05989783858,8.94010216142,001,010,800_600,Intel(R) Core(TM) i7-2670QM CPU @ 2.20GHz,orientation_search,GRVLAPTOP3,Intel(R) HD Graphics Family,2018_jun_07_1306,testMonitor,
132.6,123.1,123.4,123.9,36,-60,125.6,122.5,,124.6,8.052,7.583,8.496,8.177,7.932,7.72,8.06,4.606,-4.755,-7.788,1.324,-1.344,8.253,4.455,-4.746,-7.724,115.7,142.4,-7.739,127.2,122.3,123.2,116.8,124.3,36,116.1,4,5,prime,10,0,102,norm,36,-5.285,up,norm,125.563285168,130.7,133.3,1.633,132.3,4,107.8,127.5,113.3,10,5,8.221,4.744,1.7,-1.406,-4.551,-7.579,128.0,5,227.6,-7.988,-8.161,-60,-8.27,-8.073,-5.025,-5.18,-5.03,-4.831,4.32,7.561,28,-1.625,1.664,5.05,8.257,-7.584,-7.594,-1.889,1.635,122.6,136.6,129.3,121.0,114.9,126.3,145.6,141.5,129.8,114.0,1,norm,1.908,1.382,-1.867,-1.214,-4.898,-4.395,-1.396,-1.418,-1.651,-1.952,1.776,-1.408,119.9,136.2,-5.082,-8.306,105.6,-1.105,8.301,4.888,-5.226,-7.644,18,5.046,4.886,4.631,5.264,1.675,1.36,1.515,2.058,18,4.684,4.318,-10,116.952603827,norm,0,53,53,53,304.202,304.21,304.212691214,304.213,304.217,304.222,up,1,1.13376337197,8.86623662803,001,010,800_600,Intel(R) Core(TM) i7-2670QM CPU @ 2.20GHz,orientation_search,GRVLAPTOP3,Intel(R) HD Graphics Family,2018_jun_07_1306,testMonitor,
117.8,,110.7,138.4,36,-60,145.6,124.8,134.2,111.6,7.99,8.325,7.689,8.353,8.352,8.046,7.508,4.332,-4.887,-8.13,1.611,-1.208,7.856,4.826,-4.58,-7.91,133.5,129.8,-7.679,122.5,121.0,129.6,107.3,128.7,36,130.6,3,5,prime,10,0,111,norm,36,-5.29,up,norm,125.563285168,140.6,114.5,1.743,128.6,5,126.5,138.8,121.4,10,5,8.283,4.567,1.801,-1.532,-4.756,-8.333,123.3,5,236.6,-7.71,-7.529,-60,-7.938,-8.0,-4.642,-5.01,-4.395,-4.937,4.485,8.199,23,-1.684,1.733,4.641,8.07,-7.703,-8.462,-1.251,1.275,121.0,119.2,136.3,121.8,118.0,120.6,123.7,121.5,135.6,129.7,2,norm,1.528,2.077,-1.431,-1.611,-4.666,-4.756,-1.509,-1.799,-1.168,-1.792,1.189,-1.47,105.6,136.1,-4.776,-7.593,133.8,-2.009,7.771,4.922,-4.334,-8.487,18,4.865,5.274,4.978,5.232,2.081,1.509,2.07,1.146,18,5.177,4.975,-10,116.952603827,norm,0,54,54,54,305.367,305.375,305.377432684,305.378,305.382,305.387,up,1,0.8817098005,9.1182901995,001,010,800_600,Intel(R) Core(TM) i7-2670QM CPU @ 2.20GHz,orientation_search,GRVLAPTOP3,Intel(R) HD Graphics Family,2018_jun_07_1306,testMonitor,
127.7,125.2,133.2,128.3,36,-60,145.6,111.4,130.7,130.7,7.853,8.171,7.593,7.681,8.096,8.481,8.195,4.675,-5.062,-7.568,1.253,-2.042,7.758,5.279,-4.421,-7.644,122.0,123.5,-7.848,,123.7,116.9,105.6,143.9,36,137.8,5,5,prime,10,0,87,norm,36,-5.045,down,norm,125.563285168,118.8,125.7,1.996,122.6,1,108.9,112.4,110.8,10,5,8.245,5.157,1.612,-1.385,-4.82,-7.517,118.6,5,212.6,-7.52,-7.999,-60,-7.849,-8.094,-4.455,-5.17,-5.083,-5.126,4.496,8.264,31,-1.579,1.334,5.21,7.747,-7.549,-8.365,-1.11,1.486,125.1,143.3,127.2,131.1,119.7,121.9,124.6,130.4,129.7,107.2,3,norm,1.396,1.915,-1.628,-1.359,-4.928,-4.909,-1.417,-2.089,-1.316,-1.306,1.29,-1.426,134.7,123.7,-4.653,-7.754,115.3,-1.615,7.647,4.84,-4.619,-7.873,18,4.329,4.551,4.32,4.694,1.262,1.181,1.574,1.735,18,4.352,5.166,-10,116.952603827,norm,0,55,55,55,306.28,306.287,306.289467307,306.29,306.294,306.299,down,1,1.56629962088,8.43370037912,001,010,800_600,Intel(R) Core(TM) i7-2670QM CPU @ 2.20GHz,orientation_search,GRVLAPTOP3,Intel(R) HD Graphics Family,2018_jun_07_1306,testMonitor,
,142.3,125.4,117.8,36,-60,123.5,134.2,128.9,127.8,8.225,8.372,8.213,7.632,8.259,8.031,8.317,4.785,-5.271,-8.413,1.217,-1.549,7.569,5.132,-4.592,-7.552,115.2,135.7,-7.998,128.5,115.3,119.7,120.7,125.2,36,129.2,3,5,prime,10,0,66,norm,36,-4.727,up,norm,125.563285168,145.6,114.3,1.248,105.6,4,109.3,123.4,135.5,10,5,8.188,5.066,1.536,-1.728,-5.054,-7.965,123.4,5,191.6,-8.153,-8.373,-60,-8.259,-8.119,-4.49,-4.795,-4.472,-4.662,4.783,8.447,22,-1.538,2.031,5.239,7.823,-8.347,-8.277,-1.399,1.855,119.2,133.9,123.6,111.1,131.1,108.4,123.6,118.0,140.9,130.7,4,norm,2.083,1.632,-1.2,-1.35,-4.738,-4.813,-1.874,-1.653,-1.256,-1.386,1.848,-1.126,134.5,117.4,-5.013,-8.207,127.9,-2.025,7.535,4.317,-4.584,-7.812,18,4.825,4.799,5.255,4.807,1.826,1.833,1.274,1.372,18,4.331,5.107,-10,116.952603827,norm,0,56,56,56,307.876,307.884,307.886841219,307.887,307.891,307.896,up,1,1.75254037683,8.24745962317,001,010,800_600,Intel(R) Core(TM) i7-2670QM CPU @ 2.20GHz,orientation_search,GRVLAPTOP3,Intel(R) HD Graphics Family,2018_jun_07_1306,testMonitor,
120.7,125.9,122.6,122.4,36,40,124.4,127.2,125.5,125.9,8.091,7.724,7.608,8.141,8.155,7.971,7.928,4.942,-5.153,-8.168,1.787,-1.398,8.21,5.166,-4.857,-8.155,130.8,126.4,-7.724,130.6,122.4,122.6,126.3,132.3,36,125.4,0,5,probe,5,0,65,norm,36,-5.281,up,norm,123.10296425,128.5,121.8,1.739,120.1,4,127.7,129.3,124.3,10,5,7.878,5.222,1.486,-2.015,-4.565,-8.456,124.5,2,58.1,-8.044,-8.358,-60,-8.213,-7.568,-4.485,-4.465,-5.028,-4.474,5.183,7.723,4,-1.591,1.951,4.624,7.88,-7.605,-7.853,-1.304,1.751,122.6,131.0,133.1,125.6,119.5,121.0,120.2,126.3,121.8,,0,norm,1.358,1.506,-1.21,-2.081,-4.587,-4.984,-1.967,-1.233,-1.76,-1.163,1.762,-1.462,113.1,130.1,-5.131,-7.817,130.6,-1.316,8.203,4.832,-4.657,-8.499,19,5.186,4.812,4.639,4.742,1.633,1.55,1.345,1.468,19,5.056,4.424,-60,125.563285168,norm,0,57,57,57,309.66,309.668,309.670379307,309.671,309.675,309.68,up,1,1.43524648228,8.56475351772,001,010,800_600,Intel(R) Core(TM) i7-2670QM CPU @ 2.20GHz,orientation_search,GRVLAPTOP3,Intel(R) HD Graphics Family,2018_jun_07_1306,testMonitor,
134.7,147.9,140.9,152.7,36,40,141.5,143.7,141.5,,8.389,8.476,7.82,8.379,7.853,7.756,8.4,5.225,-4.385,-7.503,1.779,-1.537,8.009,4.71,-4.989,-8.194,148.0,144.0,-7.516,147.6,144.2,154.1,138.6,150.9,36,141.1,4,5,probe,5,0,86,norm,36,-5.296,up,norm,144.10296425,142.7,145.7,2.023,142.3,5,140.3,134.1,141.5,10,5,7.793,5.236,1.852,-1.835,-4.596,-8.257,137.8,2,58.1,-7.53,-7.748,-60,-8.038,-7.639,-4.959,-4.393,-4.454,-5.078,4.644,8.438,29,-1.757,1.457,4.869,7.727,-7.915,-7.75,-1.186,1.304,140.6,143.6,142.7,152.1,140.8,139.7,144.2,141.4,147.2,142.2,1,norm,1.963,2.012,-1.443,-1.437,-4.403,-4.993,-1.239,-2.022,-1.114,-1.772,1.42,-1.457,149.4,145.4,-5.129,-7.613,148.0,-1.504,8.124,5.105,-4.657,-7.593,19,5.097,4.978,4.923,5.294,1.5,1.172,1.342,1.241,19,5.289,4.403,-60,125.563285168,norm,0,58,58,58,311.126,311.134,311.136481077,311.137,311.141,311.146,up,1,0.691444319973,9.30855568003,001,010,800_600,Intel(R) Core(TM) i7-2670QM CPU @ 2.20GHz,orientation_search,GRVLAPTOP3,Intel(R) HD Graphics Family,2018_jun_07_1306,testMonitor,
55.7,64.5,54.6,73.5,36,60,53.3,72.2,49.5,63.6,7.573,8.31,8.108,7.512,8.255,8.421,8.162,5.228,-4.654,-8.464,1.673,-1.566,7.674,4.554,-4.734,-8.254,52.7,79.4,-8.28,71.7,70.1,59.3,56.2,56.6,36,48.3,1,5,prime,10,0,98,norm,36,-5.116,down,norm,59.4009378585,68.2,45.2,1.123,54.9,1,49.9,62.5,39.4,10,6,7.618,5.29,1.108,-1.16,-5.037,-7.523,60.1,6,157.4,-7.638,-7.876,60,-8.012,-7.944,-4.552,-4.325,-4.724,-5.189,5.021,7.913,7,-1.517,1.663,4.83,8.064,-8.293,-8.484,-1.4,1.511,73.7,47.1,51.4,45.1,44.9,61.3,,39.9,60.4,68.1,0,norm,1.394,1.362,-1.823,-1.449,-4.377,-4.377,-1.365,-1.255,-1.17,-1.36,1.695,-1.332,69.4,55.4,-4.574,-8.187,66.5,-1.618,8.423,4.687,-5.142,-8.409,20,4.407,4.355,4.997,4.678,1.16,1.145,1.907,1.361,20,4.38,4.758,40,125.563285168,norm,0,59,59,59,311.849,334.574,334.576925753,334.577,334.581,334.586,down,1,1.41187889123,8.58812110877,001,010,800_600,Intel(R) Core(TM) i7-2670QM CPU @ 2.20GHz,orientation_search,GRVLAPTOP3,Intel(R) HD Graphics Family,2018_jun_07_1306,testMonitor,
66.5,72.6,53.3,58.3,36,60,70.5,71.4,61.6,58.9,7.671,8.209,8.157,8.246,7.532,8.159,7.849,4.623,-4.639,-8.496,1.74,-1.176,7.674,4.698,-4.354,-7.622,57.3,75.5,-8.322,77.7,65.7,64.3,56.9,66.4,36,63.1,0,5,prime,10,0,119,norm,36,-4.329,down,norm,59.4009378585,40.3,69.1,1.585,69.0,1,39.4,66.9,47.9,10,6,8.315,4.537,1.3,-1.222,-4.678,-7.902,46.1,6,178.4,-8.214,-8.453,60,-8.031,-7.703,-5.259,-4.595,-4.851,-4.427,5.023,7.957,1,-2.054,1.443,4.922,8.382,-8.201,-8.42,-1.496,1.598,45.0,63.7,79.4,68.8,,48.8,56.6,47.9,54.6,61.9,1,norm,1.846,1.182,-1.38,-1.608,-4.993,-4.974,-1.34,-1.189,-1.266,-1.989,1.206,-2.036,67.0,52.9,-4.745,-7.555,47.0,-1.816,7.757,4.94,-5.262,-8.462,20,5.153,5.219,5.143,4.981,1.778,1.371,1.266,2.084,20,4.418,4.408,40,125.563285168,norm,0,60,60,60,336.009,336.017,336.019332126,336.02,336.024,336.029,down,1,0.923508752925,9.07649124707,001,010,800_600,Intel(R) Core(TM) i7-2670QM CPU @ 2.20GHz,orientation_search,GRVLAPTOP3,Intel(R) HD Graphics Family,2018_jun_07_1306,testMonitor,
60.3,75.1,48.2,61.9,36,60,71.7,46.4,74.4,62.8,8.469,7.537,8.407,7.665,7.517,7.564,8.104,4.434,-4.959,-8.489,1.247,-1.819,7.822,4.441,-4.899,-8.242,51.9,61.8,-7.734,46.3,54.7,73.4,49.6,60.8,36,44.8,2,5,prime,10,0,64,norm,36,-4.502,up,norm,59.4009378585,54.1,,2.039,69.9,4,53.0,58.0,50.4,10,6,7.655,5.015,1.32,-1.129,-4.535,-8.326,63.0,6,123.4,-8.205,-8.247,60,-7.777,-8.407,-4.726,-4.749,-4.85,-4.953,4.418,7.521,16,-1.731,1.277,4.692,8.465,-7.873,-7.944,-1.701,2.053,62.4,60.0,52.8,60.9,68.8,64.9,62.4,56.3,39.4,71.3,2,norm,1.674,1.762,-1.206,-2.048,-4.754,-4.542,-1.456,-1.529,-1.985,-1.661,1.185,-1.522,61.9,79.4,-4.582,-7.623,47.0,-1.532,8.103,4.999,-4.441,-8.043,20,4.81,4.713,4.734,5.1,2.049,1.337,1.73,1.589,20,4.305,4.514,40,125.563285168,norm,0,61,61,61,336.964,336.971,336.973721383,336.974,336.978,336.983,up,1,0.542678937742,9.45732106226,001,010,800_600,Intel(R) Core(TM) i7-2670QM CPU @ 2.20GHz,orientation_search,GRVLAPTOP3,Intel(R) HD Graphics Family,2018_jun_07_1306,testMonitor,
56.0,65.3,46.9,61.6,36,60,56.6,75.5,50.6,71.0,7.725,8.221,8.437,7.631,7.803,8.277,7.6,5.056,-4.418,-8.455,1.339,-1.846,8.012,4.439,-5.272,-8.377,56.6,56.9,-8.102,63.9,56.4,62.6,74.2,48.6,36,46.7,0,5,prime,10,0,96,norm,36,-4.751,down,norm,59.4009378585,46.8,79.4,1.813,54.0,0,62.8,39.4,75.9,10,6,8.02,5.197,1.386,-1.465,-5.104,-7.793,73.0,6,155.4,-7.804,-8.309,60,-8.002,-8.063,-4.725,-5.178,-4.551,-4.845,5.285,7.605,0,-1.677,1.994,4.544,8.407,-8.165,-7.515,-1.936,2.016,69.9,54.2,72.6,47.2,52.3,,55.3,47.4,51.7,49.3,3,norm,1.255,1.355,-1.865,-1.391,-5.021,-4.83,-1.437,-1.713,-1.521,-1.684,1.346,-1.832,56.4,58.5,-4.726,-7.736,55.2,-1.867,7.822,4.967,-4.528,-8.098,20,4.841,4.985,4.6,4.55,1.436,2.086,1.67,1.736,20,4.527,4.386,40,125.563285168,norm,0,62,62,62,337.537,337.545,337.547227124,337.548,337.552,337.557,down,1,1.00885355354,8.99114644646,001,010,800_600,Intel(R) Core(TM) i7-2670QM CPU @ 2.20GHz,orientation_search,GRVLAPTOP3,Intel(R) HD Graphics Family,2018_jun_07_1306,testMonitor,
67.5,48.4,48.2,52.0,36,60,76.6,47.8,59.8,45.7,8.464,8.19,7.8,8.181,7.522,8.275,7.932,4.799,-4.852,-7.824,1.786,-1.444,7.555,4.791,-5.203,-8.471,,39.4,-7.922,61.2,63.0,54.3,59.5,51.9,36,52.7,5,5,prime,10,0,96,norm,36,-4.495,up,norm,59.4009378585,57.3,46.7,1.996,55.7,5,66.6,65.7,56.6,10,6,8.328,4.685,1.616,-1.85,-4.581,-8.129,62.5,6,155.4,-8.417,-7.641,60,-7.537,-8.264,-4.972,-4.814,-4.379,-4.822,5.045,7.668,35,-1.733,1.528,4.789,8.343,-7.861,-7.674,-1.752,1.605,76.5,69.0,79.4,73.6,62.6,62.5,50.0,76.3,44.9,69.7,4,norm,1.751,1.811,-2.043,-1.763,-5.162,-4.977,-1.428,-1.58,-1.703,-1.178,1.857,-1.1,57.2,57.2,-4.427,-8.304,70.1,-1.329,7.942,5.216,-5.262,-7.53,20,5.063,4.747,4.521,4.625,1.785,1.977,1.803,1.906,20,4.594,4.682,40,125.563285168,norm,0,63,63,63,338.578,338.585,338.586915419,338.587,338.591,338.596,up,1,0.587906774323,9.41209322568,001,010,800_600,Intel(R) Core(TM) i7-2670QM CPU @ 2.20GHz,orientation_search,GRVLAPTOP3,Intel(R) HD Graphics Family,2018_jun_07_1306,testMonitor,
58.1,56.7,61.6,63.5,36,60,61.3,41.7,45.9,67.2,7.884,8.324,8.055,7.839,8.385,7.903,7.88,5.068,-4.391,-8.363,1.191,-1.502,8.093,4.931,-4.957,-8.353,59.0,56.0,-8.416,62.2,51.9,71.4,78.1,49.5,36,49.6,2,5,prime,10,0,98,norm,36,-4.431,down,norm,59.4009378585,66.5,55.1,1.873,39.4,0,77.8,69.1,,10,6,7.73,4.346,1.839,-1.258,-5.234,-7.594,53.1,6,157.4,-7.602,-8.339,60,-7.752,-8.275,-4.364,-5.159,-4.358,-4.805,4.42,7.647,12,-1.982,1.478,5.092,8.305,-8.223,-7.716,-1.332,1.322,62.3,67.2,68.7,75.9,65.6,48.4,57.7,53.2,51.5,79.4,5,norm,2.042,1.281,-1.48,-1.151,-4.898,-4.429,-1.903,-1.126,-1.15,-1.991,1.988,-1.627,61.3,67.1,-4.365,-8.137,55.6,-1.976,7.538,5.095,-4.594,-8.382,20,4.646,4.434,4.884,4.744,1.108,2.066,1.45,1.454,20,4.302,4.384,40,125.563285168,norm,0,64,64,64,339.196,339.203,339.205545799,339.206,339.21,339.215,down,1,0.604583768578,9.39541623142,001,010,800_600,Intel(R) Core(TM) i7-2670QM CPU @ 2.20GHz,orientation_search,GRVLAPTOP3,Intel(R) HD Graphics Family,2018_jun_07_1306,testMonitor,
226.1,220.0,227.0,225.3,36,-80,222.2,223.2,228.2,221.1,8.242,8.184,8.036,8.174,7.847,7.889,8.355,4.445,-5.027,-7.922,2.046,-1.89,7.746,4.786,-5.213,-7.909,223.9,220.0,-7.609,221.5,235.9,222.5,,230.2,36,226.7,5,5,probe,5,0,113,norm,36,-5.154,down,norm,225.886268366,216.1,221.5,1.626,224.3,2,225.2,225.1,225.0,10,6,8.492,4.87,1.153,-1.799,-5.275,-8.372,230.1,2,112.9,-8.451,-8.025,60,-8.413,-8.428,-4.368,-4.731,-4.679,-5.25,4.463,7.81,32,-1.696,1.789,5.273,7.751,-8.133,-7.708,-1.377,1.433,225.9,215.9,224.8,224.2,226.0,224.7,228.6,228.0,222.9,234.4,0,norm,1.458,1.818,-1.917,-1.532,-5.089,-4.382,-2.085,-1.307,-1.997,-1.603,1.288,-1.472,223.9,225.7,-4.888,-8.318,232.2,-1.663,7.83,5.02,-4.476,-8.282,21,4.875,5.299,5.22,5.147,1.289,1.687,1.14,1.788,21,4.967,4.883,60,59.4009378585,norm,0,65,65,65,339.831,339.84,339.84178429,339.842,339.846,339.851,down,1,1.23993877226,8.76006122774,001,010,800_600,Intel(R) Core(TM) i7-2670QM CPU @ 2.20GHz,orientation_search,GRVLAPTOP3,Intel(R) HD Graphics Family,2018_jun_07_1306,testMonitor,
190.7,189.9,192.8,184.5,36,-80,198.5,198.5,189.2,195.7,8.179,7.807,7.659,7.713,7.727,7.583,7.929,4.68,-4.912,-7.88,1.742,-1.85,8.26,4.407,-4.4,-7.612,193.7,192.7,-7.8,190.1,193.4,198.2,193.5,192.7,36,191.5,1,5,probe,5,0,78,norm,36,-5.137,down,norm,190.886268366,192.4,194.3,1.654,180.9,2,182.7,189.5,195.1,10,6,7.972,4.435,1.874,-1.732,-5.002,-7.925,189.8,2,112.9,-7.53,-7.946,60,-7.791,-7.572,-4.773,-4.576,-4.549,-4.493,4.427,7.611,8,-1.78,2.044,5.1,7.905,-8.415,-8.034,-1.911,1.878,191.2,,187.9,181.8,186.7,189.1,193.3,184.5,190.1,191.9,1,norm,1.364,1.838,-1.694,-1.741,-4.735,-4.928,-1.83,-1.766,-1.239,-1.976,1.466,-1.96,189.8,184.7,-4.363,-7.918,200.9,-1.282,8.125,4.844,-4.733,-8.352,21,4.377,4.806,5.242,4.911,1.415,1.727,1.551,1.609,21,4.671,5.156,60,59.4009378585,norm,0,66,66,66,341.102,341.11,341.11209458,341.113,341.117,341.122,down,1,1.7285395886,8.2714604114,001,010,800_600,Intel(R) Core(TM) i7-2670QM CPU @ 2.20GHz,orientation_search,GRVLAPTOP3,Intel(R) HD Graphics Family,2018_jun_07_1306,testMonitor,
147.4,130.8,128.9,151.6,36,0,116.1,141.8,133.7,141.3,8.405,7.939,8.158,7.904,7.837,7.504,8.052,4.301,-5.185,-7.92,1.11,-1.733,8.019,4.631,-4.964,-7.894,132.0,136.4,-8.291,,139.1,126.9,145.2,129.3,36,126.5,5,5,prime,10,0,64,norm,36,-5.254,down,norm,134.883751938,134.5,154.9,1.931,123.8,1,128.8,122.0,114.9,10,5,8.125,4.466,1.989,-1.667,-5.002,-8.328,135.7,5,198.9,-7.57,-8.105,0,-8.33,-7.908,-5.246,-4.325,-4.612,-5.049,5.119,8.155,31,-1.735,1.334,4.651,7.503,-7.616,-7.904,-1.952,1.185,126.1,129.0,125.7,142.6,141.8,126.6,149.7,137.4,137.6,145.5,0,norm,1.577,1.298,-1.664,-1.141,-5.279,-4.628,-1.966,-2.019,-1.994,-1.478,1.567,-1.477,145.0,132.4,-4.563,-8.125,134.6,-1.613,7.797,5.221,-4.728,-8.104,22,4.874,4.654,4.599,5.001,1.331,2.073,1.446,1.606,22,5.121,5.126,-80,59.4009378585,norm,0,67,67,67,342.861,342.869,342.871397465,342.872,342.876,342.881,down,1,1.71231461121,8.28768538879,001,010,800_600,Intel(R) Core(TM) i7-2670QM CPU @ 2.20GHz,orientation_search,GRVLAPTOP3,Intel(R) HD Graphics Family,2018_jun_07_1306,testMonitor,
119.7,117.7,141.6,116.5,36,0,136.5,133.3,114.9,126.3,8.461,7.829,7.756,8.416,7.902,8.155,7.842,4.998,-4.736,-8.247,1.942,-1.427,7.995,5.3,-5.116,-8.179,144.8,151.2,-8.261,130.2,147.0,122.6,148.2,135.4,36,140.5,1,5,prime,10,0,84,norm,36,-4.49,down,norm,134.883751938,136.1,144.6,1.957,134.9,1,126.5,139.7,137.1,10,5,7.753,4.922,1.759,-1.516,-4.703,-8.413,131.7,5,218.9,-8.091,-7.645,0,-7.543,-7.722,-4.91,-4.749,-4.599,-4.576,4.967,8.124,7,-1.413,1.92,4.6,7.936,-7.966,-8.266,-1.705,1.48,127.2,117.6,150.2,122.3,124.5,138.9,,132.8,135.0,129.0,1,norm,1.862,1.256,-1.158,-1.483,-4.577,-4.644,-1.713,-1.905,-1.662,-1.909,1.983,-1.506,128.6,130.4,-4.664,-8.328,126.7,-1.152,8.493,5.1,-4.904,-8.227,22,5.017,4.775,4.577,5.159,1.774,1.322,1.362,1.117,22,4.881,5.272,-80,59.4009378585,norm,0,68,68,68,344.605,344.615,344.617582055,344.618,344.622,344.627,down,1,0.936793285868,9.06320671413,001,010,800_600,Intel(R) Core(TM) i7-2670QM CPU @ 2.20GHz,orientation_search,GRVLAPTOP3,Intel(R) HD Graphics Family,2018_jun_07_1306,testMonitor,
140.7,135.5,136.3,146.5,36,0,125.0,122.3,133.6,141.9,7.798,8.452,7.79,7.857,7.909,7.615,8.472,5.138,-4.688,-7.852,2.049,-1.833,8.489,5.215,-4.938,-7.984,,137.7,-7.821,132.6,131.8,128.8,129.2,143.5,36,135.4,5,5,prime,10,0,108,norm,36,-4.502,up,norm,134.883751938,137.5,139.1,1.154,117.6,5,138.8,133.7,139.0,10,5,8.157,5.293,1.461,-1.709,-4.729,-8.098,141.0,5,242.9,-7.906,-8.088,0,-7.72,-8.13,-4.556,-5.297,-4.324,-4.458,4.92,7.625,35,-1.114,2.084,5.218,8.378,-7.925,-7.667,-1.192,1.172,134.7,142.1,134.8,139.3,133.1,125.4,125.2,120.8,114.9,117.6,2,norm,2.091,1.756,-1.174,-1.576,-4.434,-5.059,-1.521,-1.223,-1.588,-1.194,1.308,-1.892,146.9,129.0,-5.121,-7.629,154.9,-1.659,7.71,4.461,-5.044,-8.496,22,4.625,4.384,5.269,4.955,1.454,1.317,1.498,1.766,22,5.109,4.327,-80,59.4009378585,norm,0,69,69,69,345.575,345.582,345.584542798,345.585,345.589,345.594,up,1,0.687089454977,9.31291054502,001,010,800_600,Intel(R) Core(TM) i7-2670QM CPU @ 2.20GHz,orientation_search,GRVLAPTOP3,Intel(R) HD Graphics Family,2018_jun_07_1306,testMonitor,
125.1,138.7,138.0,130.6,36,0,124.2,130.1,142.1,131.5,8.106,8.313,8.245,7.561,7.693,7.551,8.104,4.84,-4.718,-8.442,1.438,-1.905,8.183,4.405,-4.767,-8.341,142.4,132.5,-7.925,120.8,145.1,120.0,131.2,146.4,36,143.9,3,5,prime,10,0,63,norm,36,-4.74,down,norm,134.883751938,145.5,154.9,1.439,124.4,0,151.8,130.7,138.1,10,5,8.005,4.675,1.828,-1.639,-4.865,-7.963,142.9,5,197.9,-8.457,-7.938,0,-7.67,-7.85,-4.3,-4.678,-4.732,-5.285,4.801,8.298,18,-1.921,1.738,5.292,7.821,-8.361,-8.14,-1.665,2.012,123.3,144.0,125.3,145.7,136.5,134.3,127.5,127.3,132.8,145.6,3,norm,1.511,1.674,-2.002,-1.328,-5.004,-4.597,-2.033,-1.404,-1.299,-1.472,1.841,-1.115,114.9,,-4.475,-7.815,129.3,-1.174,7.521,5.06,-5.298,-7.537,22,4.491,4.657,5.236,4.968,1.241,1.345,1.183,1.967,22,4.674,4.588,-80,59.4009378585,norm,0,70,70,70,346.292,346.3,346.302282078,346.303,346.307,346.312,down,1,0.864729282521,9.13527071748,001,010,800_600,Intel(R) Core(TM) i7-2670QM CPU @ 2.20GHz,orientation_search,GRVLAPTOP3,Intel(R) HD Graphics Family,2018_jun_07_1306,testMonitor,
150.8,122.8,123.1,,36,0,131.1,128.4,133.2,141.1,8.417,8.379,7.935,8.487,7.884,7.611,7.644,4.797,-5.005,-7.738,1.251,-1.798,7.971,5.044,-5.267,-8.186,127.8,134.1,-8.264,136.7,145.7,137.6,147.9,124.6,36,117.6,3,5,prime,10,0,90,norm,36,-4.373,up,norm,134.883751938,141.3,124.2,2.09,134.1,3,145.2,138.4,130.7,10,5,7.864,5.068,2.011,-1.454,-5.13,-7.794,149.3,5,224.9,-8.056,-7.815,0,-7.783,-8.371,-4.545,-4.579,-4.883,-4.524,4.892,7.807,21,-1.242,1.137,5.223,8.008,-8.031,-7.537,-1.841,2.046,126.1,148.2,114.9,134.4,148.4,118.0,154.9,132.6,147.7,125.8,4,norm,1.345,1.97,-1.284,-1.562,-4.913,-5.262,-2.066,-2.034,-1.973,-1.739,1.5,-1.12,127.0,125.7,-5.212,-7.769,133.2,-1.931,8.321,4.785,-4.847,-8.483,22,4.501,4.69,4.907,4.482,1.746,1.174,1.728,1.725,22,5.171,4.458,-80,59.4009378585,norm,0,71,71,71,347.188,347.195,347.197380077,347.198,347.202,347.207,up,1,2.26348941146,7.73651058854,001,010,800_600,Intel(R) Core(TM) i7-2670QM CPU @ 2.20GHz,orientation_search,GRVLAPTOP3,Intel(R) HD Graphics Family,2018_jun_07_1306,testMonitor,
225.9,230.6,240.7,228.7,36,-60,228.6,237.2,227.9,226.1,7.835,8.01,8.362,7.503,7.829,8.367,8.279,4.426,-5.279,-7.649,1.878,-2.08,7.939,4.718,-5.053,-7.942,232.9,230.9,-8.458,230.7,226.2,230.5,231.7,228.5,36,234.0,0,5,probe,5,0,99,norm,36,-4.74,up,norm,230.710641475,236.8,239.4,1.145,220.9,3,228.2,232.4,222.6,10,5,7.672,4.566,1.149,-1.382,-4.614,-7.642,232.4,2,131.7,-8.24,-7.73,0,-7.949,-8.324,-4.917,-4.361,-4.93,-4.41,4.939,8.001,3,-2.08,1.568,4.911,8.088,-8.259,-7.886,-1.346,2.037,224.0,229.9,,228.2,230.7,220.7,229.7,236.6,227.7,228.9,0,norm,1.29,1.15,-1.953,-1.542,-5.283,-5.1,-1.652,-1.664,-1.755,-1.606,1.446,-1.4,231.1,233.5,-5.298,-7.541,233.1,-2.026,7.886,4.729,-4.309,-7.527,23,4.83,4.532,5.044,5.121,1.933,1.673,1.576,1.808,23,5.122,4.688,0,134.883751938,norm,0,72,72,72,349.482,349.489,349.491703296,349.492,349.496,349.501,down,0,3.61779358799,-10,001,010,800_600,Intel(R) Core(TM) i7-2670QM CPU @ 2.20GHz,orientation_search,GRVLAPTOP3,Intel(R) HD Graphics Family,2018_jun_07_1306,testMonitor,
217.7,231.6,223.9,230.8,36,-60,,229.4,231.4,223.1,8.122,8.145,7.829,8.149,7.66,7.953,7.529,5.196,-5.097,-8.447,1.813,-1.185,7.531,4.849,-5.069,-7.555,231.0,236.4,-7.933,222.1,223.5,220.5,216.7,224.5,36,231.0,4,5,probe,5,0,95,norm,36,-5.227,down,norm,226.710641475,233.7,220.5,1.192,229.3,0,227.7,231.6,225.6,10,5,7.686,4.562,1.45,-1.143,-4.475,-7.555,224.9,2,131.7,-7.636,-7.887,0,-7.514,-7.841,-4.313,-5.252,-4.911,-4.341,4.659,8.19,24,-1.896,1.429,5.166,8.167,-8.19,-8.223,-1.352,1.49,227.1,236.7,225.3,227.6,231.0,221.3,228.0,219.2,227.8,231.4,1,norm,1.241,1.508,-1.565,-1.83,-4.909,-4.324,-1.852,-1.871,-1.285,-1.206,1.686,-1.432,231.6,228.7,-4.58,-8.46,233.3,-1.788,7.579,4.816,-4.452,-8.281,23,4.688,5.038,5.205,5.182,1.636,1.318,1.199,1.268,23,5.048,4.481,0,134.883751938,norm,0,73,73,73,354.134,354.141,354.143706809,354.144,354.148,354.153,up,0,2.68731032686,-10,001,010,800_600,Intel(R) Core(TM) i7-2670QM CPU @ 2.20GHz,orientation_search,GRVLAPTOP3,Intel(R) HD Graphics Family,2018_jun_07_1306,testMonitor,
65.0,77.8,77.0,46.7,36,0,59.0,64.6,72.2,72.7,8.294,7.874,8.199,7.719,8.439,7.76,8.053,5.136,-4.416,-7.934,2.018,-1.27,8.09,4.725,-4.522,-7.676,51.5,58.6,-8.107,,85.6,56.8,70.0,65.4,36,64.8,5,5,prime,10,0,87,norm,36,-4.811,down,norm,66.6655907852,53.1,86.7,1.959,59.1,1,76.7,49.3,66.2,10,2,7.972,4.961,1.82,-2.054,-4.975,-8.103,72.7,2,153.7,-8.023,-8.397,0,-7.922,-8.377,-4.806,-4.556,-5.065,-4.962,5.05,8.299,31,-1.447,1.232,4.462,7.999,-7.962,-8.372,-1.107,1.25,69.2,57.7,68.0,68.1,62.8,64.0,67.7,68.2,75.3,68.9,0,norm,1.41,1.622,-1.483,-1.486,-5.242,-5.164,-1.921,-1.682,-1.899,-1.605,1.409,-1.613,63.0,69.3,-4.847,-8.132,61.4,-1.944,8.236,4.678,-5.239,-7.791,24,4.407,4.419,4.738,4.776,1.685,1.357,1.972,1.124,24,5.113,4.642,-60,134.883751938,norm,0,74,74,74,357.863,357.87,357.87258541,357.873,357.877,357.882,down,1,1.27870061961,8.72129938039,001,010,800_600,Intel(R) Core(TM) i7-2670QM CPU @ 2.20GHz,orientation_search,GRVLAPTOP3,Intel(R) HD Graphics Family,2018_jun_07_1306,testMonitor,
55.8,72.6,62.0,46.9,36,0,64.4,,66.3,62.5,8.485,8.485,8.277,7.725,8.22,7.729,7.782,5.24,-4.761,-8.059,2.045,-1.947,7.778,4.579,-4.746,-8.479,64.9,65.6,-7.772,66.3,65.5,63.6,63.2,69.8,36,82.1,4,5,prime,10,0,100,norm,36,-4.527,down,norm,66.6655907852,62.2,86.7,1.472,78.2,1,78.7,58.3,74.6,10,2,7.896,5.031,2.086,-1.522,-4.387,-8.095,68.0,2,166.7,-8.284,-7.829,0,-7.505,-8.208,-4.825,-4.714,-4.359,-4.51,5.158,8.142,25,-1.699,1.418,5.138,7.771,-8.454,-7.665,-1.886,1.422,77.2,53.3,63.9,67.4,58.6,74.9,66.5,62.4,62.7,60.5,1,norm,1.133,1.479,-1.31,-2.023,-4.425,-5.041,-2.029,-1.839,-1.375,-1.737,1.94,-1.766,46.7,48.9,-5.175,-7.986,53.6,-1.425,8.013,4.972,-4.767,-8.044,24,5.078,4.681,4.478,4.384,1.6,1.302,2.037,1.878,24,5.144,4.853,-60,134.883751938,norm,0,75,75,75,359.172,359.18,359.182259459,359.183,359.187,359.192,down,1,2.59202769257,7.40797230743,001,010,800_600,Intel(R) Core(TM) i7-2670QM CPU @ 2.20GHz,orientation_search,GRVLAPTOP3,Intel(R) HD Graphics Family,2018_jun_07_1306,testMonitor,
152.6,151.5,150.9,152.9,36,80,147.9,156.5,143.2,153.8,8.064,8.406,8.048,8.375,7.943,7.501,8.169,5.059,-4.548,-7.622,1.875,-1.601,7.799,4.973,-4.605,-8.101,153.9,142.1,-7.913,152.6,149.5,151.1,153.2,150.9,36,158.3,2,5,probe,5,0,79,norm,36,-4.708,up,norm,149.67279812,,141.3,1.934,150.8,5,152.4,141.2,151.1,10,2,8.198,5.224,2.079,-1.836,-4.401,-8.48,154.1,2,70.7,-7.537,-7.652,0,-7.979,-8.264,-5.244,-4.668,-4.331,-4.72,4.995,8.462,17,-1.304,2.01,4.803,8.455,-7.774,-7.959,-1.652,1.221,156.0,159.7,149.6,150.9,147.9,143.8,148.6,144.1,157.8,154.1,0,norm,2.099,1.328,-1.255,-1.278,-5.063,-5.045,-1.459,-1.309,-1.121,-2.095,1.932,-1.192,149.5,139.7,-4.562,-7.817,151.9,-1.65,7.623,4.927,-4.991,-7.884,25,4.976,5.062,4.897,4.836,1.699,2.094,1.472,1.832,25,5.028,4.684,0,66.6655907852,norm,0,76,76,76,361.795,361.802,361.804973867,361.806,361.81,361.814,up,1,0.795762155074,9.20423784493,001,010,800_600,Intel(R) Core(TM) i7-2670QM CPU @ 2.20GHz,orientation_search,GRVLAPTOP3,Intel(R) HD Graphics Family,2018_jun_07_1306,testMonitor,
171.0,181.8,177.3,175.2,36,80,178.0,183.9,178.9,184.2,8.372,7.689,7.788,7.662,8.291,8.112,8.215,4.471,-4.368,-8.02,1.252,-2.028,8.492,4.618,-4.899,-8.089,179.0,176.7,-8.426,177.3,180.0,174.5,180.6,180.5,36,173.8,2,5,probe,5,0,106,norm,36,-4.645,down,norm,176.67279812,172.3,171.5,1.652,,2,176.7,170.9,182.2,10,2,7.688,4.917,1.368,-1.438,-4.626,-8.474,166.7,2,70.7,-7.586,-8.462,0,-8.179,-7.609,-4.533,-4.464,-5.202,-4.959,4.792,7.834,14,-2.096,1.805,4.751,7.896,-8.343,-8.427,-1.53,1.414,174.1,178.3,179.6,176.1,176.1,177.9,175.3,178.4,178.4,179.3,1,norm,1.795,1.714,-1.397,-1.558,-4.774,-4.624,-1.273,-1.898,-1.173,-1.346,1.557,-1.695,176.8,176.8,-4.683,-7.712,178.1,-1.338,7.945,4.669,-4.726,-7.962,25,4.487,4.643,4.863,4.913,1.624,1.262,1.85,1.395,25,5.124,4.427,0,66.6655907852,norm,0,77,77,77,362.621,362.629,362.63161886,362.632,362.636,362.641,down,1,1.4502466247,8.5497533753,001,010,800_600,Intel(R) Core(TM) i7-2670QM CPU @ 2.20GHz,orientation_search,GRVLAPTOP3,Intel(R) HD Graphics Family,2018_jun_07_1306,testMonitor,
313.3,298.3,288.0,299.9,36,40,298.2,323.2,308.1,301.7,8.219,8.315,7.836,8.164,8.309,8.223,8.186,4.476,-4.829,-8.176,1.161,-1.721,8.339,4.648,-4.43,-7.501,295.5,,-8.245,292.1,309.0,304.3,299.5,294.7,36,294.7,5,5,prime,10,0,93,norm,36,-4.643,up,norm,304.590349924,313.8,284.6,1.304,300.1,4,310.4,312.4,307.5,10,6,7.703,4.966,1.954,-2.099,-5.175,-7.959,324.6,6,397.6,-8.202,-8.242,40,-7.53,-8.062,-4.752,-4.611,-4.391,-4.484,4.824,8.365,34,-1.788,1.501,4.459,7.642,-8.462,-7.524,-1.687,1.424,295.9,301.1,312.2,311.4,302.1,305.6,304.7,306.9,287.2,289.2,0,norm,1.854,1.834,-1.755,-2.066,-4.987,-5.129,-1.102,-2.013,-1.414,-1.505,2.015,-1.585,307.5,291.9,-4.522,-8.09,290.7,-1.822,7.818,4.729,-4.451,-7.94,26,4.571,5.068,4.705,4.668,1.262,1.418,1.787,1.345,26,4.749,4.989,80,66.6655907852,norm,0,78,78,78,364.103,364.111,364.112943979,364.113,364.117,364.122,up,1,1.53521692374,8.46478307626,001,010,800_600,Intel(R) Core(TM) i7-2670QM CPU @ 2.20GHz,orientation_search,GRVLAPTOP3,Intel(R) HD Graphics Family,2018_jun_07_1306,testMonitor,
314.9,305.0,296.6,306.4,36,40,318.0,307.0,315.5,309.8,8.474,7.528,8.439,7.973,7.661,8.45,8.153,4.642,-4.352,-8.16,1.963,-1.99,8.067,4.793,-4.33,-7.685,310.8,299.2,-7.731,294.4,311.7,302.0,298.0,299.9,36,284.6,2,5,prime,10,0,65,norm,36,-4.513,up,norm,304.590349924,,309.6,1.367,317.2,5,305.7,313.9,298.4,10,6,7.904,5.184,1.631,-2.077,-4.903,-7.894,309.0,6,369.6,-7.52,-8.232,40,-8.445,-8.075,-4.962,-5.198,-5.082,-5.013,4.817,8.229,17,-1.848,1.907,4.932,7.737,-7.805,-7.926,-1.891,2.084,318.1,309.0,310.1,298.5,301.9,307.3,308.1,288.0,310.9,317.6,1,norm,1.207,1.677,-1.715,-1.658,-5.003,-5.128,-1.673,-1.893,-1.198,-1.648,1.948,-1.418,296.0,309.7,-5.069,-7.895,324.6,-1.378,7.688,4.706,-4.764,-8.46,26,4.56,4.607,4.774,4.569,1.453,1.602,1.718,1.418,26,5.052,4.566,80,66.6655907852,norm,0,79,79,79,365.669,365.677,365.679067556,365.68,365.684,365.689,up,1,1.23835437842,8.76164562158,001,010,800_600,Intel(R) Core(TM) i7-2670QM CPU @ 2.20GHz,orientation_search,GRVLAPTOP3,Intel(R) HD Graphics Family,2018_jun_07_1306,testMonitor,
284.6,304.1,313.7,305.7,36,40,292.9,314.9,303.0,321.5,7.76,8.488,8.452,8.287,7.776,7.977,7.982,5.028,-4.59,-8.458,1.688,-1.859,7.606,4.852,-4.335,-8.267,292.5,299.2,-8.061,315.6,307.5,316.1,296.4,305.1,36,305.5,2,5,prime,10,0,74,norm,36,-4.434,down,norm,304.590349924,317.5,301.9,1.151,306.4,1,297.0,,312.1,10,6,8.175,5.054,1.177,-1.327,-4.923,-8.428,324.6,6,378.6,-7.862,-7.753,40,-8.459,-8.376,-4.674,-4.652,-4.555,-5.226,5.132,8.266,13,-1.389,1.777,4.985,8.028,-8.298,-7.782,-1.24,1.756,300.7,288.9,301.3,313.2,312.6,307.5,303.4,306.2,299.8,303.4,2,norm,1.756,1.835,-2.062,-1.949,-5.204,-4.501,-1.807,-1.843,-2.04,-1.403,1.964,-1.157,301.6,311.6,-4.372,-7.604,308.5,-1.513,7.546,4.695,-5.134,-7.924,26,5.149,4.77,4.419,4.884,1.847,1.977,1.271,2.028,26,4.317,4.515,80,66.6655907852,norm,0,80,80,80,366.938,366.946,366.947759831,366.948,366.952,366.957,down,1,1.09884646976,8.90115353024,001,010,800_600,Intel(R) Core(TM) i7-2670QM CPU @ 2.20GHz,orientation_search,GRVLAPTOP3,Intel(R) HD Graphics Family,2018_jun_07_1306,testMonitor,
288.7,321.3,298.8,305.4,36,40,296.2,301.6,291.2,304.5,7.647,8.38,7.917,8.25,8.437,7.971,8.487,4.893,-5.242,-8.286,1.261,-1.111,8.34,4.69,-4.354,-8.487,284.6,309.4,-7.724,301.0,315.4,306.0,321.8,302.5,36,305.4,0,5,prime,10,0,78,norm,36,-4.462,down,norm,304.590349924,319.1,306.5,1.432,296.9,0,319.3,310.3,298.2,10,6,7.621,4.69,1.452,-1.706,-4.584,-7.674,307.3,6,382.6,-7.634,-7.585,40,-8.2,-7.833,-4.905,-4.812,-4.357,-4.629,5.125,7.886,0,-1.342,1.727,4.599,7.668,-8.338,-8.449,-1.771,1.153,317.1,312.8,293.9,313.1,313.9,,306.1,311.6,321.1,315.3,3,norm,1.556,1.942,-1.287,-1.246,-4.884,-4.791,-1.262,-1.339,-1.392,-1.735,1.267,-1.612,302.9,324.6,-5.07,-8.17,312.2,-2.033,8.106,4.507,-5.122,-8.093,26,5.262,4.816,5.003,4.497,1.205,1.352,1.151,1.275,26,5.03,5.2,80,66.6655907852,norm,0,81,81,81,368.067,368.074,368.076545881,368.077,368.081,368.087,down,1,1.10927507795,8.89072492205,001,010,800_600,Intel(R) Core(TM) i7-2670QM CPU @ 2.20GHz,orientation_search,GRVLAPTOP3,Intel(R) HD Graphics Family,2018_jun_07_1306,testMonitor,
293.4,308.4,305.7,289.9,36,40,291.1,308.6,295.7,295.5,7.807,8.073,8.118,7.86,8.21,7.581,8.089,4.491,-5.075,-8.101,1.554,-2.081,8.46,4.983,-4.967,-7.853,291.5,316.6,-7.612,305.9,294.9,294.0,298.5,288.8,36,305.8,0,5,prime,10,0,106,norm,36,-5.09,down,norm,304.590349924,298.5,308.9,1.422,310.8,2,315.7,298.4,297.9,10,6,7.728,5.2,2.099,-1.858,-5.28,-8.431,287.0,6,410.6,-7.965,-8.253,40,-8.397,-8.373,-4.788,-4.575,-4.64,-4.43,4.385,8.463,2,-1.732,1.283,5.127,7.82,-8.086,-8.449,-1.502,1.455,310.6,310.9,284.6,,300.9,292.6,294.8,296.8,298.2,324.6,4,norm,1.264,1.808,-1.684,-1.48,-4.539,-4.989,-2.073,-1.872,-1.739,-1.418,1.36,-1.508,300.1,309.3,-4.799,-7.63,299.1,-1.899,7.503,4.59,-4.303,-7.634,26,4.941,4.873,5.043,5.245,1.734,2.038,1.111,1.427,26,5.223,4.797,80,66.6655907852,norm,0,82,82,82,369.207,369.215,369.217091841,369.218,369.221,369.226,down,1,1.69737003698,8.30262996302,001,010,800_600,Intel(R) Core(TM) i7-2670QM CPU @ 2.20GHz,orientation_search,GRVLAPTOP3,Intel(R) HD Graphics Family,2018_jun_07_1306,testMonitor,
,290.8,298.6,311.1,36,40,310.0,311.4,305.9,324.6,8.012,7.517,7.974,8.026,7.805,8.063,7.63,4.405,-4.761,-7.882,2.097,-1.989,8.352,4.398,-5.268,-7.931,320.4,310.7,-8.137,298.0,315.6,284.6,300.7,303.6,36,312.3,3,5,prime,10,0,87,norm,36,-4.918,up,norm,304.590349924,294.5,297.6,1.24,297.6,4,294.7,308.5,296.9,10,6,7.522,4.761,1.971,-1.723,-4.602,-8.362,305.4,6,391.6,-8.105,-8.308,40,-7.724,-8.404,-5.034,-5.128,-4.75,-4.585,5.298,8.305,22,-2.059,1.14,4.846,7.558,-8.196,-7.809,-1.46,1.908,305.0,289.2,291.3,298.1,315.1,293.8,300.6,310.0,301.7,313.8,5,norm,1.203,1.161,-1.542,-1.61,-4.467,-4.979,-1.983,-1.44,-1.657,-1.916,1.327,-2.069,285.8,312.8,-4.797,-8.364,312.5,-1.269,8.354,5.129,-5.266,-7.693,26,5.022,4.914,5.227,4.525,1.382,1.692,1.93,1.296,26,4.836,4.407,80,66.6655907852,norm,0,83,83,83,370.935,370.942,370.94422308,370.945,370.949,370.954,up,1,0.747581266143,9.25241873386,001,010,800_600,Intel(R) Core(TM) i7-2670QM CPU @ 2.20GHz,orientation_search,GRVLAPTOP3,Intel(R) HD Graphics Family,2018_jun_07_1306,testMonitor,
407.6,404.8,401.9,401.6,36,-40,402.7,411.9,407.6,413.6,8.121,8.134,7.728,7.75,8.037,8.049,8.003,4.729,-4.968,-8.272,1.426,-1.446,7.524,4.966,-4.474,-8.355,403.4,,-8.272,400.8,400.4,399.8,406.0,405.3,36,396.9,5,5,probe,5,0,61,norm,36,-4.832,up,norm,403.589335526,401.4,405.1,1.831,404.1,4,404.0,398.3,401.6,10,6,7.634,4.849,1.816,-2.033,-4.602,-7.769,400.2,1,342.6,-8.337,-7.996,40,-7.826,-8.246,-4.383,-4.335,-5.017,-4.565,4.6,8.46,34,-1.635,1.29,5.012,8.308,-7.592,-8.41,-1.372,2.003,412.4,401.3,403.1,393.6,400.9,405.8,404.7,404.5,409.7,403.8,0,norm,2.011,1.318,-1.451,-1.384,-4.429,-4.522,-1.136,-1.188,-1.661,-1.163,1.372,-1.623,400.9,403.1,-4.671,-8.405,406.1,-1.292,7.535,5.099,-4.857,-7.786,27,4.893,5.127,4.854,4.586,1.338,1.161,1.263,2.023,27,5.066,4.526,40,304.590349924,norm,0,84,84,84,371.712,371.72,371.722512541,371.723,371.727,371.732,up,1,1.09972295288,8.90027704712,001,010,800_600,Intel(R) Core(TM) i7-2670QM CPU @ 2.20GHz,orientation_search,GRVLAPTOP3,Intel(R) HD Graphics Family,2018_jun_07_1306,testMonitor,
158.4,150.0,163.2,149.1,36,80,138.9,134.2,155.2,144.2,8.053,8.052,7.957,7.704,7.636,8.414,8.352,4.59,-4.654,-7.701,1.692,-1.573,8.016,5.271,-5.274,-8.098,151.5,149.0,-8.252,158.0,157.6,152.7,144.1,141.5,36,145.6,0,5,prime,10,0,92,norm,36,-4.558,up,norm,154.163168575,148.6,145.4,1.715,147.5,5,165.2,152.1,142.9,10,6,7.779,4.584,1.186,-1.256,-4.525,-8.18,155.1,6,246.2,-8.207,-8.468,80,-7.878,-8.216,-4.689,-4.771,-4.7,-4.668,4.747,7.791,5,-1.87,1.69,4.875,8.223,-7.923,-7.711,-1.798,1.272,150.8,149.1,174.2,150.2,162.7,139.9,154.4,156.9,,168.8,0,norm,1.508,1.991,-1.651,-1.974,-4.611,-4.558,-2.024,-2.057,-2.032,-1.168,1.545,-1.934,155.6,154.3,-4.412,-7.62,158.5,-1.344,7.97,5.037,-4.669,-7.98,28,4.449,4.429,4.432,5.277,1.739,1.685,1.574,1.833,28,4.736,5.039,-40,304.590349924,norm,0,85,85,85,372.843,372.85,372.852023779,372.853,372.856,372.861,up,1,1.75185394625,8.24814605375,001,010,800_600,Intel(R) Core(TM) i7-2670QM CPU @ 2.20GHz,orientation_search,GRVLAPTOP3,Intel(R) HD Graphics Family,2018_jun_07_1306,testMonitor,
174.2,159.8,145.9,154.6,36,80,170.2,142.1,153.6,160.9,8.213,7.917,8.211,7.656,7.747,7.644,7.7,5.203,-4.445,-8.334,1.184,-1.918,7.928,4.758,-4.902,-7.769,153.5,152.5,-7.683,167.9,158.7,153.9,141.6,,36,155.3,4,5,prime,10,0,77,norm,36,-4.988,down,norm,154.163168575,158.1,160.2,1.934,158.1,2,153.0,148.8,151.4,10,6,7.58,4.6,1.734,-1.316,-5.12,-8.458,134.2,6,231.2,-8.072,-7.962,80,-8.485,-8.005,-5.068,-4.68,-4.94,-4.822,4.59,8.4,26,-2.064,1.149,4.72,8.237,-8.31,-8.002,-1.877,1.176,141.7,151.3,157.7,140.1,165.3,154.7,154.9,165.6,154.4,154.6,1,norm,1.147,1.752,-1.531,-1.189,-5.178,-4.98,-2.037,-1.411,-1.883,-1.923,1.223,-1.238,153.3,149.5,-4.732,-7.927,158.1,-1.283,8.198,4.849,-5.165,-7.924,28,4.643,4.536,5.21,4.46,1.403,1.402,1.612,1.234,28,4.531,5.079,-40,304.590349924,norm,0,86,86,86,374.624,374.632,374.63401483,374.635,374.639,374.644,down,1,1.93048372809,8.06951627191,001,010,800_600,Intel(R) Core(TM) i7-2670QM CPU @ 2.20GHz,orientation_search,GRVLAPTOP3,Intel(R) HD Graphics Family,2018_jun_07_1306,testMonitor,
144.5,153.9,146.8,147.2,36,80,157.3,146.5,149.7,135.5,8.287,8.167,7.916,8.065,7.784,7.954,8.488,4.436,-4.369,-7.789,1.363,-1.232,8.465,4.946,-4.908,-8.046,155.4,153.8,-7.621,146.2,161.1,163.4,155.4,146.7,36,138.8,0,5,prime,10,0,99,norm,36,-4.803,up,norm,154.163168575,166.2,159.2,2.057,152.6,4,155.3,146.1,146.0,10,6,7.832,4.497,1.137,-2.083,-4.773,-7.994,167.8,6,253.2,-7.586,-7.887,80,-8.416,-8.197,-4.867,-5.196,-4.447,-4.818,5.29,8.371,4,-1.196,1.576,4.675,7.64,-8.369,-8.364,-1.982,1.513,169.3,154.8,173.1,137.6,161.8,163.0,154.5,156.5,149.6,,2,norm,1.218,1.571,-1.474,-1.239,-4.406,-5.248,-1.425,-1.127,-1.933,-1.981,1.567,-1.841,134.2,174.2,-4.472,-7.537,172.9,-1.703,7.862,4.454,-5.069,-7.952,28,4.35,4.924,4.334,5.058,2.017,1.543,1.708,1.708,28,4.955,4.76,-40,304.590349924,norm,0,87,87,87,376.585,376.593,376.594851397,376.595,376.599,376.604,up,1,1.19112188439,8.80887811561,001,010,800_600,Intel(R) Core(TM) i7-2670QM CPU @ 2.20GHz,orientation_search,GRVLAPTOP3,Intel(R) HD Graphics Family,2018_jun_07_1306,testMonitor,
139.4,144.4,152.5,155.5,36,80,170.4,155.7,147.2,134.2,7.567,7.978,8.172,8.143,8.056,8.277,8.003,4.873,-4.808,-8.301,1.711,-1.779,8.269,5.072,-4.473,-8.141,,146.2,-7.721,140.3,174.2,154.5,169.2,148.3,36,142.5,5,5,prime,10,0,102,norm,36,-4.334,up,norm,154.163168575,156.2,165.5,1.389,149.4,5,154.6,139.5,156.5,10,6,7.843,4.577,1.629,-1.929,-4.538,-8.225,164.3,6,256.2,-7.599,-7.963,80,-7.644,-8.416,-4.651,-4.899,-4.478,-5.269,5.088,8.277,35,-1.898,1.456,4.699,7.555,-7.662,-7.951,-1.53,1.483,153.2,162.7,158.9,147.6,134.3,144.7,161.6,154.8,139.9,158.0,3,norm,1.982,1.734,-1.827,-1.182,-4.961,-4.896,-1.553,-1.799,-1.946,-1.504,1.888,-1.156,138.7,149.0,-4.676,-8.416,155.9,-1.637,7.813,4.983,-4.933,-7.888,28,5.215,5.131,4.642,4.302,1.443,1.747,1.79,1.454,28,4.476,4.31,-40,304.590349924,norm,0,88,88,88,377.807,377.815,377.817620533,377.818,377.822,377.827,up,1,0.893091473177,9.10690852682,001,010,800_600,Intel(R) Core(TM) i7-2670QM CPU @ 2.20GHz,orientation_search,GRVLAPTOP3,Intel(R) HD Graphics Family,2018_jun_07_1306,testMonitor,
140.2,174.2,152.1,142.8,36,80,164.4,155.6,163.1,170.5,8.256,7.658,7.573,7.957,7.517,7.938,7.588,4.322,-4.712,-8.258,1.926,-1.561,8.189,5.137,-5.259,-7.566,170.6,153.9,-7.869,158.0,160.8,162.9,164.1,150.4,36,134.2,1,5,prime,10,0,93,norm,36,-4.999,down,norm,154.163168575,144.6,158.8,1.381,146.0,2,148.2,148.8,149.4,10,6,8.462,4.666,1.249,-1.286,-5.15,-8.307,149.5,6,247.2,-7.651,-8.326,80,-8.459,-7.568,-4.946,-4.546,-4.764,-5.284,4.63,8.426,8,-1.362,1.683,4.575,7.615,-7.684,-8.094,-1.114,1.207,151.2,,153.2,142.8,144.9,162.5,149.6,153.0,170.8,157.6,4,norm,1.708,1.374,-1.866,-1.207,-4.831,-5.248,-1.692,-1.5,-1.437,-1.926,1.253,-1.681,160.0,146.0,-4.574,-8.111,144.9,-1.698,8.051,4.756,-4.556,-8.419,28,4.892,5.188,4.419,4.966,1.547,2.073,1.64,1.922,28,4.89,4.529,-40,304.590349924,norm,0,89,89,89,378.731,378.738,378.740545586,378.741,378.745,378.75,down,1,2.59699520853,7.40300479147,001,010,800_600,Intel(R) Core(TM) i7-2670QM CPU @ 2.20GHz,orientation_search,GRVLAPTOP3,Intel(R) HD Graphics Family,2018_jun_07_1306,testMonitor,
163.1,161.3,160.9,152.8,36,80,159.2,168.0,142.3,144.0,7.796,7.963,7.589,8.039,7.555,7.92,7.608,5.24,-5.104,-7.724,1.822,-1.207,7.698,4.788,-5.226,-7.914,150.3,152.8,-7.671,163.5,147.3,149.3,,166.9,36,153.9,5,5,prime,10,0,86,norm,36,-5.269,down,norm,154.163168575,153.0,153.4,1.241,168.9,2,161.4,145.6,149.3,10,6,7.551,4.845,1.526,-1.478,-4.406,-7.957,170.4,6,240.2,-8.377,-8.458,80,-8.079,-8.134,-5.292,-4.534,-5.23,-5.205,5.231,7.537,32,-1.582,1.624,4.741,7.818,-8.399,-8.411,-1.745,2.029,160.5,155.7,160.4,146.9,151.9,174.2,148.2,168.6,151.4,148.7,5,norm,1.335,1.578,-1.208,-1.84,-4.945,-4.69,-1.161,-1.384,-1.2,-1.588,1.199,-1.529,134.2,156.8,-5.284,-7.87,150.0,-1.597,8.132,4.639,-4.814,-8.004,28,5.258,4.421,4.403,5.234,2.024,1.628,1.219,1.216,28,4.997,5.019,-40,304.590349924,norm,0,90,90,90,381.358,381.366,381.367709185,381.368,381.372,381.377,up,0,1.68066175643,-10,001,010,800_600,Intel(R) Core(TM) i7-2670QM CPU @ 2.20GHz,orientation_search,GRVLAPTOP3,Intel(R) HD Graphics Family,2018_jun_07_1306,testMonitor,
303.3,307.5,300.9,301.8,36,20,313.2,297.7,312.4,299.2,8.1,7.645,8.485,7.793,7.82,8.059,8.29,4.732,-5.079,-7.992,1.243,-1.885,7.892,4.961,-5.045,-8.414,305.3,311.9,-8.391,305.3,301.9,307.6,304.1,303.3,36,302.6,0,5,probe,5,0,80,norm,36,-4.582,down,norm,305.399522314,296.8,304.3,1.32,301.5,2,315.4,299.7,309.2,10,6,7.961,4.413,1.94,-2.004,-4.815,-8.313,309.6,1,225.4,-8.316,-7.549,80,-7.837,-7.957,-4.974,-4.85,-4.897,-4.902,5.189,8.224,2,-1.708,1.392,5.015,7.513,-7.676,-7.655,-1.414,1.404,304.4,304.2,301.4,,301.5,307.5,299.2,298.0,310.1,301.4,0,norm,1.477,1.246,-1.973,-1.87,-4.681,-4.985,-1.692,-1.379,-1.472,-1.323,1.657,-1.722,312.4,307.7,-4.52,-8.347,297.5,-1.155,7.636,4.826,-4.854,-8.2,29,5.268,5.144,4.766,4.405,2.034,1.752,1.217,1.343,29,5.242,4.686,80,154.163168575,norm,0,91,91,91,384.07,384.077,384.079569445,384.08,384.084,384.089,down,1,2.92661730281,7.07338269719,001,010,800_600,Intel(R) Core(TM) i7-2670QM CPU @ 2.20GHz,orientation_search,GRVLAPTOP3,Intel(R) HD Graphics Family,2018_jun_07_1306,testMonitor,
122.5,144.0,137.3,131.7,36,-30,129.1,130.2,143.1,116.9,8.134,7.996,7.692,7.736,8.416,8.031,8.367,4.881,-4.784,-7.891,1.294,-1.272,7.966,4.615,-5.274,-8.364,125.3,130.2,-8.317,136.0,137.1,138.1,136.8,136.6,36,156.9,0,5,prime,10,0,68,norm,36,-4.647,up,norm,136.894782853,130.0,136.6,1.992,142.3,3,129.0,156.8,135.8,10,6,7.515,4.839,1.353,-1.511,-4.883,-7.565,144.7,6,204.9,-8.476,-7.621,-30,-8.354,-7.596,-4.716,-4.942,-4.51,-4.685,4.422,8.074,3,-1.827,1.186,4.406,8.452,-7.703,-8.375,-1.741,1.784,130.9,138.9,,129.7,146.8,147.8,127.0,134.8,126.5,148.1,0,norm,1.736,1.984,-1.334,-1.427,-4.391,-4.503,-1.783,-2.031,-1.271,-2.06,1.536,-1.645,127.7,139.3,-4.98,-8.169,144.8,-1.752,7.907,5.265,-4.819,-8.392,30,4.567,4.709,5.041,4.875,1.301,1.627,1.941,1.1,30,4.577,4.599,20,154.163168575,norm,0,92,92,92,387.027,387.034,387.036692283,387.037,387.041,387.046,up,1,3.01077976179,6.98922023821,001,010,800_600,Intel(R) Core(TM) i7-2670QM CPU @ 2.20GHz,orientation_search,GRVLAPTOP3,Intel(R) HD Graphics Family,2018_jun_07_1306,testMonitor,
153.8,123.1,140.7,156.8,36,-30,124.8,126.6,148.3,137.8,7.98,7.882,8.253,7.578,7.895,7.709,8.252,4.995,-4.547,-8.155,1.347,-1.676,7.55,4.892,-4.903,-7.67,149.6,134.5,-8.098,131.2,,141.0,134.3,139.4,36,137.6,5,5,prime,10,0,87,norm,36,-4.387,down,norm,136.894782853,127.3,144.0,1.231,119.4,0,153.0,156.9,126.5,10,6,7.967,4.413,1.341,-1.151,-5.287,-7.776,122.3,6,223.9,-7.812,-8.278,-30,-8.413,-8.378,-4.543,-4.885,-4.987,-4.763,5.207,8.203,30,-1.277,1.158,4.737,7.795,-8.263,-8.289,-2.086,1.406,140.4,146.2,116.9,134.9,134.0,148.0,134.1,133.8,138.4,126.6,1,norm,1.915,1.561,-1.271,-1.407,-4.707,-4.7,-2.043,-2.096,-1.759,-1.835,1.822,-1.42,153.0,137.5,-5.192,-7.638,143.9,-1.69,7.858,5.269,-4.493,-8.072,30,5.095,4.532,4.627,4.35,1.24,2.074,1.274,1.499,30,4.619,4.618,20,154.163168575,norm,0,93,93,93,390.068,390.075,390.077549377,390.078,390.082,390.087,down,1,1.27849002084,8.72150997916,001,010,800_600,Intel(R) Core(TM) i7-2670QM CPU @ 2.20GHz,orientation_search,GRVLAPTOP3,Intel(R) HD Graphics Family,2018_jun_07_1306,testMonitor,
132.8,130.5,143.3,137.7,36,-30,146.8,116.9,139.8,123.1,7.551,8.102,8.129,7.935,7.888,7.849,8.212,4.754,-5.185,-7.596,1.161,-2.03,7.987,4.744,-4.392,-8.276,151.8,132.5,-7.642,156.9,138.6,137.1,141.4,156.7,36,150.4,2,5,prime,10,0,90,norm,36,-5.203,down,norm,136.894782853,133.4,149.8,1.825,130.1,1,126.6,,139.8,10,6,7.882,4.966,1.148,-1.305,-4.584,-8.281,153.1,6,226.9,-7.656,-8.176,-30,-8.311,-8.058,-5.012,-5.248,-4.488,-4.736,4.632,8.482,13,-2.094,1.513,4.346,7.962,-7.645,-7.579,-1.651,1.386,146.4,121.7,136.3,127.3,138.8,137.5,143.6,143.3,139.7,143.3,2,norm,1.5,1.992,-1.107,-1.181,-4.643,-4.3,-1.82,-1.742,-1.817,-1.384,1.903,-1.174,141.4,145.0,-5.232,-7.867,137.1,-1.223,8.016,4.948,-5.102,-8.412,30,4.754,5.014,4.375,4.516,1.547,1.89,1.345,2.073,30,5.045,5.027,20,154.163168575,norm,0,94,94,94,391.377,391.385,391.387457839,391.388,391.392,391.397,down,1,1.11873941461,8.88126058539,001,010,800_600,Intel(R) Core(TM) i7-2670QM CPU @ 2.20GHz,orientation_search,GRVLAPTOP3,Intel(R) HD Graphics Family,2018_jun_07_1306,testMonitor,
139.1,135.3,120.8,139.1,36,-30,142.3,125.2,133.8,152.3,8.32,7.585,8.169,7.717,8.111,7.823,8.328,4.551,-4.677,-7.503,1.931,-1.96,8.096,4.451,-4.512,-8.143,152.1,156.9,-7.674,129.8,127.1,127.0,151.1,143.5,36,143.7,0,5,prime,10,0,118,norm,36,-4.418,up,norm,136.894782853,143.8,127.8,1.982,129.3,3,116.9,148.6,139.6,10,6,7.96,4.805,1.699,-1.515,-5.165,-7.893,150.2,6,254.9,-8.207,-8.411,-30,-8.461,-8.151,-4.412,-5.255,-4.35,-4.323,4.304,7.767,3,-1.196,1.229,4.682,7.692,-8.369,-7.557,-2.007,1.582,139.4,155.6,,124.2,124.9,139.7,128.8,140.5,139.1,149.2,3,norm,1.654,1.548,-1.875,-1.95,-4.837,-4.682,-1.772,-1.8,-1.22,-1.878,1.371,-1.974,142.7,132.9,-4.439,-7.564,140.7,-1.467,7.544,4.522,-4.468,-8.396,30,4.741,5.1,5.167,4.877,1.14,1.292,1.722,2.061,30,4.948,4.947,20,154.163168575,norm,0,95,95,95,392.527,392.534,392.536732208,392.537,392.541,392.546,up,1,0.746217277225,9.25378272278,001,010,800_600,Intel(R) Core(TM) i7-2670QM CPU @ 2.20GHz,orientation_search,GRVLAPTOP3,Intel(R) HD Graphics Family,2018_jun_07_1306,testMonitor,
