d_ori_22,d_ori_23,d_ori_20,d_ori_21,set_size,ctpd,d_ori_24,d_ori_25,d_ori_28,d_ori_29,stim_pos_x_30,stim_pos_x_31,stim_pos_x_32,stim_pos_x_33,stim_pos_x_34,stim_pos_x_35,stim_pos_y_11,stim_pos_y_10,stim_pos_y_13,stim_pos_y_12,stim_pos_y_15,stim_pos_y_14,stim_pos_y_17,stim_pos_y_16,stim_pos_y_19,stim_pos_y_18,d_ori_35,d_ori_34,stim_pos_x_3,d_ori_31,d_ori_30,d_ori_33,d_ori_32,d_ori_26,test_set_size,d_ori_27,targetCol,dsd_test,seq_type,dsd,blockRepN,targetDist,dtype_test,prime_set_size,stim_pos_y_25,correctResponse,dtype,distrMean,d_ori_17,d_ori_16,stim_pos_y_3,d_ori_14,targetRow,d_ori_11,d_ori_13,d_ori_12,dsd_prime,streak_length_prime,stim_pos_y_35,stim_pos_y_34,stim_pos_y_33,stim_pos_y_32,stim_pos_y_31,stim_pos_y_30,d_ori_10,nextProbe,targetOri,stim_pos_x_1,stim_pos_x_2,ctpd_prime,stim_pos_x_4,stim_pos_x_5,stim_pos_x_6,stim_pos_x_7,stim_pos_x_8,stim_pos_x_9,stim_pos_y_28,stim_pos_y_29,targetPos,stim_pos_y_20,stim_pos_y_21,stim_pos_y_22,stim_pos_y_23,stim_pos_y_24,stim_pos_x_0,stim_pos_y_26,stim_pos_y_27,d_ori_9,d_ori_8,d_ori_3,d_ori_2,d_ori_1,d_ori_0,d_ori_7,d_ori_6,d_ori_5,d_ori_4,trialN,dtype_prime,stim_pos_x_18,stim_pos_x_19,stim_pos_x_12,stim_pos_x_13,stim_pos_x_10,stim_pos_x_11,stim_pos_x_16,stim_pos_x_17,stim_pos_x_14,stim_pos_x_15,stim_pos_y_9,stim_pos_y_8,d_ori_19,d_ori_18,stim_pos_y_1,stim_pos_y_0,d_ori_15,stim_pos_y_2,stim_pos_y_5,stim_pos_y_4,stim_pos_y_7,stim_pos_y_6,totBlockN,stim_pos_x_27,stim_pos_x_26,stim_pos_x_25,stim_pos_x_24,stim_pos_x_23,stim_pos_x_22,stim_pos_x_21,stim_pos_x_20,blockN,stim_pos_x_29,stim_pos_x_28,prevDistrCTPD,prevDistrMean,prevDistrType,trials.thisRepN,trials.thisTrialN,trials.thisN,trials.thisIndex,timeStart,timeBeforeDraw,timeDraw,timeAfterSaving,timeAfterWritingToTemp,timeAfterPreparingNext,answer,correct,rt,trialScore,session,participant,resolution,cpu_info,expName,pc_name,graphic_card,date,monitorName,
95.1,122.1,102.8,98.7,36,20,116.5,113.2,85.0,125.0,7.533,7.932,7.951,8.246,8.405,7.851,8.049,5.171,-4.738,-7.697,2.098,-1.516,8.41,4.993,-5.254,-7.915,109.7,105.8,-7.776,86.0,94.8,116.8,101.8,109.8,36,104.6,0,5,prime,10,0,97,norm,36,-5.262,up,norm,104.963107623,102.6,94.7,1.714,110.0,5,102.1,89.6,103.0,10,6,7.708,4.631,1.769,-1.706,-5.172,-7.726,106.7,6,202.0,-8.496,-8.5,20,-7.741,-8.15,-4.737,-4.324,-4.742,-4.435,4.88,8.447,5,-2.089,1.889,4.336,8.488,-7.63,-8.129,-1.239,1.67,89.5,97.0,97.0,96.6,104.8,91.1,101.6,102.5,,114.8,0,norm,1.938,1.532,-1.41,-1.405,-4.621,-4.369,-1.276,-1.285,-1.181,-1.155,2.047,-1.497,112.2,98.4,-4.319,-8.159,107.9,-1.663,7.54,4.335,-4.645,-8.273,0,4.535,5.289,4.587,5.011,1.748,1.265,1.128,1.976,0,4.893,4.824,,,,0,0,0,0,368.517,368.527,368.53506703,368.535,368.536,368.54,up,1,2.67253665983,7.32746334017,001,005,800_600,Intel(R) Core(TM) i7-2670QM CPU @ 2.20GHz,orientation_search,GRVLAPTOP3,Intel(R) HD Graphics Family,2018_jun_07_0947,testMonitor,
91.6,104.8,103.2,125.0,36,20,111.2,109.1,101.0,98.4,7.791,7.782,7.962,8.495,7.532,8.07,7.6,4.441,-5.258,-7.726,1.121,-1.75,7.66,4.388,-4.72,-7.849,121.9,,-8.467,106.5,121.7,107.5,118.9,97.6,36,88.0,5,5,prime,10,0,96,norm,36,-4.594,up,norm,104.963107623,112.4,91.1,1.187,101.0,4,107.8,109.0,113.4,10,6,8.016,4.364,1.444,-1.14,-4.63,-7.56,88.9,6,201.0,-8.152,-8.259,20,-8.369,-8.191,-4.674,-4.774,-4.917,-4.989,4.71,8.267,34,-1.442,1.299,4.911,8.374,-8.455,-7.686,-1.126,1.536,108.3,97.6,101.4,106.2,120.4,116.7,110.5,109.2,92.4,85.0,1,norm,1.835,2.087,-1.549,-1.829,-4.481,-5.129,-1.41,-1.396,-1.765,-1.945,1.328,-1.763,98.3,116.2,-5.075,-8.1,87.9,-1.901,8.266,4.378,-4.746,-8.456,0,4.683,4.431,5.275,4.486,1.308,1.787,1.693,1.915,0,4.754,4.615,,,,0,1,1,1,371.223,371.229,371.231392945,371.232,371.234,371.238,up,1,3.21300127527,6.78699872473,001,005,800_600,Intel(R) Core(TM) i7-2670QM CPU @ 2.20GHz,orientation_search,GRVLAPTOP3,Intel(R) HD Graphics Family,2018_jun_07_0947,testMonitor,
112.4,102.7,115.5,103.1,36,20,95.4,94.9,112.5,111.0,8.271,7.701,8.241,8.005,7.634,7.837,7.703,4.546,-4.378,-8.228,1.238,-1.986,7.645,5.271,-4.761,-7.702,,105.1,-7.953,93.9,118.4,101.4,125.0,104.6,36,96.7,5,5,prime,10,0,74,norm,36,-4.711,up,norm,104.963107623,116.1,104.4,1.526,96.1,5,106.8,97.0,103.8,10,6,7.957,5.13,1.411,-1.338,-4.929,-7.682,108.3,6,179.0,-7.752,-7.987,20,-8.399,-7.811,-4.791,-4.532,-5.054,-4.461,5.164,8.372,35,-2.051,1.132,4.769,7.854,-7.966,-8.193,-2.056,1.4,112.8,107.4,108.6,90.9,100.2,99.8,90.7,85.0,95.9,107.0,2,norm,1.277,1.79,-2.096,-1.495,-4.851,-4.497,-1.628,-2.08,-1.688,-1.454,1.556,-1.47,102.5,109.5,-4.456,-8.42,106.5,-1.217,7.812,5.213,-4.739,-8.483,0,5.03,5.174,4.969,4.674,1.655,1.778,1.428,2.054,0,4.442,4.435,,,,0,2,2,2,374.461,374.467,374.468677986,374.469,374.472,374.476,up,1,3.67768115347,6.32231884653,001,005,800_600,Intel(R) Core(TM) i7-2670QM CPU @ 2.20GHz,orientation_search,GRVLAPTOP3,Intel(R) HD Graphics Family,2018_jun_07_0947,testMonitor,
114.4,96.6,101.2,106.1,36,20,,93.3,116.6,113.1,7.662,8.305,7.945,7.765,8.343,8.146,7.781,4.73,-4.376,-7.748,1.561,-1.485,8.498,4.964,-4.636,-8.437,114.2,90.7,-7.592,98.9,111.1,107.3,109.1,98.8,36,118.3,4,5,prime,10,0,116,norm,36,-4.559,down,norm,104.963107623,96.4,125.0,1.334,106.7,0,85.0,108.4,102.1,10,6,8.389,4.874,1.298,-1.311,-4.372,-7.512,111.2,6,221.0,-8.378,-7.866,20,-7.748,-8.354,-4.659,-4.377,-4.498,-4.81,4.792,8.034,24,-1.731,1.508,4.92,8.356,-7.873,-7.552,-1.575,2.035,112.2,100.2,114.5,104.0,98.1,105.5,117.8,102.9,109.1,106.2,3,norm,1.749,1.478,-1.414,-1.116,-4.808,-4.704,-2.077,-1.703,-2.06,-1.232,1.881,-2.03,102.4,109.1,-4.644,-7.836,104.7,-1.936,8.469,5.288,-5.272,-8.08,0,4.795,4.608,4.356,5.042,1.132,1.111,1.121,1.404,0,4.391,5.262,,,,0,3,3,3,378.162,378.168,378.169849074,378.17,378.173,378.177,down,1,1.27665066708,8.72334933292,001,005,800_600,Intel(R) Core(TM) i7-2670QM CPU @ 2.20GHz,orientation_search,GRVLAPTOP3,Intel(R) HD Graphics Family,2018_jun_07_0947,testMonitor,
102.2,100.0,106.9,102.1,36,20,88.4,125.0,110.2,95.0,8.006,8.466,7.623,7.998,7.597,8.09,8.496,4.312,-4.686,-7.872,1.946,-1.396,8.306,5.23,-4.925,-7.534,113.7,,-7.515,104.8,85.0,120.6,96.1,98.7,36,120.6,5,5,prime,10,0,72,norm,36,-4.992,up,norm,104.963107623,91.3,117.8,1.839,103.8,4,92.4,120.1,102.5,10,6,8.333,4.994,1.207,-1.336,-5.091,-7.534,92.0,6,177.0,-8.429,-8.301,20,-8.064,-7.736,-4.789,-5.119,-4.775,-5.029,4.787,8.248,34,-1.922,1.299,4.733,7.958,-7.767,-7.841,-1.452,1.739,106.4,100.6,102.4,110.0,110.7,93.1,99.9,100.4,97.7,118.3,4,norm,1.688,1.102,-1.942,-1.639,-4.907,-5.022,-1.185,-1.571,-1.383,-1.584,2.006,-1.346,88.4,110.0,-4.47,-7.943,89.1,-1.502,8.126,5.08,-5.031,-7.589,0,4.498,5.295,4.992,4.918,1.815,1.832,1.566,1.44,0,4.839,5.036,,,,0,4,4,4,379.463,379.469,379.470946009,379.472,379.474,379.478,up,1,2.77865649193,7.22134350807,001,005,800_600,Intel(R) Core(TM) i7-2670QM CPU @ 2.20GHz,orientation_search,GRVLAPTOP3,Intel(R) HD Graphics Family,2018_jun_07_0947,testMonitor,
96.1,110.0,95.2,89.7,36,20,106.2,110.8,120.5,100.8,8.135,7.503,8.108,7.554,8.326,8.472,8.188,5.226,-5.103,-7.677,1.194,-1.208,7.531,4.969,-4.755,-8.1,100.7,105.8,-8.003,96.7,95.7,105.6,105.0,112.3,36,123.8,1,5,prime,10,0,93,norm,36,-4.904,down,norm,104.963107623,96.5,100.7,1.867,95.3,1,106.6,101.2,105.0,10,6,7.503,4.409,1.612,-1.672,-4.967,-7.759,118.4,6,198.0,-8.119,-7.951,20,-8.086,-7.523,-4.365,-4.407,-5.273,-5.287,5.197,7.523,7,-1.944,1.901,5.106,7.705,-8.411,-7.674,-1.247,1.148,105.0,125.0,88.9,103.7,117.8,108.2,,95.3,100.7,96.3,5,norm,1.562,1.821,-1.898,-1.443,-4.417,-4.758,-1.64,-1.373,-1.733,-1.963,1.471,-1.951,85.0,111.6,-4.678,-8.128,109.7,-1.743,8.446,4.485,-4.624,-8.112,0,5.138,4.424,5.189,5.026,1.648,1.38,1.707,1.16,0,5.188,5.041,,,,0,5,5,5,382.265,382.27,382.271375425,382.272,382.275,382.278,down,1,2.26457229071,7.73542770929,001,005,800_600,Intel(R) Core(TM) i7-2670QM CPU @ 2.20GHz,orientation_search,GRVLAPTOP3,Intel(R) HD Graphics Family,2018_jun_07_0947,testMonitor,
191.2,191.7,190.1,198.8,36,-60,189.3,184.1,184.6,186.2,7.542,7.72,7.664,8.387,8.138,7.851,8.453,5.047,-4.544,-8.007,2.031,-2.04,7.794,4.894,-4.466,-8.267,187.4,189.1,-8.413,191.2,180.4,200.4,197.5,185.8,36,,4,5,probe,5,0,65,norm,36,-5.219,up,norm,190.39049725,184.1,186.2,1.345,187.4,3,195.0,183.1,187.8,10,6,7.791,4.458,1.865,-1.889,-5.283,-7.874,185.9,2,125.4,-8.34,-7.982,20,-8.096,-7.949,-4.671,-4.546,-4.84,-4.711,4.338,7.846,27,-1.654,1.947,4.767,8.483,-7.57,-8.319,-1.758,1.734,199.9,190.2,192.8,198.5,188.1,192.0,195.5,186.0,193.5,192.0,0,norm,1.148,1.465,-1.871,-1.101,-4.843,-5.249,-1.4,-1.211,-1.116,-2.003,1.812,-1.777,188.7,184.8,-4.339,-8.145,191.7,-1.43,8.48,4.366,-4.623,-7.963,1,4.899,4.723,4.51,5.062,1.859,1.317,1.466,1.175,1,5.038,4.501,20,104.963107623,norm,0,6,6,6,384.551,384.557,384.558279123,384.559,384.562,384.565,up,1,2.7203024217,7.2796975783,001,005,800_600,Intel(R) Core(TM) i7-2670QM CPU @ 2.20GHz,orientation_search,GRVLAPTOP3,Intel(R) HD Graphics Family,2018_jun_07_0947,testMonitor,
185.9,195.9,200.8,198.4,36,-60,194.1,193.6,188.5,193.6,8.278,8.002,8.396,8.209,8.249,7.554,7.562,4.979,-4.97,-7.798,1.685,-1.768,7.987,4.821,-4.987,-8.492,202.3,194.9,-7.999,194.6,184.2,202.4,187.2,190.5,36,194.2,0,5,probe,5,0,67,norm,36,-5.297,up,norm,192.39049725,182.4,190.8,1.321,195.4,4,191.6,195.0,199.1,10,6,8.357,4.755,1.787,-1.114,-4.836,-7.884,197.8,2,125.4,-8.329,-8.235,20,-7.552,-7.763,-4.896,-5.291,-4.572,-4.998,4.678,8.193,4,-2.023,1.534,4.645,8.038,-8.21,-7.887,-1.841,1.722,190.9,196.6,196.7,198.2,199.5,193.1,191.4,196.1,193.3,,1,norm,1.946,1.579,-1.826,-1.637,-4.855,-5.294,-1.257,-1.618,-1.565,-2.002,1.826,-1.701,197.4,193.4,-5.3,-7.776,190.0,-1.586,7.713,4.43,-4.533,-8.168,1,4.971,4.795,4.936,4.665,1.374,1.857,1.909,1.369,1,5.193,4.765,20,104.963107623,norm,0,7,7,7,387.294,387.299,387.30061083,387.301,387.304,387.308,up,1,1.22433064847,8.77566935153,001,005,800_600,Intel(R) Core(TM) i7-2670QM CPU @ 2.20GHz,orientation_search,GRVLAPTOP3,Intel(R) HD Graphics Family,2018_jun_07_0947,testMonitor,
88.0,92.9,87.5,95.9,36,60,81.4,113.2,99.5,106.0,8.228,8.212,7.85,7.575,7.816,7.86,7.773,5.264,-4.543,-7.567,2.053,-2.015,7.938,4.638,-4.932,-8.383,89.7,91.3,-8.478,75.1,108.8,110.3,83.2,99.0,36,97.8,1,5,prime,10,0,115,norm,36,-5.073,down,norm,94.0542574858,81.6,96.2,1.327,88.9,2,87.5,103.9,74.1,10,6,7.903,5.174,1.492,-1.284,-4.374,-7.74,102.8,6,209.1,-7.694,-8.464,60,-8.408,-8.261,-4.774,-5.053,-4.421,-4.579,4.38,7.758,8,-1.431,1.16,4.737,8.036,-8.102,-8.118,-1.401,1.416,86.7,,114.1,101.9,93.7,88.3,106.8,92.8,103.5,100.4,0,norm,1.676,1.593,-1.174,-1.425,-4.327,-4.429,-1.18,-1.757,-1.185,-1.355,1.89,-1.291,95.4,78.9,-4.527,-7.604,94.4,-1.754,8.452,4.888,-4.344,-7.726,2,4.94,4.34,5.231,5.07,1.871,1.882,2.042,1.562,2,5.284,5.131,-60,104.963107623,norm,0,8,8,8,388.54,388.546,388.5483044,388.549,388.552,388.555,down,1,2.55661207754,7.44338792246,001,005,800_600,Intel(R) Core(TM) i7-2670QM CPU @ 2.20GHz,orientation_search,GRVLAPTOP3,Intel(R) HD Graphics Family,2018_jun_07_0947,testMonitor,
103.1,88.3,87.3,91.6,36,60,86.5,85.6,87.3,92.8,7.645,8.393,7.56,7.773,8.232,7.53,8.309,4.438,-4.649,-7.777,1.151,-1.821,7.761,4.392,-4.302,-7.754,87.3,92.2,-7.699,83.6,74.1,95.8,101.7,81.0,36,84.8,0,5,prime,10,0,106,norm,36,-5.231,up,norm,94.0542574858,90.0,105.6,1.158,84.3,5,81.2,114.1,96.5,10,6,7.896,5.157,1.649,-1.256,-5.224,-8.47,81.4,6,200.1,-8.264,-8.396,60,-7.509,-7.814,-4.553,-4.398,-5.244,-4.399,4.614,7.589,5,-1.3,1.7,4.471,7.547,-8.005,-8.177,-1.119,1.757,80.1,86.5,90.2,77.2,95.9,80.0,93.8,101.5,,86.4,1,norm,1.901,1.772,-1.836,-1.615,-4.368,-5.064,-1.458,-2.042,-1.866,-1.995,1.242,-1.169,88.4,92.1,-4.843,-8.332,90.9,-1.915,8.093,4.896,-4.932,-7.615,2,4.694,4.533,5.154,4.615,1.105,1.357,1.567,2.085,2,4.5,4.993,-60,104.963107623,norm,0,9,9,9,391.12,391.126,391.127718113,391.128,391.131,391.135,up,1,2.29985669011,7.70014330989,001,005,800_600,Intel(R) Core(TM) i7-2670QM CPU @ 2.20GHz,orientation_search,GRVLAPTOP3,Intel(R) HD Graphics Family,2018_jun_07_0947,testMonitor,
88.7,91.2,97.6,84.0,36,60,102.0,101.3,90.3,93.1,7.872,7.908,7.843,7.962,7.582,8.182,7.781,5.187,-5.191,-8.32,1.948,-1.562,7.551,4.925,-4.38,-7.556,97.4,97.6,-7.751,93.3,114.1,99.5,99.5,98.8,36,108.0,1,5,prime,10,0,97,norm,36,-5.018,down,norm,94.0542574858,92.9,97.7,1.233,95.8,1,86.2,97.1,108.4,10,6,8.339,4.704,1.594,-1.52,-5.265,-8.434,108.5,6,191.1,-8.178,-8.463,60,-7.942,-7.661,-4.923,-5.086,-4.772,-5.101,4.303,7.962,7,-1.24,1.926,4.938,7.845,-8.231,-7.626,-1.864,1.757,88.2,102.0,103.9,87.0,81.6,85.3,,91.6,86.5,96.5,2,norm,1.688,1.208,-1.252,-1.386,-5.0,-4.772,-1.989,-1.648,-1.589,-1.603,2.007,-1.337,74.1,95.4,-4.433,-8.422,90.0,-2.06,7.622,4.455,-4.526,-8.481,2,4.752,4.695,4.939,5.162,1.997,1.205,1.864,1.672,2,4.452,4.704,-60,104.963107623,norm,0,10,10,10,393.443,393.449,393.450261567,393.451,393.454,393.458,down,1,1.81412580731,8.18587419269,001,005,800_600,Intel(R) Core(TM) i7-2670QM CPU @ 2.20GHz,orientation_search,GRVLAPTOP3,Intel(R) HD Graphics Family,2018_jun_07_0947,testMonitor,
91.7,83.3,94.5,92.3,36,60,112.9,108.0,,105.5,8.19,7.71,7.801,7.803,7.636,8.35,8.29,4.818,-5.133,-7.662,1.732,-1.128,7.911,5.04,-5.266,-7.502,95.2,104.6,-8.189,91.6,74.1,97.0,89.6,99.6,36,114.1,4,5,prime,10,0,72,norm,36,-4.768,up,norm,94.0542574858,107.5,87.9,2.025,111.5,4,84.3,93.6,91.3,10,6,8.484,4.915,1.893,-1.525,-5.064,-8.353,83.5,6,166.1,-7.567,-8.129,60,-8.01,-8.424,-4.749,-4.528,-4.695,-4.573,5.18,7.683,28,-1.271,1.737,4.713,7.547,-7.747,-7.867,-1.249,2.096,100.0,78.6,99.9,104.0,105.7,107.1,112.5,95.8,82.7,80.9,3,norm,1.568,1.903,-1.778,-1.693,-4.624,-4.644,-2.064,-1.136,-1.49,-1.723,1.465,-1.432,96.6,105.6,-4.369,-8.256,84.5,-1.599,8.225,4.969,-5.02,-8.043,2,4.779,5.243,4.382,4.438,1.957,1.102,1.921,1.199,2,5.233,4.545,-60,104.963107623,norm,0,11,11,11,395.28,395.287,395.288341934,395.289,395.292,395.295,up,1,3.41750341931,6.58249658069,001,005,800_600,Intel(R) Core(TM) i7-2670QM CPU @ 2.20GHz,orientation_search,GRVLAPTOP3,Intel(R) HD Graphics Family,2018_jun_07_0947,testMonitor,
84.9,92.3,100.8,89.7,36,60,78.4,102.9,,103.7,7.598,8.147,8.073,7.842,8.303,8.17,8.291,4.615,-5.078,-8.422,1.206,-1.276,8.456,4.97,-4.919,-7.619,88.5,86.1,-8.072,97.2,114.1,97.6,77.5,94.7,36,82.6,4,5,prime,10,0,104,norm,36,-4.5,up,norm,94.0542574858,105.8,80.0,1.116,108.3,4,97.3,77.0,85.6,10,6,7.683,4.314,1.171,-2.096,-5.28,-7.898,97.8,6,198.1,-7.553,-8.414,60,-7.671,-8.018,-5.035,-4.833,-4.651,-4.922,4.56,7.785,28,-1.221,1.14,4.715,7.694,-8.419,-8.211,-1.554,1.388,86.9,106.9,82.0,105.1,96.2,96.3,103.6,74.1,106.3,92.8,4,norm,1.498,1.844,-1.72,-2.061,-4.677,-4.89,-1.442,-1.357,-1.595,-1.721,2.059,-1.568,104.8,77.9,-4.314,-7.509,90.2,-1.577,7.917,5.096,-5.099,-7.982,2,4.962,4.645,4.48,4.372,1.873,1.658,1.854,2.075,2,4.897,4.639,-60,104.963107623,norm,0,12,12,12,398.721,398.727,398.728952381,398.73,398.732,398.736,up,1,2.19150992779,7.80849007221,001,005,800_600,Intel(R) Core(TM) i7-2670QM CPU @ 2.20GHz,orientation_search,GRVLAPTOP3,Intel(R) HD Graphics Family,2018_jun_07_0947,testMonitor,
76.1,95.6,91.9,88.4,36,60,86.7,97.5,97.1,81.7,7.925,7.734,7.947,7.927,8.244,7.783,8.327,4.909,-4.557,-8.328,1.742,-1.484,7.515,5.059,-5.239,-7.966,84.2,84.5,-8.464,103.4,107.9,99.9,,88.4,36,107.1,5,5,prime,10,0,71,norm,36,-4.666,down,norm,94.0542574858,96.0,102.5,2.032,114.1,2,82.9,90.3,80.4,10,6,7.743,4.445,1.558,-1.516,-4.739,-8.247,105.5,6,165.1,-7.795,-8.014,60,-7.74,-7.896,-5.021,-5.169,-4.452,-4.657,4.795,8.131,32,-1.31,1.28,4.355,8.345,-8.271,-7.616,-1.616,1.641,93.4,100.7,103.1,106.2,107.0,100.7,74.1,97.2,103.3,83.5,5,norm,2.002,1.772,-1.651,-2.059,-4.856,-4.806,-1.968,-1.26,-1.811,-1.291,1.548,-2.047,100.8,76.8,-5.219,-7.812,83.4,-1.383,7.53,5.087,-4.55,-7.557,2,4.785,4.479,5.146,4.776,1.674,1.454,2.013,1.348,2,4.797,4.35,-60,104.963107623,norm,0,13,13,13,400.936,400.941,400.942909989,400.943,400.946,400.95,down,1,2.96407119639,7.03592880361,001,005,800_600,Intel(R) Core(TM) i7-2670QM CPU @ 2.20GHz,orientation_search,GRVLAPTOP3,Intel(R) HD Graphics Family,2018_jun_07_0947,testMonitor,
257.8,250.9,254.7,241.9,36,80,250.3,251.6,245.9,244.6,8.363,7.989,7.593,7.536,8.308,7.606,8.391,4.332,-4.387,-8.206,1.38,-1.733,8.014,4.934,-4.715,-7.541,252.8,244.7,-7.55,249.1,252.7,253.1,251.5,249.1,36,256.6,2,5,probe,5,0,99,norm,36,-4.936,up,norm,251.901907464,,253.1,1.664,258.5,5,251.4,256.3,259.2,10,6,7.826,5.226,1.626,-2.043,-4.944,-7.84,252.0,1,152.9,-8.103,-8.082,60,-7.833,-7.51,-5.077,-4.453,-5.014,-4.898,4.634,7.718,17,-2.018,1.23,4.959,7.656,-8.269,-7.539,-1.52,1.297,251.7,255.4,244.3,254.9,250.6,257.3,253.8,249.8,261.9,251.3,0,norm,1.722,1.181,-2.01,-1.177,-4.799,-4.965,-1.517,-1.883,-1.581,-1.127,1.255,-1.836,252.4,256.4,-5.024,-7.751,260.9,-2.099,8.459,4.692,-4.93,-7.925,3,4.648,4.391,5.062,4.658,2.017,1.945,1.816,1.403,3,4.456,4.464,60,94.0542574858,norm,0,14,14,14,403.923,403.929,403.93037446,403.931,403.934,403.937,up,1,1.78602791578,8.21397208422,001,005,800_600,Intel(R) Core(TM) i7-2670QM CPU @ 2.20GHz,orientation_search,GRVLAPTOP3,Intel(R) HD Graphics Family,2018_jun_07_0947,testMonitor,
326.2,341.9,344.0,345.5,36,-10,314.2,339.7,334.8,339.4,7.977,8.3,7.749,7.803,7.899,8.456,7.588,5.23,-4.948,-7.956,1.122,-1.159,7.525,4.776,-4.929,-7.932,322.6,336.0,-7.667,,343.4,327.7,327.0,348.1,36,331.9,5,5,prime,10,0,96,norm,36,-4.748,down,norm,334.198084494,322.1,325.0,1.525,343.2,1,333.0,327.1,354.2,10,3,7.723,5.25,1.792,-1.4,-4.936,-7.615,326.3,3,430.2,-8.102,-7.941,-10,-8.163,-7.592,-4.553,-5.201,-4.431,-4.562,5.281,7.529,31,-1.845,1.77,4.862,8.168,-8.118,-7.576,-1.989,1.608,335.6,333.5,319.0,339.9,345.1,325.9,324.6,351.1,323.0,331.4,0,norm,1.802,1.939,-1.703,-1.697,-4.373,-4.947,-1.88,-1.206,-1.191,-1.568,1.435,-1.487,331.3,339.1,-4.812,-8.379,344.4,-1.674,8.357,4.653,-5.062,-7.959,4,4.615,4.875,4.94,4.489,1.668,1.446,1.34,1.845,4,4.969,4.443,80,94.0542574858,norm,0,15,15,15,405.731,405.737,405.738771607,405.739,405.742,405.745,down,1,1.19143568122,8.80856431878,001,005,800_600,Intel(R) Core(TM) i7-2670QM CPU @ 2.20GHz,orientation_search,GRVLAPTOP3,Intel(R) HD Graphics Family,2018_jun_07_0947,testMonitor,
328.4,340.3,326.5,316.1,36,-10,343.7,329.1,335.7,335.4,8.15,7.709,7.766,7.742,8.496,8.294,8.428,4.882,-5.181,-7.723,1.803,-1.129,7.879,4.445,-4.994,-7.9,335.5,328.0,-8.236,354.2,335.9,,325.9,328.4,36,343.8,5,5,prime,10,0,65,norm,36,-4.357,up,norm,334.198084494,345.0,352.7,1.327,343.5,3,338.0,336.5,340.5,10,3,8.288,5.197,1.382,-1.119,-4.868,-7.737,347.7,3,399.2,-8.219,-8.317,-10,-8.021,-7.575,-5.043,-5.187,-5.252,-4.499,4.301,7.992,33,-2.083,1.379,4.686,8.328,-7.736,-7.604,-1.525,2.058,332.6,352.3,346.4,348.9,330.2,314.2,337.6,328.2,336.8,337.7,1,norm,1.662,1.136,-1.529,-1.194,-4.872,-5.227,-1.971,-1.282,-2.013,-1.745,2.092,-1.155,336.4,338.6,-4.624,-8.496,334.8,-1.945,8.097,4.989,-4.454,-8.453,4,5.273,5.133,5.116,4.595,1.522,1.158,1.125,1.183,4,5.251,4.961,80,94.0542574858,norm,0,16,16,16,406.945,406.951,406.952583524,406.953,406.956,406.96,up,1,0.923873448352,9.07612655165,001,005,800_600,Intel(R) Core(TM) i7-2670QM CPU @ 2.20GHz,orientation_search,GRVLAPTOP3,Intel(R) HD Graphics Family,2018_jun_07_0947,testMonitor,
331.8,342.0,322.7,339.9,36,-10,336.9,348.6,324.8,317.8,8.046,7.534,7.506,8.254,7.954,8.418,8.062,4.354,-4.755,-7.659,1.919,-1.846,8.49,5.238,-5.098,-7.777,337.7,331.3,-7.637,338.9,314.2,329.4,347.0,320.9,36,329.5,2,5,prime,10,0,94,norm,36,-4.714,up,norm,334.198084494,320.6,331.0,1.578,348.7,3,318.4,334.5,342.0,10,3,8.168,5.164,1.772,-1.296,-4.719,-7.507,330.7,3,428.2,-7.984,-8.205,-10,-8.352,-8.455,-4.78,-4.648,-4.562,-4.66,4.682,8.213,15,-1.346,1.77,4.602,8.26,-7.871,-7.982,-1.998,1.873,330.4,329.4,338.1,335.4,319.6,328.1,330.6,342.2,325.0,343.9,2,norm,1.742,1.711,-1.2,-1.368,-5.216,-4.688,-1.692,-1.513,-1.605,-1.811,1.5,-1.973,329.2,354.2,-4.911,-7.647,,-2.079,7.875,4.925,-4.945,-7.571,4,4.954,4.773,4.996,4.95,1.181,2.034,1.86,2.009,4,4.333,4.699,80,94.0542574858,norm,0,17,17,17,407.892,407.898,407.899677938,407.9,407.903,407.907,up,1,1.20423457621,8.79576542379,001,005,800_600,Intel(R) Core(TM) i7-2670QM CPU @ 2.20GHz,orientation_search,GRVLAPTOP3,Intel(R) HD Graphics Family,2018_jun_07_0947,testMonitor,
385.4,388.1,391.6,385.3,36,80,382.2,379.9,391.1,383.6,7.847,8.285,8.081,8.011,7.843,7.56,8.131,4.685,-4.544,-8.236,2.041,-1.477,7.505,4.695,-4.984,-8.399,391.4,,-8.398,394.7,384.6,385.4,388.3,379.2,36,379.2,5,5,probe,5,0,62,norm,36,-4.61,up,norm,384.73860674,382.8,393.2,1.685,388.0,4,385.5,384.8,390.0,10,3,8.138,4.657,1.484,-1.337,-4.726,-8.4,380.9,1,322.7,-8.488,-8.281,-10,-8.247,-7.866,-5.255,-4.315,-5.057,-5.209,4.313,7.929,34,-1.92,2.055,5.097,7.999,-8.097,-8.247,-2.058,1.533,378.9,388.9,393.9,384.7,387.8,387.7,385.8,381.0,379.3,374.7,0,norm,1.674,1.902,-1.587,-1.23,-4.917,-4.6,-2.023,-1.476,-1.951,-1.836,1.94,-1.379,383.3,381.1,-5.131,-8.166,382.7,-1.16,7.57,4.645,-5.051,-8.285,5,4.536,4.303,4.714,5.17,1.867,1.323,1.721,1.488,5,5.241,4.397,-10,334.198084494,norm,0,18,18,18,409.12,409.125,409.127133013,409.128,409.13,409.134,up,1,0.986304542629,9.01369545737,001,005,800_600,Intel(R) Core(TM) i7-2670QM CPU @ 2.20GHz,orientation_search,GRVLAPTOP3,Intel(R) HD Graphics Family,2018_jun_07_0947,testMonitor,
,28.9,24.9,46.6,36,30,12.5,20.3,41.2,30.9,8.125,8.026,8.397,8.053,7.775,7.645,7.983,4.55,-4.535,-7.825,1.435,-1.228,8.081,4.749,-5.066,-8.168,31.6,41.7,-7.764,13.4,32.3,8.7,36.3,28.2,36,12.9,3,5,prime,10,0,70,norm,36,-4.553,up,norm,28.7021316568,27.0,32.7,1.316,27.6,4,26.8,22.1,27.8,10,2,8.389,5.027,1.598,-1.852,-4.597,-7.684,28.6,2,98.7,-8.336,-8.005,30,-7.699,-7.562,-4.788,-4.828,-4.425,-4.321,4.682,7.894,22,-1.298,1.298,5.182,8.349,-7.86,-7.569,-1.219,1.889,30.5,37.1,26.9,22.2,28.2,18.7,41.8,18.8,27.6,22.4,0,norm,1.271,1.202,-1.939,-1.185,-4.537,-4.727,-1.141,-1.745,-2.032,-1.285,1.838,-1.968,21.5,30.3,-4.386,-8.145,30.3,-1.482,7.798,5.216,-5.098,-7.898,6,4.71,4.62,5.285,4.872,1.23,1.611,1.297,1.143,6,4.389,4.506,80,334.198084494,norm,0,19,19,19,410.129,410.135,410.136969983,410.137,410.14,410.144,up,1,1.06937618403,8.93062381597,001,005,800_600,Intel(R) Core(TM) i7-2670QM CPU @ 2.20GHz,orientation_search,GRVLAPTOP3,Intel(R) HD Graphics Family,2018_jun_07_0947,testMonitor,
18.2,38.9,36.3,,36,30,37.4,32.7,20.0,24.3,7.851,7.589,8.347,7.533,8.399,7.984,8.05,4.355,-4.963,-7.811,1.134,-1.413,8.271,4.599,-5.201,-8.45,19.7,30.6,-7.759,24.4,33.1,24.4,15.3,27.7,36,23.6,3,5,prime,10,0,81,norm,36,-4.773,up,norm,28.7021316568,43.3,14.3,1.386,26.2,3,35.7,37.9,23.7,10,2,7.835,4.434,1.966,-1.247,-4.726,-7.576,24.7,2,109.7,-8.33,-8.108,30,-8.136,-8.226,-5.284,-4.835,-4.895,-4.707,4.864,7.881,21,-1.584,1.138,5.234,8.129,-7.855,-7.623,-1.556,1.367,33.1,8.7,32.4,32.4,17.1,32.0,35.9,30.2,33.9,17.4,1,norm,1.292,1.186,-1.295,-1.422,-4.428,-4.672,-1.597,-1.531,-1.186,-1.198,2.017,-1.746,48.7,18.2,-4.97,-8.408,43.8,-1.682,7.808,4.532,-4.548,-8.122,6,4.618,4.963,4.748,4.782,1.343,1.601,1.243,1.999,6,5.227,5.188,80,334.198084494,norm,0,20,20,20,411.221,411.227,411.229459265,411.23,411.233,411.236,up,1,1.54534527691,8.45465472309,001,005,800_600,Intel(R) Core(TM) i7-2670QM CPU @ 2.20GHz,orientation_search,GRVLAPTOP3,Intel(R) HD Graphics Family,2018_jun_07_0947,testMonitor,
146.7,145.1,146.9,141.5,36,60,140.4,139.6,132.5,146.8,8.034,7.618,7.601,7.966,7.69,7.958,7.6,4.333,-5.067,-7.915,1.989,-1.991,7.951,5.105,-4.475,-8.083,142.4,145.6,-7.878,145.5,,141.6,140.3,136.9,36,146.3,5,5,probe,5,0,85,norm,36,-5.076,down,norm,142.52130627,147.8,137.9,1.89,143.8,0,152.5,139.6,138.4,10,2,7.85,5.138,1.517,-1.431,-4.365,-7.617,143.7,1,57.5,-8.022,-7.875,30,-8.452,-7.909,-5.108,-4.936,-5.072,-4.982,5.004,7.992,30,-1.752,1.159,4.315,8.408,-7.534,-8.177,-1.28,1.216,140.4,142.7,148.2,150.9,148.3,141.3,143.5,142.8,133.4,149.7,0,norm,1.981,1.457,-1.218,-1.436,-5.149,-4.334,-1.894,-1.194,-1.38,-2.052,1.375,-1.78,138.4,144.1,-4.476,-7.577,144.1,-1.181,7.651,4.995,-4.915,-7.766,7,4.596,4.858,4.85,4.952,1.286,1.989,1.547,1.243,7,4.58,4.464,30,28.7021316568,norm,0,21,21,21,412.79,412.796,412.797402584,412.798,412.801,412.805,down,1,1.00778795179,8.99221204821,001,005,800_600,Intel(R) Core(TM) i7-2670QM CPU @ 2.20GHz,orientation_search,GRVLAPTOP3,Intel(R) HD Graphics Family,2018_jun_07_0947,testMonitor,
270.6,260.2,248.5,255.2,36,30,234.3,254.3,246.9,242.8,8.427,8.195,8.3,8.485,7.774,7.577,7.634,5.178,-4.473,-8.457,2.061,-1.368,7.946,4.624,-4.777,-8.161,266.6,249.6,-7.929,256.1,250.7,260.1,251.2,258.3,36,257.5,1,5,prime,10,0,96,norm,36,-4.303,up,norm,254.337082903,249.9,265.2,2.019,252.1,3,250.7,255.7,260.2,10,5,8.225,5.015,1.385,-2.054,-5.013,-8.31,268.3,5,350.3,-8.092,-8.069,30,-8.261,-7.828,-5.237,-5.219,-4.89,-4.365,5.176,8.235,9,-1.309,1.971,5.161,8.3,-8.405,-8.257,-1.533,1.969,,263.2,252.5,241.3,269.0,256.1,254.5,239.1,244.5,257.2,0,norm,1.119,1.277,-1.133,-1.855,-5.207,-4.362,-1.261,-1.397,-1.398,-2.014,1.433,-1.417,266.0,239.6,-5.105,-8.153,274.3,-1.435,7.655,4.627,-4.584,-7.95,8,4.863,4.538,4.839,5.122,1.525,1.54,1.156,1.392,8,4.941,4.696,60,28.7021316568,norm,0,22,22,22,413.821,413.827,413.828463801,413.829,413.832,413.835,up,1,0.806079626881,9.19392037312,001,005,800_600,Intel(R) Core(TM) i7-2670QM CPU @ 2.20GHz,orientation_search,GRVLAPTOP3,Intel(R) HD Graphics Family,2018_jun_07_0947,testMonitor,
253.2,246.6,261.8,263.2,36,30,,248.6,259.6,254.2,7.607,7.863,8.432,8.242,8.02,8.388,7.773,4.338,-4.479,-7.698,2.042,-2.099,8.432,4.508,-4.835,-8.136,244.9,260.8,-8.176,256.4,259.9,255.8,235.6,266.6,36,260.7,4,5,prime,10,0,107,norm,36,-5.08,down,norm,254.337082903,254.1,255.0,1.889,249.3,0,259.6,245.6,264.8,10,5,8.056,4.547,1.528,-1.912,-5.219,-7.728,265.2,5,361.3,-7.947,-7.703,30,-8.124,-8.482,-4.522,-5.024,-4.45,-5.199,5.25,8.017,24,-1.26,1.967,5.201,8.205,-7.941,-8.027,-2.098,1.827,274.3,260.3,259.3,262.4,248.5,248.9,248.2,251.9,241.4,248.5,1,norm,1.305,1.165,-1.39,-1.142,-5.188,-4.724,-1.653,-1.819,-1.328,-1.272,1.964,-1.593,234.3,235.9,-5.118,-8.057,257.0,-1.564,7.885,4.603,-4.718,-8.362,8,4.76,4.749,5.187,4.487,2.051,1.13,1.525,2.063,8,5.126,5.202,60,28.7021316568,norm,0,23,23,23,414.651,414.657,414.658609591,414.659,414.662,414.666,down,1,0.920270388272,9.07972961173,001,005,800_600,Intel(R) Core(TM) i7-2670QM CPU @ 2.20GHz,orientation_search,GRVLAPTOP3,Intel(R) HD Graphics Family,2018_jun_07_0947,testMonitor,
234.3,246.6,258.6,267.4,36,30,266.7,274.3,273.0,242.4,7.749,7.704,7.555,7.536,8.477,8.424,7.908,4.441,-4.73,-8.033,1.319,-1.623,8.084,4.929,-4.405,-7.793,247.7,266.9,-7.603,262.3,239.9,254.9,245.5,264.4,36,254.8,1,5,prime,10,0,86,norm,36,-5.019,up,norm,254.337082903,237.1,252.0,2.05,250.5,5,,252.5,255.0,10,5,8.177,5.26,1.64,-1.178,-4.454,-8.223,245.5,5,340.3,-7.986,-7.6,30,-8.151,-8.022,-4.673,-5.141,-5.21,-4.919,4.457,7.699,11,-1.702,1.362,4.368,8.056,-8.261,-8.342,-1.197,1.646,241.1,239.6,268.9,252.5,257.5,244.8,257.8,267.0,249.8,252.3,2,norm,1.992,1.839,-1.124,-1.248,-4.947,-5.141,-1.868,-1.369,-1.336,-2.006,1.864,-1.617,263.5,246.1,-5.265,-8.035,252.1,-1.216,7.651,4.85,-5.219,-7.993,8,5.183,4.915,4.495,5.196,2.004,1.982,1.525,1.75,8,4.837,4.978,60,28.7021316568,norm,0,24,24,24,415.596,415.601,415.602832203,415.603,415.606,415.61,up,1,1.60708620494,8.39291379506,001,005,800_600,Intel(R) Core(TM) i7-2670QM CPU @ 2.20GHz,orientation_search,GRVLAPTOP3,Intel(R) HD Graphics Family,2018_jun_07_0947,testMonitor,
261.7,247.6,255.2,255.1,36,30,251.0,240.6,255.4,251.2,8.167,8.16,7.575,8.355,8.222,7.761,7.575,4.899,-5.181,-8.398,1.856,-2.0,8.378,4.762,-4.96,-7.773,259.3,256.2,-7.933,260.5,246.6,258.3,259.6,244.5,36,246.6,1,5,prime,10,0,60,norm,36,-4.981,up,norm,254.337082903,264.3,266.4,1.225,259.2,5,,242.2,261.4,10,5,7.58,4.314,1.91,-1.565,-4.704,-8.245,274.3,5,314.3,-7.562,-8.172,30,-8.297,-8.119,-4.672,-4.535,-4.787,-4.393,4.843,7.524,11,-1.828,1.514,5.105,8.488,-8.244,-7.77,-1.537,2.071,234.3,243.5,256.0,265.4,259.6,246.5,266.1,255.8,257.1,249.3,3,norm,1.95,1.805,-1.206,-1.97,-5.11,-5.146,-1.924,-2.044,-1.991,-1.19,1.188,-1.339,253.2,251.6,-4.592,-7.545,247.4,-1.638,8.119,5.171,-4.988,-8.322,8,5.21,4.745,4.64,5.245,1.141,1.674,1.827,2.033,8,4.743,4.409,60,28.7021316568,norm,0,25,25,25,417.225,417.231,417.233200079,417.234,417.237,417.24,up,1,2.36933373741,7.63066626259,001,005,800_600,Intel(R) Core(TM) i7-2670QM CPU @ 2.20GHz,orientation_search,GRVLAPTOP3,Intel(R) HD Graphics Family,2018_jun_07_0947,testMonitor,
274.3,260.6,263.0,262.0,36,30,263.5,245.1,238.2,,8.327,8.347,7.553,7.669,8.032,7.711,8.398,4.869,-5.214,-7.89,1.448,-1.619,8.027,4.901,-4.581,-8.235,262.7,255.2,-7.916,267.0,248.8,264.1,253.7,250.0,36,251.8,4,5,prime,10,0,95,norm,36,-4.676,up,norm,254.337082903,253.9,236.7,2.035,251.7,5,253.7,266.1,235.7,10,5,8.179,5.109,1.178,-1.827,-4.805,-7.982,253.8,5,349.3,-7.953,-7.719,30,-7.679,-7.509,-4.526,-5.231,-4.771,-4.576,4.911,7.513,29,-1.121,2.016,5.285,7.808,-8.026,-8.041,-1.951,1.765,254.8,268.7,256.3,235.3,267.0,260.7,248.4,267.3,245.8,243.2,4,norm,1.359,1.834,-1.911,-1.602,-4.756,-5.047,-1.54,-1.358,-2.021,-1.548,1.854,-1.327,244.8,270.1,-5.142,-8.413,258.8,-1.33,7.721,4.417,-4.791,-8.355,8,5.003,5.134,4.368,4.334,1.454,1.382,1.911,1.409,8,4.688,4.81,60,28.7021316568,norm,0,26,26,26,419.618,419.624,419.625748244,419.626,419.629,419.633,up,1,2.05477762685,7.94522237315,001,005,800_600,Intel(R) Core(TM) i7-2670QM CPU @ 2.20GHz,orientation_search,GRVLAPTOP3,Intel(R) HD Graphics Family,2018_jun_07_0947,testMonitor,
377.1,381.9,382.4,379.3,36,60,381.5,378.8,378.1,381.7,8.287,7.673,8.071,7.737,8.063,8.104,8.199,4.882,-4.949,-8.307,1.233,-2.093,7.899,4.74,-4.73,-7.605,374.9,376.8,-7.628,376.8,381.5,380.5,371.1,376.1,36,389.5,0,5,probe,5,0,95,norm,36,-4.487,up,norm,379.540574605,372.3,388.6,1.209,376.8,3,387.1,374.9,383.1,10,5,8.485,5.234,1.898,-1.636,-4.401,-8.144,369.5,2,284.5,-7.703,-7.647,30,-7.985,-7.884,-4.69,-5.169,-4.332,-5.028,4.521,8.481,3,-1.424,1.542,4.898,8.224,-8.256,-8.069,-1.693,1.846,371.6,377.7,,375.0,379.4,380.4,381.1,370.4,374.8,386.6,0,norm,1.615,1.45,-1.268,-1.873,-5.102,-4.963,-1.245,-1.756,-1.197,-1.111,1.602,-1.164,378.6,374.4,-5.131,-8.286,381.8,-1.778,8.326,5.15,-5.155,-7.994,9,4.736,4.606,5.009,5.128,1.242,1.235,1.645,1.578,9,4.457,4.527,30,254.337082903,norm,0,27,27,27,421.696,421.702,421.703446115,421.704,421.707,421.711,up,1,3.32573325495,6.67426674505,001,005,800_600,Intel(R) Core(TM) i7-2670QM CPU @ 2.20GHz,orientation_search,GRVLAPTOP3,Intel(R) HD Graphics Family,2018_jun_07_0947,testMonitor,
407.9,408.5,396.1,399.9,36,60,395.0,396.9,388.5,396.1,8.004,8.035,8.101,7.514,8.306,7.633,8.085,4.721,-4.486,-8.401,1.499,-1.369,8.408,4.798,-4.539,-7.854,395.3,402.4,-8.007,392.5,399.6,401.0,,390.6,36,400.0,5,5,probe,5,0,114,norm,36,-4.83,down,norm,398.540574605,405.7,392.2,1.272,391.8,2,400.4,396.3,398.9,10,5,8.435,4.453,1.119,-1.199,-4.926,-8.209,397.2,2,284.5,-7.94,-7.543,30,-7.952,-7.74,-4.668,-5.284,-4.395,-4.792,4.756,8.035,32,-1.972,2.055,5.279,8.165,-7.735,-8.385,-1.436,1.178,392.7,404.6,395.3,398.8,391.6,395.0,394.0,397.9,402.2,395.3,1,norm,1.247,1.361,-1.449,-1.219,-5.067,-4.887,-1.414,-1.549,-1.195,-1.889,1.758,-1.192,395.9,401.6,-5.235,-7.972,405.1,-1.472,8.47,5.169,-4.966,-7.543,9,5.067,4.982,5.044,4.317,1.758,1.637,1.387,1.505,9,5.221,5.271,30,254.337082903,norm,0,28,28,28,425.045,425.051,425.052442829,425.053,425.056,425.059,down,1,1.48164638739,8.51835361261,001,005,800_600,Intel(R) Core(TM) i7-2670QM CPU @ 2.20GHz,orientation_search,GRVLAPTOP3,Intel(R) HD Graphics Family,2018_jun_07_0947,testMonitor,
55.7,28.2,55.4,29.6,36,-40,55.1,40.3,48.3,44.6,7.629,7.859,8.028,7.9,8.068,7.512,8.034,4.581,-4.405,-8.038,1.783,-1.732,7.846,5.046,-5.0,-7.525,57.2,47.0,-7.661,33.0,46.3,63.4,68.2,43.6,36,49.3,0,5,prime,10,0,79,norm,36,-4.354,down,norm,48.1811497041,45.7,45.0,1.32,39.6,1,40.7,41.6,42.6,10,5,8.276,4.498,1.938,-1.829,-4.688,-7.738,40.5,5,127.2,-7.648,-8.024,-40,-8.026,-7.92,-4.526,-5.157,-4.62,-4.83,4.799,8.29,1,-1.87,1.584,4.874,8.117,-7.84,-7.796,-1.102,2.062,43.6,60.6,50.2,58.5,,41.0,51.0,46.6,35.3,45.4,0,norm,1.25,1.158,-1.579,-1.437,-4.435,-5.052,-1.297,-1.312,-1.1,-1.753,1.215,-2.069,43.1,35.8,-4.521,-7.813,50.4,-1.983,7.667,4.356,-4.595,-7.725,10,5.08,4.708,4.789,5.139,1.607,1.964,1.258,1.634,10,4.369,4.875,60,254.337082903,norm,0,29,29,29,426.55,426.555,426.557174297,426.558,426.561,426.565,up,0,1.29645255481,-10,001,005,800_600,Intel(R) Core(TM) i7-2670QM CPU @ 2.20GHz,orientation_search,GRVLAPTOP3,Intel(R) HD Graphics Family,2018_jun_07_0947,testMonitor,
58.8,30.2,54.4,37.3,36,-40,,62.7,33.3,54.6,8.081,7.82,7.684,8.438,7.658,8.377,8.402,4.322,-4.671,-8.494,1.103,-1.789,8.414,4.531,-5.269,-8.072,50.5,57.3,-7.967,49.6,37.7,43.5,28.2,37.9,36,33.2,4,5,prime,10,0,119,norm,36,-4.624,down,norm,48.1811497041,43.5,41.3,1.785,51.4,0,31.2,68.2,58.0,10,5,7.548,4.59,1.65,-1.394,-4.63,-7.619,35.5,5,167.2,-8.207,-8.365,-40,-8.398,-8.04,-5.145,-4.366,-4.932,-4.988,4.795,8.379,24,-1.218,1.937,4.334,8.349,-7.992,-7.711,-1.451,1.959,65.8,43.2,52.5,39.2,58.1,43.5,60.4,35.6,58.5,54.5,1,norm,1.835,1.385,-1.156,-1.697,-4.719,-4.926,-1.279,-1.498,-1.986,-1.636,1.96,-1.431,43.7,49.2,-4.482,-7.83,33.2,-1.748,7.505,5.146,-4.515,-8.109,10,4.464,4.506,4.538,4.504,1.915,1.546,1.48,1.679,10,4.679,4.959,60,254.337082903,norm,0,30,30,30,428.883,428.888,428.889699479,428.89,428.893,428.897,down,1,1.90222380158,8.09777619842,001,005,800_600,Intel(R) Core(TM) i7-2670QM CPU @ 2.20GHz,orientation_search,GRVLAPTOP3,Intel(R) HD Graphics Family,2018_jun_07_0947,testMonitor,
58.7,51.2,,44.8,36,-40,46.4,52.7,41.9,47.5,7.817,8.361,8.113,7.925,8.412,7.987,7.547,5.042,-4.731,-7.669,1.818,-1.141,8.0,5.065,-4.802,-7.637,37.8,42.0,-7.579,56.3,43.8,63.7,61.3,38.9,36,59.8,3,5,prime,10,0,69,norm,36,-4.94,down,norm,48.1811497041,68.2,45.9,1.829,38.6,2,62.2,40.5,46.5,10,5,8.337,4.838,2.044,-1.99,-4.431,-8.267,28.2,5,117.2,-7.592,-7.735,-40,-7.981,-7.644,-4.616,-5.186,-4.731,-5.184,5.144,7.584,20,-1.675,1.782,4.42,8.414,-8.467,-7.665,-1.645,1.282,53.8,62.2,42.8,49.1,44.7,57.0,38.1,49.2,48.7,45.8,2,norm,1.127,1.858,-1.893,-1.111,-4.946,-4.551,-1.688,-1.329,-1.877,-1.3,1.995,-1.385,39.7,64.4,-4.801,-7.876,48.6,-1.295,8.303,5.206,-4.699,-7.608,10,4.544,5.182,5.24,4.498,1.743,1.702,1.375,1.668,10,4.681,4.637,60,254.337082903,norm,0,31,31,31,430.808,430.813,430.814901427,430.815,430.818,430.822,up,0,1.16513605101,-10,001,005,800_600,Intel(R) Core(TM) i7-2670QM CPU @ 2.20GHz,orientation_search,GRVLAPTOP3,Intel(R) HD Graphics Family,2018_jun_07_0947,testMonitor,
51.8,60.2,47.0,28.2,36,-40,49.0,35.6,44.5,32.8,8.107,7.935,8.39,7.88,7.815,8.352,7.557,5.013,-4.718,-7.526,1.979,-1.771,7.953,4.466,-4.428,-7.996,48.5,62.5,-8.395,58.2,43.5,43.3,52.1,39.8,36,61.2,0,5,prime,10,0,60,norm,36,-4.83,down,norm,48.1811497041,48.4,44.0,1.447,40.5,0,36.6,38.8,68.2,10,5,7.844,5.17,1.502,-2.006,-5.185,-8.375,52.8,5,108.2,-7.837,-8.138,-40,-8.402,-7.954,-4.881,-4.685,-5.02,-4.405,4.824,7.719,0,-2.059,1.13,4.568,7.842,-7.964,-7.615,-1.274,1.137,53.4,51.6,30.6,51.9,57.5,,40.0,44.9,37.2,51.3,3,norm,1.662,1.699,-1.223,-1.569,-4.508,-4.311,-1.768,-1.865,-1.913,-1.384,1.625,-2.049,49.1,45.1,-5.263,-7.627,29.0,-2.027,8.287,4.748,-4.367,-7.587,10,4.814,5.068,5.061,5.207,1.467,1.624,1.177,1.334,10,4.336,4.794,60,254.337082903,norm,0,32,32,32,433.001,433.007,433.008469246,433.009,433.012,433.015,down,1,1.15954981361,8.84045018639,001,005,800_600,Intel(R) Core(TM) i7-2670QM CPU @ 2.20GHz,orientation_search,GRVLAPTOP3,Intel(R) HD Graphics Family,2018_jun_07_0947,testMonitor,
47.4,66.9,66.3,55.2,36,-40,47.5,49.0,42.9,53.1,8.476,8.05,8.424,7.661,7.701,7.529,8.238,4.853,-4.929,-8.423,1.232,-1.787,7.879,4.469,-4.4,-8.491,56.3,37.6,-8.37,46.2,47.6,47.0,39.3,40.4,36,52.7,1,5,prime,10,0,88,norm,36,-5.172,up,norm,48.1811497041,51.0,49.8,1.61,39.9,4,51.6,45.4,56.0,10,5,7.69,5.227,1.383,-1.129,-4.945,-8.393,,5,136.2,-8.194,-8.07,-40,-7.516,-8.417,-5.22,-4.807,-5.043,-4.665,4.985,8.178,10,-1.929,1.396,4.382,8.05,-7.669,-8.02,-1.53,1.835,54.5,35.8,33.7,28.2,46.8,34.0,51.7,48.3,38.1,44.0,4,norm,1.103,2.01,-1.175,-1.609,-4.301,-4.51,-1.819,-1.836,-1.317,-1.6,2.054,-2.019,54.3,68.2,-5.247,-8.035,39.7,-1.151,8.158,4.661,-4.591,-8.254,10,5.047,5.136,4.476,4.963,1.275,1.235,1.783,1.973,10,4.342,4.793,60,254.337082903,norm,0,33,33,33,434.185,434.19,434.192018914,434.192,434.195,434.199,up,1,1.00804991611,8.99195008389,001,005,800_600,Intel(R) Core(TM) i7-2670QM CPU @ 2.20GHz,orientation_search,GRVLAPTOP3,Intel(R) HD Graphics Family,2018_jun_07_0947,testMonitor,
97.0,89.2,93.6,87.6,36,-10,96.5,90.4,93.8,98.3,8.304,8.46,8.056,8.494,8.381,7.915,7.855,4.621,-5.038,-8.286,1.494,-2.014,7.818,4.51,-4.898,-7.847,83.6,96.9,-7.832,88.2,94.8,83.8,95.1,82.7,36,97.2,3,5,probe,5,0,91,norm,36,-5.024,down,norm,92.7400180177,94.7,84.8,1.268,95.8,1,102.2,86.2,87.2,10,5,8.054,5.11,1.946,-2.082,-4.889,-7.62,90.0,1,1.7,-7.944,-7.861,-40,-7.814,-7.948,-4.617,-4.524,-4.869,-4.924,4.955,8.355,19,-1.859,1.728,4.466,8.426,-7.855,-7.585,-1.717,1.227,92.5,93.2,89.7,98.3,96.1,85.6,92.8,88.6,94.8,94.5,0,norm,1.281,2.012,-1.852,-1.523,-4.698,-5.263,-1.89,-1.25,-1.181,-1.664,1.345,-1.909,,102.7,-4.941,-7.691,97.3,-1.745,7.865,5.204,-5.065,-7.737,11,4.355,4.763,4.308,4.389,1.91,1.59,1.855,1.569,11,5.088,5.194,-40,48.1811497041,norm,0,34,34,34,435.215,435.221,435.222473083,435.223,435.226,435.229,down,1,1.49157441491,8.50842558509,001,005,800_600,Intel(R) Core(TM) i7-2670QM CPU @ 2.20GHz,orientation_search,GRVLAPTOP3,Intel(R) HD Graphics Family,2018_jun_07_0947,testMonitor,
338.9,345.5,343.8,339.6,36,10,346.6,335.1,338.9,365.2,8.054,7.567,8.473,8.313,7.875,8.203,7.794,5.243,-4.797,-7.766,2.047,-1.481,7.971,4.86,-5.136,-8.023,333.3,338.6,-8.244,364.2,341.1,357.5,350.0,368.6,36,354.6,2,5,prime,10,0,64,norm,36,-5.004,down,norm,348.580359674,343.5,355.8,2.064,351.1,0,331.6,348.3,,10,2,7.649,5.081,1.937,-1.873,-4.987,-8.026,349.8,2,412.6,-8.129,-7.833,10,-8.39,-7.856,-4.721,-4.854,-4.655,-4.64,4.349,8.352,12,-1.248,2.024,4.945,8.466,-7.973,-7.543,-1.155,1.85,328.6,337.0,353.9,350.5,340.7,349.1,345.9,329.1,359.3,350.3,0,norm,1.98,1.285,-1.596,-1.878,-4.605,-5.267,-1.554,-1.808,-1.222,-1.769,1.695,-1.923,355.5,354.6,-5.14,-7.787,350.3,-1.321,7.74,4.846,-4.679,-7.595,12,4.497,5.206,4.738,4.458,1.486,1.792,1.605,1.599,12,4.903,4.783,-10,48.1811497041,norm,0,35,35,35,436.729,436.734,436.735540714,436.736,436.739,436.742,down,1,1.3703988722,8.6296011278,001,005,800_600,Intel(R) Core(TM) i7-2670QM CPU @ 2.20GHz,orientation_search,GRVLAPTOP3,Intel(R) HD Graphics Family,2018_jun_07_0947,testMonitor,
344.2,352.6,,342.9,36,10,330.0,341.5,348.0,348.8,7.633,8.472,8.208,8.325,8.436,7.526,7.53,4.427,-4.547,-8.182,1.533,-1.665,8.377,5.096,-5.132,-7.959,347.6,368.6,-7.952,336.7,345.7,355.1,364.2,345.5,36,332.9,3,5,prime,10,0,100,norm,36,-5.276,down,norm,348.580359674,335.9,351.1,1.883,337.8,2,362.1,346.6,339.9,10,2,8.483,4.812,1.505,-1.784,-4.951,-7.973,339.6,2,448.6,-8.458,-8.428,10,-8.027,-8.114,-4.822,-5.15,-4.439,-4.409,4.77,8.253,20,-1.942,1.314,5.053,7.56,-7.772,-7.759,-1.418,1.516,337.6,342.7,350.3,329.4,354.1,346.7,338.1,333.2,350.1,328.6,1,norm,1.648,1.552,-1.907,-1.541,-4.578,-4.485,-1.337,-1.25,-1.647,-1.628,1.524,-1.733,342.5,364.8,-5.228,-7.537,347.2,-1.904,8.281,4.559,-4.728,-8.147,12,5.09,4.39,5.139,4.742,1.483,1.77,1.519,1.906,12,5.053,4.316,-10,48.1811497041,norm,0,36,36,36,438.121,438.127,438.129100314,438.13,438.133,438.136,up,0,0.990198051564,-10,001,005,800_600,Intel(R) Core(TM) i7-2670QM CPU @ 2.20GHz,orientation_search,GRVLAPTOP3,Intel(R) HD Graphics Family,2018_jun_07_0947,testMonitor,
414.8,419.7,423.6,417.5,36,80,421.5,428.8,416.7,418.5,7.504,7.555,7.552,8.333,7.664,8.408,8.114,5.273,-4.799,-8.037,1.15,-1.527,7.518,5.133,-4.951,-7.958,420.8,428.0,-7.862,424.2,422.8,421.3,417.7,412.6,36,424.4,3,5,probe,5,0,67,norm,36,-4.84,down,norm,422.582174903,425.4,416.8,1.786,423.9,0,425.9,424.5,419.7,10,2,7.804,4.405,2.094,-1.303,-4.327,-7.84,416.5,1,355.6,-8.467,-8.215,10,-8.06,-7.547,-4.9,-4.319,-5.108,-4.997,4.837,8.311,18,-1.377,1.359,5.002,7.925,-7.68,-8.02,-1.305,1.359,432.6,425.1,416.8,420.2,425.1,419.7,418.9,422.6,431.4,417.1,0,norm,2.079,1.472,-1.489,-1.433,-4.715,-4.788,-2.002,-2.026,-1.852,-1.804,1.71,-1.421,425.3,,-4.449,-8.042,418.8,-1.239,8.46,4.71,-4.837,-8.204,13,4.332,5.197,5.065,5.253,1.577,1.578,1.233,1.405,13,5.122,4.464,10,348.580359674,norm,0,37,37,37,440.146,440.151,440.152606125,440.153,440.156,440.159,down,1,6.05352991086,3.94647008914,001,005,800_600,Intel(R) Core(TM) i7-2670QM CPU @ 2.20GHz,orientation_search,GRVLAPTOP3,Intel(R) HD Graphics Family,2018_jun_07_0947,testMonitor,
248.3,288.3,260.0,280.0,36,-20,,273.3,264.7,273.6,7.758,8.119,8.406,8.083,8.125,7.618,7.959,5.22,-4.91,-7.712,1.429,-1.908,8.017,4.699,-4.309,-7.758,264.5,257.2,-7.929,282.8,265.6,266.9,268.7,270.0,36,283.5,4,5,prime,10,0,70,norm,36,-5.029,down,norm,268.314094757,265.3,269.6,1.899,273.5,0,255.2,272.9,279.7,10,6,8.407,5.022,1.954,-1.314,-4.415,-8.441,272.2,6,338.3,-8.214,-8.312,-20,-7.923,-8.319,-5.014,-5.044,-4.747,-5.055,4.699,7.589,24,-1.583,1.66,4.698,8.301,-8.486,-8.229,-1.856,1.285,272.6,266.3,278.8,267.6,266.3,258.2,273.1,271.3,276.8,275.9,0,norm,1.188,1.773,-1.52,-1.417,-4.584,-4.942,-1.437,-1.987,-1.98,-1.286,1.511,-1.859,276.2,269.3,-4.891,-7.535,259.6,-1.238,8.409,4.598,-4.803,-7.833,14,4.937,4.651,4.641,4.543,1.642,1.851,1.626,1.351,14,5.138,4.965,80,348.580359674,norm,0,38,38,38,446.222,446.227,446.228711196,446.229,446.232,446.236,down,1,3.01683482659,6.98316517341,001,005,800_600,Intel(R) Core(TM) i7-2670QM CPU @ 2.20GHz,orientation_search,GRVLAPTOP3,Intel(R) HD Graphics Family,2018_jun_07_0947,testMonitor,
268.7,268.4,268.9,274.2,36,-20,278.9,261.4,265.0,274.4,8.451,8.065,8.173,8.3,8.488,7.721,7.585,4.392,-4.94,-8.484,1.313,-1.917,8.469,5.125,-4.43,-8.412,283.7,273.1,-8.366,263.9,258.9,278.1,270.0,269.2,36,266.0,2,5,prime,10,0,72,norm,36,-4.306,up,norm,268.314094757,266.4,271.8,1.291,248.3,3,260.3,276.2,276.3,10,6,7.659,5.032,2.094,-1.938,-4.721,-7.927,256.9,6,340.3,-8.323,-7.949,-20,-8.465,-8.384,-4.616,-4.973,-4.807,-5.043,4.535,7.738,15,-1.108,1.828,4.507,7.971,-7.657,-8.032,-2.016,1.608,256.4,266.7,268.3,265.0,280.1,287.0,266.5,264.1,288.3,266.4,1,norm,1.319,2.023,-1.675,-1.914,-4.383,-4.431,-1.968,-1.922,-1.932,-1.851,1.413,-1.447,268.1,271.8,-4.993,-8.16,,-1.998,8.083,5.133,-4.677,-8.334,14,4.313,4.909,4.427,5.027,1.738,1.116,1.173,1.587,14,4.926,4.392,80,348.580359674,norm,0,39,39,39,449.261,449.266,449.268299562,449.269,449.272,449.276,up,1,0.902496972934,9.09750302707,001,005,800_600,Intel(R) Core(TM) i7-2670QM CPU @ 2.20GHz,orientation_search,GRVLAPTOP3,Intel(R) HD Graphics Family,2018_jun_07_0947,testMonitor,
275.0,265.3,272.9,285.1,36,-20,264.5,255.7,268.3,279.6,7.989,7.929,8.135,7.82,7.982,7.99,8.354,4.71,-4.976,-7.899,1.428,-1.475,8.11,4.723,-4.403,-7.838,280.7,254.0,-8.086,260.5,248.3,268.6,255.9,272.4,36,271.5,3,5,prime,10,0,104,norm,36,-4.312,down,norm,268.314094757,280.3,256.8,1.922,261.2,1,276.8,278.3,258.5,10,6,8.35,4.741,1.874,-1.83,-5.049,-8.307,288.3,6,372.3,-8.159,-7.544,-20,-8.091,-8.496,-4.901,-4.79,-5.104,-5.202,4.595,8.43,19,-1.183,1.307,4.605,7.567,-7.67,-7.861,-1.59,1.573,269.1,267.6,277.0,273.5,271.2,273.8,278.9,259.5,257.7,268.6,2,norm,1.173,2.075,-1.755,-1.976,-5.173,-4.417,-1.35,-1.118,-1.502,-1.749,1.32,-1.669,,267.7,-4.956,-7.671,263.6,-1.993,8.498,5.266,-5.125,-8.094,14,4.838,4.988,4.412,4.739,1.979,1.482,1.415,1.412,14,4.916,4.776,80,348.580359674,norm,0,40,40,40,450.186,450.191,450.1933787,450.194,450.197,450.2,up,0,3.48343110689,-10,001,005,800_600,Intel(R) Core(TM) i7-2670QM CPU @ 2.20GHz,orientation_search,GRVLAPTOP3,Intel(R) HD Graphics Family,2018_jun_07_0947,testMonitor,
273.1,280.1,288.3,279.5,36,-20,260.5,252.3,283.5,273.9,7.886,7.76,8.326,7.72,7.61,7.659,8.165,4.852,-4.679,-7.795,1.787,-1.798,7.942,5.198,-5.132,-8.219,280.9,262.8,-7.874,263.8,281.9,264.2,257.4,262.2,36,269.9,0,5,prime,10,0,60,norm,36,-4.737,up,norm,268.314094757,270.0,257.3,1.628,266.5,5,276.4,288.3,262.8,10,6,7.563,4.312,1.899,-1.45,-4.577,-7.601,277.4,6,328.3,-7.65,-7.505,-20,-8.185,-8.354,-4.535,-4.497,-4.398,-5.139,5.202,8.114,5,-1.488,1.723,4.729,7.658,-8.187,-8.361,-1.662,1.393,268.9,248.3,278.7,267.7,270.3,263.3,269.6,270.7,,252.2,3,norm,1.255,1.54,-1.474,-2.011,-4.738,-5.129,-1.846,-1.485,-1.189,-1.452,1.667,-1.302,267.6,262.8,-4.405,-7.659,269.8,-1.531,7.796,4.456,-4.609,-8.142,14,5.205,5.067,5.152,5.026,1.516,1.587,1.199,1.954,14,4.809,5.105,80,348.580359674,norm,0,41,41,41,454.7,454.705,454.707083263,454.708,454.711,454.714,down,0,1.16963567347,-10,001,005,800_600,Intel(R) Core(TM) i7-2670QM CPU @ 2.20GHz,orientation_search,GRVLAPTOP3,Intel(R) HD Graphics Family,2018_jun_07_0947,testMonitor,
261.7,265.4,248.3,268.6,36,-20,268.8,,277.7,273.3,8.184,8.173,8.158,7.593,8.456,8.465,8.297,5.075,-4.377,-7.701,1.119,-1.959,8.039,4.599,-4.732,-8.163,274.3,277.7,-7.747,263.7,255.9,264.9,254.9,277.4,36,270.2,4,5,prime,10,0,77,norm,36,-5.254,down,norm,268.314094757,253.3,262.7,1.92,276.2,1,279.0,262.1,260.8,10,6,8.088,4.959,1.638,-1.868,-4.624,-7.871,263.3,6,345.3,-7.558,-7.9,-20,-7.936,-7.853,-4.906,-4.6,-4.493,-4.448,5.049,7.559,25,-1.755,1.377,4.677,7.505,-8.088,-7.595,-1.638,1.841,271.5,281.5,278.3,266.1,272.0,277.6,284.8,262.0,268.6,273.7,4,norm,1.935,1.722,-1.733,-1.344,-5.194,-4.372,-1.93,-1.238,-1.252,-1.226,1.738,-1.538,288.3,270.5,-5.203,-8.217,258.4,-1.432,8.152,4.393,-4.381,-7.939,14,4.747,4.669,5.048,4.325,1.139,1.828,1.197,1.463,14,4.431,4.328,80,348.580359674,norm,0,42,42,42,456.9,456.906,456.907452815,456.908,456.911,456.914,up,0,1.65717835941,-10,001,005,800_600,Intel(R) Core(TM) i7-2670QM CPU @ 2.20GHz,orientation_search,GRVLAPTOP3,Intel(R) HD Graphics Family,2018_jun_07_0947,testMonitor,
277.2,270.2,273.8,271.5,36,-20,272.3,265.2,262.6,282.6,8.032,8.372,8.235,7.994,7.993,8.162,8.188,4.85,-4.485,-8.187,1.596,-1.591,8.305,5.163,-4.707,-7.928,263.4,266.7,-8.489,272.4,264.0,255.2,264.0,253.7,36,248.3,2,5,prime,10,0,82,norm,36,-5.133,up,norm,268.314094757,,268.7,1.237,253.2,5,272.3,254.1,258.3,10,6,8.357,5.089,1.516,-1.579,-5.245,-8.37,269.8,6,350.3,-7.66,-7.874,-20,-7.665,-8.241,-4.689,-4.445,-4.922,-4.583,4.918,7.644,17,-1.31,1.823,4.398,7.793,-7.805,-7.837,-2.036,1.943,260.9,275.3,263.4,270.2,256.9,269.9,272.1,266.1,288.3,270.9,5,norm,1.232,1.343,-1.733,-1.672,-4.71,-4.392,-1.753,-1.638,-1.358,-2.043,1.508,-1.21,274.8,276.7,-4.395,-7.627,280.1,-1.937,8.247,4.424,-4.723,-7.779,14,4.46,4.325,4.425,4.696,1.908,1.975,1.569,2.09,14,5.055,4.833,80,348.580359674,norm,0,43,43,43,459.583,459.588,459.590175731,459.591,459.594,459.597,up,1,2.5808192619,7.4191807381,001,005,800_600,Intel(R) Core(TM) i7-2670QM CPU @ 2.20GHz,orientation_search,GRVLAPTOP3,Intel(R) HD Graphics Family,2018_jun_07_0947,testMonitor,
307.3,315.7,323.3,312.6,36,-40,319.3,323.6,311.2,316.8,8.428,8.473,8.157,8.282,8.054,8.232,7.952,4.417,-4.766,-7.788,1.6,-1.676,7.523,4.718,-4.776,-8.478,313.2,313.9,-7.614,313.7,310.6,323.8,308.5,321.0,36,324.9,0,5,probe,5,0,71,norm,36,-4.354,up,norm,314.864322032,307.1,312.7,1.616,310.4,5,309.0,312.5,313.4,10,6,8.166,4.87,2.04,-1.952,-4.67,-7.583,314.5,1,243.9,-7.644,-8.015,-20,-8.158,-8.068,-4.315,-4.333,-4.499,-4.33,5.294,7.976,5,-1.379,1.838,4.86,7.978,-8.102,-8.26,-1.71,1.197,321.0,306.2,318.7,316.1,314.6,304.9,318.8,320.3,,316.9,0,norm,1.254,1.991,-1.736,-1.913,-5.016,-4.631,-1.55,-1.945,-1.349,-1.472,1.756,-1.825,318.1,306.5,-4.378,-7.833,307.9,-1.696,8.444,5.11,-4.53,-7.587,15,4.537,5.056,4.39,4.652,1.227,1.352,1.286,1.288,15,4.977,5.174,-20,268.314094757,norm,0,44,44,44,462.186,462.192,462.193377766,462.194,462.197,462.2,up,1,2.12399130895,7.87600869105,001,005,800_600,Intel(R) Core(TM) i7-2670QM CPU @ 2.20GHz,orientation_search,GRVLAPTOP3,Intel(R) HD Graphics Family,2018_jun_07_0947,testMonitor,
40.8,48.5,54.2,64.2,36,-20,61.4,58.8,50.4,37.9,7.945,7.954,8.023,8.014,8.493,7.977,7.714,4.833,-5.125,-7.795,1.848,-1.438,7.722,4.615,-4.98,-8.254,55.3,37.9,-7.968,65.8,66.2,62.8,60.9,77.9,36,44.7,1,5,prime,10,0,76,norm,36,-4.457,down,norm,57.8651624519,59.6,59.6,2.095,52.1,2,69.3,62.4,51.3,10,2,7.967,4.835,1.248,-1.638,-4.872,-7.643,63.3,2,133.9,-8.033,-8.303,-20,-7.96,-7.807,-4.596,-5.264,-4.68,-5.134,4.317,7.894,8,-1.965,1.16,4.952,7.931,-7.774,-7.942,-1.414,1.742,50.6,,55.0,52.4,61.5,46.5,71.5,70.3,62.4,66.8,0,norm,2.04,1.205,-1.915,-1.73,-4.357,-4.493,-1.326,-1.102,-1.599,-2.032,1.351,-1.655,62.0,50.5,-4.429,-7.986,50.0,-1.644,7.917,4.883,-5.018,-7.601,16,4.333,4.86,4.381,4.374,2.08,1.794,1.909,1.808,16,4.439,4.53,-40,268.314094757,norm,0,45,45,45,464.334,464.339,464.341280674,464.342,464.345,464.349,down,1,1.52657770464,8.47342229536,001,005,800_600,Intel(R) Core(TM) i7-2670QM CPU @ 2.20GHz,orientation_search,GRVLAPTOP3,Intel(R) HD Graphics Family,2018_jun_07_0947,testMonitor,
54.5,49.9,63.3,37.9,36,-20,64.7,43.3,73.8,40.7,8.018,8.004,8.426,8.253,8.061,7.63,7.964,5.044,-4.947,-8.018,1.982,-1.815,7.646,4.461,-5.15,-7.609,62.1,52.0,-8.315,52.3,66.7,56.5,56.4,50.0,36,72.8,2,5,prime,10,0,75,norm,36,-4.898,down,norm,57.8651624519,56.7,59.2,1.226,,2,63.2,63.5,57.0,10,2,7.875,4.916,1.65,-1.47,-4.761,-7.528,69.6,2,132.9,-7.613,-7.592,-20,-7.718,-7.575,-5.09,-4.587,-4.581,-4.868,5.173,8.131,14,-1.375,1.336,4.705,8.149,-8.24,-7.549,-1.495,1.417,51.2,70.6,65.2,77.9,69.1,54.6,51.3,53.3,51.5,52.1,1,norm,1.563,1.556,-1.221,-2.003,-4.764,-4.769,-1.575,-1.863,-1.65,-1.199,1.305,-1.244,45.2,60.5,-4.884,-8.43,61.8,-1.164,7.519,4.539,-5.277,-7.632,16,4.571,4.949,4.6,4.365,1.229,1.792,1.164,1.25,16,4.526,5.034,-40,268.314094757,norm,0,46,46,46,465.884,465.889,465.891142851,465.892,465.895,465.898,down,1,1.41919801561,8.58080198439,001,005,800_600,Intel(R) Core(TM) i7-2670QM CPU @ 2.20GHz,orientation_search,GRVLAPTOP3,Intel(R) HD Graphics Family,2018_jun_07_0947,testMonitor,
108.6,105.3,114.5,112.6,36,-60,115.4,114.7,124.0,113.0,7.571,8.401,8.21,7.622,7.642,8.335,8.185,5.152,-4.771,-7.705,1.765,-1.725,8.359,5.098,-5.101,-7.586,113.5,111.8,-8.295,109.5,116.5,113.7,114.8,109.6,36,125.3,1,5,probe,5,0,73,norm,36,-4.782,up,norm,115.309348636,112.6,120.5,1.987,118.9,5,,117.3,110.3,10,2,7.538,5.019,1.809,-1.925,-5.019,-7.536,121.6,1,42.3,-7.818,-7.828,-20,-8.246,-7.959,-5.258,-5.139,-4.474,-4.592,5.137,7.889,11,-1.394,1.791,4.86,7.797,-8.187,-8.208,-1.205,1.295,114.7,115.1,115.2,121.4,115.6,117.3,115.0,118.1,110.9,114.8,0,norm,1.672,1.92,-1.482,-1.146,-5.206,-4.441,-1.248,-1.523,-2.028,-1.433,1.337,-1.986,107.7,123.0,-4.434,-7.893,124.5,-1.895,7.94,4.437,-4.488,-7.97,17,5.078,4.835,5.095,5.252,1.633,1.462,1.687,1.295,17,4.57,4.938,-20,57.8651624519,norm,0,47,47,47,467.326,467.331,467.332943578,467.333,467.336,467.34,up,1,0.786572857601,9.2134271424,001,005,800_600,Intel(R) Core(TM) i7-2670QM CPU @ 2.20GHz,orientation_search,GRVLAPTOP3,Intel(R) HD Graphics Family,2018_jun_07_0947,testMonitor,
9.4,7.4,0.1,-11.5,36,-80,3.8,7.6,-0.7,-2.1,7.678,8.264,7.649,8.366,7.919,7.725,7.731,4.354,-4.843,-7.987,2.023,-1.814,7.572,4.649,-5.117,-8.159,-8.5,12.7,-7.627,8.4,21.7,11.0,2.2,-9.0,36,1.0,0,5,prime,10,0,119,norm,36,-5.085,up,norm,2.2179214635,-4.1,8.3,1.696,-9.8,3,7.4,-6.5,-6.7,10,2,8.268,4.317,1.623,-1.448,-4.761,-7.886,-12.1,2,121.2,-8.27,-7.8,-80,-8.444,-7.852,-4.951,-4.836,-4.704,-4.63,4.629,8.428,3,-1.592,1.799,5.292,7.835,-7.784,-8.431,-2.029,1.934,0.0,-17.8,,-1.6,3.7,3.2,6.6,22.2,-1.9,4.6,0,norm,1.732,2.043,-2.04,-1.794,-4.862,-5.11,-1.651,-1.911,-1.667,-1.108,1.964,-1.29,5.3,-4.1,-4.948,-7.576,18.7,-1.179,8.31,5.077,-4.988,-8.236,18,5.062,4.667,4.683,4.641,1.498,1.96,1.98,1.437,18,4.882,4.999,-60,57.8651624519,norm,0,48,48,48,468.135,468.141,468.142171446,468.143,468.146,468.149,up,1,1.56798674582,8.43201325418,001,005,800_600,Intel(R) Core(TM) i7-2670QM CPU @ 2.20GHz,orientation_search,GRVLAPTOP3,Intel(R) HD Graphics Family,2018_jun_07_0947,testMonitor,
1.2,-6.7,5.8,-10.5,36,-80,10.8,-17.8,8.9,-4.2,8.46,7.991,7.736,8.285,8.404,8.392,7.709,4.381,-4.762,-7.888,2.014,-1.532,8.384,4.905,-4.469,-8.299,8.8,22.2,-7.789,7.0,1.3,3.5,15.5,2.4,36,10.4,2,5,prime,10,0,101,norm,36,-4.905,up,norm,2.2179214635,4.2,,2.025,4.9,4,-3.2,-8.7,7.2,10,2,8.181,4.664,1.545,-2.023,-5.157,-8.253,7.0,2,103.2,-8.436,-8.161,-80,-7.774,-8.303,-4.969,-5.204,-4.376,-4.311,4.893,8.191,16,-1.576,1.178,5.245,7.896,-8.308,-7.764,-1.174,1.334,-1.2,5.5,5.2,15.2,-7.2,12.9,-3.8,2.1,9.8,11.3,1,norm,1.503,1.125,-1.711,-2.092,-5.016,-5.122,-1.415,-1.821,-2.042,-1.88,1.444,-1.204,6.7,-0.1,-4.541,-7.957,0.8,-1.776,7.584,4.869,-5.103,-8.115,18,4.548,4.307,4.595,5.193,1.319,1.931,1.748,1.605,18,5.24,4.94,-60,57.8651624519,norm,0,49,49,49,469.727,469.732,469.733741518,469.734,469.737,469.741,up,1,0.980891080278,9.01910891972,001,005,800_600,Intel(R) Core(TM) i7-2670QM CPU @ 2.20GHz,orientation_search,GRVLAPTOP3,Intel(R) HD Graphics Family,2018_jun_07_0947,testMonitor,
10.4,13.0,-4.8,2.1,36,40,-1.4,1.1,5.5,4.4,8.189,7.947,8.235,8.286,8.282,7.726,8.161,4.966,-4.8,-7.909,2.063,-1.38,8.429,4.94,-4.475,-7.778,-7.0,3.7,-7.626,-1.5,-6.2,3.0,4.9,5.7,36,-2.8,1,5,probe,5,0,82,norm,36,-5.144,down,norm,2.99420888922,5.2,2.4,1.277,-1.8,1,7.6,7.8,3.7,10,2,8.218,4.591,1.383,-1.911,-5.264,-7.69,12.6,2,-79.0,-8.386,-7.543,-80,-8.255,-7.697,-4.744,-5.187,-4.478,-4.969,4.884,7.676,7,-1.978,1.647,5.161,8.08,-7.967,-8.063,-1.256,1.905,-1.2,10.9,9.3,-2.7,3.0,2.8,,-0.8,2.0,-2.9,0,norm,1.9,1.723,-2.083,-1.986,-4.341,-4.83,-1.138,-1.116,-1.456,-1.269,1.339,-1.478,0.3,0.2,-4.461,-8.272,8.0,-1.3,7.984,4.338,-5.096,-7.925,19,4.9,4.709,4.51,4.34,1.486,1.135,1.2,1.298,19,5.14,4.841,-80,2.2179214635,norm,0,50,50,50,470.73,470.735,470.736810377,470.737,470.741,470.744,down,1,1.24540873672,8.75459126328,001,005,800_600,Intel(R) Core(TM) i7-2670QM CPU @ 2.20GHz,orientation_search,GRVLAPTOP3,Intel(R) HD Graphics Family,2018_jun_07_0947,testMonitor,
10.2,6.4,4.9,,36,40,8.9,9.9,8.4,6.6,7.984,7.975,7.556,7.581,8.181,8.443,8.422,5.073,-4.517,-8.302,1.16,-1.66,7.502,4.549,-4.847,-7.927,-2.9,4.3,-8.487,3.6,4.4,3.8,6.6,0.4,36,13.4,3,5,probe,5,0,85,norm,36,-5.265,up,norm,5.99420888922,7.6,6.9,1.776,4.9,3,3.2,7.9,6.7,10,2,7.646,5.002,1.604,-1.523,-4.968,-8.425,-1.1,2,-79.0,-8.409,-7.766,-80,-8.325,-7.922,-4.929,-4.807,-4.422,-4.544,4.991,8.159,21,-1.983,1.406,4.618,7.504,-8.14,-8.205,-1.292,2.051,12.8,12.2,2.7,2.3,10.6,7.4,16.0,8.3,5.9,4.6,1,norm,1.852,1.816,-1.908,-1.62,-5.154,-4.555,-1.52,-1.251,-1.488,-1.856,2.019,-1.412,-4.0,8.6,-4.442,-7.542,-3.3,-1.206,8.351,5.104,-4.997,-8.151,19,4.969,5.139,4.438,4.378,1.724,1.865,1.812,1.815,19,5.237,4.756,-80,2.2179214635,norm,0,51,51,51,472.001,472.009,472.011047797,472.012,472.015,472.021,up,1,0.704126942027,9.29587305797,001,005,800_600,Intel(R) Core(TM) i7-2670QM CPU @ 2.20GHz,orientation_search,GRVLAPTOP3,Intel(R) HD Graphics Family,2018_jun_07_0947,testMonitor,
103.5,89.4,93.8,93.4,36,30,98.6,107.5,81.8,104.4,8.403,8.093,7.769,7.77,8.193,7.827,8.104,4.956,-4.839,-8.24,1.421,-1.805,8.299,4.518,-5.016,-8.22,96.9,97.2,-7.611,88.3,85.8,101.6,93.1,89.7,36,88.2,2,5,prime,10,0,80,norm,36,-5.18,down,norm,95.1825849319,97.5,100.7,1.163,105.8,0,75.2,104.6,,10,3,8.223,5.083,1.596,-2.042,-4.788,-7.593,106.0,3,175.2,-8.441,-8.024,30,-7.962,-7.643,-5.1,-4.489,-5.013,-5.158,4.491,7.654,12,-1.843,1.982,5.253,7.808,-8.17,-7.557,-1.256,1.784,96.6,112.0,81.1,92.8,115.2,87.3,88.5,98.2,95.6,105.7,0,norm,1.738,1.692,-1.174,-1.18,-5.294,-4.67,-1.596,-1.677,-1.881,-1.849,1.236,-1.472,113.0,99.1,-5.071,-8.246,105.7,-1.616,8.382,4.811,-4.766,-8.07,20,5.029,5.251,4.807,4.621,1.397,1.509,1.891,2.066,20,4.89,4.706,40,2.2179214635,norm,0,52,52,52,472.736,482.964,482.966578302,482.967,482.971,482.976,down,1,3.06879528632,6.93120471368,001,005,800_600,Intel(R) Core(TM) i7-2670QM CPU @ 2.20GHz,orientation_search,GRVLAPTOP3,Intel(R) HD Graphics Family,2018_jun_07_0947,testMonitor,
79.4,115.2,87.1,100.5,36,30,75.2,84.1,88.0,89.9,7.914,7.512,8.006,7.759,8.399,8.383,7.899,4.56,-4.611,-7.737,2.094,-1.824,7.793,4.817,-4.481,-8.368,96.2,113.2,-7.932,97.4,100.3,95.6,103.7,86.5,36,92.0,1,5,prime,10,0,100,norm,36,-4.766,up,norm,95.1825849319,102.8,89.8,1.766,94.4,5,,99.3,93.3,10,3,8.487,5.055,1.447,-1.192,-5.235,-7.81,101.6,3,195.2,-7.602,-8.408,30,-7.678,-8.319,-4.797,-4.948,-4.54,-4.691,4.878,8.283,11,-1.316,1.702,4.694,7.799,-8.441,-8.313,-1.408,1.349,86.1,102.4,75.4,105.2,115.2,88.6,104.1,98.8,90.4,108.7,1,norm,1.578,1.156,-1.48,-1.547,-4.923,-4.462,-2.064,-1.342,-1.844,-1.427,1.752,-1.336,98.8,101.1,-4.625,-8.388,99.9,-1.415,7.97,4.832,-4.356,-7.706,20,5.204,5.199,4.676,4.668,2.079,1.974,1.639,1.283,20,4.983,5.151,40,2.2179214635,norm,0,53,53,53,486.056,486.064,486.066323669,486.067,486.071,486.076,up,1,3.10720924879,6.89279075121,001,005,800_600,Intel(R) Core(TM) i7-2670QM CPU @ 2.20GHz,orientation_search,GRVLAPTOP3,Intel(R) HD Graphics Family,2018_jun_07_0947,testMonitor,
109.5,92.5,90.9,108.0,36,30,104.7,103.0,110.2,93.8,8.386,7.911,7.889,8.328,7.793,7.559,7.73,4.394,-5.057,-7.627,1.583,-1.619,7.866,4.75,-4.82,-7.936,,86.7,-8.129,94.0,92.9,91.2,108.2,86.9,36,111.5,5,5,prime,10,0,64,norm,36,-4.882,up,norm,95.1825849319,103.2,76.1,1.75,101.3,5,99.5,98.4,102.6,10,3,8.168,4.958,2.05,-1.939,-4.648,-8.453,115.2,3,159.2,-7.788,-7.846,30,-7.717,-8.481,-4.888,-4.558,-4.459,-4.438,4.372,8.177,35,-1.724,1.972,4.682,8.349,-8.327,-8.037,-1.658,1.453,101.1,81.7,90.1,76.0,107.0,102.0,75.2,90.0,81.6,95.4,2,norm,1.601,1.683,-1.121,-1.71,-4.852,-4.47,-1.354,-1.423,-1.25,-1.313,1.893,-1.715,99.6,103.3,-5.156,-7.948,84.1,-1.962,8.256,4.814,-4.688,-7.956,20,4.94,4.942,4.548,4.479,1.234,2.047,1.408,1.755,20,4.338,4.694,40,2.2179214635,norm,0,54,54,54,489.195,489.203,489.204661844,489.205,489.209,489.214,down,0,5.67409397001,-10,001,005,800_600,Intel(R) Core(TM) i7-2670QM CPU @ 2.20GHz,orientation_search,GRVLAPTOP3,Intel(R) HD Graphics Family,2018_jun_07_0947,testMonitor,
225.0,,216.2,217.1,36,10,214.1,214.2,214.2,213.1,8.07,8.101,7.863,8.248,8.436,7.851,7.881,4.382,-4.524,-7.777,1.26,-1.59,8.149,5.072,-5.202,-7.55,214.2,217.7,-7.661,213.8,208.8,215.3,223.4,213.6,36,212.8,3,5,probe,5,0,86,norm,36,-4.787,up,norm,215.074334128,213.6,222.7,1.788,222.1,5,217.0,220.7,218.1,10,3,8.183,4.736,1.451,-1.593,-4.691,-7.691,205.1,1,129.1,-8.2,-7.972,30,-7.719,-8.343,-4.585,-4.326,-5.2,-4.424,4.684,7.829,23,-2.008,1.781,5.056,7.578,-7.51,-7.835,-1.977,1.898,222.5,211.8,216.5,222.8,216.4,223.4,217.0,207.2,216.1,215.7,0,norm,1.668,2.094,-1.901,-1.491,-4.834,-4.589,-1.583,-1.33,-1.659,-1.116,1.536,-1.767,208.8,225.1,-4.747,-8.141,211.3,-1.899,7.701,4.806,-5.122,-8.27,21,5.02,5.204,4.776,4.892,1.579,1.539,1.801,1.656,21,4.392,4.73,30,95.1825849319,norm,0,55,55,55,495.899,495.907,495.909016196,495.909,495.913,495.918,up,1,0.739386592563,9.26061340744,001,005,800_600,Intel(R) Core(TM) i7-2670QM CPU @ 2.20GHz,orientation_search,GRVLAPTOP3,Intel(R) HD Graphics Family,2018_jun_07_0947,testMonitor,
355.7,356.3,346.4,355.7,36,10,371.8,347.3,346.6,346.4,8.466,8.46,8.084,8.397,8.044,8.171,7.919,5.271,-4.438,-7.934,1.855,-1.283,8.199,4.554,-5.023,-8.378,357.8,357.2,-7.998,367.4,342.2,348.9,340.8,357.6,36,357.1,0,5,prime,10,0,108,norm,36,-5.211,down,norm,351.756705886,351.6,356.3,1.162,348.7,1,361.0,355.5,354.3,10,6,8.192,5.277,1.999,-1.837,-4.864,-7.788,347.7,6,459.8,-7.56,-7.952,10,-8.422,-7.817,-4.566,-5.006,-5.274,-4.595,5.129,7.511,1,-1.261,1.501,4.69,7.568,-8.284,-8.282,-1.551,1.5,365.8,352.7,357.9,351.6,,340.7,367.1,351.5,357.1,345.3,0,norm,1.48,1.276,-1.758,-1.815,-4.563,-5.089,-1.777,-1.577,-1.245,-1.888,1.875,-1.223,364.0,331.8,-4.548,-7.746,356.3,-1.536,7.61,4.969,-5.067,-7.934,22,4.975,4.451,5.119,4.623,1.733,1.837,1.562,1.828,22,4.879,4.395,10,95.1825849319,norm,0,56,56,56,496.668,496.676,496.678091144,496.679,496.682,496.687,down,1,2.4917373838,7.5082626162,001,005,800_600,Intel(R) Core(TM) i7-2670QM CPU @ 2.20GHz,orientation_search,GRVLAPTOP3,Intel(R) HD Graphics Family,2018_jun_07_0947,testMonitor,
351.7,355.4,345.2,356.9,36,10,331.8,342.7,355.5,349.3,7.572,8.386,8.335,7.869,7.84,8.249,7.577,4.652,-4.554,-8.49,1.625,-1.157,7.63,4.374,-4.51,-7.967,337.6,362.2,-7.608,345.0,352.5,364.4,345.7,345.3,36,342.2,0,5,prime,10,0,115,norm,36,-5.214,up,norm,351.756705886,333.5,351.7,1.989,360.6,4,357.2,348.3,335.9,10,6,8.274,4.721,1.881,-1.881,-5.026,-7.848,368.1,6,466.8,-7.595,-8.199,10,-7.991,-8.175,-5.0,-4.381,-4.364,-5.046,5.135,8.335,4,-1.907,1.621,4.39,7.638,-7.712,-8.173,-1.763,2.016,343.0,349.6,364.6,363.5,358.7,366.4,349.7,353.1,341.3,,1,norm,1.118,1.739,-1.771,-1.201,-4.513,-5.217,-1.28,-1.899,-1.433,-1.788,1.647,-2.047,363.0,334.1,-5.01,-7.735,350.2,-1.414,8.213,4.472,-4.397,-7.573,22,4.849,5.246,4.835,4.722,1.981,2.093,2.023,1.372,22,5.15,5.12,10,95.1825849319,norm,0,57,57,57,499.19,499.198,499.200516177,499.201,499.205,499.21,up,1,1.08993501324,8.91006498676,001,005,800_600,Intel(R) Core(TM) i7-2670QM CPU @ 2.20GHz,orientation_search,GRVLAPTOP3,Intel(R) HD Graphics Family,2018_jun_07_0947,testMonitor,
342.1,336.5,347.1,340.4,36,10,335.7,371.8,353.1,350.8,7.825,7.579,7.834,8.316,7.626,7.742,8.03,4.55,-4.917,-8.031,1.762,-1.395,8.049,4.976,-4.497,-8.078,,368.3,-8.451,364.6,347.5,367.2,354.4,354.4,36,367.1,5,5,prime,10,0,84,norm,36,-4.586,up,norm,351.756705886,356.8,337.0,1.513,331.8,5,366.4,350.0,358.2,10,6,8.011,4.42,1.711,-1.249,-4.527,-8.292,350.6,6,435.8,-7.996,-8.083,10,-7.734,-7.842,-4.636,-4.692,-5.01,-4.48,5.154,7.821,35,-1.676,1.422,5.056,7.854,-8.172,-7.944,-1.96,2.071,354.0,348.1,349.8,364.4,354.9,346.4,343.0,346.5,348.3,359.3,2,norm,1.662,1.564,-1.297,-1.487,-4.353,-5.116,-1.935,-1.554,-1.442,-1.945,1.446,-1.754,360.7,345.7,-4.43,-7.702,344.0,-1.591,7.765,4.97,-4.71,-7.844,22,4.308,5.026,5.091,4.354,1.806,1.568,1.233,1.961,22,5.152,4.663,10,95.1825849319,norm,0,58,58,58,500.311,500.318,500.320262357,500.321,500.325,500.33,up,1,2.39315101052,7.60684898948,001,005,800_600,Intel(R) Core(TM) i7-2670QM CPU @ 2.20GHz,orientation_search,GRVLAPTOP3,Intel(R) HD Graphics Family,2018_jun_07_0947,testMonitor,
353.2,369.3,363.6,340.1,36,10,356.9,362.2,353.0,348.5,7.869,7.95,7.855,7.523,7.875,7.931,7.743,4.747,-4.44,-7.984,1.909,-1.218,8.468,4.624,-4.383,-7.678,342.3,351.8,-7.731,366.4,351.8,348.3,351.4,368.7,36,353.8,2,5,prime,10,0,88,norm,36,-4.865,down,norm,351.756705886,346.8,362.0,1.722,337.3,1,358.5,,351.8,10,6,8.358,5.286,1.177,-1.886,-4.396,-8.493,362.6,6,439.8,-8.164,-8.302,10,-8.211,-7.765,-4.325,-4.337,-4.483,-4.518,4.66,7.563,13,-1.968,1.174,4.827,8.317,-7.856,-8.077,-1.334,1.398,353.7,354.4,350.1,354.9,331.8,371.8,348.6,343.3,337.4,359.3,3,norm,1.569,2.015,-1.437,-1.399,-5.166,-4.861,-1.441,-1.643,-1.201,-1.576,1.888,-1.652,343.8,362.9,-5.001,-8.475,332.2,-1.148,8.154,4.404,-4.471,-7.784,22,4.748,5.13,4.922,4.513,1.548,1.397,1.29,2.024,22,4.325,4.498,10,95.1825849319,norm,0,59,59,59,502.734,502.742,502.744626346,502.745,502.749,502.754,down,1,1.50857828087,8.49142171913,001,005,800_600,Intel(R) Core(TM) i7-2670QM CPU @ 2.20GHz,orientation_search,GRVLAPTOP3,Intel(R) HD Graphics Family,2018_jun_07_0947,testMonitor,
369.4,360.7,355.2,358.0,36,10,355.0,358.7,344.9,352.0,8.032,8.163,7.792,7.706,7.552,8.271,7.9,4.635,-4.729,-8.164,1.836,-1.775,8.073,5.112,-5.008,-7.756,362.8,,-7.834,345.2,352.6,343.3,356.7,349.6,36,350.0,5,5,prime,10,0,65,norm,36,-5.152,up,norm,351.756705886,345.3,357.3,1.576,351.8,4,347.6,360.0,343.7,10,6,8.231,5.244,1.119,-1.585,-5.222,-7.854,358.9,6,416.8,-7.731,-7.953,10,-7.913,-7.523,-4.488,-5.036,-4.318,-5.201,5.102,7.908,34,-2.068,1.372,4.563,8.292,-7.854,-7.554,-1.947,1.472,343.0,354.7,357.3,349.8,360.7,356.9,352.5,371.8,346.0,353.1,4,norm,2.048,1.285,-1.44,-1.372,-4.916,-4.863,-2.001,-1.279,-1.191,-2.084,1.381,-2.08,331.8,341.8,-4.918,-8.428,351.6,-1.232,7.972,5.014,-5.262,-7.742,22,4.6,5.164,4.839,4.369,1.768,1.588,1.223,1.121,22,5.292,5.131,10,95.1825849319,norm,0,60,60,60,504.274,504.281,504.283657395,504.284,504.288,504.293,up,1,0.932837204351,9.06716279565,001,005,800_600,Intel(R) Core(TM) i7-2670QM CPU @ 2.20GHz,orientation_search,GRVLAPTOP3,Intel(R) HD Graphics Family,2018_jun_07_0947,testMonitor,
359.9,350.0,351.1,366.6,36,10,341.5,345.5,354.3,357.7,8.455,8.172,8.473,7.747,8.413,8.327,8.401,4.696,-4.907,-8.049,1.216,-2.031,8.08,4.977,-4.64,-8.365,355.3,343.2,-7.619,348.7,342.0,354.1,351.7,336.6,36,347.1,0,5,prime,10,0,83,norm,36,-4.903,down,norm,351.756705886,355.9,331.8,1.189,356.0,2,371.8,359.0,356.3,10,6,7.846,5.107,1.45,-1.955,-4.539,-7.677,349.5,6,434.8,-7.713,-7.621,10,-8.228,-8.319,-5.012,-4.982,-4.772,-4.31,4.412,7.981,2,-1.637,1.632,5.257,7.889,-8.342,-7.857,-1.644,2.064,349.8,347.9,350.8,,346.0,347.1,350.6,339.7,339.4,356.4,5,norm,1.346,1.192,-1.471,-1.554,-4.955,-4.793,-1.14,-1.331,-1.29,-1.374,1.736,-1.915,336.9,351.6,-5.224,-7.914,361.9,-1.538,7.961,4.835,-4.76,-8.223,22,4.638,5.13,4.403,4.903,1.309,1.329,1.563,1.705,22,4.444,4.538,10,95.1825849319,norm,0,61,61,61,505.237,505.244,505.2467321,505.247,505.252,505.257,down,1,1.29062209755,8.70937790245,001,005,800_600,Intel(R) Core(TM) i7-2670QM CPU @ 2.20GHz,orientation_search,GRVLAPTOP3,Intel(R) HD Graphics Family,2018_jun_07_0947,testMonitor,
442.1,446.4,446.7,444.6,36,-80,444.7,442.8,452.8,443.9,8.311,8.159,8.47,8.285,8.181,8.243,7.702,4.818,-4.574,-7.601,1.556,-2.063,7.758,4.968,-4.762,-7.602,441.0,444.8,-7.656,451.1,446.6,456.1,441.5,443.7,36,441.9,3,5,probe,5,0,86,norm,36,-4.497,down,norm,446.071096574,448.2,436.1,1.342,451.2,0,439.8,443.8,441.4,10,6,8.123,4.348,1.542,-1.116,-4.302,-7.788,452.6,2,360.1,-8.375,-8.128,10,-8.035,-7.682,-5.092,-4.376,-4.577,-4.538,4.653,7.859,18,-1.364,1.44,4.581,7.69,-7.826,-7.814,-1.846,1.566,448.7,447.9,444.7,437.3,443.7,453.6,443.6,439.8,444.4,449.2,0,norm,1.627,1.28,-1.564,-1.861,-4.717,-4.998,-1.201,-1.777,-1.992,-2.059,1.83,-1.198,445.7,,-5.18,-8.055,447.6,-1.107,7.853,4.818,-4.302,-7.945,23,5.223,4.415,5.263,5.056,1.658,1.5,1.501,1.209,23,4.749,5.254,10,351.756705886,norm,0,62,62,62,506.559,506.567,506.568899185,506.569,506.573,506.578,down,1,1.74927492852,8.25072507148,001,005,800_600,Intel(R) Core(TM) i7-2670QM CPU @ 2.20GHz,orientation_search,GRVLAPTOP3,Intel(R) HD Graphics Family,2018_jun_07_0947,testMonitor,
454.3,442.2,450.5,,36,-80,448.0,446.7,456.2,449.1,7.772,8.267,8.37,8.159,8.256,8.07,7.988,4.463,-4.64,-7.799,1.284,-1.499,7.91,4.608,-4.572,-8.199,451.7,461.8,-7.774,451.3,459.8,455.7,449.9,458.8,36,456.6,3,5,probe,5,0,92,norm,36,-4.979,up,norm,452.071096574,451.0,442.1,2.008,450.7,3,445.5,457.6,449.9,10,6,7.954,4.557,1.898,-1.172,-4.916,-7.684,462.1,2,360.1,-7.96,-8.141,10,-7.565,-8.324,-4.755,-4.645,-5.05,-4.518,4.865,8.082,21,-1.193,1.32,4.743,8.221,-8.032,-8.277,-1.998,1.832,449.2,453.5,442.9,453.6,449.2,455.2,454.3,452.8,455.4,453.6,1,norm,1.684,1.237,-1.143,-1.183,-4.808,-5.126,-1.484,-1.871,-1.664,-1.25,1.535,-1.649,454.6,452.3,-4.861,-8.232,446.7,-1.33,8.33,4.66,-4.749,-7.681,23,5.027,4.915,4.95,5.02,1.391,1.437,1.381,1.498,23,4.553,4.375,10,351.756705886,norm,0,63,63,63,508.339,508.347,508.348938811,508.35,508.354,508.359,up,1,1.25505752242,8.74494247758,001,005,800_600,Intel(R) Core(TM) i7-2670QM CPU @ 2.20GHz,orientation_search,GRVLAPTOP3,Intel(R) HD Graphics Family,2018_jun_07_0947,testMonitor,
332.4,310.4,322.1,316.8,36,-30,333.1,315.9,313.8,342.3,8.35,8.288,8.087,8.429,8.444,7.813,8.079,4.35,-4.462,-7.749,1.768,-1.258,7.657,4.432,-4.328,-7.584,321.8,322.9,-7.825,338.0,,313.2,347.2,337.1,36,319.0,5,5,prime,10,0,78,norm,36,-4.456,down,norm,327.216381745,316.3,317.8,1.447,322.8,0,330.0,331.5,322.1,10,2,7.996,4.94,1.786,-1.989,-4.735,-7.572,321.1,2,405.2,-8.336,-8.419,-30,-8.276,-7.58,-4.481,-4.84,-5.057,-5.064,4.308,7.994,30,-1.45,1.859,4.802,8.246,-8.083,-7.893,-1.577,1.673,310.3,318.2,330.4,339.8,329.8,325.0,336.6,315.0,307.2,324.7,0,norm,1.39,1.291,-1.309,-1.526,-4.823,-4.583,-1.71,-1.492,-1.62,-2.01,2.004,-1.65,326.5,331.8,-4.865,-8.039,319.9,-1.608,8.056,4.679,-4.319,-7.924,24,4.72,5.04,4.59,5.108,1.238,1.28,1.908,1.462,24,4.649,5.206,-80,351.756705886,norm,0,64,64,64,509.625,509.632,509.63478578,509.635,509.639,509.644,down,1,0.760117729848,9.23988227015,001,005,800_600,Intel(R) Core(TM) i7-2670QM CPU @ 2.20GHz,orientation_search,GRVLAPTOP3,Intel(R) HD Graphics Family,2018_jun_07_0947,testMonitor,
331.7,342.6,311.7,,36,-30,327.4,332.5,332.9,317.3,8.299,7.6,8.249,8.207,8.107,7.557,7.575,5.206,-4.76,-7.837,2.005,-1.672,8.349,5.037,-5.042,-8.273,320.2,318.4,-7.877,322.0,340.9,327.6,337.7,322.9,36,341.6,3,5,prime,10,0,101,norm,36,-4.876,up,norm,327.216381745,334.4,326.7,1.249,332.3,3,321.7,307.2,322.9,10,2,7.661,4.497,1.955,-2.027,-4.764,-7.76,325.9,2,428.2,-7.698,-7.779,-30,-8.422,-8.127,-5.074,-4.553,-5.204,-4.349,4.803,7.647,21,-1.683,1.715,4.838,8.237,-8.484,-8.215,-1.968,1.96,323.0,324.5,323.9,322.3,325.3,332.5,310.1,347.2,331.2,334.2,1,norm,1.637,1.649,-1.575,-1.571,-4.538,-4.322,-1.503,-1.386,-1.788,-1.636,1.386,-1.986,318.9,335.1,-4.416,-8.295,319.7,-1.126,8.437,5.118,-4.784,-7.747,24,5.186,5.068,4.956,4.706,2.076,1.508,1.681,1.407,24,4.918,4.484,-80,351.756705886,norm,0,65,65,65,510.415,510.423,510.425473952,510.426,510.43,510.435,up,1,0.798569516039,9.20143048396,001,005,800_600,Intel(R) Core(TM) i7-2670QM CPU @ 2.20GHz,orientation_search,GRVLAPTOP3,Intel(R) HD Graphics Family,2018_jun_07_0947,testMonitor,
417.4,411.5,408.0,418.3,36,20,406.0,411.7,411.5,413.8,8.475,8.138,7.996,8.131,8.164,7.548,8.474,5.13,-4.906,-7.822,1.132,-1.495,8.004,4.616,-5.128,-8.192,411.8,412.3,-8.118,415.7,415.8,417.6,415.2,409.2,36,419.1,2,5,probe,5,0,118,norm,36,-4.816,down,norm,415.970151003,417.7,416.2,1.647,,2,413.6,415.6,412.8,10,2,8.101,4.719,1.109,-1.44,-5.097,-8.185,411.0,1,298.0,-7.848,-7.925,-30,-8.44,-7.543,-4.351,-4.477,-5.067,-4.613,4.439,7.507,14,-1.306,1.422,5.017,8.483,-7.877,-7.719,-2.094,2.036,425.3,416.4,412.4,421.0,415.0,426.0,418.2,418.4,413.9,421.2,0,norm,1.11,1.21,-1.995,-1.289,-4.851,-4.637,-2.002,-1.254,-1.167,-1.699,1.342,-1.65,419.9,415.8,-4.595,-8.317,411.7,-1.821,7.656,5.115,-4.991,-7.931,25,5.04,4.566,4.643,5.203,1.898,1.615,1.707,1.735,25,5.184,5.111,-30,327.216381745,norm,0,66,66,66,511.245,511.253,511.255151848,511.256,511.26,511.265,down,1,0.918686461394,9.08131353861,001,005,800_600,Intel(R) Core(TM) i7-2670QM CPU @ 2.20GHz,orientation_search,GRVLAPTOP3,Intel(R) HD Graphics Family,2018_jun_07_0947,testMonitor,
239.8,238.4,235.5,218.9,36,0,230.5,230.0,241.2,227.7,8.351,8.255,8.236,8.302,7.735,8.283,7.741,5.202,-4.761,-8.04,1.713,-1.756,7.8,4.464,-5.156,-7.971,241.9,232.9,-8.495,231.5,220.1,228.7,241.0,221.7,36,233.6,3,5,prime,10,0,72,norm,36,-4.624,down,norm,235.191745343,241.6,232.5,1.29,241.4,0,239.1,229.4,240.6,10,6,8.263,4.604,1.359,-1.59,-5.159,-8.091,215.2,6,307.2,-8.126,-7.769,0,-7.957,-7.641,-4.743,-5.158,-5.19,-4.382,4.954,8.299,18,-1.545,1.734,4.59,7.627,-7.978,-8.179,-1.343,2.038,229.7,247.8,233.9,234.2,233.2,242.6,236.3,235.3,219.6,244.6,0,norm,1.635,1.932,-2.043,-1.687,-4.662,-4.93,-1.435,-1.104,-1.773,-1.921,1.263,-1.228,255.2,,-4.832,-7.834,240.5,-1.395,7.672,5.055,-5.243,-7.584,26,4.592,5.233,4.393,4.539,1.604,1.258,1.286,1.666,26,4.326,5.294,20,327.216381745,norm,0,67,67,67,512.194,512.201,512.20359204,512.204,512.208,512.213,down,1,0.92635720633,9.07364279367,001,005,800_600,Intel(R) Core(TM) i7-2670QM CPU @ 2.20GHz,orientation_search,GRVLAPTOP3,Intel(R) HD Graphics Family,2018_jun_07_0947,testMonitor,
247.6,239.6,220.0,234.2,36,0,215.2,238.9,245.3,220.5,8.433,7.869,8.051,8.056,7.984,8.187,8.182,5.188,-4.668,-8.18,1.682,-2.02,7.61,5.209,-4.605,-8.277,229.4,,-8.005,230.2,223.8,242.8,223.0,239.5,36,255.2,5,5,prime,10,0,117,norm,36,-5.147,up,norm,235.191745343,233.5,244.8,1.889,222.6,4,236.2,223.3,227.2,10,6,7.954,5.158,1.551,-1.233,-4.681,-8.103,238.9,6,352.2,-8.031,-7.528,0,-7.87,-8.175,-4.677,-4.343,-4.917,-4.604,4.707,7.83,34,-1.596,2.1,4.793,7.727,-7.925,-7.74,-1.77,1.171,236.1,233.9,229.1,244.6,232.7,226.6,237.8,238.2,233.2,238.8,1,norm,1.501,1.241,-2.084,-1.483,-4.73,-5.212,-1.993,-2.029,-2.015,-2.076,1.159,-1.739,228.4,240.6,-4.911,-7.783,238.3,-1.24,8.343,4.688,-4.334,-8.482,26,4.55,5.162,4.756,4.807,2.069,1.216,1.136,1.513,26,5.256,4.703,20,327.216381745,norm,0,68,68,68,513.151,513.158,513.160735424,513.161,513.165,513.17,up,1,0.845087094965,9.15491290503,001,005,800_600,Intel(R) Core(TM) i7-2670QM CPU @ 2.20GHz,orientation_search,GRVLAPTOP3,Intel(R) HD Graphics Family,2018_jun_07_0947,testMonitor,
248.7,230.7,245.4,243.8,36,0,255.0,215.2,238.1,235.5,8.324,8.034,7.942,7.715,8.356,7.752,7.528,4.907,-5.179,-8.24,1.939,-1.917,8.085,5.076,-5.259,-7.971,237.1,245.6,-8.308,228.4,240.2,243.6,247.8,233.0,36,229.9,0,5,prime,10,0,108,norm,36,-5.173,up,norm,235.191745343,247.5,250.5,2.094,232.6,3,235.3,255.2,239.0,10,6,7.941,4.885,1.354,-1.171,-4.981,-7.762,232.5,6,343.2,-8.436,-7.699,0,-8.476,-7.548,-5.292,-4.874,-4.655,-5.259,4.634,8.288,3,-1.711,2.092,5.277,7.81,-7.943,-8.39,-2.04,1.123,231.8,234.0,,236.8,246.9,238.5,234.3,230.2,238.0,221.5,2,norm,1.545,1.653,-1.636,-1.983,-4.537,-5.126,-1.185,-1.326,-1.653,-1.713,1.915,-1.792,245.4,236.8,-4.357,-8.31,234.4,-1.527,8.063,5.069,-4.838,-8.194,26,4.936,4.876,4.575,4.413,2.006,2.031,1.499,1.974,26,4.771,4.416,20,327.216381745,norm,0,69,69,69,514.026,514.037,514.039099926,514.04,514.044,514.049,up,1,0.933262604523,9.06673739548,001,005,800_600,Intel(R) Core(TM) i7-2670QM CPU @ 2.20GHz,orientation_search,GRVLAPTOP3,Intel(R) HD Graphics Family,2018_jun_07_0947,testMonitor,
225.3,222.2,234.9,228.6,36,0,250.7,237.7,232.4,227.4,7.742,8.458,7.593,8.466,8.247,8.306,8.221,4.525,-4.586,-8.2,1.339,-1.201,7.554,4.69,-4.855,-8.493,239.0,230.0,-7.737,222.1,235.5,252.9,228.1,215.2,36,240.4,2,5,prime,10,0,69,norm,36,-4.578,down,norm,235.191745343,237.4,232.8,1.328,243.2,1,217.8,,241.9,10,6,8.154,5.268,1.163,-1.638,-4.325,-7.53,230.4,6,304.2,-7.874,-7.919,0,-8.326,-8.413,-5.024,-5.271,-4.497,-4.882,4.911,8.192,13,-1.571,1.691,5.102,7.857,-8.09,-8.469,-1.625,1.896,225.4,239.6,227.5,230.4,233.0,229.0,225.4,235.5,227.5,245.2,3,norm,1.424,1.883,-1.107,-1.154,-4.865,-5.279,-2.002,-1.694,-1.321,-1.679,1.792,-1.275,255.2,250.0,-5.272,-7.998,241.5,-1.314,8.499,5.048,-4.947,-7.903,26,4.937,5.089,4.949,4.984,1.369,1.261,1.757,1.849,26,4.894,4.92,20,327.216381745,norm,0,70,70,70,514.993,515.001,515.002940911,515.003,515.007,515.012,down,1,0.80369719913,9.19630280087,001,005,800_600,Intel(R) Core(TM) i7-2670QM CPU @ 2.20GHz,orientation_search,GRVLAPTOP3,Intel(R) HD Graphics Family,2018_jun_07_0947,testMonitor,
231.4,233.6,234.4,231.3,36,0,236.4,245.6,234.3,247.9,7.63,7.736,8.306,8.077,7.969,8.038,7.621,4.455,-4.368,-8.498,1.667,-1.184,7.899,4.57,-4.647,-8.327,255.2,232.5,-8.377,238.3,250.2,224.4,215.2,227.9,36,229.2,0,5,prime,10,0,108,norm,36,-4.625,down,norm,235.191745343,224.3,231.7,1.675,235.0,2,230.6,235.0,240.3,10,6,8.423,4.835,1.356,-1.607,-4.679,-7.851,232.6,6,343.2,-8.251,-7.512,0,-7.666,-8.418,-4.658,-5.207,-5.209,-4.811,4.383,7.677,2,-1.124,1.777,4.989,7.617,-8.097,-7.835,-1.606,1.837,234.0,224.4,241.5,,237.2,245.9,236.2,231.8,250.8,227.1,4,norm,1.223,1.248,-1.908,-2.018,-5.289,-4.828,-2.096,-1.808,-1.81,-1.219,1.68,-1.202,230.0,244.1,-4.677,-7.816,240.6,-1.266,8.173,4.722,-4.679,-7.685,26,4.826,4.449,5.198,4.845,1.35,1.537,2.005,1.793,26,4.7,5.014,20,327.216381745,norm,0,71,71,71,515.828,515.835,515.837592394,515.838,515.842,515.847,up,0,1.07184266451,-10,001,005,800_600,Intel(R) Core(TM) i7-2670QM CPU @ 2.20GHz,orientation_search,GRVLAPTOP3,Intel(R) HD Graphics Family,2018_jun_07_0947,testMonitor,
227.2,227.5,240.0,245.2,36,0,237.1,235.6,235.5,239.3,7.945,7.829,8.183,8.366,8.122,7.688,8.081,4.754,-4.631,-8.315,1.252,-1.6,7.824,4.861,-5.086,-8.36,240.3,230.6,-7.788,,231.2,231.5,246.1,243.8,36,235.8,5,5,prime,10,0,88,norm,36,-4.868,down,norm,235.191745343,230.5,221.3,1.498,226.0,1,245.9,255.2,218.7,10,6,8.234,4.769,1.93,-1.481,-4.599,-8.131,217.8,6,323.2,-8.252,-8.099,0,-8.266,-7.88,-4.333,-4.597,-5.299,-4.884,4.728,7.597,31,-1.393,1.666,4.588,7.749,-8.24,-8.478,-1.366,1.416,240.2,240.8,226.1,245.5,227.7,243.1,247.9,241.3,247.2,226.4,5,norm,1.267,1.897,-1.808,-1.444,-4.813,-4.548,-1.712,-1.181,-1.616,-1.523,2.044,-1.477,234.0,244.7,-4.546,-8.07,232.1,-1.151,8.082,5.115,-4.467,-7.946,26,5.035,4.371,4.706,4.37,1.778,1.13,1.731,1.716,26,4.758,4.619,20,327.216381745,norm,0,72,72,72,517.942,517.95,517.951862538,517.952,517.956,517.961,down,1,0.668954145971,9.33104585403,001,005,800_600,Intel(R) Core(TM) i7-2670QM CPU @ 2.20GHz,orientation_search,GRVLAPTOP3,Intel(R) HD Graphics Family,2018_jun_07_0947,testMonitor,
326.7,335.4,335.8,320.1,36,-20,332.8,339.8,327.4,326.4,8.381,8.492,7.726,8.301,7.578,8.236,7.912,5.198,-5.16,-8.399,1.407,-1.459,8.05,4.878,-4.856,-7.916,333.9,329.6,-8.226,329.2,329.9,327.5,333.2,325.7,36,330.5,1,5,probe,5,0,93,norm,36,-5.102,down,norm,330.052352963,330.9,321.0,1.866,334.4,0,334.1,329.2,334.1,10,6,7.652,5.184,1.92,-1.726,-5.063,-8.496,331.5,2,237.1,-8.253,-8.348,0,-8.23,-7.822,-4.692,-4.799,-5.27,-4.681,4.799,8.062,6,-1.874,2.091,4.781,7.808,-8.436,-8.371,-1.474,1.867,329.4,323.4,326.9,329.5,327.0,329.6,340.1,,333.4,326.8,0,norm,1.263,1.128,-2.052,-1.958,-4.638,-4.407,-1.105,-1.817,-1.587,-1.685,1.439,-1.803,333.2,327.3,-4.733,-7.716,330.4,-1.504,8.362,4.904,-4.502,-8.328,27,5.125,4.69,4.316,4.545,1.935,1.139,1.819,1.279,27,4.594,4.775,0,235.191745343,norm,0,73,73,73,518.641,518.649,518.651340431,518.652,518.656,518.661,down,1,0.916339055611,9.08366094439,001,005,800_600,Intel(R) Core(TM) i7-2670QM CPU @ 2.20GHz,orientation_search,GRVLAPTOP3,Intel(R) HD Graphics Family,2018_jun_07_0947,testMonitor,
325.6,319.0,326.8,333.2,36,-20,327.0,325.1,317.1,329.8,8.043,7.697,7.699,7.851,7.65,8.005,8.44,4.319,-5.054,-7.784,1.96,-1.154,8.249,4.636,-4.506,-8.327,334.6,331.8,-7.757,330.9,329.6,323.6,325.3,326.1,36,328.1,0,5,probe,5,0,90,norm,36,-4.854,down,norm,327.052352963,320.8,325.6,1.338,333.0,1,336.2,325.0,326.2,10,6,8.13,4.817,1.587,-1.849,-5.264,-7.704,333.1,2,237.1,-7.773,-7.787,0,-7.682,-7.742,-5.042,-5.016,-4.865,-4.529,4.608,8.358,1,-1.236,1.3,4.933,7.761,-8.032,-7.726,-1.439,1.968,332.2,331.9,329.6,327.0,,324.6,322.5,337.1,323.1,333.8,1,norm,1.37,1.374,-1.435,-2.091,-4.957,-4.33,-1.162,-1.2,-1.371,-1.115,1.296,-1.768,323.4,333.0,-4.882,-8.4,329.8,-1.615,8.384,4.569,-4.449,-7.569,27,5.121,5.088,4.41,4.925,1.943,1.202,1.303,1.616,27,4.648,4.93,0,235.191745343,norm,0,74,74,74,519.588,519.596,519.597857216,519.598,519.602,519.607,down,1,1.22252351492,8.77747648508,001,005,800_600,Intel(R) Core(TM) i7-2670QM CPU @ 2.20GHz,orientation_search,GRVLAPTOP3,Intel(R) HD Graphics Family,2018_jun_07_0947,testMonitor,
287.7,291.7,287.7,308.9,36,0,305.0,302.4,,309.4,7.946,7.611,7.83,8.481,7.997,7.762,8.414,4.53,-4.91,-8.213,1.85,-1.715,8.359,5.153,-5.19,-8.376,295.0,302.7,-8.131,318.8,289.0,278.8,296.2,314.5,36,300.9,4,5,prime,10,0,97,norm,36,-4.384,up,norm,298.752317044,291.6,314.0,1.714,308.2,4,287.4,297.9,298.4,10,5,8.195,5.077,1.15,-1.462,-5.089,-7.527,303.8,5,395.8,-8.426,-7.561,0,-8.205,-8.425,-5.132,-4.735,-5.239,-4.429,4.348,8.397,28,-1.625,1.419,4.656,7.54,-8.182,-8.422,-1.743,1.436,307.3,290.8,287.8,282.7,303.9,303.8,287.9,294.9,296.6,298.6,0,norm,1.994,2.05,-1.343,-1.803,-4.756,-4.368,-1.584,-1.891,-2.022,-1.376,1.713,-1.44,288.4,301.6,-4.317,-7.675,289.4,-1.25,8.333,5.2,-4.508,-7.896,28,4.486,5.068,4.318,5.283,2.051,1.338,1.118,1.455,28,4.813,4.5,-20,235.191745343,norm,0,75,75,75,520.842,520.849,520.851884159,520.853,520.857,520.862,up,1,0.84238013031,9.15761986969,001,005,800_600,Intel(R) Core(TM) i7-2670QM CPU @ 2.20GHz,orientation_search,GRVLAPTOP3,Intel(R) HD Graphics Family,2018_jun_07_0947,testMonitor,
290.8,290.9,318.8,301.7,36,0,304.9,318.7,314.3,308.9,7.888,8.034,8.079,7.869,7.725,8.143,8.349,4.887,-4.749,-7.654,2.097,-1.927,8.323,5.141,-5.233,-8.467,298.8,290.1,-8.391,291.9,312.9,311.8,295.3,297.6,36,302.3,1,5,prime,10,0,113,norm,36,-4.766,down,norm,298.752317044,294.2,300.6,1.42,281.4,2,302.5,294.4,306.3,10,5,7.519,4.872,2.047,-1.458,-4.313,-8.133,292.7,5,411.8,-7.572,-7.822,0,-7.895,-7.57,-4.56,-4.839,-4.925,-4.399,4.751,8.012,8,-1.297,1.694,4.78,7.872,-8.287,-8.395,-1.73,1.112,278.8,,290.9,312.8,291.4,292.6,315.2,299.7,301.0,295.3,1,norm,1.331,1.294,-1.4,-1.435,-4.861,-4.433,-1.876,-1.385,-1.413,-1.986,1.164,-1.731,301.9,297.6,-5.29,-7.963,305.7,-2.055,7.855,4.753,-5.182,-8.152,28,4.695,4.312,5.207,4.421,1.472,1.52,1.227,1.785,28,4.578,4.736,-20,235.191745343,norm,0,76,76,76,521.715,521.723,521.724953806,521.726,521.729,521.735,down,1,0.90142530071,9.09857469929,001,005,800_600,Intel(R) Core(TM) i7-2670QM CPU @ 2.20GHz,orientation_search,GRVLAPTOP3,Intel(R) HD Graphics Family,2018_jun_07_0947,testMonitor,
304.9,303.0,291.3,311.1,36,0,296.1,289.9,306.8,310.5,8.123,7.621,7.521,8.205,7.998,8.048,7.997,4.796,-4.724,-7.843,1.796,-1.666,8.238,4.705,-5.204,-7.738,292.7,298.2,-8.218,303.2,,284.4,292.5,303.2,36,307.2,5,5,prime,10,0,104,norm,36,-4.461,down,norm,298.752317044,318.8,301.9,1.619,309.3,0,311.4,316.3,292.6,10,5,8.181,4.802,1.141,-1.201,-4.46,-8.23,294.2,5,402.8,-7.663,-8.486,0,-7.521,-8.337,-4.715,-4.787,-4.701,-4.939,5.173,8.355,30,-1.365,1.534,5.014,7.756,-7.526,-7.901,-1.402,1.412,304.8,313.6,293.2,318.1,310.8,305.6,285.4,281.6,278.8,299.0,2,norm,2.044,1.488,-1.156,-2.017,-5.188,-5.298,-1.271,-1.791,-1.133,-1.32,1.106,-2.008,300.2,295.4,-4.341,-8.095,314.4,-1.362,8.402,5.258,-4.945,-8.091,28,4.35,4.373,4.904,4.462,1.487,1.254,1.665,1.948,28,4.695,5.117,-20,235.191745343,norm,0,77,77,77,522.647,522.655,522.657129329,522.658,522.662,522.667,down,1,0.930727014032,9.06927298597,001,005,800_600,Intel(R) Core(TM) i7-2670QM CPU @ 2.20GHz,orientation_search,GRVLAPTOP3,Intel(R) HD Graphics Family,2018_jun_07_0947,testMonitor,
292.5,312.6,,295.7,36,0,286.2,295.2,303.6,302.7,8.489,7.597,8.089,7.789,8.326,8.252,7.882,4.94,-4.384,-7.825,1.81,-1.784,8.255,5.162,-4.963,-8.003,302.6,304.6,-8.266,297.2,309.8,300.2,296.4,290.8,36,299.9,3,5,prime,10,0,71,norm,36,-5.11,down,norm,298.752317044,287.5,311.3,1.256,283.5,2,309.3,278.8,309.2,10,5,8.165,4.999,1.258,-1.718,-4.455,-8.148,311.8,5,369.8,-7.733,-8.466,0,-7.501,-7.797,-4.444,-4.415,-4.717,-4.737,5.295,8.059,20,-1.664,1.618,4.459,8.095,-7.727,-8.086,-1.557,2.0,311.7,307.0,294.7,300.2,295.6,286.3,300.2,308.9,301.6,293.8,3,norm,1.241,1.693,-1.252,-1.859,-5.029,-4.346,-1.756,-1.945,-1.966,-1.902,1.712,-1.734,296.7,310.6,-4.644,-7.924,318.8,-1.186,7.552,4.587,-4.602,-7.598,28,4.878,5.185,4.503,4.949,2.016,1.241,1.405,1.374,28,4.359,5.08,-20,235.191745343,norm,0,78,78,78,523.608,523.616,523.618479085,523.619,523.623,523.628,down,1,1.41250695186,8.58749304814,001,005,800_600,Intel(R) Core(TM) i7-2670QM CPU @ 2.20GHz,orientation_search,GRVLAPTOP3,Intel(R) HD Graphics Family,2018_jun_07_0947,testMonitor,
297.8,285.2,296.0,291.5,36,0,300.6,310.1,297.8,301.9,8.283,7.923,7.848,8.348,7.699,8.219,8.048,5.0,-4.996,-8.178,2.052,-1.933,8.135,4.779,-4.595,-8.1,303.4,291.7,-8.077,292.4,303.4,318.8,289.5,307.4,36,291.0,2,5,prime,10,0,89,norm,36,-4.899,up,norm,298.752317044,296.3,,1.404,300.6,4,312.9,284.6,301.7,10,5,7.531,4.46,1.655,-1.611,-5.017,-7.901,300.0,5,387.8,-7.584,-8.049,0,-8.409,-8.311,-5.078,-5.131,-4.926,-4.87,5.179,8.326,16,-2.099,1.398,4.868,7.634,-8.203,-7.708,-2.036,1.271,286.6,278.8,290.5,313.5,287.8,291.5,306.8,300.2,294.4,300.8,4,norm,1.276,1.418,-1.57,-1.165,-4.584,-4.593,-1.996,-1.128,-1.146,-1.525,2.013,-1.408,298.2,302.3,-4.658,-8.066,304.3,-1.853,7.718,4.648,-4.957,-8.159,28,4.981,4.485,5.107,5.07,1.519,1.497,1.189,1.687,28,4.746,4.922,-20,235.191745343,norm,0,79,79,79,525.052,525.06,525.062005227,525.063,525.066,525.071,up,1,0.939278911686,9.06072108831,001,005,800_600,Intel(R) Core(TM) i7-2670QM CPU @ 2.20GHz,orientation_search,GRVLAPTOP3,Intel(R) HD Graphics Family,2018_jun_07_0947,testMonitor,
392.0,399.8,395.9,400.4,36,-10,393.8,,398.1,399.2,7.968,8.463,8.117,7.524,7.641,7.542,7.559,5.043,-4.583,-7.873,1.611,-1.314,8.385,5.205,-4.72,-8.379,398.1,402.2,-8.455,403.1,401.0,400.1,404.7,396.2,36,402.4,4,5,probe,5,0,99,norm,36,-4.796,down,norm,399.079334555,395.2,398.2,1.336,400.0,1,409.1,394.9,395.3,10,5,8.13,4.343,1.592,-1.736,-5.036,-8.103,402.5,2,300.1,-7.853,-7.503,0,-8.46,-8.03,-4.929,-5.004,-4.857,-5.109,5.228,7.84,25,-1.217,1.435,5.17,7.504,-8.429,-8.146,-1.899,2.002,395.9,402.9,406.1,401.8,398.9,395.9,407.0,395.8,402.8,399.1,0,norm,1.648,1.963,-1.813,-1.524,-4.472,-4.693,-1.344,-2.038,-1.504,-1.168,1.738,-1.439,389.1,392.6,-4.617,-7.684,399.9,-1.298,7.792,5.277,-5.119,-8.157,29,5.165,4.587,4.887,5.276,1.227,1.246,1.875,1.816,29,5.231,4.642,0,298.752317044,norm,0,80,80,80,526.022,526.029,526.031695348,526.032,526.036,526.041,down,1,0.719815849822,9.28018415018,001,005,800_600,Intel(R) Core(TM) i7-2670QM CPU @ 2.20GHz,orientation_search,GRVLAPTOP3,Intel(R) HD Graphics Family,2018_jun_07_0947,testMonitor,
422.8,419.6,415.4,419.8,36,-10,424.2,416.3,407.1,415.5,8.163,8.191,7.506,8.121,8.395,7.647,7.884,4.407,-4.938,-8.475,1.369,-1.726,8.212,5.115,-4.581,-7.936,418.5,409.2,-8.497,420.3,410.4,415.3,417.9,412.6,36,413.7,0,5,probe,5,0,117,norm,36,-4.637,down,norm,417.079334555,422.1,411.4,1.257,415.1,0,416.2,414.7,414.2,10,5,8.482,5.075,1.26,-1.827,-4.301,-7.666,415.7,2,300.1,-8.0,-8.242,0,-7.633,-8.203,-5.085,-4.421,-4.987,-4.309,4.592,8.325,0,-1.772,1.406,4.714,7.524,-7.973,-8.194,-1.352,1.223,418.1,419.2,419.1,423.2,414.1,,416.8,412.1,412.0,413.3,1,norm,1.96,1.681,-1.172,-1.198,-4.728,-4.325,-1.226,-1.554,-1.429,-1.109,1.54,-2.023,416.3,419.6,-4.876,-8.016,427.1,-1.863,8.275,4.628,-5.149,-7.636,29,4.457,5.296,4.477,5.19,1.926,1.921,1.688,1.241,29,4.895,4.497,0,298.752317044,norm,0,81,81,81,526.772,526.78,526.782362283,526.783,526.787,526.792,down,1,0.846434273339,9.15356572666,001,005,800_600,Intel(R) Core(TM) i7-2670QM CPU @ 2.20GHz,orientation_search,GRVLAPTOP3,Intel(R) HD Graphics Family,2018_jun_07_0947,testMonitor,
47.2,52.3,,49.8,36,40,42.7,36.7,40.3,37.7,7.66,7.821,7.579,8.125,8.046,8.337,8.297,4.528,-4.892,-8.143,1.497,-1.92,7.801,4.922,-4.581,-7.65,46.5,55.6,-8.32,48.6,66.3,52.7,49.8,46.9,36,55.3,3,5,prime,10,0,78,norm,36,-4.516,down,norm,49.3877113035,69.4,53.5,1.596,53.4,2,63.6,52.1,35.3,10,6,8.055,4.331,1.452,-1.27,-4.366,-8.211,29.4,6,127.4,-8.317,-7.809,40,-7.582,-8.364,-5.221,-4.709,-4.892,-4.983,5.259,7.663,20,-1.736,1.585,4.951,7.852,-7.772,-7.547,-1.895,1.634,35.2,46.5,56.5,36.7,50.2,38.4,50.8,53.8,51.4,55.3,0,norm,1.68,1.771,-1.358,-1.967,-4.548,-4.956,-1.206,-1.187,-1.96,-1.862,1.242,-1.378,45.7,53.2,-4.491,-8.478,47.4,-1.526,8.191,4.675,-5.045,-8.055,30,4.651,4.476,5.117,4.362,1.179,1.262,1.255,1.381,30,5.09,5.07,-10,298.752317044,norm,0,82,82,82,527.65,527.657,527.659801271,527.66,527.665,527.669,down,1,1.06475048249,8.93524951751,001,005,800_600,Intel(R) Core(TM) i7-2670QM CPU @ 2.20GHz,orientation_search,GRVLAPTOP3,Intel(R) HD Graphics Family,2018_jun_07_0947,testMonitor,
62.9,49.0,68.0,41.4,36,40,29.4,39.7,57.3,34.7,7.645,7.694,7.85,7.777,8.059,8.05,7.908,4.779,-4.421,-7.738,1.25,-1.778,7.685,5.068,-4.638,-8.105,40.9,55.0,-8.076,57.4,60.4,53.4,49.3,47.2,36,43.8,2,5,prime,10,0,62,norm,36,-4.664,up,norm,49.3877113035,48.1,42.9,1.214,58.6,3,45.8,43.4,38.4,10,6,8.355,4.864,1.552,-1.307,-4.594,-7.547,57.2,6,111.4,-8.069,-8.084,40,-8.401,-8.458,-5.282,-5.162,-4.569,-4.746,5.141,7.831,15,-1.368,1.713,5.076,8.453,-7.575,-8.464,-1.534,1.164,44.8,45.0,48.7,35.5,54.0,38.7,69.4,59.6,58.6,40.3,1,norm,1.68,1.395,-1.212,-1.22,-4.741,-4.462,-1.64,-1.564,-1.886,-1.635,1.482,-1.553,51.8,50.6,-5.113,-7.972,,-1.843,7.693,4.622,-4.354,-7.6,30,4.88,4.407,5.051,5.286,1.797,1.273,1.382,1.446,30,5.267,4.329,-10,298.752317044,norm,0,83,83,83,528.745,528.753,528.755341667,528.756,528.76,528.765,up,1,0.938409432957,9.06159056704,001,005,800_600,Intel(R) Core(TM) i7-2670QM CPU @ 2.20GHz,orientation_search,GRVLAPTOP3,Intel(R) HD Graphics Family,2018_jun_07_0947,testMonitor,
39.0,,62.5,53.5,36,40,38.2,56.2,63.2,59.4,7.937,7.803,8.006,7.734,7.891,8.363,8.167,4.525,-5.07,-8.317,1.52,-1.237,7.625,4.42,-4.43,-7.566,29.4,44.5,-8.177,40.5,49.7,31.1,47.3,56.7,36,36.4,3,5,prime,10,0,101,norm,36,-5.11,up,norm,49.3877113035,65.4,59.3,1.46,42.6,5,33.9,60.5,46.2,10,6,7.572,4.914,1.467,-1.494,-5.145,-7.708,40.3,6,150.4,-8.248,-8.064,40,-8.145,-7.826,-5.014,-5.089,-4.874,-5.152,4.449,7.74,23,-1.322,1.757,4.588,7.732,-8.225,-7.859,-1.79,1.737,55.0,55.0,37.0,53.9,51.2,61.8,48.9,61.5,38.3,69.4,2,norm,1.624,1.83,-1.848,-2.088,-4.943,-4.825,-1.555,-1.842,-1.767,-1.724,1.687,-1.281,65.5,36.3,-5.257,-8.071,45.8,-2.032,8.271,4.817,-5.105,-7.811,30,4.38,5.219,4.773,4.64,1.679,1.869,1.755,2.004,30,4.576,4.68,-10,298.752317044,norm,0,84,84,84,529.714,529.723,529.72492859,529.726,529.729,529.735,up,1,2.02804138943,7.97195861057,001,005,800_600,Intel(R) Core(TM) i7-2670QM CPU @ 2.20GHz,orientation_search,GRVLAPTOP3,Intel(R) HD Graphics Family,2018_jun_07_0947,testMonitor,
51.5,39.0,56.4,55.1,36,40,42.3,29.4,59.1,48.4,8.202,8.395,8.155,8.026,8.331,7.714,8.286,5.148,-4.416,-7.627,1.454,-1.599,8.362,4.875,-4.348,-7.767,54.0,49.2,-7.566,64.2,53.3,36.0,66.7,51.3,36,57.6,3,5,prime,10,0,80,norm,36,-4.578,down,norm,49.3877113035,52.5,53.5,1.523,43.3,0,66.5,37.3,60.4,10,6,7.788,4.835,1.257,-1.949,-4.838,-7.663,51.8,6,129.4,-8.245,-7.839,40,-7.899,-8.1,-5.051,-4.377,-4.345,-4.518,5.016,8.332,18,-1.152,1.105,4.768,8.263,-7.702,-8.062,-1.802,1.373,45.3,69.4,40.4,40.4,55.1,60.2,46.2,37.5,50.5,55.1,3,norm,1.67,1.482,-1.435,-1.787,-4.41,-5.092,-1.515,-1.449,-1.522,-1.229,1.131,-1.637,54.2,,-5.097,-7.626,60.7,-1.434,7.542,4.415,-4.408,-7.969,30,5.028,4.524,4.777,4.596,1.424,1.958,1.396,1.197,30,5.294,4.378,-10,298.752317044,norm,0,85,85,85,531.774,531.782,531.784193699,531.785,531.789,531.794,down,1,0.915645620643,9.08435437936,001,005,800_600,Intel(R) Core(TM) i7-2670QM CPU @ 2.20GHz,orientation_search,GRVLAPTOP3,Intel(R) HD Graphics Family,2018_jun_07_0947,testMonitor,
43.2,47.4,43.1,40.9,36,40,65.9,41.9,30.5,46.6,7.968,8.489,7.975,8.053,7.833,7.808,8.248,4.351,-4.75,-7.753,1.277,-2.048,8.117,4.789,-4.596,-8.34,55.2,65.4,-7.849,62.2,43.6,56.8,69.4,36.3,36,49.8,1,5,prime,10,0,115,norm,36,-5.158,down,norm,49.3877113035,36.7,48.2,1.761,36.2,0,46.6,44.3,43.9,10,6,7.622,4.412,1.799,-2.044,-4.736,-7.82,50.9,6,164.4,-7.516,-8.033,40,-8.17,-8.436,-4.908,-4.925,-4.306,-5.236,5.009,8.351,6,-2.062,1.974,5.135,7.673,-8.042,-7.926,-1.34,1.317,34.4,52.3,39.3,31.5,33.5,33.9,45.4,,43.4,51.0,4,norm,1.277,1.139,-1.865,-1.973,-4.995,-4.701,-1.119,-1.923,-1.978,-1.295,2.004,-1.924,49.6,29.4,-4.688,-8.415,38.3,-1.271,8.373,4.648,-4.899,-8.151,30,4.775,4.478,4.586,5.171,1.224,1.97,1.894,1.652,30,4.393,4.874,-10,298.752317044,norm,0,86,86,86,532.72,532.728,532.729813921,532.73,532.734,532.739,down,1,0.911470068124,9.08852993188,001,005,800_600,Intel(R) Core(TM) i7-2670QM CPU @ 2.20GHz,orientation_search,GRVLAPTOP3,Intel(R) HD Graphics Family,2018_jun_07_0947,testMonitor,
49.4,41.1,42.4,37.3,36,40,52.4,59.9,64.1,42.8,8.35,7.753,8.021,7.816,8.19,7.814,7.714,4.472,-4.972,-7.58,1.525,-1.685,7.995,4.343,-5.084,-8.08,59.8,29.6,-8.373,44.9,48.6,51.7,44.3,45.8,36,48.6,3,5,prime,10,0,61,norm,36,-4.759,down,norm,49.3877113035,35.4,59.7,1.749,48.3,0,51.4,40.3,63.4,10,6,8.118,5.247,1.314,-1.5,-5.215,-8.448,69.4,6,110.4,-8.059,-8.176,40,-7.647,-7.62,-4.911,-4.662,-4.702,-4.393,5.095,7.555,18,-1.773,1.854,4.801,8.146,-7.542,-8.071,-1.472,1.639,45.6,29.4,44.8,48.4,51.5,51.5,29.4,58.4,56.3,51.7,5,norm,1.661,1.358,-1.281,-2.08,-4.831,-5.07,-1.784,-1.31,-1.199,-1.168,1.614,-2.017,36.3,,-4.841,-8.026,50.7,-1.677,8.302,4.488,-5.17,-8.332,30,5.238,5.238,4.348,5.262,2.02,1.292,1.617,1.139,30,4.486,5.046,-10,298.752317044,norm,0,87,87,87,533.662,533.67,533.672280299,533.673,533.677,533.682,down,1,0.884134254613,9.11586574539,001,005,800_600,Intel(R) Core(TM) i7-2670QM CPU @ 2.20GHz,orientation_search,GRVLAPTOP3,Intel(R) HD Graphics Family,2018_jun_07_0947,testMonitor,
178.5,181.4,177.7,183.7,36,-60,181.0,177.8,188.6,182.0,7.826,8.471,7.68,8.083,8.001,7.826,8.037,5.214,-5.022,-8.483,1.885,-1.314,8.492,5.058,-4.606,-7.675,189.0,186.8,-8.194,188.4,189.1,182.6,180.0,190.2,36,174.4,2,5,probe,5,0,92,norm,36,-4.945,up,norm,184.38555954,186.6,178.6,1.686,179.0,3,188.4,186.2,174.5,10,6,7.546,4.931,1.473,-1.811,-4.87,-7.692,182.7,1,92.4,-7.999,-7.631,40,-7.594,-8.091,-4.589,-4.559,-5.097,-5.119,4.94,8.381,15,-1.476,1.942,4.472,8.148,-8.094,-7.97,-1.322,1.177,175.2,181.1,180.1,184.1,183.3,189.0,184.5,178.8,184.6,185.0,0,norm,2.038,1.972,-1.529,-1.248,-5.26,-4.725,-1.571,-1.93,-1.448,-1.616,1.917,-1.463,184.9,184.4,-4.429,-8.469,,-1.156,7.775,5.237,-4.934,-8.471,31,4.963,4.525,4.577,5.041,2.016,1.857,1.372,1.944,31,4.493,5.134,40,49.3877113035,norm,0,88,88,88,534.577,534.585,534.587544414,534.588,534.592,534.597,up,1,1.59853103857,8.40146896143,001,005,800_600,Intel(R) Core(TM) i7-2670QM CPU @ 2.20GHz,orientation_search,GRVLAPTOP3,Intel(R) HD Graphics Family,2018_jun_07_0947,testMonitor,
67.7,87.7,80.9,84.6,36,20,61.3,67.8,95.8,89.5,8.064,7.742,7.52,8.101,8.176,8.402,8.478,4.697,-4.633,-7.969,1.321,-1.476,7.948,4.543,-4.793,-7.903,80.4,75.3,-8.167,73.6,86.6,89.0,96.5,74.5,36,92.5,2,5,prime,10,0,70,norm,36,-5.21,down,norm,81.320619692,75.5,81.4,1.269,,2,70.2,73.4,72.2,10,3,7.819,4.522,1.822,-1.886,-4.36,-8.464,101.3,3,151.3,-8.109,-8.104,20,-8.058,-8.257,-5.284,-4.929,-5.261,-4.532,4.84,7.554,14,-1.486,1.589,4.771,8.415,-7.593,-7.74,-1.999,1.752,93.8,84.1,78.1,66.2,77.3,68.9,80.0,96.5,96.3,89.6,0,norm,1.132,1.713,-1.617,-1.818,-4.906,-5.075,-2.032,-1.275,-1.975,-1.438,1.564,-1.759,78.1,83.1,-4.646,-8.392,86.6,-1.69,7.781,5.283,-4.359,-8.063,32,5.038,4.571,4.793,4.777,1.687,1.227,1.327,1.858,32,4.891,5.125,-60,49.3877113035,norm,0,89,89,89,536.207,536.215,536.216796256,536.217,536.221,536.226,down,1,1.36907364093,8.63092635907,001,005,800_600,Intel(R) Core(TM) i7-2670QM CPU @ 2.20GHz,orientation_search,GRVLAPTOP3,Intel(R) HD Graphics Family,2018_jun_07_0947,testMonitor,
88.3,61.5,85.9,88.4,36,20,101.1,80.3,68.7,88.2,8.237,8.025,8.251,7.924,7.512,8.296,8.285,4.641,-4.333,-7.7,1.207,-1.81,7.643,4.672,-4.71,-8.233,86.7,101.3,-8.492,74.8,82.7,90.9,86.0,68.8,36,79.0,2,5,prime,10,0,91,norm,36,-5.229,up,norm,81.320619692,74.0,,1.39,79.3,4,83.8,81.9,86.4,10,3,8.267,4.585,1.594,-1.806,-4.483,-7.961,87.9,3,172.3,-7.986,-7.529,20,-8.169,-7.937,-4.452,-5.038,-5.076,-4.823,4.946,8.194,16,-1.253,1.489,5.222,8.11,-8.036,-7.994,-1.444,1.477,94.7,77.1,97.2,63.4,67.3,93.4,61.3,92.5,86.0,71.6,1,norm,1.258,2.023,-1.372,-1.815,-4.467,-4.325,-1.575,-1.117,-1.521,-1.806,1.555,-1.149,73.6,66.4,-5.102,-8.121,82.9,-1.231,7.903,4.712,-4.612,-8.009,32,4.94,4.678,4.45,4.685,1.673,1.545,1.267,1.988,32,4.423,4.549,-60,49.3877113035,norm,0,90,90,90,537.607,537.615,537.616931114,537.618,537.622,537.627,down,0,1.91922953538,-10,001,005,800_600,Intel(R) Core(TM) i7-2670QM CPU @ 2.20GHz,orientation_search,GRVLAPTOP3,Intel(R) HD Graphics Family,2018_jun_07_0947,testMonitor,
63.0,74.4,71.1,83.4,36,20,81.7,68.5,,70.6,7.688,8.229,7.804,7.576,7.672,7.93,8.416,4.94,-4.444,-8.32,1.395,-1.887,8.477,4.411,-5.078,-8.09,74.7,79.8,-8.409,66.5,91.4,74.5,82.4,92.7,36,64.1,4,5,prime,10,0,119,norm,36,-4.315,up,norm,81.320619692,76.8,82.0,1.545,72.9,4,72.8,61.3,80.3,10,3,7.611,4.54,1.735,-1.992,-4.373,-7.93,81.9,3,200.3,-7.634,-8.086,20,-8.371,-7.972,-5.228,-5.063,-4.778,-5.281,5.188,8.034,28,-1.489,1.166,4.793,7.869,-7.907,-8.109,-1.166,1.693,88.2,79.7,98.8,87.0,88.6,86.5,101.3,95.1,83.6,91.1,2,norm,1.525,1.428,-1.9,-1.759,-4.897,-5.073,-1.598,-1.261,-1.163,-1.241,1.431,-1.949,89.0,90.9,-4.497,-7.805,66.1,-1.526,7.969,5.094,-5.227,-7.786,32,4.313,4.378,4.842,4.362,1.369,1.567,2.002,1.277,32,4.985,4.766,-60,49.3877113035,norm,0,91,91,91,540.562,540.569,540.571519762,540.572,540.576,540.581,up,1,2.13528192451,7.86471807549,001,005,800_600,Intel(R) Core(TM) i7-2670QM CPU @ 2.20GHz,orientation_search,GRVLAPTOP3,Intel(R) HD Graphics Family,2018_jun_07_0947,testMonitor,
218.3,223.0,217.6,218.5,36,80,220.2,222.5,217.8,221.6,8.258,8.189,8.45,8.02,8.074,8.352,7.967,4.841,-5.148,-8.477,1.569,-1.893,8.019,5.095,-5.234,-7.644,226.7,221.2,-8.477,224.5,222.8,221.6,217.5,223.2,36,218.6,0,5,probe,5,0,119,norm,36,-4.677,down,norm,221.300455304,216.4,226.0,1.36,216.0,1,216.7,229.8,228.6,10,3,8.051,5.127,2.077,-1.773,-4.429,-7.771,217.4,2,102.3,-8.267,-8.075,20,-7.639,-7.789,-5.039,-4.661,-5.023,-5.041,4.543,8.285,1,-1.361,1.965,5.175,8.281,-8.101,-7.836,-1.735,1.706,218.6,214.1,227.5,215.4,,224.2,219.1,231.3,211.3,217.8,0,norm,1.356,1.835,-1.766,-1.578,-4.345,-5.031,-1.754,-1.172,-2.035,-1.816,1.557,-1.325,217.5,221.9,-4.728,-8.036,212.4,-1.737,8.363,4.848,-4.612,-7.638,33,4.629,4.509,4.751,4.66,1.84,2.055,2.039,1.672,33,4.605,4.326,20,81.320619692,norm,0,92,92,92,542.727,542.735,542.737461785,542.738,542.742,542.747,down,1,1.10976071591,8.89023928409,001,005,800_600,Intel(R) Core(TM) i7-2670QM CPU @ 2.20GHz,orientation_search,GRVLAPTOP3,Intel(R) HD Graphics Family,2018_jun_07_0947,testMonitor,
187.7,192.2,194.3,175.6,36,80,182.9,190.5,187.7,179.7,7.695,8.029,8.226,7.556,8.17,8.289,7.928,4.782,-4.468,-7.82,1.117,-1.571,7.787,4.509,-4.786,-8.481,185.4,190.2,-8.249,193.1,189.0,177.2,179.2,185.8,36,181.3,0,5,probe,5,0,82,norm,36,-4.895,down,norm,184.300455304,185.3,182.2,1.38,187.4,0,184.3,184.6,180.3,10,3,7.638,4.695,1.904,-1.876,-5.041,-7.612,183.4,2,102.3,-7.625,-8.495,20,-8.348,-7.976,-5.287,-4.728,-4.333,-4.487,4.437,8.265,0,-1.154,1.249,5.121,8.081,-7.563,-7.802,-1.704,1.299,181.6,185.1,188.2,180.0,186.8,,180.2,188.2,181.0,181.4,1,norm,2.035,1.933,-1.379,-1.438,-5.185,-4.404,-1.862,-1.977,-1.991,-2.038,1.823,-1.473,186.6,182.9,-4.914,-7.582,174.3,-2.023,7.981,4.429,-4.964,-8.38,33,4.694,4.678,4.369,4.894,1.435,2.019,1.184,1.607,33,4.583,4.349,20,81.320619692,norm,0,93,93,93,543.868,543.876,543.878120282,543.879,543.883,543.888,down,1,0.988436680048,9.01156331995,001,005,800_600,Intel(R) Core(TM) i7-2670QM CPU @ 2.20GHz,orientation_search,GRVLAPTOP3,Intel(R) HD Graphics Family,2018_jun_07_0947,testMonitor,
304.1,295.9,305.1,306.8,36,-20,309.2,317.3,305.3,297.7,7.906,7.74,8.363,7.707,8.335,8.485,7.574,5.037,-4.577,-7.975,1.285,-1.171,8.292,4.732,-4.999,-8.008,326.9,315.6,-8.194,304.7,287.5,295.6,310.8,310.5,36,302.9,0,5,prime,10,0,89,norm,36,-4.615,down,norm,307.483881842,310.5,300.7,1.591,325.2,0,311.7,305.4,327.5,10,3,8.101,4.951,1.421,-1.743,-5.27,-7.791,326.2,3,396.5,-7.742,-8.072,-20,-7.553,-8.051,-5.226,-5.289,-4.644,-4.414,4.617,7.567,0,-1.776,2.095,4.441,8.394,-8.27,-7.712,-1.309,1.265,300.3,302.3,317.7,294.1,316.6,,309.3,299.8,310.0,321.8,0,norm,1.497,2.067,-1.69,-1.135,-5.216,-4.608,-1.452,-1.916,-1.303,-1.403,1.265,-1.845,300.2,299.1,-4.921,-8.492,295.9,-1.749,8.164,4.514,-4.461,-8.386,34,5.076,4.532,4.428,5.216,1.478,1.476,1.501,1.293,34,5.101,5.069,80,81.320619692,norm,0,94,94,94,544.888,544.895,544.897450541,544.898,544.902,544.907,down,1,1.26461244924,8.73538755076,001,005,800_600,Intel(R) Core(TM) i7-2670QM CPU @ 2.20GHz,orientation_search,GRVLAPTOP3,Intel(R) HD Graphics Family,2018_jun_07_0947,testMonitor,
296.5,307.6,309.5,300.4,36,-20,305.8,307.5,316.1,315.1,7.929,7.972,8.034,7.765,8.418,7.871,8.289,5.204,-5.081,-8.315,2.023,-1.585,8.159,4.789,-4.474,-7.582,309.9,316.0,-7.649,310.0,309.6,305.4,318.4,312.6,36,292.8,1,5,prime,10,0,71,norm,36,-4.798,down,norm,307.483881842,320.8,316.5,1.352,327.5,2,298.1,307.3,306.5,10,3,7.717,4.408,1.437,-1.193,-4.989,-7.924,299.0,3,378.5,-8.118,-8.263,-20,-8.323,-7.777,-4.886,-4.918,-4.913,-4.471,4.764,7.538,8,-1.67,1.501,4.998,8.146,-8.406,-7.798,-1.675,1.367,308.4,,314.1,298.9,308.2,305.8,302.1,317.2,287.5,315.5,1,norm,1.391,1.766,-1.366,-2.057,-4.871,-4.305,-1.134,-1.967,-1.861,-2.081,1.413,-1.489,310.4,321.0,-4.815,-8.318,304.1,-1.591,8.479,4.681,-4.724,-8.15,34,4.417,5.216,5.136,4.444,1.602,1.994,2.084,1.282,34,5.294,4.644,80,81.320619692,norm,0,95,95,95,546.184,546.191,546.194227633,546.195,546.199,546.204,down,1,1.38744896716,8.61255103284,001,005,800_600,Intel(R) Core(TM) i7-2670QM CPU @ 2.20GHz,orientation_search,GRVLAPTOP3,Intel(R) HD Graphics Family,2018_jun_07_0947,testMonitor,
