d_ori_22,d_ori_23,d_ori_20,d_ori_21,set_size,ctpd,d_ori_24,d_ori_25,d_ori_28,d_ori_29,stim_pos_x_30,stim_pos_x_31,stim_pos_x_32,stim_pos_x_33,stim_pos_x_34,stim_pos_x_35,stim_pos_y_11,stim_pos_y_10,stim_pos_y_13,stim_pos_y_12,stim_pos_y_15,stim_pos_y_14,stim_pos_y_17,stim_pos_y_16,stim_pos_y_19,stim_pos_y_18,d_ori_35,d_ori_34,stim_pos_x_3,d_ori_31,d_ori_30,d_ori_33,d_ori_32,d_ori_26,test_set_size,d_ori_27,targetCol,dsd_test,seq_type,dsd,blockRepN,targetDist,dtype_test,prime_set_size,stim_pos_y_25,correctResponse,dtype,distrMean,d_ori_17,d_ori_16,stim_pos_y_3,d_ori_14,targetRow,d_ori_11,d_ori_13,d_ori_12,dsd_prime,streak_length_prime,stim_pos_y_35,stim_pos_y_34,stim_pos_y_33,stim_pos_y_32,stim_pos_y_31,stim_pos_y_30,d_ori_10,nextProbe,targetOri,stim_pos_x_1,stim_pos_x_2,ctpd_prime,stim_pos_x_4,stim_pos_x_5,stim_pos_x_6,stim_pos_x_7,stim_pos_x_8,stim_pos_x_9,stim_pos_y_28,stim_pos_y_29,targetPos,stim_pos_y_20,stim_pos_y_21,stim_pos_y_22,stim_pos_y_23,stim_pos_y_24,stim_pos_x_0,stim_pos_y_26,stim_pos_y_27,d_ori_9,d_ori_8,d_ori_3,d_ori_2,d_ori_1,d_ori_0,d_ori_7,d_ori_6,d_ori_5,d_ori_4,trialN,dtype_prime,stim_pos_x_18,stim_pos_x_19,stim_pos_x_12,stim_pos_x_13,stim_pos_x_10,stim_pos_x_11,stim_pos_x_16,stim_pos_x_17,stim_pos_x_14,stim_pos_x_15,stim_pos_y_9,stim_pos_y_8,d_ori_19,d_ori_18,stim_pos_y_1,stim_pos_y_0,d_ori_15,stim_pos_y_2,stim_pos_y_5,stim_pos_y_4,stim_pos_y_7,stim_pos_y_6,totBlockN,stim_pos_x_27,stim_pos_x_26,stim_pos_x_25,stim_pos_x_24,stim_pos_x_23,stim_pos_x_22,stim_pos_x_21,stim_pos_x_20,blockN,stim_pos_x_29,stim_pos_x_28,prevDistrCTPD,prevDistrMean,prevDistrType,trials.thisRepN,trials.thisTrialN,trials.thisN,trials.thisIndex,timeStart,timeBeforeDraw,timeDraw,timeAfterSaving,timeAfterWritingToTemp,timeAfterPreparingNext,answer,correct,rt,trialScore,session,participant,resolution,cpu_info,expName,pc_name,graphic_card,date,monitorName,
97.7,65.2,74.8,48.5,36,30,74.1,62.2,96.5,82.6,8.192,8.392,8.083,7.738,8.103,7.988,8.097,5.189,-5.138,-7.809,1.714,-1.229,8.11,4.755,-4.473,-7.915,68.9,73.2,-7.507,54.0,82.0,37.7,71.5,69.4,36,64.0,0,10,prime,15,0,118,norm,36,-4.314,down,norm,67.6589420896,61.6,79.6,1.93,78.5,1,50.3,85.3,45.8,15,3,8.37,4.42,1.868,-2.02,-5.209,-8.442,55.0,3,185.7,-7.582,-8.284,30,-8.179,-8.142,-4.773,-4.418,-5.279,-4.519,5.068,8.432,1,-1.834,1.871,4.824,8.459,-7.525,-8.337,-1.821,1.371,70.0,85.2,47.7,70.3,,58.7,78.1,57.4,53.9,67.2,0,norm,1.821,1.125,-1.321,-1.911,-4.845,-4.617,-1.487,-1.117,-1.412,-1.516,1.428,-1.785,46.2,47.1,-5.193,-7.836,87.6,-1.422,8.272,4.461,-4.361,-7.827,0,5.082,4.852,4.648,4.37,1.136,1.668,1.273,1.213,0,4.616,5.12,,,,0,0,0,0,353.183,353.194,353.201725135,353.202,353.202,353.206,down,1,2.1660695032,-2.0,001,002,800_600,Intel(R) Core(TM) i7-2670QM CPU @ 2.20GHz,orientation_search,GRVLAPTOP3,Intel(R) HD Graphics Family,2018_mei_31_1414,testMonitor,
76.6,52.4,40.3,51.7,36,30,41.6,63.6,77.7,56.8,7.788,7.978,7.54,7.583,7.617,8.136,8.472,4.713,-4.362,-7.855,2.084,-1.181,7.903,4.549,-4.409,-8.3,78.7,53.0,-8.343,64.5,41.3,56.3,73.0,57.6,36,50.3,2,10,prime,15,0,106,norm,36,-4.348,up,norm,67.6589420896,71.7,,2.1,67.9,4,64.7,65.8,55.2,15,3,8.111,4.534,1.369,-1.614,-5.086,-7.682,50.1,3,173.7,-7.878,-8.312,30,-7.762,-8.405,-4.799,-4.412,-5.119,-4.976,4.385,7.82,16,-1.774,1.83,4.5,8.418,-8.271,-8.353,-2.076,1.895,70.9,56.9,69.7,54.5,97.7,61.1,55.0,50.6,49.8,84.3,1,norm,1.228,1.356,-1.345,-2.076,-5.272,-4.719,-1.853,-1.5,-1.555,-1.7,1.685,-1.226,70.4,80.5,-4.471,-8.396,37.7,-1.118,7.519,4.383,-4.797,-7.936,0,4.325,5.113,4.598,4.865,1.971,1.347,2.04,1.896,0,5.273,4.45,,,,0,1,1,1,355.385,355.392,355.394208207,355.395,355.397,355.402,up,1,3.20669825492,-12.0,001,002,800_600,Intel(R) Core(TM) i7-2670QM CPU @ 2.20GHz,orientation_search,GRVLAPTOP3,Intel(R) HD Graphics Family,2018_mei_31_1414,testMonitor,
58.8,79.1,52.4,84.7,36,30,65.3,57.2,77.6,54.9,8.454,8.385,7.528,8.228,8.375,8.445,8.036,4.6,-4.375,-8.385,1.711,-2.025,7.806,4.333,-4.48,-8.131,64.6,92.3,-8.063,59.3,,78.6,75.4,59.1,36,37.7,5,10,prime,15,0,69,norm,36,-4.663,down,norm,67.6589420896,71.0,67.3,1.623,83.0,0,82.9,66.5,90.3,15,3,8.146,5.01,1.308,-1.481,-4.795,-8.211,66.7,3,136.7,-8.377,-8.244,30,-8.242,-8.052,-4.973,-4.72,-4.88,-4.948,5.23,7.823,30,-1.672,1.854,4.435,7.554,-8.315,-8.207,-1.302,1.753,82.2,74.4,54.2,58.6,88.7,81.1,73.3,50.7,50.0,55.4,2,norm,1.864,1.576,-1.975,-1.934,-4.744,-5.207,-2.073,-1.164,-1.318,-1.372,1.121,-1.712,52.0,71.0,-4.463,-8.152,97.7,-1.388,8.306,5.277,-4.634,-7.62,0,5.115,4.52,4.642,4.361,1.428,1.886,1.372,1.59,0,5.128,4.695,,,,0,2,2,2,358.62,358.629,358.63143301,358.632,358.636,358.642,down,1,2.8550230608,-9.0,001,002,800_600,Intel(R) Core(TM) i7-2670QM CPU @ 2.20GHz,orientation_search,GRVLAPTOP3,Intel(R) HD Graphics Family,2018_mei_31_1414,testMonitor,
183.2,166.4,161.9,189.5,36,-80,164.1,177.8,,169.9,8.349,8.148,8.238,7.887,8.139,7.801,7.948,4.813,-5.119,-7.811,1.635,-1.965,8.009,4.404,-4.331,-7.952,165.3,165.8,-8.437,174.8,180.8,162.0,156.1,159.0,36,180.0,4,10,probe,10,0,69,norm,36,-4.926,up,norm,169.508270299,168.5,159.6,1.264,165.5,4,164.6,149.5,189.3,15,3,7.971,4.941,1.892,-1.893,-4.725,-8.449,169.7,1,100.5,-8.463,-7.896,30,-7.907,-8.005,-4.381,-4.562,-5.182,-4.641,4.735,7.913,28,-1.842,1.287,4.398,8.256,-8.415,-7.61,-1.715,1.952,149.8,166.4,161.4,173.0,162.6,173.5,163.0,174.4,165.8,172.6,0,norm,1.706,1.254,-1.569,-1.394,-5.202,-4.793,-1.778,-1.728,-1.26,-1.866,1.819,-2.049,168.1,175.6,-4.961,-8.396,169.1,-2.098,7.927,5.084,-5.269,-8.238,1,4.527,4.443,5.135,4.534,2.093,1.979,2.013,1.191,1,4.892,5.146,30,67.6589420896,norm,0,3,3,3,361.509,361.517,361.519108219,361.52,361.524,361.529,up,1,2.52573904525,-5.0,001,002,800_600,Intel(R) Core(TM) i7-2670QM CPU @ 2.20GHz,orientation_search,GRVLAPTOP3,Intel(R) HD Graphics Family,2018_mei_31_1414,testMonitor,
105.5,102.1,96.9,116.7,36,60,125.3,82.1,118.4,127.6,7.689,7.553,8.363,8.103,7.989,8.418,8.252,4.452,-5.064,-8.369,1.959,-1.645,7.966,5.202,-4.643,-7.703,124.8,101.4,-7.976,133.8,106.6,84.1,84.2,,36,134.7,4,10,prime,15,0,64,norm,36,-4.401,down,norm,104.667658115,102.5,127.8,1.69,94.3,2,121.6,111.5,124.5,15,2,7.802,4.331,1.311,-1.805,-5.03,-8.431,124.7,2,168.7,-7.544,-8.412,60,-8.342,-7.77,-5.086,-5.153,-5.004,-5.243,4.577,7.629,26,-1.491,1.656,4.306,7.759,-8.02,-7.701,-1.643,1.501,74.7,91.6,126.3,111.8,102.5,105.1,103.5,113.0,95.8,120.0,0,norm,1.981,1.448,-1.429,-1.329,-5.193,-4.493,-1.199,-1.759,-1.664,-2.008,1.385,-1.363,90.7,95.3,-4.709,-8.272,104.3,-1.724,7.846,4.738,-4.501,-7.976,2,4.615,4.885,4.79,4.841,1.513,1.168,2.097,1.661,2,4.377,4.458,-80,67.6589420896,norm,0,4,4,4,364.066,364.073,364.074910122,364.075,364.079,364.084,down,1,3.31196448492,-13.0,001,002,800_600,Intel(R) Core(TM) i7-2670QM CPU @ 2.20GHz,orientation_search,GRVLAPTOP3,Intel(R) HD Graphics Family,2018_mei_31_1414,testMonitor,
117.6,117.0,,96.8,36,60,86.0,127.4,118.7,102.9,7.54,8.482,8.395,7.91,8.021,7.817,8.145,4.737,-4.745,-8.261,1.138,-1.467,7.773,5.031,-4.476,-8.277,93.8,93.6,-8.429,130.6,96.2,107.3,106.8,113.9,36,74.7,3,10,prime,15,0,118,norm,36,-4.591,down,norm,104.667658115,116.4,112.5,1.581,95.8,2,119.3,85.3,93.9,15,2,7.795,5.014,1.839,-1.484,-4.606,-8.372,115.7,2,222.7,-8.3,-7.718,60,-8.228,-8.137,-4.45,-4.318,-4.79,-4.55,4.919,8.354,20,-1.187,2.03,5.009,7.676,-7.557,-7.737,-1.368,1.748,122.8,105.2,119.9,88.7,95.6,111.4,92.1,108.9,126.4,96.5,1,norm,1.718,1.289,-1.833,-1.47,-4.536,-4.436,-2.093,-1.479,-1.633,-1.664,1.54,-1.938,114.8,134.7,-5.145,-8.444,75.1,-1.397,8.413,5.171,-4.752,-7.959,2,4.834,4.721,5.11,4.614,1.641,1.881,2.045,1.998,2,4.744,5.014,-80,67.6589420896,norm,0,5,5,5,367.407,367.415,367.416977156,367.418,367.422,367.427,up,0,5.63097025327,-46.0,001,002,800_600,Intel(R) Core(TM) i7-2670QM CPU @ 2.20GHz,orientation_search,GRVLAPTOP3,Intel(R) HD Graphics Family,2018_mei_31_1414,testMonitor,
240.4,250.7,259.7,251.8,36,30,254.9,252.9,241.2,265.4,8.438,7.836,7.641,7.822,8.309,7.934,7.601,5.124,-4.38,-7.961,1.742,-1.634,8.445,4.771,-4.928,-7.672,255.0,251.7,-7.628,263.2,252.2,244.9,257.8,241.7,36,255.1,0,10,probe,10,0,81,norm,36,-4.526,down,norm,254.241260174,266.1,240.7,1.265,258.0,2,236.5,254.4,251.4,15,2,7.668,5.179,1.366,-1.634,-5.093,-7.645,274.2,2,173.2,-7.557,-8.189,60,-7.516,-7.924,-4.952,-4.369,-4.392,-4.781,4.573,8.326,2,-1.174,1.446,4.459,8.437,-7.539,-8.443,-1.199,1.875,253.9,250.2,234.2,,255.5,260.1,264.3,251.5,247.7,260.4,0,norm,1.233,1.236,-1.892,-2.004,-4.358,-4.805,-2.049,-2.03,-1.184,-1.84,1.293,-2.083,248.0,255.0,-5.259,-7.753,260.4,-1.356,8.035,4.431,-4.957,-7.53,3,4.768,5.224,4.582,4.719,2.042,1.139,1.247,1.896,3,5.253,4.496,60,104.667658115,norm,0,6,6,6,374.079,374.086,374.088450082,374.089,374.092,374.097,down,1,1.58418744131,4.0,001,002,800_600,Intel(R) Core(TM) i7-2670QM CPU @ 2.20GHz,orientation_search,GRVLAPTOP3,Intel(R) HD Graphics Family,2018_mei_31_1414,testMonitor,
245.8,237.5,241.1,248.2,36,30,249.0,228.2,247.1,268.2,7.535,8.278,8.247,8.449,8.26,7.844,7.593,4.643,-5.044,-7.946,2.009,-1.808,8.431,5.263,-4.351,-8.142,247.1,244.7,-7.636,265.0,238.5,244.3,254.3,262.2,36,249.6,2,10,probe,10,0,75,norm,36,-4.592,up,norm,248.241260174,,258.5,1.793,244.1,5,249.9,257.2,252.4,15,2,7.547,5.165,1.334,-1.601,-4.688,-8.482,242.9,2,173.2,-8.355,-7.806,60,-8.244,-8.341,-5.105,-5.077,-4.523,-5.269,4.869,8.107,17,-1.381,1.517,4.64,7.754,-7.746,-8.344,-1.814,1.831,253.8,244.0,244.6,237.8,253.2,243.2,258.2,235.8,255.6,248.8,1,norm,2.096,1.961,-2.093,-1.795,-5.216,-5.219,-2.02,-1.7,-1.525,-2.053,1.818,-1.363,252.9,261.5,-4.908,-7.541,262.6,-1.85,8.115,5.278,-4.655,-8.228,3,5.266,5.043,5.233,4.412,1.171,1.756,1.184,1.999,3,4.641,5.031,60,104.667658115,norm,0,7,7,7,375.694,375.701,375.703345252,375.704,375.707,375.712,up,1,1.2657298835,7.0,001,002,800_600,Intel(R) Core(TM) i7-2670QM CPU @ 2.20GHz,orientation_search,GRVLAPTOP3,Intel(R) HD Graphics Family,2018_mei_31_1414,testMonitor,
40.1,33.6,37.2,0.7,36,-30,36.0,35.1,30.6,37.8,7.728,8.37,8.477,8.48,8.497,8.444,8.009,5.102,-4.685,-7.799,1.436,-1.683,8.102,4.307,-4.988,-8.342,46.1,9.6,-8.021,28.5,15.8,1.5,25.7,60.7,36,37.8,0,10,prime,15,0,70,norm,36,-5.114,up,norm,30.7350232584,48.0,35.5,1.451,50.0,5,46.2,38.9,18.7,15,3,8.301,5.184,1.783,-1.231,-5.075,-7.534,30.4,3,100.7,-7.826,-7.825,-30,-8.401,-7.709,-4.559,-4.355,-5.14,-5.278,4.726,7.74,5,-1.856,1.108,4.474,8.473,-7.992,-8.175,-1.526,1.223,41.4,32.8,18.5,24.3,28.6,56.2,25.1,37.9,,15.8,0,norm,1.681,1.668,-2.031,-1.363,-5.154,-4.324,-1.284,-1.631,-1.378,-1.825,1.366,-1.687,29.3,32.9,-5.168,-7.972,52.0,-1.198,7.745,5.003,-4.513,-7.877,4,4.469,4.851,4.985,4.748,1.879,1.312,2.0,1.313,4,4.902,5.072,30,104.667658115,norm,0,8,8,8,376.986,376.992,376.993646081,376.994,376.998,377.001,up,1,1.79021981188,2.0,001,002,800_600,Intel(R) Core(TM) i7-2670QM CPU @ 2.20GHz,orientation_search,GRVLAPTOP3,Intel(R) HD Graphics Family,2018_mei_31_1414,testMonitor,
19.1,,59.5,9.1,36,-30,33.3,16.3,39.3,18.8,8.205,8.161,8.24,8.041,8.377,7.631,8.358,4.644,-4.401,-7.766,1.64,-1.789,8.182,5.292,-4.607,-8.1,19.1,10.3,-8.31,43.2,27.3,27.1,42.4,28.2,36,48.6,3,10,prime,15,0,95,norm,36,-5.3,up,norm,30.7350232584,32.5,0.7,1.946,22.6,5,11.9,28.3,19.5,15,3,7.635,4.357,1.34,-1.34,-4.619,-8.399,53.0,3,125.7,-8.375,-7.529,-30,-8.449,-8.226,-4.352,-5.267,-4.555,-4.602,5.193,7.674,23,-1.852,1.514,5.285,8.175,-7.51,-7.619,-2.005,1.989,56.6,15.9,59.5,13.5,18.4,27.7,38.9,26.0,33.9,32.1,1,norm,1.332,1.319,-2.086,-1.341,-4.743,-4.33,-1.194,-1.689,-1.464,-1.908,1.356,-1.32,60.7,14.1,-4.494,-7.772,23.0,-2.075,7.505,4.75,-4.603,-7.969,4,4.352,4.382,4.867,5.075,1.189,1.452,1.923,1.693,4,4.804,4.615,30,104.667658115,norm,0,9,9,9,378.802,378.81,378.811793344,378.812,378.816,378.821,up,1,1.13216216759,9.0,001,002,800_600,Intel(R) Core(TM) i7-2670QM CPU @ 2.20GHz,orientation_search,GRVLAPTOP3,Intel(R) HD Graphics Family,2018_mei_31_1414,testMonitor,
31.9,12.4,28.3,47.2,36,-30,29.2,41.8,29.6,25.4,8.411,7.785,7.989,8.203,7.87,8.161,7.617,4.908,-4.885,-7.742,1.461,-1.537,7.765,4.953,-5.227,-7.546,35.8,52.4,-8.308,30.6,24.7,18.3,41.5,34.4,36,23.3,0,10,prime,15,0,117,norm,36,-4.688,up,norm,30.7350232584,28.1,46.0,1.572,25.1,4,32.1,0.7,30.3,15,3,8.079,5.06,1.968,-1.865,-5.164,-7.689,17.8,3,147.7,-8.336,-7.695,-30,-7.689,-7.741,-4.917,-5.208,-4.321,-4.417,5.04,8.463,4,-1.478,1.268,5.209,7.758,-8.028,-7.969,-1.52,1.834,7.7,60.7,22.4,32.3,37.3,39.7,45.0,29.5,48.6,,2,norm,1.399,1.279,-1.322,-1.665,-4.647,-4.562,-1.222,-1.887,-1.905,-1.639,1.756,-1.569,37.1,26.6,-4.728,-7.974,45.2,-1.414,7.892,5.033,-4.465,-8.47,4,5.237,5.291,4.439,4.531,2.045,1.551,1.371,1.885,4,5.022,4.44,30,104.667658115,norm,0,10,10,10,379.965,379.972,379.974952755,379.976,379.98,379.985,up,1,1.10836170502,9.0,001,002,800_600,Intel(R) Core(TM) i7-2670QM CPU @ 2.20GHz,orientation_search,GRVLAPTOP3,Intel(R) HD Graphics Family,2018_mei_31_1414,testMonitor,
82.1,90.1,94.7,82.3,36,40,89.2,87.6,85.2,104.1,8.364,7.886,7.561,7.93,7.775,8.154,7.697,4.878,-4.346,-8.491,1.545,-1.27,7.73,4.391,-4.824,-7.519,105.7,98.3,-8.401,106.2,84.7,78.4,,111.2,36,86.7,5,10,probe,10,0,95,norm,36,-4.879,down,norm,92.0368663885,99.0,98.8,1.128,97.7,2,94.7,84.7,92.1,15,3,8.395,5.151,1.959,-1.602,-4.822,-8.254,82.7,1,-3.0,-8.178,-8.3,-30,-7.538,-7.547,-5.264,-5.281,-5.276,-4.732,4.649,8.322,32,-1.32,1.311,4.333,7.851,-7.984,-7.824,-1.948,1.438,88.7,81.8,104.6,98.9,72.0,93.0,80.6,81.2,112.0,99.3,0,norm,1.152,1.223,-1.896,-1.189,-4.844,-4.8,-1.747,-1.499,-1.739,-1.993,2.058,-2.006,81.2,90.6,-4.997,-8.208,90.1,-1.584,7.988,4.535,-4.669,-7.893,5,4.665,5.102,4.474,4.9,1.952,1.362,1.394,1.772,5,5.264,4.886,-30,30.7350232584,norm,0,11,11,11,381.098,381.107,381.108781969,381.109,381.114,381.12,down,1,1.7787769675,2.0,001,002,800_600,Intel(R) Core(TM) i7-2670QM CPU @ 2.20GHz,orientation_search,GRVLAPTOP3,Intel(R) HD Graphics Family,2018_mei_31_1414,testMonitor,
216.0,227.9,229.4,256.0,36,10,240.6,231.8,216.6,217.1,7.882,8.411,8.216,8.084,8.234,8.011,7.719,4.896,-4.43,-7.969,1.16,-1.487,8.003,4.614,-5.175,-7.69,234.4,250.6,-7.825,238.1,267.2,244.1,234.7,212.9,36,217.9,2,10,prime,15,0,70,norm,36,-4.527,up,norm,237.185710133,255.4,241.6,1.688,246.6,3,229.1,247.2,233.4,15,3,7.601,4.33,1.805,-1.184,-5.045,-8.186,254.0,3,307.2,-7.65,-7.748,10,-8.222,-8.209,-4.511,-5.132,-4.711,-4.944,5.163,7.633,15,-1.909,1.644,4.372,8.442,-7.715,-7.751,-1.625,1.759,254.7,207.2,219.8,246.9,229.3,231.5,225.6,260.1,248.5,221.1,0,norm,1.973,1.227,-1.264,-1.713,-4.561,-5.227,-1.53,-1.151,-1.738,-1.288,1.386,-1.728,257.0,236.4,-4.791,-7.582,,-1.848,8.232,4.864,-4.938,-8.06,6,4.625,5.132,4.807,5.293,1.16,1.588,1.829,2.097,6,5.048,4.822,40,30.7350232584,norm,0,12,12,12,382.91,382.919,382.920984369,382.922,382.926,382.931,up,1,2.63504727732,-6.0,001,002,800_600,Intel(R) Core(TM) i7-2670QM CPU @ 2.20GHz,orientation_search,GRVLAPTOP3,Intel(R) HD Graphics Family,2018_mei_31_1414,testMonitor,
226.7,229.6,243.6,229.6,36,10,267.2,217.4,209.4,249.0,8.048,7.663,8.276,8.388,8.25,8.433,7.697,5.224,-5.053,-8.354,1.91,-1.112,7.783,5.081,-4.508,-8.3,238.4,253.1,-7.907,249.3,223.4,247.3,233.6,233.7,36,257.1,2,10,prime,15,0,95,norm,36,-4.483,down,norm,237.185710133,236.9,237.5,1.588,249.6,0,259.7,225.4,,15,3,8.491,4.631,1.424,-1.154,-4.371,-7.509,231.3,3,332.2,-7.811,-7.96,10,-7.863,-7.668,-4.737,-4.556,-4.408,-4.876,5.159,7.893,12,-1.138,1.144,4.893,8.287,-8.396,-8.08,-1.563,1.256,239.5,230.2,221.0,245.5,240.4,235.8,239.4,224.9,247.9,250.5,1,norm,1.728,1.474,-1.605,-1.947,-4.47,-4.48,-1.684,-1.114,-1.521,-1.501,1.994,-1.6,244.0,239.3,-4.374,-8.467,207.2,-2.075,7.785,4.764,-4.331,-8.476,6,5.221,4.637,4.549,4.545,1.318,1.557,1.216,1.575,6,5.142,4.836,40,30.7350232584,norm,0,13,13,13,385.578,385.586,385.587850272,385.588,385.593,385.598,down,1,1.24448555764,8.0,001,002,800_600,Intel(R) Core(TM) i7-2670QM CPU @ 2.20GHz,orientation_search,GRVLAPTOP3,Intel(R) HD Graphics Family,2018_mei_31_1414,testMonitor,
263.0,242.4,244.6,254.8,36,10,238.0,249.7,232.1,265.2,8.489,7.544,7.677,8.331,8.176,7.524,7.723,4.417,-5.056,-7.564,1.86,-1.642,8.076,4.725,-5.234,-7.69,254.7,244.7,-8.325,231.4,225.4,246.8,238.2,241.9,36,237.5,2,10,prime,15,0,108,norm,36,-4.529,down,norm,237.185710133,241.1,216.7,1.594,,2,207.2,228.4,223.6,15,3,7.848,4.871,1.791,-1.369,-4.844,-8.094,239.9,3,345.2,-7.997,-7.757,10,-7.622,-7.947,-4.894,-5.084,-5.164,-4.835,4.782,8.432,14,-1.902,1.649,5.054,7.818,-8.28,-7.656,-1.419,1.73,242.8,237.4,259.1,231.3,256.0,267.2,212.9,237.4,240.7,235.6,2,norm,1.866,1.953,-1.231,-2.036,-5.258,-4.347,-1.757,-1.213,-1.684,-1.753,1.843,-1.695,241.9,258.8,-4.775,-8.355,249.6,-1.503,7.714,4.633,-4.939,-7.684,6,5.106,4.516,5.133,4.549,1.171,2.041,1.379,1.806,6,4.972,4.972,40,30.7350232584,norm,0,14,14,14,386.854,386.863,386.865325123,386.866,386.87,386.875,down,1,1.84779732834,2.0,001,002,800_600,Intel(R) Core(TM) i7-2670QM CPU @ 2.20GHz,orientation_search,GRVLAPTOP3,Intel(R) HD Graphics Family,2018_mei_31_1414,testMonitor,
345.5,377.6,362.3,362.3,36,-80,371.6,367.0,364.2,356.6,8.266,8.252,7.805,8.422,7.656,8.054,8.073,5.286,-5.083,-7.662,2.013,-1.766,8.034,4.536,-4.971,-7.758,358.8,354.8,-8.399,343.1,366.4,366.8,373.2,362.7,36,368.1,2,10,probe,10,0,119,norm,36,-4.97,up,norm,363.13257205,379.8,,2.07,360.7,4,352.6,377.9,359.6,15,3,8.419,4.84,1.547,-1.66,-4.916,-8.145,374.6,2,244.1,-8.5,-7.8,10,-7.556,-7.867,-4.44,-4.476,-4.714,-4.313,5.058,8.156,16,-1.81,1.894,4.703,7.784,-7.964,-7.503,-1.664,1.51,378.9,359.1,382.1,366.9,383.1,359.7,364.7,358.5,374.2,375.1,0,norm,1.909,1.445,-1.752,-1.405,-5.257,-4.767,-1.975,-1.984,-1.563,-2.093,1.67,-1.187,362.0,360.2,-4.983,-8.39,377.1,-1.304,7.878,4.511,-4.766,-8.004,7,4.971,4.631,4.321,4.38,1.847,1.488,1.298,1.596,7,4.799,4.954,10,237.185710133,norm,0,15,15,15,388.734,388.742,388.74435084,388.745,388.749,388.754,up,1,1.4635825232,5.0,001,002,800_600,Intel(R) Core(TM) i7-2670QM CPU @ 2.20GHz,orientation_search,GRVLAPTOP3,Intel(R) HD Graphics Family,2018_mei_31_1414,testMonitor,
343.4,334.6,355.0,336.3,36,-80,331.2,342.8,362.1,347.2,8.394,8.018,8.419,7.934,7.638,7.826,8.423,4.734,-5.287,-8.37,1.164,-1.849,8.48,4.347,-4.483,-8.219,347.6,353.8,-8.019,354.1,346.5,326.8,331.5,331.6,36,357.6,2,10,probe,10,0,98,norm,36,-4.992,down,norm,342.13257205,338.5,353.0,1.812,334.2,0,343.8,339.6,,15,3,8.366,5.022,1.432,-1.842,-4.72,-8.347,348.9,2,244.1,-7.91,-8.373,10,-8.391,-8.027,-5.202,-4.656,-4.761,-4.316,4.933,7.508,12,-1.491,1.788,5.225,7.953,-8.412,-7.962,-1.271,1.423,344.2,361.4,342.1,330.7,343.2,353.6,350.8,342.9,338.3,357.7,1,norm,1.879,1.206,-1.879,-1.673,-4.625,-5.115,-1.541,-1.289,-1.941,-1.661,2.054,-1.428,329.1,326.6,-4.805,-8.176,322.1,-1.364,8.472,4.579,-4.825,-8.304,7,4.895,4.927,4.313,4.839,1.782,1.5,1.155,2.052,7,4.651,4.873,10,237.185710133,norm,0,16,16,16,390.227,390.234,390.236027986,390.237,390.24,390.245,down,1,2.05826908359,-1.0,001,002,800_600,Intel(R) Core(TM) i7-2670QM CPU @ 2.20GHz,orientation_search,GRVLAPTOP3,Intel(R) HD Graphics Family,2018_mei_31_1414,testMonitor,
147.2,123.6,133.3,160.3,36,-10,141.6,143.2,149.0,169.6,8.019,7.555,7.788,7.802,8.498,8.02,7.765,5.075,-4.38,-8.337,1.355,-1.129,8.407,4.724,-4.582,-8.276,173.5,152.3,-7.768,161.6,144.2,153.4,173.5,171.4,36,,4,10,prime,15,0,67,norm,36,-4.764,up,norm,153.616969532,159.7,141.1,1.113,171.6,3,154.3,183.6,158.8,15,2,8.23,4.46,1.814,-1.217,-4.307,-8.434,146.6,2,220.6,-8.424,-8.049,-10,-8.203,-7.547,-4.421,-4.929,-4.349,-4.43,5.047,7.899,27,-1.452,1.328,4.976,7.606,-8.351,-7.792,-1.665,1.73,160.8,177.3,155.3,147.6,152.4,143.3,169.1,174.4,164.9,133.4,0,norm,1.163,1.983,-2.033,-1.4,-4.372,-4.304,-2.037,-1.147,-1.987,-1.525,1.705,-1.957,169.4,145.1,-4.629,-8.206,136.7,-1.565,7.979,4.753,-4.392,-7.947,8,5.073,4.51,4.358,5.273,1.965,1.602,1.38,1.559,8,5.298,4.672,-80,237.185710133,norm,0,17,17,17,392.314,392.322,392.323943866,392.324,392.329,392.334,up,1,1.6771366786,3.0,001,002,800_600,Intel(R) Core(TM) i7-2670QM CPU @ 2.20GHz,orientation_search,GRVLAPTOP3,Intel(R) HD Graphics Family,2018_mei_31_1414,testMonitor,
133.7,155.9,147.4,155.7,36,-10,170.8,151.7,123.6,133.3,8.439,8.319,7.751,7.909,8.119,8.406,7.544,4.498,-4.368,-7.626,1.268,-1.116,7.946,5.036,-4.437,-8.302,153.5,136.8,-8.414,136.3,148.8,141.3,162.0,157.8,36,140.9,2,10,prime,15,0,69,norm,36,-4.549,down,norm,153.616969532,155.5,160.3,2.001,,2,183.6,170.9,159.1,15,2,7.894,4.721,1.19,-1.325,-4.482,-7.872,152.4,2,222.6,-7.531,-8.351,-10,-7.531,-7.897,-4.973,-4.966,-4.843,-4.774,5.287,7.655,14,-1.327,1.383,4.987,7.887,-7.627,-7.756,-1.763,1.605,177.0,159.6,153.2,154.0,176.1,163.4,164.8,165.5,128.1,163.0,1,norm,1.813,1.725,-1.403,-1.921,-4.681,-5.143,-1.11,-1.332,-1.541,-1.193,1.799,-1.767,154.8,172.0,-5.02,-7.902,173.4,-1.11,8.021,4.437,-4.546,-8.073,8,4.614,4.401,5.068,5.058,1.414,1.334,1.804,1.846,8,5.04,4.384,-80,237.185710133,norm,0,18,18,18,394.022,394.03,394.032158572,394.033,394.037,394.042,down,1,2.23773425611,-2.0,001,002,800_600,Intel(R) Core(TM) i7-2670QM CPU @ 2.20GHz,orientation_search,GRVLAPTOP3,Intel(R) HD Graphics Family,2018_mei_31_1414,testMonitor,
208.4,237.9,227.6,238.1,36,-10,231.7,212.7,207.2,206.7,7.708,8.253,7.711,8.029,8.199,7.824,8.184,4.952,-5.139,-8.39,1.714,-1.91,7.828,4.629,-4.577,-7.558,214.9,220.5,-8.21,236.6,234.4,235.2,203.6,230.0,36,,4,10,probe,10,0,76,norm,36,-4.311,up,norm,223.604555091,220.9,232.9,1.938,222.5,3,239.0,213.8,231.5,15,2,7.9,5.093,1.584,-1.288,-5.195,-7.647,226.9,2,147.6,-7.666,-8.371,-10,-7.833,-7.787,-4.545,-5.095,-4.531,-5.294,5.073,7.921,27,-1.622,1.821,4.369,8.36,-7.977,-8.493,-1.309,1.679,243.6,222.7,232.1,221.4,208.6,243.1,223.9,219.6,225.2,242.6,0,norm,1.868,1.447,-2.001,-1.428,-4.646,-5.002,-1.559,-1.517,-1.374,-1.985,1.228,-1.463,214.4,227.4,-5.266,-8.345,228.6,-1.387,7.923,4.504,-4.973,-7.758,9,4.426,5.08,5.297,4.621,1.983,1.404,1.258,2.018,9,4.679,4.627,-10,153.616969532,norm,0,19,19,19,396.289,396.296,396.298312455,396.299,396.303,396.307,up,1,1.36042881832,6.0,001,002,800_600,Intel(R) Core(TM) i7-2670QM CPU @ 2.20GHz,orientation_search,GRVLAPTOP3,Intel(R) HD Graphics Family,2018_mei_31_1414,testMonitor,
235.6,220.0,216.6,232.0,36,-10,223.1,220.2,204.8,238.5,7.562,8.298,8.396,7.758,8.363,8.47,7.579,4.962,-4.481,-8.093,1.553,-1.576,8.145,4.991,-4.357,-7.993,224.7,217.7,-7.9,237.4,233.9,208.0,231.0,222.3,36,204.6,2,10,probe,10,0,77,norm,36,-4.974,up,norm,224.604555091,,244.6,1.465,222.3,5,217.4,236.9,235.2,15,2,7.519,4.503,1.611,-1.272,-4.972,-7.569,220.6,2,147.6,-7.714,-7.782,-10,-7.93,-7.724,-5.067,-4.894,-5.206,-4.35,5.298,8.376,17,-1.678,2.09,4.309,8.003,-7.904,-7.955,-1.709,1.107,221.4,241.2,228.0,217.2,218.4,223.6,211.8,229.9,232.0,204.8,1,norm,1.725,1.644,-1.726,-1.719,-4.504,-4.336,-1.836,-1.951,-1.606,-1.993,1.228,-1.923,240.6,216.3,-4.306,-8.093,222.6,-1.406,8.465,4.365,-4.813,-7.908,9,4.993,5.112,4.515,4.578,1.444,1.385,1.61,1.543,9,4.841,4.994,-10,153.616969532,norm,0,20,20,20,397.679,397.687,397.689993477,397.69,397.694,397.699,up,1,1.61855846778,4.0,001,002,800_600,Intel(R) Core(TM) i7-2670QM CPU @ 2.20GHz,orientation_search,GRVLAPTOP3,Intel(R) HD Graphics Family,2018_mei_31_1414,testMonitor,
336.6,360.1,324.6,,36,60,342.1,323.3,352.2,358.3,8.211,8.416,7.511,7.851,7.798,8.452,7.936,4.822,-5.206,-8.346,1.718,-1.381,7.591,4.611,-5.246,-8.267,374.3,335.7,-7.805,346.8,350.3,348.5,330.7,333.9,36,345.3,3,10,prime,15,0,60,norm,36,-4.599,up,norm,344.281791878,330.7,357.0,1.152,349.0,3,346.2,346.7,364.3,15,5,8.101,5.061,1.65,-2.045,-4.801,-7.628,350.1,5,404.3,-7.505,-8.485,60,-8.228,-8.035,-4.342,-5.059,-5.054,-5.121,5.095,8.345,21,-1.911,1.711,4.979,7.695,-8.286,-8.102,-1.985,1.434,324.7,327.1,354.5,337.1,327.6,336.1,314.3,335.4,355.0,341.3,0,norm,1.472,1.133,-1.237,-1.47,-4.741,-4.944,-1.504,-1.895,-1.585,-1.703,1.888,-1.933,315.5,345.5,-4.325,-7.544,365.4,-1.501,8.27,4.572,-4.496,-7.644,10,4.579,4.865,4.759,4.532,1.618,1.715,1.853,1.614,10,4.65,4.534,-10,153.616969532,norm,0,21,21,21,399.329,399.337,399.339100907,399.34,399.344,399.349,up,1,2.1833315978,-2.0,001,002,800_600,Intel(R) Core(TM) i7-2670QM CPU @ 2.20GHz,orientation_search,GRVLAPTOP3,Intel(R) HD Graphics Family,2018_mei_31_1414,testMonitor,
357.5,345.2,353.5,360.3,36,60,354.7,340.2,348.2,340.1,8.244,8.341,8.163,8.385,8.477,8.326,8.051,5.28,-4.738,-8.078,1.876,-1.434,8.209,4.638,-5.016,-7.783,343.4,374.3,-7.606,336.8,351.0,349.4,355.0,337.6,36,,4,10,prime,15,0,104,norm,36,-4.48,up,norm,344.281791878,338.1,330.5,1.297,347.5,3,358.4,351.2,362.0,15,5,8.105,4.962,1.491,-1.202,-4.814,-7.882,359.4,5,448.3,-7.738,-8.401,60,-7.602,-8.083,-4.464,-5.22,-4.494,-4.425,4.84,8.07,27,-1.912,1.853,4.413,8.145,-8.466,-8.492,-1.21,2.015,325.1,364.6,314.3,371.0,337.4,356.4,361.9,340.1,348.4,338.9,1,norm,1.235,1.251,-1.678,-1.755,-4.438,-4.637,-1.848,-1.27,-1.687,-1.734,1.51,-1.669,332.6,347.4,-5.016,-7.804,340.1,-1.186,7.849,5.087,-5.275,-8.293,10,4.425,4.813,5.206,4.713,2.083,1.238,1.984,1.417,10,4.353,5.163,-10,153.616969532,norm,0,22,22,22,401.542,401.549,401.550697101,401.551,401.555,401.559,down,0,3.35609216474,-24.0,001,002,800_600,Intel(R) Core(TM) i7-2670QM CPU @ 2.20GHz,orientation_search,GRVLAPTOP3,Intel(R) HD Graphics Family,2018_mei_31_1414,testMonitor,
357.7,372.1,350.5,340.8,36,60,343.4,374.3,344.2,333.6,7.867,7.655,7.734,7.864,8.146,8.119,8.264,4.971,-5.153,-8.022,1.422,-1.753,8.162,5.185,-4.342,-8.263,348.4,356.5,-8.421,345.9,356.9,341.9,361.4,358.7,36,323.0,1,10,prime,15,0,89,norm,36,-4.782,up,norm,344.281791878,331.7,329.0,1.333,327.1,4,353.4,357.0,365.1,15,5,7.727,4.683,1.29,-1.976,-4.534,-8.004,,5,433.3,-8.175,-7.639,60,-8.095,-8.258,-4.363,-4.701,-4.8,-4.624,4.725,7.559,10,-1.502,1.455,4.859,7.71,-8.153,-7.747,-1.257,2.023,354.1,314.3,334.4,344.7,334.4,355.1,316.4,349.5,351.3,361.7,2,norm,1.706,1.532,-1.708,-1.242,-5.175,-5.01,-1.914,-1.88,-1.424,-1.893,1.953,-1.485,339.5,321.0,-4.956,-7.592,352.5,-1.653,7.609,4.881,-5.072,-8.391,10,5.236,5.238,5.145,5.206,1.246,2.029,2.076,1.365,10,4.972,4.452,-10,153.616969532,norm,0,23,23,23,405.933,405.94,405.942269321,405.943,405.946,405.951,up,1,1.41582236484,6.0,001,002,800_600,Intel(R) Core(TM) i7-2670QM CPU @ 2.20GHz,orientation_search,GRVLAPTOP3,Intel(R) HD Graphics Family,2018_mei_31_1414,testMonitor,
345.7,367.4,328.2,314.3,36,60,358.8,337.3,321.8,336.1,7.88,8.209,8.475,7.986,8.112,7.673,8.036,5.2,-4.536,-7.992,1.32,-1.149,7.556,4.892,-4.696,-8.093,343.3,357.9,-8.118,362.6,334.7,344.3,331.0,349.7,36,339.5,2,10,prime,15,0,83,norm,36,-5.006,down,norm,344.281791878,348.7,326.1,1.207,,2,346.3,357.0,321.6,15,5,7.543,4.395,1.532,-1.699,-4.895,-7.851,346.5,5,427.3,-8.436,-8.252,60,-8.231,-8.433,-4.945,-4.598,-5.05,-5.246,4.891,7.846,14,-1.645,1.637,4.598,7.713,-7.788,-7.71,-1.104,2.003,323.3,353.7,374.3,350.8,368.1,337.4,345.1,355.2,357.6,346.1,3,norm,1.194,1.652,-1.334,-1.145,-4.408,-4.677,-1.524,-1.585,-1.929,-1.186,1.267,-1.317,323.0,361.8,-4.981,-7.898,319.9,-1.124,8.027,4.736,-5.291,-7.81,10,4.457,4.554,5.114,4.863,1.52,1.25,1.745,1.305,10,4.567,5.25,-10,153.616969532,norm,0,24,24,24,407.377,407.384,407.386226,407.387,407.39,407.395,down,1,1.82917264569,2.0,001,002,800_600,Intel(R) Core(TM) i7-2670QM CPU @ 2.20GHz,orientation_search,GRVLAPTOP3,Intel(R) HD Graphics Family,2018_mei_31_1414,testMonitor,
358.7,352.1,374.0,353.1,36,60,339.8,326.1,331.7,325.7,7.502,8.142,8.157,8.192,7.616,8.165,7.872,4.905,-4.695,-7.502,1.615,-1.475,8.36,4.373,-4.709,-7.977,372.6,355.2,-8.003,374.3,,349.0,368.6,344.3,36,314.3,5,10,prime,15,0,102,norm,36,-4.786,down,norm,344.281791878,325.9,339.8,1.748,325.4,0,357.6,332.1,365.9,15,5,8.456,4.449,1.859,-1.309,-4.466,-7.707,344.2,5,446.3,-7.561,-8.135,60,-7.923,-7.56,-5.083,-4.545,-4.87,-5.239,5.203,7.814,30,-1.417,1.627,4.655,7.542,-8.061,-7.843,-1.632,1.59,368.9,346.6,347.7,322.0,343.7,363.6,322.8,365.2,343.2,356.0,4,norm,2.08,1.289,-2.093,-1.429,-4.609,-4.655,-1.698,-1.921,-1.828,-1.832,1.178,-1.21,350.4,338.2,-4.754,-7.579,361.1,-2.08,8.483,4.312,-4.918,-7.671,10,5.017,4.35,5.042,4.487,1.49,1.597,1.417,2.049,10,4.581,4.583,-10,153.616969532,norm,0,25,25,25,409.234,409.241,409.243366722,409.244,409.248,409.252,up,0,4.85588740297,-39.0,001,002,800_600,Intel(R) Core(TM) i7-2670QM CPU @ 2.20GHz,orientation_search,GRVLAPTOP3,Intel(R) HD Graphics Family,2018_mei_31_1414,testMonitor,
478.7,489.2,480.5,472.5,36,80,487.3,464.4,471.1,481.6,8.495,7.901,7.647,7.791,7.725,8.143,8.026,5.056,-4.76,-8.326,1.224,-1.86,8.34,4.912,-4.515,-7.756,488.9,472.3,-8.287,478.2,470.8,481.9,457.2,491.2,36,487.1,0,10,probe,10,0,73,norm,36,-5.21,up,norm,476.992429066,470.3,476.2,1.771,471.4,3,476.0,492.5,483.4,15,5,7.931,5.248,1.903,-1.13,-4.998,-8.356,477.3,1,404.0,-8.283,-8.352,60,-7.567,-8.342,-4.894,-4.449,-5.126,-5.207,4.376,7.776,3,-1.92,1.383,4.779,8.265,-7.887,-7.559,-1.323,1.36,488.8,461.7,,468.3,497.0,470.6,477.9,470.6,472.4,460.1,0,norm,1.738,1.159,-1.555,-1.799,-4.454,-4.858,-1.824,-1.4,-2.096,-1.475,1.685,-1.167,483.9,457.0,-5.199,-8.243,473.2,-2.073,7.963,4.579,-5.045,-7.773,11,5.288,4.781,4.777,5.069,1.458,1.591,1.187,1.947,11,4.946,4.946,60,344.281791878,norm,0,26,26,26,415.122,415.13,415.132810774,415.133,415.138,415.143,up,1,1.80747210033,2.0,001,002,800_600,Intel(R) Core(TM) i7-2670QM CPU @ 2.20GHz,orientation_search,GRVLAPTOP3,Intel(R) HD Graphics Family,2018_mei_31_1414,testMonitor,
119.0,100.6,142.7,123.1,36,30,126.6,129.6,116.2,111.6,7.952,7.963,8.016,7.748,7.722,8.487,8.0,4.824,-5.141,-7.932,1.964,-1.297,8.418,4.706,-4.597,-8.17,126.7,125.7,-7.771,119.8,130.7,132.2,145.2,103.7,36,142.9,2,10,prime,15,0,84,norm,36,-4.557,down,norm,130.55161348,131.0,134.8,1.836,124.4,1,131.4,,103.3,15,2,8.485,4.665,1.413,-1.222,-4.888,-8.27,133.0,2,214.6,-8.227,-7.74,30,-8.197,-7.795,-4.366,-4.955,-4.778,-5.184,4.955,7.979,13,-1.774,1.145,5.159,8.405,-8.129,-7.7,-1.438,1.626,112.0,138.5,114.8,127.5,160.6,151.9,114.1,128.7,150.8,139.1,0,norm,1.215,1.305,-1.542,-1.372,-4.705,-4.987,-1.59,-1.154,-1.702,-1.692,1.606,-1.509,144.5,146.9,-5.252,-8.334,142.0,-1.574,7.817,4.857,-4.872,-7.594,12,5.29,4.454,4.911,5.22,1.873,1.964,1.163,1.473,12,4.879,4.432,80,344.281791878,norm,0,27,27,27,416.963,416.971,416.97323341,416.974,416.978,416.983,down,1,1.75829051703,2.0,001,002,800_600,Intel(R) Core(TM) i7-2670QM CPU @ 2.20GHz,orientation_search,GRVLAPTOP3,Intel(R) HD Graphics Family,2018_mei_31_1414,testMonitor,
128.1,110.8,100.6,127.9,36,30,151.6,141.4,,116.0,7.636,8.192,7.972,7.863,8.187,8.068,8.276,5.047,-5.095,-8.109,1.673,-1.549,7.97,4.423,-4.408,-7.811,130.9,111.8,-8.432,129.2,150.1,126.3,114.1,126.4,36,105.0,4,10,prime,15,0,115,norm,36,-4.599,up,norm,130.55161348,111.7,131.7,1.628,131.0,4,130.2,121.5,160.6,15,2,7.993,4.636,1.516,-1.739,-4.644,-7.919,146.3,2,245.6,-8.378,-8.44,30,-8.099,-7.54,-4.342,-4.321,-4.472,-4.552,4.473,8.165,28,-1.757,1.217,4.904,8.337,-7.755,-7.936,-1.74,1.187,152.9,148.6,126.5,133.5,122.2,142.1,147.9,141.8,143.7,133.3,1,norm,1.23,1.733,-1.771,-1.758,-4.337,-5.254,-1.701,-1.876,-1.254,-1.266,1.434,-1.226,109.5,147.3,-5.055,-7.592,121.4,-1.383,8.381,4.835,-4.626,-7.721,12,5.276,4.329,4.623,4.939,1.639,1.859,1.728,1.978,12,4.442,5.12,80,344.281791878,norm,0,28,28,28,418.746,418.754,418.755820301,418.756,418.761,418.766,up,1,1.32599101663,7.0,001,002,800_600,Intel(R) Core(TM) i7-2670QM CPU @ 2.20GHz,orientation_search,GRVLAPTOP3,Intel(R) HD Graphics Family,2018_mei_31_1414,testMonitor,
261.4,256.5,238.9,265.0,36,10,255.8,254.7,237.7,248.2,8.452,7.65,7.96,7.755,7.857,7.949,7.761,4.93,-4.978,-7.523,1.426,-1.731,8.032,4.373,-4.727,-7.659,273.8,239.2,-7.76,271.3,251.2,263.6,253.8,237.3,36,261.3,1,10,probe,10,0,97,norm,36,-5.212,down,norm,255.871575946,268.8,249.8,1.961,266.4,0,255.7,271.7,256.0,15,2,7.9,4.686,1.64,-1.689,-4.33,-8.422,275.9,1,158.9,-7.681,-7.701,30,-7.547,-7.706,-4.347,-5.16,-4.56,-5.198,4.626,8.246,6,-1.675,1.941,4.913,8.07,-8.164,-7.987,-1.566,1.192,269.5,257.5,256.1,253.3,261.7,235.9,257.6,,240.9,259.8,0,norm,1.477,1.158,-1.617,-1.101,-4.734,-4.535,-1.907,-1.372,-1.898,-1.269,1.127,-2.079,269.7,268.9,-5.024,-7.689,247.2,-1.925,7.639,5.043,-4.372,-8.087,13,5.138,4.451,4.315,4.87,1.409,1.582,1.512,1.919,13,5.086,4.352,30,130.55161348,norm,0,29,29,29,420.103,420.111,420.112908957,420.114,420.117,420.123,down,1,1.48882122126,5.0,001,002,800_600,Intel(R) Core(TM) i7-2670QM CPU @ 2.20GHz,orientation_search,GRVLAPTOP3,Intel(R) HD Graphics Family,2018_mei_31_1414,testMonitor,
123.8,148.9,127.5,126.8,36,-40,144.1,149.0,143.1,138.3,8.495,8.254,7.81,7.927,7.905,7.617,8.358,4.743,-5.28,-7.658,1.823,-1.989,8.431,4.372,-4.502,-7.743,128.1,144.4,-8.273,134.6,160.4,148.9,123.8,121.1,36,135.3,1,10,prime,15,0,112,norm,36,-4.517,down,norm,135.358502556,110.0,108.2,1.161,165.4,1,128.1,126.7,149.3,15,3,7.968,4.538,1.984,-1.434,-4.951,-8.452,142.9,3,247.4,-8.141,-8.275,-40,-7.897,-8.124,-4.878,-4.7,-4.474,-4.834,5.02,7.808,7,-2.073,1.797,5.067,8.411,-8.318,-8.064,-1.757,1.838,135.8,152.4,126.0,140.6,139.3,105.4,,141.6,143.0,132.4,0,norm,1.169,1.943,-1.864,-1.472,-5.133,-5.093,-1.424,-1.961,-2.075,-1.346,1.542,-2.031,138.9,137.3,-5.079,-8.434,153.7,-2.049,7.787,4.511,-4.781,-8.129,14,4.363,4.739,4.711,4.892,1.722,1.362,1.772,1.296,14,4.978,4.999,10,130.55161348,norm,0,30,30,30,421.622,421.63,421.632428101,421.633,421.637,421.642,down,1,1.45980762199,5.0,001,002,800_600,Intel(R) Core(TM) i7-2670QM CPU @ 2.20GHz,orientation_search,GRVLAPTOP3,Intel(R) HD Graphics Family,2018_mei_31_1414,testMonitor,
127.9,125.3,137.4,152.8,36,-40,109.5,133.4,151.1,138.3,7.696,8.403,8.215,8.302,8.005,7.665,8.047,5.144,-4.322,-7.621,1.607,-1.605,8.082,4.38,-4.915,-7.773,142.3,164.7,-8.211,126.5,151.3,119.6,124.5,120.9,36,105.4,0,10,prime,15,0,100,norm,36,-5.002,up,norm,135.358502556,147.9,122.6,1.847,157.9,5,120.0,122.2,135.6,15,3,7.575,5.251,1.976,-1.264,-4.814,-7.64,133.3,3,235.4,-8.118,-8.072,-40,-7.923,-7.624,-5.129,-4.668,-5.138,-5.19,4.403,8.274,5,-1.443,1.912,4.449,7.626,-7.564,-7.926,-1.843,1.84,113.4,146.0,149.5,141.5,135.8,116.9,141.5,165.4,,126.4,1,norm,1.424,2.088,-2.005,-1.983,-4.717,-4.932,-1.682,-1.73,-1.696,-1.117,1.954,-1.172,156.3,143.2,-4.707,-7.961,143.3,-1.618,7.707,4.32,-4.925,-8.057,14,4.611,4.779,4.611,4.939,1.523,1.251,1.599,1.149,14,4.699,4.301,10,130.55161348,norm,0,31,31,31,423.106,423.113,423.115264301,423.116,423.119,423.124,up,1,1.27625375144,7.0,001,002,800_600,Intel(R) Core(TM) i7-2670QM CPU @ 2.20GHz,orientation_search,GRVLAPTOP3,Intel(R) HD Graphics Family,2018_mei_31_1414,testMonitor,
139.6,116.0,,117.1,36,-40,123.5,130.4,144.3,141.1,7.6,8.03,8.3,7.599,8.365,8.038,7.734,4.687,-4.632,-8.01,1.657,-1.189,7.518,4.74,-4.857,-7.624,153.4,134.5,-7.525,127.8,127.4,109.6,135.3,147.7,36,129.2,3,10,prime,15,0,94,norm,36,-4.812,down,norm,135.358502556,142.3,124.7,1.713,120.6,2,140.4,145.0,150.2,15,3,8.228,4.632,1.384,-1.194,-5.159,-7.862,132.6,3,229.4,-7.549,-7.848,-40,-7.633,-8.404,-5.27,-4.996,-4.321,-4.489,4.349,8.127,20,-1.516,1.536,5.121,8.309,-7.941,-8.052,-1.51,1.682,140.2,129.3,165.4,105.4,114.0,147.3,129.9,136.7,139.4,127.9,2,norm,2.098,1.544,-1.518,-1.953,-5.259,-4.86,-1.114,-1.617,-1.289,-1.309,1.232,-1.615,142.0,142.0,-5.052,-8.019,156.7,-1.555,7.913,4.466,-4.787,-7.839,14,5.088,5.227,5.108,4.533,1.635,1.545,1.569,1.603,14,4.488,4.642,10,130.55161348,norm,0,32,32,32,424.411,424.418,424.420562005,424.421,424.425,424.43,down,1,1.25786441642,7.0,001,002,800_600,Intel(R) Core(TM) i7-2670QM CPU @ 2.20GHz,orientation_search,GRVLAPTOP3,Intel(R) HD Graphics Family,2018_mei_31_1414,testMonitor,
160.0,167.0,167.9,186.9,36,-20,165.3,150.0,159.7,160.4,7.815,8.164,7.836,7.802,8.477,7.738,7.598,4.704,-5.185,-7.778,1.731,-1.411,8.487,4.332,-4.778,-8.094,152.5,161.6,-7.649,161.9,178.8,178.3,160.6,154.1,36,167.9,0,10,probe,10,0,70,norm,36,-4.499,down,norm,166.89280238,174.7,167.1,2.051,181.6,0,166.3,180.7,161.2,15,3,8.448,5.088,1.166,-1.411,-4.647,-8.269,169.7,2,96.9,-7.753,-7.56,-40,-7.922,-8.112,-4.357,-4.771,-5.072,-5.273,4.668,8.287,0,-1.958,1.236,4.527,8.334,-7.958,-8.265,-1.872,1.999,171.5,157.4,154.4,170.4,164.7,,183.8,166.8,171.2,146.9,0,norm,1.828,1.264,-1.522,-1.515,-5.288,-4.468,-1.293,-1.528,-1.528,-1.103,1.908,-1.223,175.9,161.4,-5.103,-8.068,167.4,-1.938,8.462,4.533,-5.259,-8.15,15,4.854,5.171,4.74,5.089,2.036,1.469,1.19,1.268,15,4.784,4.63,-40,135.358502556,norm,0,33,33,33,425.692,425.7,425.70252387,425.703,425.707,425.712,down,1,3.21796598947,-12.0,001,002,800_600,Intel(R) Core(TM) i7-2670QM CPU @ 2.20GHz,orientation_search,GRVLAPTOP3,Intel(R) HD Graphics Family,2018_mei_31_1414,testMonitor,
169.1,182.1,184.2,200.6,36,-20,,175.1,199.9,197.5,7.757,7.533,8.26,7.543,8.414,8.113,7.74,5.002,-5.093,-8.258,1.537,-2.029,7.912,4.713,-4.986,-8.409,180.4,183.6,-7.788,186.8,181.3,196.3,192.5,206.3,36,185.0,4,10,probe,10,0,91,norm,36,-4.629,down,norm,187.89280238,187.0,177.9,1.149,189.1,0,167.9,180.8,195.8,15,3,7.934,4.914,1.795,-1.775,-4.469,-7.799,183.4,2,96.9,-7.69,-7.504,-40,-8.0,-7.654,-4.714,-5.014,-4.476,-5.214,4.694,8.314,24,-2.054,1.996,4.336,8.144,-8.456,-8.288,-2.072,1.772,187.5,192.6,186.8,198.5,187.1,175.3,185.3,181.9,186.5,187.1,1,norm,2.013,1.313,-1.66,-1.647,-5.193,-4.571,-1.847,-1.403,-1.923,-1.736,1.338,-2.067,180.3,207.9,-4.644,-8.173,181.5,-1.586,7.981,5.036,-4.738,-7.926,15,5.172,4.305,5.124,4.377,1.699,1.916,1.654,2.013,15,4.801,4.934,-40,135.358502556,norm,0,34,34,34,428.941,428.949,428.951600574,428.952,428.956,428.961,down,1,3.97075105311,-20.0,001,002,800_600,Intel(R) Core(TM) i7-2670QM CPU @ 2.20GHz,orientation_search,GRVLAPTOP3,Intel(R) HD Graphics Family,2018_mei_31_1414,testMonitor,
224.2,258.6,230.3,231.0,36,-80,229.0,220.1,241.3,236.9,8.204,8.172,8.376,8.016,7.615,7.902,8.034,5.051,-4.557,-8.187,1.897,-1.679,8.294,5.267,-4.981,-7.874,225.9,258.5,-8.328,248.7,225.7,229.6,249.2,258.2,36,248.7,1,10,prime,15,0,102,norm,36,-4.74,down,norm,239.171643033,254.8,219.6,1.922,230.8,0,227.0,229.7,233.0,15,5,7.745,4.973,1.992,-1.635,-4.869,-8.272,256.5,5,341.2,-8.432,-8.138,-80,-8.265,-8.058,-4.481,-4.805,-4.724,-5.016,4.443,7.643,6,-1.314,1.874,4.318,8.132,-8.401,-8.072,-1.979,1.611,244.5,234.2,229.1,233.3,269.2,223.0,225.2,,234.5,241.9,0,norm,1.797,1.475,-1.524,-1.237,-5.141,-4.384,-1.711,-1.912,-1.81,-2.083,1.39,-1.749,246.7,209.2,-4.657,-7.778,229.7,-1.853,8.422,4.943,-5.177,-7.702,16,4.33,4.916,4.47,4.373,1.36,1.978,1.511,1.116,16,4.731,5.057,-20,135.358502556,norm,0,35,35,35,432.946,432.953,432.955902206,432.956,432.96,432.965,down,1,3.44335383441,-14.0,001,002,800_600,Intel(R) Core(TM) i7-2670QM CPU @ 2.20GHz,orientation_search,GRVLAPTOP3,Intel(R) HD Graphics Family,2018_mei_31_1414,testMonitor,
269.2,233.7,240.9,229.4,36,-80,242.9,228.9,254.0,256.1,7.846,7.59,8.142,8.048,8.173,8.058,8.22,5.126,-4.974,-7.849,1.292,-1.924,8.166,4.96,-5.041,-7.969,240.8,228.6,-8.485,251.2,228.8,246.7,,213.2,36,261.6,5,10,prime,15,0,116,norm,36,-5.231,down,norm,239.171643033,209.2,255.4,1.451,260.2,2,245.7,230.8,235.3,15,5,8.364,4.42,1.509,-1.688,-4.504,-8.398,252.9,5,355.2,-8.066,-7.974,-80,-7.695,-8.245,-5.289,-5.125,-5.216,-4.848,4.354,7.675,32,-1.635,1.134,5.188,7.542,-7.62,-7.99,-1.668,1.154,247.0,227.2,254.0,239.8,231.9,235.1,250.9,239.4,226.7,226.7,1,norm,1.385,2.063,-1.324,-1.846,-4.474,-4.99,-1.537,-1.375,-1.741,-1.768,1.976,-1.529,253.2,233.2,-4.677,-8.118,242.9,-1.518,7.961,4.674,-5.009,-8.107,16,5.149,5.116,4.328,5.27,1.852,2.016,1.497,1.389,16,4.387,4.636,-20,135.358502556,norm,0,36,36,36,436.419,436.426,436.427702283,436.428,436.432,436.437,down,1,2.1725681796,-2.0,001,002,800_600,Intel(R) Core(TM) i7-2670QM CPU @ 2.20GHz,orientation_search,GRVLAPTOP3,Intel(R) HD Graphics Family,2018_mei_31_1414,testMonitor,
234.5,248.0,,243.3,36,-80,249.9,233.0,250.6,240.6,8.377,7.635,7.945,8.156,7.546,7.912,8.204,5.004,-4.734,-8.175,1.38,-1.429,7.797,4.838,-4.799,-8.432,238.0,253.0,-7.711,209.2,225.5,218.0,238.7,232.7,36,255.3,3,10,prime,15,0,78,norm,36,-4.407,down,norm,239.171643033,220.5,235.7,2.046,263.2,2,252.0,269.2,231.1,15,5,7.53,4.95,1.347,-1.718,-4.686,-8.236,262.1,5,317.2,-7.769,-8.279,-80,-8.404,-7.57,-4.366,-4.717,-5.21,-5.006,4.363,8.108,20,-1.108,1.751,5.028,7.659,-8.225,-8.425,-1.709,1.442,210.5,244.9,231.0,239.6,225.6,239.0,246.3,245.6,223.2,260.9,2,norm,1.798,1.74,-1.862,-1.701,-4.596,-5.118,-1.707,-1.879,-1.42,-2.062,1.216,-1.44,267.5,231.1,-5.175,-8.058,249.5,-1.841,7.924,5.182,-4.768,-7.718,16,5.11,4.912,4.562,4.33,1.206,1.141,1.304,1.516,16,4.694,4.937,-20,135.358502556,norm,0,37,37,37,438.62,438.627,438.629782775,438.63,438.634,438.639,down,1,1.06074023366,9.0,001,002,800_600,Intel(R) Core(TM) i7-2670QM CPU @ 2.20GHz,orientation_search,GRVLAPTOP3,Intel(R) HD Graphics Family,2018_mei_31_1414,testMonitor,
244.2,213.8,221.0,256.0,36,-80,212.4,255.6,225.9,,8.44,7.701,8.321,8.247,7.924,7.849,8.351,4.945,-5.072,-7.817,2.062,-1.514,7.505,4.851,-4.355,-8.118,251.0,214.1,-7.953,248.1,269.2,253.7,218.9,244.2,36,213.1,4,10,prime,15,0,77,norm,36,-5.153,up,norm,239.171643033,252.3,216.6,1.816,209.2,5,230.9,232.5,241.2,15,5,7.984,4.595,1.919,-1.151,-4.687,-7.655,229.5,5,316.2,-8.36,-8.33,-80,-8.068,-7.802,-4.595,-5.13,-4.756,-5.199,4.795,8.098,29,-2.094,1.608,5.042,7.561,-8.154,-8.346,-1.477,1.749,226.8,231.4,250.0,232.7,236.0,226.5,249.1,237.6,239.2,254.8,3,norm,1.83,1.293,-1.555,-1.329,-5.284,-4.456,-2.044,-1.593,-1.233,-2.028,1.987,-1.334,260.4,254.6,-4.623,-7.636,221.8,-2.01,8.228,4.309,-5.234,-7.908,16,4.555,4.441,4.681,4.609,1.199,1.687,1.942,1.932,16,4.8,4.992,-20,135.358502556,norm,0,38,38,38,439.711,439.719,439.721540798,439.722,439.726,439.731,up,1,1.21346449917,8.0,001,002,800_600,Intel(R) Core(TM) i7-2670QM CPU @ 2.20GHz,orientation_search,GRVLAPTOP3,Intel(R) HD Graphics Family,2018_mei_31_1414,testMonitor,
265.8,218.2,238.5,237.9,36,-80,232.6,245.5,238.7,261.7,7.918,8.072,7.509,8.055,7.789,7.762,7.826,5.013,-5.067,-8.018,1.815,-2.086,8.172,5.235,-4.841,-8.168,227.5,236.1,-7.712,240.0,220.1,252.4,236.7,246.9,36,231.8,3,10,prime,15,0,118,norm,36,-4.5,down,norm,239.171643033,247.8,244.1,1.618,233.7,1,231.8,229.9,253.0,15,5,8.241,4.433,1.158,-1.297,-4.36,-7.961,269.2,5,357.2,-8.34,-8.475,-80,-7.758,-8.243,-5.228,-4.923,-4.706,-4.479,4.429,8.281,19,-1.243,1.214,5.062,7.601,-8.082,-7.776,-1.739,1.703,242.2,225.9,258.3,215.8,215.7,240.1,235.0,244.9,231.5,250.0,4,norm,2.02,2.02,-1.136,-1.978,-4.666,-4.836,-1.617,-1.707,-1.718,-1.924,1.789,-1.288,,227.4,-4.894,-8.444,209.2,-1.161,8.048,4.52,-4.506,-8.266,16,4.801,4.854,4.783,5.067,1.964,2.09,1.522,1.694,16,4.492,4.737,-20,135.358502556,norm,0,39,39,39,440.954,440.961,440.963113929,440.964,440.967,440.972,down,1,3.18389521801,-12.0,001,002,800_600,Intel(R) Core(TM) i7-2670QM CPU @ 2.20GHz,orientation_search,GRVLAPTOP3,Intel(R) HD Graphics Family,2018_mei_31_1414,testMonitor,
257.4,258.0,280.9,268.2,36,-20,,278.3,258.7,245.9,7.517,8.271,7.521,7.585,7.656,7.535,7.956,4.993,-4.962,-7.584,1.341,-2.024,8.284,4.488,-5.254,-7.914,253.3,245.9,-7.758,254.4,272.3,266.3,262.7,240.9,36,277.6,4,10,probe,10,0,94,norm,36,-4.506,down,norm,260.91829377,259.0,264.4,1.489,274.1,0,254.8,262.3,261.5,15,5,8.014,5.025,1.991,-1.935,-4.571,-7.782,245.0,1,166.9,-8.437,-7.529,-80,-8.29,-8.43,-5.117,-4.966,-4.354,-5.273,4.996,8.053,24,-1.653,1.838,4.621,8.108,-8.043,-8.148,-1.116,1.662,254.3,261.3,268.8,260.7,253.2,266.3,262.1,268.2,263.4,251.0,0,norm,1.339,1.848,-1.697,-1.607,-5.159,-4.507,-2.061,-1.436,-1.904,-1.419,1.58,-1.708,259.4,270.0,-4.554,-8.252,251.0,-1.501,8.254,4.696,-5.202,-7.685,17,4.502,4.443,4.802,4.932,1.571,1.57,2.046,1.98,17,5.003,4.742,-80,239.171643033,norm,0,40,40,40,444.167,444.174,444.176405186,444.177,444.181,444.186,down,1,2.45338085737,-5.0,001,002,800_600,Intel(R) Core(TM) i7-2670QM CPU @ 2.20GHz,orientation_search,GRVLAPTOP3,Intel(R) HD Graphics Family,2018_mei_31_1414,testMonitor,
119.9,124.3,85.6,93.1,36,40,117.7,132.9,132.0,109.1,8.043,7.683,8.169,7.572,8.055,7.564,8.102,5.096,-4.714,-8.331,1.215,-1.16,8.062,4.356,-5.138,-8.052,102.4,122.7,-8.164,103.2,112.3,143.1,127.2,,36,118.5,4,10,prime,15,0,88,norm,36,-4.622,down,norm,113.146524254,121.0,117.3,1.998,103.8,2,110.3,104.8,92.8,15,5,8.272,5.114,1.195,-1.995,-4.504,-8.413,128.0,5,201.1,-7.71,-8.297,40,-8.382,-7.915,-4.316,-4.743,-4.601,-5.21,5.216,8.318,26,-1.745,1.404,5.072,8.283,-7.76,-7.917,-1.154,1.555,101.5,124.9,108.9,106.3,123.0,143.1,113.2,131.8,117.5,100.4,0,norm,1.124,1.898,-1.459,-1.383,-4.34,-5.087,-1.695,-1.502,-1.305,-1.577,1.962,-1.575,83.1,112.8,-4.672,-8.197,126.3,-1.463,8.439,4.745,-4.673,-7.887,18,4.375,4.73,4.752,5.089,1.58,1.917,1.285,1.888,18,4.66,4.897,-20,239.171643033,norm,0,41,41,41,446.65,446.658,446.660595103,446.661,446.665,446.67,down,1,1.72486461675,3.0,001,002,800_600,Intel(R) Core(TM) i7-2670QM CPU @ 2.20GHz,orientation_search,GRVLAPTOP3,Intel(R) HD Graphics Family,2018_mei_31_1414,testMonitor,
141.1,121.2,130.5,114.5,36,40,106.3,108.8,85.6,109.4,7.676,8.165,8.49,8.362,8.353,7.598,8.46,5.202,-5.153,-8.105,2.013,-1.131,8.315,4.577,-4.652,-8.491,95.9,83.1,-7.779,109.0,112.2,107.6,,94.3,36,126.4,5,10,prime,15,0,93,norm,36,-5.249,down,norm,113.146524254,108.9,108.1,1.108,115.1,2,128.9,119.9,115.5,15,5,7.709,4.543,1.748,-1.501,-4.335,-8.205,143.1,5,206.1,-7.89,-7.93,40,-7.578,-7.764,-4.778,-4.848,-4.37,-4.67,5.194,8.075,32,-2.086,1.509,4.719,8.306,-7.88,-7.806,-1.554,1.699,85.4,108.8,123.1,121.8,112.6,110.9,109.7,102.6,125.8,121.3,1,norm,1.72,1.222,-1.884,-1.446,-4.856,-4.606,-1.589,-1.888,-1.913,-1.574,1.829,-1.64,98.9,124.2,-4.956,-8.223,118.9,-1.345,7.893,4.584,-4.957,-7.51,18,5.179,5.02,5.247,4.976,1.879,1.394,1.365,1.239,18,5.054,4.856,-20,239.171643033,norm,0,42,42,42,448.407,448.415,448.41720083,448.418,448.422,448.427,up,0,2.40186634403,-14.0,001,002,800_600,Intel(R) Core(TM) i7-2670QM CPU @ 2.20GHz,orientation_search,GRVLAPTOP3,Intel(R) HD Graphics Family,2018_mei_31_1414,testMonitor,
110.4,103.6,108.3,105.8,36,40,132.8,137.2,121.0,93.7,7.642,8.002,7.578,7.605,7.581,7.955,7.669,5.155,-5.143,-8.037,1.353,-1.858,7.891,4.433,-4.372,-8.131,98.3,,-7.629,106.3,141.8,86.8,116.7,105.9,36,136.6,5,10,prime,15,0,102,norm,36,-4.678,up,norm,113.146524254,102.1,84.7,1.494,83.1,4,94.4,116.2,90.5,15,5,8.275,4.332,1.44,-1.325,-4.728,-7.536,112.0,5,215.1,-7.856,-7.517,40,-7.775,-7.518,-5.183,-5.144,-4.72,-5.21,4.69,8.337,34,-1.506,2.013,4.333,7.566,-7.549,-7.758,-1.407,2.053,136.8,100.8,128.6,102.5,132.5,105.2,122.2,137.3,109.5,102.6,2,norm,1.428,1.107,-1.665,-1.611,-4.92,-4.363,-1.456,-1.896,-1.525,-1.88,1.166,-1.355,115.7,114.6,-4.965,-8.429,143.1,-1.221,8.341,5.055,-4.845,-7.689,18,5.273,4.353,4.716,4.633,2.041,1.464,1.541,1.376,18,5.281,4.975,-20,239.171643033,norm,0,43,43,43,451.844,451.851,451.853383099,451.854,451.858,451.863,up,1,1.48685485449,5.0,001,002,800_600,Intel(R) Core(TM) i7-2670QM CPU @ 2.20GHz,orientation_search,GRVLAPTOP3,Intel(R) HD Graphics Family,2018_mei_31_1414,testMonitor,
113.9,131.3,106.6,87.7,36,40,99.3,115.9,,110.2,7.906,8.344,8.444,7.57,8.071,7.563,8.061,4.378,-4.979,-8.378,1.509,-1.537,7.804,4.588,-4.89,-7.794,110.7,120.6,-7.89,113.0,112.4,109.4,120.9,116.1,36,136.5,4,10,prime,15,0,70,norm,36,-4.567,up,norm,113.146524254,115.5,124.9,2.059,83.1,4,107.9,134.8,92.0,15,5,8.23,5.037,1.265,-1.959,-4.41,-7.789,139.3,5,183.1,-8.077,-7.678,40,-8.013,-8.402,-4.802,-4.534,-5.027,-4.902,5.264,7.715,28,-1.966,1.857,4.783,8.169,-7.541,-8.213,-1.613,1.659,101.8,97.6,115.4,102.7,114.5,143.1,123.4,120.6,128.3,100.6,3,norm,1.227,1.137,-1.783,-1.661,-4.74,-4.745,-1.867,-2.099,-1.239,-1.719,1.786,-1.213,107.1,99.6,-5.198,-7.753,104.8,-1.763,8.446,4.338,-5.135,-7.605,18,4.777,4.481,4.745,4.701,1.372,1.27,1.133,1.84,18,4.965,4.417,-20,239.171643033,norm,0,44,44,44,453.361,453.369,453.37126228,453.372,453.376,453.381,up,1,4.03436588991,-20.0,001,002,800_600,Intel(R) Core(TM) i7-2670QM CPU @ 2.20GHz,orientation_search,GRVLAPTOP3,Intel(R) HD Graphics Family,2018_mei_31_1414,testMonitor,
110.5,119.9,127.1,113.4,36,40,111.6,119.5,108.2,108.2,7.774,8.03,8.026,8.462,7.598,8.081,8.088,4.396,-4.526,-8.088,1.4,-1.611,7.89,4.939,-4.487,-7.678,87.5,138.1,-8.05,107.0,89.7,132.3,132.3,113.1,36,110.1,0,10,prime,15,0,104,norm,36,-4.948,up,norm,113.146524254,108.0,109.2,1.693,143.1,5,122.4,111.8,112.7,15,5,7.59,4.591,1.225,-1.372,-4.46,-7.87,109.0,5,217.1,-7.631,-8.332,40,-8.322,-8.488,-4.556,-4.301,-4.408,-5.091,5.095,8.16,5,-1.125,1.491,5.159,7.71,-7.552,-7.752,-1.552,1.151,131.2,104.5,120.7,140.5,116.5,90.7,83.1,104.9,,101.8,4,norm,1.638,1.54,-1.516,-1.931,-4.518,-4.782,-2.042,-1.782,-1.602,-1.95,1.87,-1.917,121.4,86.6,-4.885,-8.38,134.3,-1.833,7.776,4.93,-4.34,-8.334,18,4.314,5.138,4.891,5.025,1.353,1.77,1.168,1.115,18,5.078,4.791,-20,239.171643033,norm,0,45,45,45,457.427,457.434,457.436040781,457.437,457.441,457.446,up,1,1.8878008212,1.0,001,002,800_600,Intel(R) Core(TM) i7-2670QM CPU @ 2.20GHz,orientation_search,GRVLAPTOP3,Intel(R) HD Graphics Family,2018_mei_31_1414,testMonitor,
211.6,245.5,226.7,220.0,36,-40,227.4,206.3,,237.4,7.834,8.145,7.671,7.951,8.434,7.903,7.838,4.453,-4.781,-8.013,1.926,-1.539,8.411,4.695,-4.686,-7.895,246.3,238.3,-8.353,237.7,223.1,220.5,231.2,214.4,36,224.9,4,10,probe,10,0,72,norm,36,-5.108,up,norm,226.261033298,227.8,221.0,2.073,221.3,4,225.7,215.7,223.0,15,5,7.797,5.025,1.69,-1.696,-4.885,-7.678,215.0,2,154.3,-7.884,-8.154,40,-7.863,-7.647,-4.728,-5.252,-5.226,-5.288,4.309,8.237,28,-1.152,1.492,5.206,7.615,-7.778,-8.472,-1.346,1.436,239.4,225.3,231.6,227.0,218.7,236.0,232.0,216.4,229.8,235.5,0,norm,1.677,1.593,-1.563,-1.296,-4.927,-4.876,-1.365,-1.298,-1.268,-1.512,1.495,-2.027,208.3,227.1,-4.827,-7.61,224.4,-1.405,8.264,4.436,-4.885,-7.6,19,5.105,4.685,4.689,4.881,1.677,1.364,2.039,1.192,19,5.046,4.664,40,113.146524254,norm,0,46,46,46,459.343,459.35,459.35222714,459.353,459.356,459.361,up,1,1.86511779289,1.0,001,002,800_600,Intel(R) Core(TM) i7-2670QM CPU @ 2.20GHz,orientation_search,GRVLAPTOP3,Intel(R) HD Graphics Family,2018_mei_31_1414,testMonitor,
,208.4,210.3,226.5,36,-40,232.7,202.3,234.0,211.4,7.932,7.548,8.418,7.875,7.721,7.996,8.265,5.236,-4.615,-8.387,1.695,-1.893,7.654,4.389,-4.624,-8.079,212.7,233.3,-7.955,220.6,223.8,219.9,235.9,208.8,36,210.2,3,10,probe,10,0,68,norm,36,-4.966,up,norm,222.261033298,235.6,223.3,1.986,215.7,4,233.6,225.4,206.2,15,5,8.216,4.427,1.665,-1.435,-4.381,-8.465,228.5,2,154.3,-7.88,-8.146,40,-7.528,-7.818,-4.642,-4.434,-4.898,-4.481,4.869,7.86,22,-1.239,1.426,5.095,8.421,-8.499,-8.328,-1.258,1.551,230.6,242.3,211.8,206.6,216.5,213.3,239.3,223.1,227.4,225.8,1,norm,1.638,1.663,-2.06,-2.057,-4.776,-5.017,-1.674,-1.85,-1.511,-1.586,2.037,-1.646,212.7,228.4,-4.451,-8.359,238.5,-1.789,8.354,4.71,-5.164,-7.947,19,4.513,4.403,4.353,4.792,1.49,1.912,1.87,1.67,19,5.249,4.583,40,113.146524254,norm,0,47,47,47,461.23,461.237,461.239481619,461.24,461.244,461.248,up,1,1.09576220177,9.0,001,002,800_600,Intel(R) Core(TM) i7-2670QM CPU @ 2.20GHz,orientation_search,GRVLAPTOP3,Intel(R) HD Graphics Family,2018_mei_31_1414,testMonitor,
94.6,97.2,119.0,120.0,36,-30,103.1,108.5,125.2,107.4,8.109,7.504,8.381,7.696,8.421,8.422,8.483,5.278,-4.563,-8.064,1.858,-1.752,8.094,4.571,-4.923,-7.796,119.3,89.0,-8.05,128.9,105.8,114.2,116.9,137.0,36,108.4,0,10,prime,15,0,72,norm,36,-4.726,up,norm,106.989015616,108.4,114.3,2.045,105.3,5,105.4,88.9,99.2,15,5,8.121,5.188,1.918,-1.267,-5.015,-7.984,98.6,5,179.0,-8.216,-8.357,-30,-8.169,-8.467,-4.738,-5.265,-5.259,-4.933,5.25,8.474,5,-1.951,1.657,4.678,8.325,-8.327,-7.788,-1.464,1.284,104.5,106.4,104.5,123.0,112.2,96.7,105.5,97.2,,105.3,0,norm,1.568,1.21,-1.965,-1.805,-4.995,-5.181,-1.842,-1.132,-1.986,-1.965,1.432,-1.777,77.0,118.5,-4.8,-8.282,97.8,-1.355,7.932,5.057,-5.274,-8.182,20,4.775,5.212,5.182,4.75,1.959,1.729,1.391,1.421,20,5.121,5.237,-40,113.146524254,norm,0,48,48,48,462.355,488.384,488.38682651,488.387,488.391,488.396,down,0,1.58463198683,-14.0,001,002,800_600,Intel(R) Core(TM) i7-2670QM CPU @ 2.20GHz,orientation_search,GRVLAPTOP3,Intel(R) HD Graphics Family,2018_mei_31_1414,testMonitor,
128.2,130.7,78.1,106.9,36,-30,102.4,86.0,88.5,97.2,8.018,7.698,7.782,7.647,8.273,8.378,7.534,4.585,-5.045,-7.829,1.21,-1.362,7.909,4.473,-4.44,-8.431,98.2,99.6,-8.32,123.6,114.6,102.7,,89.1,36,77.0,5,10,prime,15,0,116,norm,36,-5.107,down,norm,106.989015616,120.4,127.5,1.437,121.9,2,126.3,89.6,107.7,15,5,8.381,4.519,1.152,-2.074,-4.31,-8.434,109.1,5,223.0,-8.404,-7.565,-30,-8.463,-8.336,-5.255,-4.7,-5.026,-4.447,4.614,8.455,32,-1.455,1.882,4.536,8.103,-8.213,-7.923,-1.674,1.932,104.0,94.5,86.2,109.4,100.5,93.1,96.5,88.3,121.2,118.0,1,norm,1.838,2.012,-1.128,-1.207,-4.474,-5.236,-1.291,-2.088,-1.227,-1.82,1.447,-1.592,137.0,93.0,-4.684,-7.693,92.2,-1.182,7.685,5.171,-4.358,-7.535,20,5.011,5.268,4.576,5.177,1.511,1.497,1.925,1.982,20,4.554,4.679,-40,113.146524254,norm,0,49,49,49,490.999,491.006,491.00829507,491.009,491.012,491.017,down,1,1.71883710255,3.0,001,002,800_600,Intel(R) Core(TM) i7-2670QM CPU @ 2.20GHz,orientation_search,GRVLAPTOP3,Intel(R) HD Graphics Family,2018_mei_31_1414,testMonitor,
127.7,121.1,104.3,109.7,36,-30,89.4,127.5,111.6,133.1,7.862,8.491,7.979,8.22,7.869,8.0,8.172,5.22,-4.476,-7.933,1.668,-1.351,8.254,5.045,-5.257,-8.318,113.1,108.3,-7.781,103.2,77.0,105.1,98.1,95.2,36,115.0,2,10,prime,15,0,68,norm,36,-5.29,up,norm,106.989015616,,129.2,1.952,103.7,5,111.4,126.4,108.1,15,5,8.261,4.814,1.238,-1.685,-4.624,-8.399,96.3,5,175.0,-7.632,-8.244,-30,-7.904,-7.782,-4.807,-5.226,-4.697,-5.251,5.247,8.385,17,-1.52,1.191,5.007,8.06,-7.522,-7.808,-1.78,1.583,120.6,110.5,94.7,90.0,109.6,137.0,112.6,106.2,99.2,95.1,2,norm,1.789,1.732,-1.855,-1.953,-4.499,-4.869,-1.985,-1.565,-1.55,-1.365,1.382,-1.867,89.0,108.9,-5.257,-8.102,112.8,-1.557,8.033,5.007,-4.794,-8.261,20,4.942,5.137,4.943,4.411,1.161,1.899,1.27,1.894,20,4.73,5.144,-40,113.146524254,norm,0,50,50,50,492.747,492.754,492.756735075,492.757,492.761,492.766,up,1,2.45123844684,-5.0,001,002,800_600,Intel(R) Core(TM) i7-2670QM CPU @ 2.20GHz,orientation_search,GRVLAPTOP3,Intel(R) HD Graphics Family,2018_mei_31_1414,testMonitor,
107.3,123.1,124.7,92.9,36,-30,137.0,91.6,102.8,108.1,8.025,8.04,7.977,8.23,7.624,8.361,8.091,4.748,-5.186,-8.285,1.567,-1.946,8.232,4.335,-4.977,-8.388,135.7,109.6,-7.694,132.0,82.0,77.0,110.5,99.5,36,101.5,1,10,prime,15,0,107,norm,36,-5.104,up,norm,106.989015616,96.7,96.7,1.349,103.4,5,,105.3,113.5,15,5,8.261,4.612,1.255,-1.542,-4.819,-7.662,106.9,5,214.0,-8.237,-8.16,-30,-8.147,-7.882,-4.623,-4.771,-5.071,-5.249,4.52,7.936,11,-1.921,1.807,4.996,7.921,-7.768,-7.722,-1.701,1.916,100.8,101.1,108.0,112.6,102.8,115.5,107.5,120.3,135.4,123.7,3,norm,1.752,1.518,-1.793,-1.303,-4.317,-5.247,-1.314,-1.949,-1.335,-1.287,1.399,-1.885,95.5,97.4,-4.482,-7.892,87.9,-1.748,7.627,5.044,-4.979,-7.787,20,4.37,4.325,5.056,4.355,2.045,1.322,2.088,1.234,20,4.351,4.591,-40,113.146524254,norm,0,51,51,51,495.228,495.236,495.238692457,495.239,495.243,495.248,up,1,1.76510345723,2.0,001,002,800_600,Intel(R) Core(TM) i7-2670QM CPU @ 2.20GHz,orientation_search,GRVLAPTOP3,Intel(R) HD Graphics Family,2018_mei_31_1414,testMonitor,
109.2,91.3,130.1,86.0,36,-30,137.0,100.5,110.5,123.8,7.811,7.514,8.224,8.335,7.857,7.516,8.482,4.352,-4.423,-8.326,2.055,-1.307,7.574,5.025,-4.718,-7.871,133.0,105.2,-7.902,96.7,125.5,101.9,77.0,109.5,36,,4,10,prime,15,0,73,norm,36,-4.937,up,norm,106.989015616,95.4,80.4,1.774,110.0,3,79.0,102.2,119.5,15,5,7.547,4.349,1.202,-1.442,-4.419,-7.681,89.1,5,180.0,-8.463,-7.964,-30,-8.289,-7.883,-5.097,-5.25,-5.102,-4.612,4.328,8.408,27,-1.221,1.832,4.79,8.142,-8.171,-7.659,-1.865,1.11,103.7,121.3,119.0,124.4,124.9,132.5,105.5,90.3,120.2,112.1,4,norm,1.927,1.18,-2.099,-1.91,-4.964,-4.366,-2.016,-1.696,-2.059,-1.896,1.568,-1.71,89.2,105.5,-5.058,-8.192,117.1,-1.485,8.04,4.347,-4.313,-8.178,20,5.068,5.226,4.909,4.657,1.272,1.408,1.383,1.846,20,4.668,4.581,-40,113.146524254,norm,0,52,52,52,497.023,497.03,497.031660326,497.032,497.036,497.04,up,1,2.37649082681,-4.0,001,002,800_600,Intel(R) Core(TM) i7-2670QM CPU @ 2.20GHz,orientation_search,GRVLAPTOP3,Intel(R) HD Graphics Family,2018_mei_31_1414,testMonitor,
134.3,138.8,135.5,154.7,36,10,126.3,122.3,122.3,146.7,7.793,8.142,8.453,8.366,7.838,7.993,7.554,4.419,-4.988,-7.855,1.147,-1.5,8.319,5.01,-5.119,-7.709,137.4,147.0,-7.691,135.2,138.0,140.4,138.3,125.5,36,130.7,2,10,probe,10,0,61,norm,36,-5.005,up,norm,134.694825272,145.0,123.0,1.287,135.7,3,126.8,122.6,136.1,15,5,8.315,4.317,1.157,-1.917,-4.724,-8.097,137.0,1,73.7,-7.569,-7.587,-30,-8.19,-7.776,-4.753,-4.918,-4.346,-4.583,4.898,8.1,15,-1.552,1.642,4.489,8.443,-8.326,-8.194,-1.949,1.152,131.0,128.3,151.4,139.5,123.9,139.1,146.4,145.4,140.5,151.1,0,norm,1.419,1.911,-1.913,-1.566,-4.463,-5.171,-1.902,-1.506,-1.832,-1.149,1.27,-1.586,144.0,120.6,-4.305,-8.482,,-1.884,7.832,4.887,-4.31,-7.774,21,5.208,4.449,4.435,4.54,1.596,1.468,1.116,1.826,21,4.665,5.113,-30,106.989015616,norm,0,53,53,53,499.427,499.435,499.437078832,499.438,499.442,499.447,up,1,1.28685326683,7.0,001,002,800_600,Intel(R) Core(TM) i7-2670QM CPU @ 2.20GHz,orientation_search,GRVLAPTOP3,Intel(R) HD Graphics Family,2018_mei_31_1414,testMonitor,
53.1,90.3,80.4,88.8,36,0,70.9,83.0,94.4,92.2,8.11,7.629,7.612,8.204,8.358,7.728,8.159,4.744,-5.134,-8.093,1.229,-1.988,7.557,5.022,-4.42,-8.373,70.2,75.8,-8.4,84.4,,50.0,103.7,64.8,36,59.1,5,10,prime,15,0,74,norm,36,-4.641,down,norm,73.6569736173,43.9,69.3,1.407,80.3,0,92.0,71.8,57.0,15,5,8.369,4.404,1.945,-1.712,-5.176,-8.457,62.8,5,147.7,-7.894,-7.545,0,-8.369,-7.907,-4.635,-4.582,-4.764,-5.125,4.705,7.819,30,-1.406,1.934,5.167,8.415,-8.338,-8.184,-1.467,1.433,59.4,56.6,72.2,59.8,88.4,43.7,82.5,63.7,80.3,70.3,0,norm,1.234,1.276,-1.25,-1.293,-5.013,-4.985,-1.171,-1.78,-1.441,-2.094,1.452,-1.883,69.4,60.4,-5.023,-7.844,80.9,-1.237,7.904,4.515,-5.199,-7.849,22,4.893,4.587,4.38,4.634,1.697,1.113,2.022,1.126,22,4.332,5.104,10,106.989015616,norm,0,54,54,54,500.743,500.751,500.753061037,500.754,500.757,500.762,down,1,1.84469064629,2.0,001,002,800_600,Intel(R) Core(TM) i7-2670QM CPU @ 2.20GHz,orientation_search,GRVLAPTOP3,Intel(R) HD Graphics Family,2018_mei_31_1414,testMonitor,
90.2,89.4,66.2,61.5,36,0,70.0,91.6,87.5,55.0,7.722,8.282,7.726,7.919,7.879,7.865,8.401,5.256,-4.375,-7.906,1.387,-1.751,8.18,4.711,-4.357,-8.061,75.6,101.0,-8.249,90.1,88.1,81.3,76.4,75.5,36,85.6,2,10,prime,15,0,88,norm,36,-5.197,down,norm,73.6569736173,60.4,103.7,1.478,73.6,1,97.3,,59.8,15,5,8.188,4.708,1.654,-2.035,-5.008,-7.633,73.4,5,161.7,-7.866,-8.396,0,-8.13,-8.01,-4.519,-4.512,-4.548,-4.457,4.976,7.767,13,-1.556,1.6,5.221,7.705,-7.934,-7.794,-1.735,1.373,71.6,74.7,89.4,85.7,54.4,57.9,53.2,76.3,91.0,102.6,1,norm,1.272,1.323,-1.181,-1.991,-4.487,-4.525,-1.768,-1.42,-1.476,-1.544,1.942,-1.63,84.8,65.5,-5.074,-7.938,43.7,-1.252,7.63,4.476,-5.136,-8.289,22,5.072,5.172,5.175,5.129,2.048,1.576,1.901,1.154,22,4.816,4.8,10,106.989015616,norm,0,55,55,55,502.617,502.624,502.626601379,502.627,502.631,502.636,down,1,1.33677264625,7.0,001,002,800_600,Intel(R) Core(TM) i7-2670QM CPU @ 2.20GHz,orientation_search,GRVLAPTOP3,Intel(R) HD Graphics Family,2018_mei_31_1414,testMonitor,
63.1,103.7,75.8,95.5,36,0,91.0,61.8,86.2,101.4,7.54,7.779,8.093,8.427,7.866,7.554,8.19,4.949,-4.323,-8.388,1.703,-1.482,7.615,4.649,-4.6,-7.738,83.3,71.3,-8.494,81.1,71.6,76.0,85.9,73.9,36,,4,10,prime,15,0,107,norm,36,-4.874,up,norm,73.6569736173,56.3,43.7,1.696,64.2,3,82.8,82.1,61.7,15,5,7.756,5.079,1.293,-1.627,-4.722,-7.867,50.8,5,180.7,-7.508,-7.656,0,-8.486,-7.93,-4.362,-4.803,-4.822,-5.279,4.91,7.553,27,-1.421,1.185,4.847,8.403,-8.086,-8.421,-1.558,1.698,62.9,48.2,86.9,73.3,91.3,73.6,72.3,62.4,54.1,52.5,2,norm,1.763,1.572,-1.709,-2.089,-4.379,-4.937,-2.088,-1.622,-2.041,-1.183,1.922,-1.253,79.6,59.6,-4.85,-8.155,57.4,-1.426,8.107,5.004,-5.249,-8.019,22,5.277,4.433,4.992,4.475,1.843,2.031,1.183,1.944,22,4.538,4.374,10,106.989015616,norm,0,56,56,56,503.984,503.992,503.99452163,503.995,503.999,504.004,up,1,2.38286108933,-4.0,001,002,800_600,Intel(R) Core(TM) i7-2670QM CPU @ 2.20GHz,orientation_search,GRVLAPTOP3,Intel(R) HD Graphics Family,2018_mei_31_1414,testMonitor,
79.0,79.2,103.7,88.6,36,0,,88.4,76.7,68.0,7.642,7.662,7.575,8.25,7.649,7.843,8.386,4.508,-4.758,-7.603,2.061,-1.763,8.39,5.299,-4.636,-8.277,71.0,76.6,-8.23,71.4,71.2,103.4,48.2,82.9,36,72.6,4,10,prime,15,0,109,norm,36,-4.92,down,norm,73.6569736173,48.7,79.3,1.984,81.2,0,80.4,89.3,62.1,15,5,8.399,4.846,1.656,-1.102,-4.549,-7.728,62.2,5,182.7,-7.792,-7.552,0,-7.718,-8.143,-5.121,-4.593,-4.399,-4.516,4.744,7.684,24,-1.193,1.527,4.999,8.43,-8.196,-7.954,-1.786,1.766,78.3,79.2,64.2,74.2,74.1,82.9,43.7,70.0,54.9,81.0,3,norm,2.066,1.147,-1.939,-1.363,-4.631,-4.945,-1.139,-2.056,-1.555,-1.518,1.966,-1.217,61.6,50.5,-4.748,-7.553,59.0,-1.238,7.7,5.244,-4.651,-8.081,22,4.445,5.233,5.274,4.832,1.178,1.676,1.536,1.384,22,4.428,4.758,10,106.989015616,norm,0,57,57,57,506.397,506.404,506.406100266,506.407,506.41,506.415,down,1,3.39877507164,-14.0,001,002,800_600,Intel(R) Core(TM) i7-2670QM CPU @ 2.20GHz,orientation_search,GRVLAPTOP3,Intel(R) HD Graphics Family,2018_mei_31_1414,testMonitor,
79.2,76.5,63.7,74.4,36,0,79.7,91.2,64.6,89.5,7.89,8.159,7.755,7.582,7.926,8.352,7.502,4.995,-4.91,-8.228,1.703,-2.041,8.474,4.485,-5.237,-8.18,48.8,88.3,-7.603,,103.7,84.0,65.5,52.6,36,64.3,5,10,prime,15,0,79,norm,36,-5.042,down,norm,73.6569736173,60.7,56.3,1.265,59.1,1,84.8,83.0,94.0,15,5,8.385,4.552,1.654,-1.918,-4.865,-7.938,68.5,5,152.7,-7.543,-7.526,0,-7.585,-8.406,-4.392,-4.94,-5.173,-4.809,4.979,8.116,31,-2.06,1.978,5.056,7.642,-8.471,-7.526,-1.671,1.574,71.0,86.1,46.7,85.6,43.7,84.8,98.1,85.4,70.8,81.1,4,norm,1.799,2.074,-1.157,-1.662,-4.502,-5.033,-1.571,-1.33,-1.377,-1.403,1.323,-1.741,63.9,77.6,-4.796,-8.397,75.2,-1.686,7.868,5.235,-4.608,-7.821,22,5.106,4.821,5.045,4.684,1.793,1.729,2.072,1.164,22,4.866,5.07,10,106.989015616,norm,0,58,58,58,509.824,509.832,509.834480108,509.835,509.839,509.844,down,1,1.67374328337,3.0,001,002,800_600,Intel(R) Core(TM) i7-2670QM CPU @ 2.20GHz,orientation_search,GRVLAPTOP3,Intel(R) HD Graphics Family,2018_mei_31_1414,testMonitor,
179.6,173.0,175.0,183.8,36,60,159.1,169.4,178.3,162.2,8.259,7.997,8.163,8.432,7.5,8.017,7.793,5.079,-4.554,-7.511,2.093,-1.278,8.093,4.863,-4.414,-8.349,172.7,171.1,-8.229,175.3,,169.5,174.5,180.0,36,174.0,5,10,probe,10,0,97,norm,36,-4.879,down,norm,170.410172215,171.7,174.7,1.248,164.2,0,166.4,150.4,150.6,15,5,7.537,4.615,1.71,-1.543,-5.256,-7.804,158.6,1,73.4,-7.91,-7.963,0,-8.319,-8.303,-4.441,-4.616,-4.365,-5.078,5.291,7.838,30,-1.242,1.129,4.386,8.425,-8.433,-8.051,-1.802,1.719,168.2,169.0,174.2,178.8,157.7,190.4,181.2,170.5,170.4,175.7,0,norm,1.317,1.254,-1.48,-1.579,-4.508,-4.729,-1.811,-1.469,-1.444,-1.678,1.246,-1.998,159.2,177.5,-5.115,-8.404,166.6,-1.313,8.352,4.559,-4.791,-7.956,23,5.162,4.801,4.985,4.464,1.166,1.859,1.283,1.372,23,4.309,4.794,0,73.6569736173,norm,0,59,59,59,511.528,511.535,511.536685979,511.537,511.541,511.546,down,1,2.41323400792,-4.0,001,002,800_600,Intel(R) Core(TM) i7-2670QM CPU @ 2.20GHz,orientation_search,GRVLAPTOP3,Intel(R) HD Graphics Family,2018_mei_31_1414,testMonitor,
102.0,92.7,98.9,111.3,36,0,77.6,99.0,120.7,76.1,7.875,8.449,7.725,8.35,7.818,8.406,7.763,5.034,-4.599,-7.837,1.2,-1.62,8.366,5.021,-4.511,-7.864,85.6,86.3,-8.236,84.0,65.2,69.6,76.8,115.6,36,107.7,3,10,prime,15,0,118,norm,36,-4.761,down,norm,90.6557911499,70.9,104.8,1.166,119.9,1,95.0,103.3,73.3,15,3,7.81,4.783,1.834,-1.293,-5.293,-7.859,89.2,3,208.7,-7.81,-7.834,0,-7.833,-7.953,-5.268,-4.711,-4.563,-4.879,4.482,8.062,19,-1.569,1.932,4.862,8.324,-8.116,-8.155,-1.561,1.579,102.1,82.6,102.0,73.3,102.3,88.7,68.1,102.6,92.4,86.1,0,norm,1.836,1.166,-1.495,-1.533,-4.693,-5.044,-1.71,-1.582,-1.534,-1.631,1.166,-1.379,,81.2,-5.151,-8.05,60.7,-1.219,8.188,4.786,-4.926,-8.09,24,4.563,5.171,4.954,4.862,1.709,1.423,1.748,1.406,24,4.701,4.365,60,73.6569736173,norm,0,60,60,60,513.97,513.977,513.979832016,513.98,513.984,513.989,down,1,2.24341388542,-2.0,001,002,800_600,Intel(R) Core(TM) i7-2670QM CPU @ 2.20GHz,orientation_search,GRVLAPTOP3,Intel(R) HD Graphics Family,2018_mei_31_1414,testMonitor,
100.0,90.1,94.6,89.7,36,0,88.4,86.3,101.6,79.9,8.413,8.295,7.901,7.811,8.294,7.76,8.133,5.234,-4.612,-8.145,1.786,-1.218,8.15,4.854,-4.766,-7.509,73.9,81.5,-7.709,70.9,81.3,111.2,60.7,,36,71.9,4,10,prime,15,0,61,norm,36,-4.575,down,norm,90.6557911499,86.7,98.0,1.867,76.7,2,92.4,97.6,82.1,15,3,8.017,5.233,1.581,-1.498,-4.342,-8.402,105.3,3,151.7,-8.461,-7.557,0,-8.48,-7.933,-4.722,-4.361,-5.217,-5.082,5.147,7.541,26,-1.502,1.71,5.125,8.069,-7.841,-7.928,-1.523,1.782,95.6,120.7,82.2,90.6,98.1,81.7,107.6,104.6,108.7,120.1,1,norm,1.606,1.231,-1.287,-1.231,-5.272,-4.85,-1.847,-1.234,-1.816,-1.796,1.791,-1.552,86.7,81.2,-5.221,-7.833,85.5,-2.098,7.629,4.641,-5.099,-7.513,24,5.114,5.193,4.93,4.878,1.454,1.948,1.815,2.096,24,4.734,4.526,60,73.6569736173,norm,0,61,61,61,516.243,516.25,516.2519401,516.252,516.256,516.261,down,1,3.77929856134,-18.0,001,002,800_600,Intel(R) Core(TM) i7-2670QM CPU @ 2.20GHz,orientation_search,GRVLAPTOP3,Intel(R) HD Graphics Family,2018_mei_31_1414,testMonitor,
85.6,80.3,108.8,87.8,36,0,86.6,95.5,87.0,81.9,8.019,7.518,8.047,8.245,7.889,8.028,7.526,4.344,-4.583,-7.714,1.331,-1.957,7.97,4.92,-4.851,-8.445,99.4,88.7,-8.142,75.9,98.2,95.9,84.2,93.6,36,100.9,2,10,prime,15,0,115,norm,36,-4.611,down,norm,90.6557911499,79.1,83.1,1.342,92.2,0,75.2,83.3,,15,3,8.384,4.776,1.927,-1.711,-4.801,-8.146,120.7,3,205.7,-8.377,-7.928,0,-8.164,-8.461,-5.198,-4.505,-5.289,-5.146,4.354,8.274,12,-1.237,1.202,4.559,8.147,-8.277,-8.155,-1.683,1.779,85.2,97.3,89.2,74.2,60.7,96.8,80.3,84.6,111.3,78.7,2,norm,1.626,1.588,-1.86,-1.764,-4.381,-5.283,-1.456,-1.144,-1.105,-1.33,1.472,-2.027,113.2,67.5,-4.393,-8.345,84.6,-1.644,8.397,5.246,-5.062,-8.456,24,4.649,5.126,5.07,4.501,1.956,1.831,1.863,1.643,24,4.31,4.417,60,73.6569736173,norm,0,62,62,62,520.051,520.058,520.060656648,520.061,520.065,520.07,up,0,2.33857651109,-13.0,001,002,800_600,Intel(R) Core(TM) i7-2670QM CPU @ 2.20GHz,orientation_search,GRVLAPTOP3,Intel(R) HD Graphics Family,2018_mei_31_1414,testMonitor,
157.1,167.4,177.7,175.0,36,60,152.9,188.7,162.8,157.8,8.082,7.774,7.53,7.682,7.692,7.693,8.282,4.622,-4.627,-7.972,1.772,-1.257,7.766,5.071,-4.588,-7.586,190.3,151.6,-7.733,177.2,159.8,165.2,171.2,,36,170.7,4,10,probe,10,0,81,norm,36,-4.519,down,norm,170.306509367,170.9,175.1,1.136,185.3,2,165.3,174.0,172.3,15,3,7.672,4.344,1.519,-1.946,-4.757,-7.871,168.8,2,89.3,-8.12,-8.451,0,-7.957,-8.039,-4.444,-4.539,-5.222,-4.345,5.225,7.52,26,-1.635,1.261,4.306,8.211,-7.569,-7.869,-1.152,1.171,155.2,165.4,177.9,175.2,150.3,175.3,156.4,169.2,177.2,155.6,0,norm,1.553,1.586,-1.838,-1.384,-4.308,-4.457,-1.143,-1.703,-1.38,-1.506,1.657,-1.295,167.0,175.4,-4.607,-7.903,168.4,-2.02,8.417,4.931,-5.201,-8.474,25,5.059,5.031,4.584,5.095,2.047,1.288,2.031,1.263,25,5.044,5.117,0,90.6557911499,norm,0,63,63,63,523.431,523.439,523.441256719,523.442,523.446,523.451,down,1,3.2862424837,-13.0,001,002,800_600,Intel(R) Core(TM) i7-2670QM CPU @ 2.20GHz,orientation_search,GRVLAPTOP3,Intel(R) HD Graphics Family,2018_mei_31_1414,testMonitor,
,164.0,172.0,174.8,36,60,168.9,180.2,176.2,164.5,8.344,8.392,7.896,8.066,8.278,7.685,7.8,4.482,-4.664,-7.966,1.699,-1.792,8.461,5.212,-4.645,-8.364,168.3,158.9,-8.11,164.8,163.3,167.9,155.3,160.9,36,161.0,3,10,probe,10,0,81,norm,36,-5.23,up,norm,170.306509367,168.8,168.7,1.246,169.8,4,180.3,179.7,171.7,15,3,7.64,4.932,1.362,-1.282,-4.759,-8.141,177.5,2,89.3,-7.81,-7.611,0,-8.204,-7.616,-5.283,-4.9,-4.795,-5.259,5.127,7.574,22,-1.871,1.449,5.274,8.352,-8.331,-8.156,-1.148,1.115,167.6,150.3,156.8,172.8,160.7,179.8,179.6,162.8,181.3,171.8,1,norm,1.78,1.274,-1.144,-1.431,-4.468,-4.638,-1.688,-1.997,-1.464,-1.155,1.551,-1.87,165.6,159.9,-5.171,-7.842,190.3,-1.619,7.975,5.263,-4.819,-8.238,25,5.287,4.422,4.939,4.77,1.836,1.919,2.019,1.296,25,5.123,4.864,0,90.6557911499,norm,0,64,64,64,526.741,526.748,526.749957623,526.75,526.754,526.759,down,0,3.69811904014,-27.0,001,002,800_600,Intel(R) Core(TM) i7-2670QM CPU @ 2.20GHz,orientation_search,GRVLAPTOP3,Intel(R) HD Graphics Family,2018_mei_31_1414,testMonitor,
47.0,27.4,62.0,40.7,36,30,29.3,75.4,45.3,64.7,7.67,7.525,7.878,7.549,7.936,7.504,8.444,4.44,-4.576,-8.388,1.515,-1.383,8.47,4.74,-5.257,-7.785,29.6,20.0,-7.708,31.2,38.8,42.4,26.0,68.3,36,66.9,3,10,prime,15,0,68,norm,36,-4.656,down,norm,50.0121657455,63.1,73.7,1.344,45.4,1,52.0,30.5,76.4,15,5,8.474,5.191,1.652,-1.591,-4.415,-8.154,25.6,5,118.0,-7.876,-8.165,30,-8.187,-7.969,-4.443,-4.885,-4.343,-4.428,4.509,7.79,19,-1.681,1.76,4.812,8.402,-8.075,-7.508,-1.251,1.733,23.5,43.7,54.8,64.6,71.1,80.0,64.9,41.1,36.0,54.7,0,norm,1.173,1.499,-1.797,-1.932,-5.063,-4.459,-1.376,-1.583,-1.398,-1.474,1.972,-1.435,,76.8,-4.343,-8.256,40.2,-1.493,8.302,5.051,-4.815,-8.47,26,5.097,4.387,4.775,4.612,1.615,1.999,1.945,1.393,26,5.276,4.354,60,90.6557911499,norm,0,65,65,65,531.48,531.487,531.489576762,531.49,531.494,531.498,down,1,1.39071815114,6.0,001,002,800_600,Intel(R) Core(TM) i7-2670QM CPU @ 2.20GHz,orientation_search,GRVLAPTOP3,Intel(R) HD Graphics Family,2018_mei_31_1414,testMonitor,
41.9,56.3,63.3,48.7,36,30,50.6,47.4,47.0,21.0,8.489,8.338,7.783,8.334,7.914,7.892,7.725,4.834,-5.041,-8.336,1.784,-1.802,7.708,4.334,-4.348,-7.917,48.0,44.8,-7.737,63.5,42.4,70.9,43.8,55.8,36,48.2,2,10,prime,15,0,116,norm,36,-4.832,down,norm,50.0121657455,46.4,59.9,1.921,39.3,1,51.4,,25.0,15,5,8.114,4.891,1.808,-1.166,-4.644,-7.856,62.1,5,166.0,-8.283,-8.405,30,-7.665,-8.327,-4.486,-4.615,-4.42,-4.802,4.39,7.525,13,-1.755,1.393,4.994,8.38,-8.034,-8.469,-1.491,1.923,41.5,70.4,41.6,80.0,38.8,42.0,49.2,28.1,66.5,52.4,1,norm,1.472,1.147,-1.615,-2.074,-4.797,-4.415,-1.792,-1.434,-1.343,-1.512,1.596,-2.001,20.0,37.5,-5.164,-7.953,30.6,-1.251,7.949,4.423,-5.035,-7.969,26,4.709,4.984,5.219,4.45,1.362,1.243,1.654,1.195,26,4.611,5.153,60,90.6557911499,norm,0,66,66,66,532.899,532.906,532.908644963,532.909,532.913,532.917,down,1,1.89944632603,1.0,001,002,800_600,Intel(R) Core(TM) i7-2670QM CPU @ 2.20GHz,orientation_search,GRVLAPTOP3,Intel(R) HD Graphics Family,2018_mei_31_1414,testMonitor,
21.8,53.8,57.5,64.6,36,30,75.8,52.4,46.3,31.1,7.994,7.619,8.059,8.445,8.192,7.853,8.045,5.237,-5.162,-8.234,1.136,-1.762,8.025,4.843,-5.08,-8.225,79.1,74.7,-8.415,79.4,63.5,74.2,58.4,29.3,36,50.3,0,10,prime,15,0,118,norm,36,-4.918,down,norm,50.0121657455,52.6,36.5,1.681,69.1,2,36.6,67.5,37.5,15,5,7.521,4.998,1.493,-1.899,-4.786,-7.856,47.6,5,168.0,-8.312,-7.92,30,-7.629,-8.2,-4.418,-5.017,-4.485,-4.704,4.874,7.799,2,-1.427,1.313,4.901,7.655,-7.871,-7.94,-1.125,1.785,31.3,80.0,20.0,,62.1,53.2,48.6,54.4,55.3,53.7,2,norm,1.752,1.811,-1.341,-1.963,-4.482,-4.873,-1.187,-1.928,-1.201,-1.27,1.742,-1.676,49.9,67.1,-5.047,-8.264,38.8,-1.769,7.606,4.649,-4.394,-7.877,26,4.697,5.117,4.85,5.067,1.405,1.237,1.593,1.917,26,4.359,5.246,60,90.6557911499,norm,0,67,67,67,534.828,534.835,534.837096016,534.838,534.841,534.846,down,1,6.66869918604,-47.0,001,002,800_600,Intel(R) Core(TM) i7-2670QM CPU @ 2.20GHz,orientation_search,GRVLAPTOP3,Intel(R) HD Graphics Family,2018_mei_31_1414,testMonitor,
62.7,73.3,44.7,64.9,36,30,32.2,60.8,80.0,51.3,7.505,8.39,7.715,7.889,8.471,8.158,8.255,5.123,-4.521,-7.505,1.223,-1.753,7.893,5.194,-5.169,-8.211,29.2,54.4,-8.316,22.5,40.3,54.6,46.2,46.5,36,58.6,2,10,prime,15,0,112,norm,36,-4.474,up,norm,50.0121657455,68.0,55.3,1.294,34.8,3,53.1,43.5,33.2,15,5,8.174,4.804,1.677,-1.533,-4.399,-8.351,36.9,5,162.0,-7.782,-7.7,30,-7.928,-8.285,-5.049,-4.896,-5.022,-4.431,4.431,7.573,15,-1.237,1.816,4.513,8.31,-7.862,-7.528,-1.358,1.902,51.1,35.7,70.4,29.5,29.2,24.4,49.9,20.0,65.6,60.1,3,norm,1.75,1.854,-1.997,-1.641,-5.1,-4.73,-1.661,-1.949,-1.744,-1.495,1.711,-1.775,57.3,67.7,-4.786,-8.11,,-2.068,8.328,4.691,-4.488,-8.338,26,4.806,5.046,4.434,4.342,1.183,1.281,1.774,1.298,26,5.298,4.401,60,90.6557911499,norm,0,68,68,68,541.526,541.534,541.536265715,541.537,541.541,541.546,up,1,1.362315335,6.0,001,002,800_600,Intel(R) Core(TM) i7-2670QM CPU @ 2.20GHz,orientation_search,GRVLAPTOP3,Intel(R) HD Graphics Family,2018_mei_31_1414,testMonitor,
45.0,48.9,39.0,69.7,36,30,44.2,,60.7,20.0,7.841,8.122,8.044,7.872,7.771,8.485,7.857,4.474,-5.279,-7.556,1.323,-1.555,8.315,4.865,-5.017,-7.55,46.5,36.3,-8.335,46.1,34.6,50.0,62.7,47.8,36,75.2,4,10,prime,15,0,86,norm,36,-4.344,down,norm,50.0121657455,55.5,44.4,1.422,57.3,1,65.3,62.7,47.1,15,5,8.039,5.19,1.407,-1.264,-4.429,-8.021,30.7,5,136.0,-7.845,-7.7,30,-7.776,-8.077,-4.754,-4.928,-4.594,-4.759,5.041,8.48,25,-1.637,1.274,4.489,7.919,-7.802,-8.189,-1.488,1.295,38.3,34.1,41.4,28.6,38.0,46.8,30.5,50.9,44.8,80.0,4,norm,2.081,2.049,-1.645,-1.403,-5.102,-4.53,-1.628,-1.876,-1.657,-1.39,1.971,-1.897,51.5,56.6,-4.581,-8.423,40.0,-1.874,8.226,4.753,-4.937,-8.312,26,5.167,4.406,4.678,4.481,1.405,1.271,1.717,1.465,26,4.401,4.708,60,90.6557911499,norm,0,69,69,69,542.919,542.927,542.928841898,542.929,542.933,542.938,down,1,1.26123352975,7.0,001,002,800_600,Intel(R) Core(TM) i7-2670QM CPU @ 2.20GHz,orientation_search,GRVLAPTOP3,Intel(R) HD Graphics Family,2018_mei_31_1414,testMonitor,
179.7,167.3,182.6,156.6,36,-20,193.8,174.1,176.5,196.6,7.764,8.039,7.986,7.665,8.1,8.049,8.4,4.379,-4.593,-8.404,1.608,-1.389,7.553,4.731,-5.144,-7.945,167.9,173.8,-8.318,184.7,184.7,181.6,169.1,,36,184.9,4,10,probe,10,0,97,norm,36,-5.202,down,norm,176.615330372,178.6,191.4,1.479,169.1,2,170.5,172.0,164.1,15,5,7.507,4.431,1.692,-1.798,-5.064,-8.189,184.8,2,79.6,-8.422,-8.065,30,-7.66,-7.683,-5.02,-5.261,-4.45,-4.526,4.453,8.262,26,-1.398,1.93,4.53,8.327,-8.35,-8.001,-2.007,1.718,161.4,181.7,185.6,185.7,179.8,167.6,170.7,183.3,181.2,178.3,0,norm,1.226,1.372,-1.83,-1.276,-4.888,-4.728,-1.291,-1.671,-1.222,-1.749,2.082,-1.127,195.1,170.1,-4.317,-7.52,170.5,-1.446,8.345,4.666,-4.659,-7.654,27,4.973,4.858,5.173,4.873,1.776,1.788,2.072,1.644,27,4.47,5.074,30,50.0121657455,norm,0,70,70,70,544.211,544.218,544.220515589,544.221,544.225,544.23,up,0,1.18250974895,-18.0,001,002,800_600,Intel(R) Core(TM) i7-2670QM CPU @ 2.20GHz,orientation_search,GRVLAPTOP3,Intel(R) HD Graphics Family,2018_mei_31_1414,testMonitor,
136.9,135.6,145.9,155.2,36,-20,166.3,152.1,161.0,,7.803,7.551,8.336,8.248,8.264,8.013,8.478,4.913,-5.254,-7.696,1.741,-1.843,7.841,4.808,-4.744,-7.96,168.1,162.6,-8.433,150.4,141.2,156.8,149.0,158.9,36,155.4,4,10,probe,10,0,76,norm,36,-4.866,up,norm,155.615330372,162.5,142.7,1.825,147.7,5,162.1,143.1,160.4,15,5,8.441,4.998,2.099,-1.623,-5.208,-7.926,153.4,2,79.6,-8.477,-7.507,30,-8.258,-8.435,-4.761,-4.652,-5.273,-4.82,4.926,8.262,29,-1.389,2.068,5.155,8.411,-8.256,-7.892,-1.523,1.623,152.0,170.3,163.2,172.1,149.9,144.0,154.2,149.7,173.0,175.6,1,norm,2.078,1.832,-1.179,-1.186,-5.18,-5.25,-1.784,-1.424,-1.706,-1.275,1.14,-1.804,157.6,153.7,-4.355,-7.939,139.9,-1.196,7.963,4.535,-4.952,-7.648,27,4.781,5.004,5.169,4.525,1.421,1.868,1.12,1.384,27,4.501,5.081,30,50.0121657455,norm,0,71,71,71,546.425,546.433,546.435804032,546.436,546.44,546.446,up,1,1.8030934204,2.0,001,002,800_600,Intel(R) Core(TM) i7-2670QM CPU @ 2.20GHz,orientation_search,GRVLAPTOP3,Intel(R) HD Graphics Family,2018_mei_31_1414,testMonitor,
314.5,269.6,286.1,329.6,36,-80,280.7,319.7,300.8,292.1,8.282,8.393,8.32,8.086,7.644,8.033,7.929,4.918,-4.851,-8.195,1.204,-1.336,7.623,4.811,-5.105,-8.182,282.7,283.5,-8.141,283.0,289.3,289.5,300.5,288.0,36,305.1,2,10,prime,15,0,111,norm,36,-4.324,up,norm,299.601264364,271.0,301.1,1.413,312.3,3,299.3,313.9,274.5,15,6,8.297,4.301,1.942,-1.465,-4.969,-8.148,291.5,6,410.6,-7.619,-8.159,-80,-7.597,-7.838,-5.238,-4.494,-5.247,-4.595,4.327,8.327,15,-1.305,1.121,4.685,7.572,-7.711,-8.248,-1.594,1.512,307.6,325.7,290.7,318.3,296.3,286.9,316.1,297.5,286.9,304.9,0,norm,1.224,1.727,-1.628,-1.295,-4.355,-5.049,-1.302,-1.188,-1.754,-1.963,2.033,-1.577,293.7,308.8,-4.822,-8.281,,-2.097,8.39,4.585,-5.188,-8.236,28,4.422,4.509,5.268,4.495,1.338,1.665,2.039,2.01,28,5.152,4.653,-20,50.0121657455,norm,0,72,72,72,548.261,548.269,548.27130398,548.272,548.276,548.282,up,1,1.69863549743,3.0,001,002,800_600,Intel(R) Core(TM) i7-2670QM CPU @ 2.20GHz,orientation_search,GRVLAPTOP3,Intel(R) HD Graphics Family,2018_mei_31_1414,testMonitor,
294.6,304.5,298.5,290.3,36,-80,283.7,327.3,293.0,304.2,8.07,8.094,8.165,7.946,7.918,7.861,8.285,4.855,-4.616,-8.496,1.32,-1.198,7.827,5.256,-4.51,-7.626,303.4,294.9,-8.499,324.5,324.9,291.3,,308.2,36,289.0,5,10,prime,15,0,75,norm,36,-5.19,down,norm,299.601264364,311.9,318.5,1.988,312.9,2,293.1,306.3,287.3,15,6,7.791,4.318,1.957,-1.658,-4.738,-7.994,301.8,6,374.6,-7.852,-8.159,-80,-8.254,-7.949,-4.71,-5.075,-4.868,-5.17,4.337,8.479,32,-1.182,1.605,4.692,8.38,-8.021,-8.188,-1.197,2.057,269.6,311.4,288.1,310.2,301.4,307.9,327.9,292.8,312.3,329.6,1,norm,1.245,1.335,-1.797,-1.916,-4.484,-4.478,-1.642,-1.689,-1.898,-1.69,1.396,-1.916,302.7,288.7,-4.792,-8.039,313.0,-1.729,7.991,4.733,-4.444,-8.337,28,4.967,4.51,4.35,4.573,1.859,1.269,1.525,1.119,28,5.007,4.631,-20,50.0121657455,norm,0,73,73,73,549.994,550.001,550.003477915,550.004,550.008,550.013,down,1,2.50198434471,-5.0,001,002,800_600,Intel(R) Core(TM) i7-2670QM CPU @ 2.20GHz,orientation_search,GRVLAPTOP3,Intel(R) HD Graphics Family,2018_mei_31_1414,testMonitor,
329.6,283.3,304.9,275.7,36,-80,313.3,312.5,280.3,308.5,7.547,8.006,8.155,8.104,8.452,8.434,7.635,5.087,-4.322,-7.961,1.382,-1.871,7.668,5.266,-5.258,-7.763,280.3,285.1,-7.873,314.1,,271.3,303.4,269.6,36,292.1,5,10,prime,15,0,115,norm,36,-4.835,down,norm,299.601264364,304.7,286.7,1.543,300.6,0,300.6,295.3,288.0,15,6,8.306,4.893,1.997,-1.293,-5.149,-8.054,307.7,6,414.6,-8.404,-7.69,-80,-7.531,-8.391,-4.879,-4.825,-4.571,-4.404,4.695,8.314,30,-1.208,1.979,5.147,7.673,-8.263,-7.835,-1.712,1.575,305.5,307.1,299.6,317.4,296.8,289.0,321.1,309.6,299.2,307.8,2,norm,1.642,1.841,-1.339,-1.767,-4.381,-4.578,-1.435,-1.574,-2.016,-1.619,1.388,-1.241,310.1,312.5,-4.426,-8.204,296.4,-1.543,7.678,4.757,-4.951,-8.424,28,4.338,4.693,5.269,5.075,1.393,1.912,1.771,1.415,28,4.744,5.273,-20,50.0121657455,norm,0,74,74,74,552.525,552.533,552.535079638,552.536,552.539,552.544,down,1,1.45847351849,5.0,001,002,800_600,Intel(R) Core(TM) i7-2670QM CPU @ 2.20GHz,orientation_search,GRVLAPTOP3,Intel(R) HD Graphics Family,2018_mei_31_1414,testMonitor,
319.9,302.0,324.2,293.5,36,-80,287.2,287.3,301.9,321.2,7.99,7.597,8.216,7.981,8.371,8.483,8.172,4.931,-4.332,-8.272,1.58,-1.11,7.611,4.39,-4.93,-7.959,310.2,319.6,-7.875,316.5,290.6,308.8,298.9,310.5,36,306.2,2,10,prime,15,0,79,norm,36,-4.327,up,norm,299.601264364,303.2,305.7,1.737,298.7,3,299.1,269.6,302.8,15,6,8.091,4.557,1.877,-1.774,-5.212,-7.724,291.6,6,378.6,-7.579,-8.266,-80,-7.726,-7.951,-4.353,-4.993,-4.799,-4.65,4.754,8.335,15,-1.628,1.876,4.752,8.164,-8.297,-8.386,-1.475,1.856,291.9,305.2,319.3,316.8,326.5,315.3,329.6,296.1,300.1,280.8,3,norm,2.003,1.501,-1.861,-1.781,-5.222,-4.527,-1.17,-2.064,-1.433,-1.119,1.707,-1.847,306.0,300.7,-5.158,-7.638,,-1.699,8.309,5.176,-4.515,-7.617,28,5.288,5.159,5.213,4.383,1.677,1.344,1.961,1.345,28,4.344,4.451,-20,50.0121657455,norm,0,75,75,75,554.012,554.019,554.02101785,554.022,554.025,554.03,up,1,1.88980080905,1.0,001,002,800_600,Intel(R) Core(TM) i7-2670QM CPU @ 2.20GHz,orientation_search,GRVLAPTOP3,Intel(R) HD Graphics Family,2018_mei_31_1414,testMonitor,
329.5,319.7,297.4,302.8,36,-80,315.0,300.4,307.7,293.6,7.998,7.612,8.066,7.559,7.996,7.599,8.158,4.62,-5.134,-8.22,1.818,-1.41,7.754,4.301,-4.849,-7.645,293.6,300.3,-7.914,,323.6,297.6,299.4,322.2,36,300.2,5,10,prime,15,0,75,norm,36,-4.55,down,norm,299.601264364,321.7,306.5,1.642,294.4,1,305.5,303.8,287.6,15,6,7.902,5.293,1.286,-1.964,-5.112,-8.313,309.9,6,374.6,-8.181,-8.433,-80,-7.516,-8.032,-4.566,-4.423,-4.682,-4.677,4.607,7.601,31,-1.753,1.826,4.682,8.172,-7.539,-7.825,-1.771,2.092,309.6,286.9,269.6,295.9,290.6,299.4,315.7,299.7,290.4,291.0,4,norm,1.954,1.228,-1.881,-1.602,-4.419,-4.827,-2.099,-2.081,-1.41,-1.966,2.068,-1.872,281.6,280.1,-4.856,-8.252,329.6,-1.499,8.271,4.804,-4.918,-7.605,28,5.007,4.543,5.167,5.289,1.503,1.182,1.775,1.729,28,5.134,5.275,-20,50.0121657455,norm,0,76,76,76,555.931,555.939,555.940847429,555.941,555.946,555.951,down,1,1.39568006358,6.0,001,002,800_600,Intel(R) Core(TM) i7-2670QM CPU @ 2.20GHz,orientation_search,GRVLAPTOP3,Intel(R) HD Graphics Family,2018_mei_31_1414,testMonitor,
325.4,295.1,311.6,293.1,36,-80,329.6,318.5,318.6,296.1,7.534,7.869,7.922,8.192,8.449,7.988,8.351,5.22,-4.754,-7.736,1.149,-1.598,8.226,5.222,-5.178,-8.026,278.6,301.1,-7.594,282.5,317.7,281.4,312.5,307.6,36,288.3,0,10,prime,15,0,119,norm,36,-4.523,down,norm,299.601264364,269.6,318.7,1.728,280.1,0,287.3,287.9,272.0,15,6,7.965,5.112,1.407,-1.323,-4.38,-7.949,306.9,6,418.6,-8.224,-8.207,-80,-7.521,-8.259,-4.709,-5.26,-4.864,-5.168,4.371,7.877,0,-1.748,1.734,4.769,8.402,-7.63,-7.805,-1.16,1.416,303.7,293.5,290.5,289.6,309.0,,286.5,327.2,315.1,285.7,5,norm,1.323,1.512,-1.443,-1.24,-4.79,-4.443,-1.205,-1.56,-2.025,-1.55,1.401,-1.22,299.5,302.5,-5.015,-7.774,282.9,-1.511,7.826,4.629,-4.66,-8.036,28,4.672,4.425,4.972,4.411,1.309,1.73,1.354,1.455,28,5.041,4.881,-20,50.0121657455,norm,0,77,77,77,557.356,557.364,557.365831074,557.366,557.37,557.375,up,0,2.29271267557,-13.0,001,002,800_600,Intel(R) Core(TM) i7-2670QM CPU @ 2.20GHz,orientation_search,GRVLAPTOP3,Intel(R) HD Graphics Family,2018_mei_31_1414,testMonitor,
,297.2,308.9,295.1,36,80,290.2,293.8,315.0,305.2,8.234,7.802,8.22,8.4,7.684,8.158,8.206,5.135,-4.441,-8.312,2.091,-1.384,8.238,4.45,-4.962,-7.616,308.0,278.2,-7.793,280.8,293.6,290.3,288.1,276.4,36,298.2,3,10,probe,10,0,81,norm,36,-5.091,up,norm,296.372894458,283.5,298.2,1.824,302.3,4,310.7,303.0,301.5,15,6,7.757,4.872,1.428,-1.397,-5.062,-7.643,296.8,1,215.4,-8.404,-7.633,-80,-8.257,-8.42,-4.965,-5.296,-5.206,-4.914,5.114,7.52,22,-1.537,1.814,5.232,7.54,-7.734,-8.222,-1.252,2.038,294.6,294.4,299.0,297.4,296.8,289.8,300.3,316.4,295.8,299.3,0,norm,1.133,1.446,-1.413,-1.828,-5.101,-4.451,-1.789,-1.642,-1.265,-1.137,1.554,-1.454,290.5,310.5,-5.098,-8.388,299.8,-1.862,7.554,4.628,-5.026,-8.119,29,4.668,4.682,4.802,4.414,1.876,2.04,1.807,2.046,29,4.88,4.468,-80,299.601264364,norm,0,78,78,78,560.683,560.69,560.692499182,560.693,560.697,560.702,up,1,1.176479433,8.0,001,002,800_600,Intel(R) Core(TM) i7-2670QM CPU @ 2.20GHz,orientation_search,GRVLAPTOP3,Intel(R) HD Graphics Family,2018_mei_31_1414,testMonitor,
354.9,316.1,331.2,305.6,36,80,331.5,313.2,322.6,322.8,8.35,8.467,7.832,7.915,8.182,8.348,7.721,4.82,-4.587,-7.86,1.197,-1.243,7.712,4.877,-4.705,-7.898,327.2,,-7.725,335.6,330.3,311.4,314.4,312.6,36,314.9,5,10,prime,15,0,75,norm,36,-4.5,up,norm,330.502817068,351.1,327.0,1.661,320.2,4,310.1,338.4,327.0,15,2,8.255,4.553,1.587,-1.141,-4.955,-7.768,349.5,2,405.5,-7.501,-8.134,80,-8.01,-8.282,-4.947,-4.31,-4.466,-5.214,5.147,7.884,34,-1.893,1.691,5.018,8.311,-8.441,-7.856,-2.051,1.374,324.2,326.5,300.5,334.7,314.6,327.4,360.5,354.3,332.6,345.3,0,norm,1.999,1.944,-1.415,-1.539,-4.42,-4.35,-1.999,-1.882,-1.537,-1.582,1.785,-1.959,316.7,325.4,-4.77,-8.279,322.5,-1.844,8.231,4.321,-5.118,-7.637,30,5.139,4.857,4.463,5.044,1.963,1.617,1.969,1.216,30,4.613,4.307,80,299.601264364,norm,0,79,79,79,561.888,561.895,561.897871271,561.898,561.902,561.907,up,1,2.43354161287,-4.0,001,002,800_600,Intel(R) Core(TM) i7-2670QM CPU @ 2.20GHz,orientation_search,GRVLAPTOP3,Intel(R) HD Graphics Family,2018_mei_31_1414,testMonitor,
328.8,333.0,344.4,360.5,36,80,339.5,327.7,330.1,320.1,8.22,8.309,8.143,8.43,8.125,7.643,7.747,4.525,-4.301,-7.722,1.655,-2.025,8.016,4.358,-4.499,-7.6,328.5,333.4,-7.952,332.9,303.9,329.2,350.2,331.6,36,332.6,0,10,prime,15,0,119,norm,36,-4.958,down,norm,330.502817068,337.8,334.5,1.972,332.8,2,327.4,300.5,359.2,15,2,8.268,4.847,1.504,-1.367,-5.01,-8.402,334.9,2,449.5,-7.515,-7.988,80,-8.396,-8.006,-5.255,-4.736,-4.608,-4.371,5.219,8.381,2,-1.289,2.06,4.51,7.924,-8.208,-8.441,-1.193,2.027,322.0,352.5,326.6,,347.9,324.4,348.9,353.9,323.7,346.9,1,norm,1.504,1.796,-1.389,-1.782,-5.189,-4.685,-1.106,-1.248,-1.838,-1.43,1.636,-1.381,307.9,331.7,-4.824,-7.881,344.8,-1.982,7.928,4.933,-4.804,-7.86,30,5.107,4.417,4.436,5.061,1.433,1.757,1.14,1.261,30,4.388,4.686,80,299.601264364,norm,0,80,80,80,564.352,564.36,564.362007609,564.363,564.367,564.372,down,1,1.38188794558,6.0,001,002,800_600,Intel(R) Core(TM) i7-2670QM CPU @ 2.20GHz,orientation_search,GRVLAPTOP3,Intel(R) HD Graphics Family,2018_mei_31_1414,testMonitor,
512.5,523.2,495.8,511.6,36,20,531.6,515.2,527.3,520.2,7.602,8.083,8.161,8.065,7.614,7.718,7.74,5.129,-5.131,-7.704,1.419,-2.039,8.306,5.08,-5.163,-7.845,505.4,529.6,-7.7,522.5,526.8,512.5,501.1,502.7,36,514.2,0,10,probe,10,0,96,norm,36,-4.973,down,norm,511.573168538,526.4,498.3,1.856,521.6,2,518.7,522.8,491.6,15,2,7.643,4.476,1.378,-1.168,-5.204,-7.525,506.0,2,415.6,-7.531,-8.09,80,-7.82,-7.735,-4.389,-5.146,-4.917,-5.11,5.048,8.013,2,-1.131,2.025,5.094,8.341,-8.186,-8.198,-1.75,1.629,516.4,493.8,515.6,,513.4,528.5,520.0,516.7,523.3,514.3,0,norm,1.103,1.476,-1.19,-1.48,-4.51,-4.754,-1.887,-1.779,-1.893,-1.239,1.698,-1.57,517.5,504.8,-4.848,-8.182,518.2,-2.034,7.83,5.002,-4.312,-7.852,31,4.802,4.943,4.396,5.294,1.152,1.254,1.379,1.605,31,5.21,4.725,80,330.502817068,norm,0,81,81,81,565.765,565.773,565.775824382,565.776,565.78,565.786,down,1,2.9356216843,-9.0,001,002,800_600,Intel(R) Core(TM) i7-2670QM CPU @ 2.20GHz,orientation_search,GRVLAPTOP3,Intel(R) HD Graphics Family,2018_mei_31_1414,testMonitor,
501.8,520.7,507.6,,36,20,494.0,511.9,487.6,499.8,8.149,7.624,8.437,8.047,8.202,8.299,8.081,4.645,-5.099,-8.354,1.318,-2.047,8.217,5.27,-5.092,-8.375,504.3,516.1,-8.44,509.3,507.3,500.9,493.6,504.0,36,515.4,3,10,probe,10,0,92,norm,36,-4.487,up,norm,507.573168538,511.0,512.8,1.989,508.8,3,515.9,511.8,502.8,15,2,8.064,5.293,2.018,-1.86,-4.41,-8.407,524.3,2,415.6,-8.399,-8.307,80,-8.002,-8.083,-5.064,-5.108,-4.965,-4.39,5.101,8.217,21,-1.925,1.604,4.929,7.523,-8.24,-8.205,-1.473,1.256,509.4,513.1,527.6,490.6,518.6,489.2,504.5,515.3,508.4,498.9,1,norm,2.018,1.493,-2.016,-1.261,-5.166,-4.465,-1.171,-1.286,-1.958,-1.168,1.826,-1.622,512.4,503.2,-4.87,-7.561,501.5,-2.037,7.573,4.624,-4.874,-8.256,31,4.666,4.84,4.502,5.132,1.994,1.526,2.022,1.352,31,5.25,5.279,80,330.502817068,norm,0,82,82,82,568.733,568.741,568.743337538,568.744,568.748,568.753,up,1,1.50991378525,5.0,001,002,800_600,Intel(R) Core(TM) i7-2670QM CPU @ 2.20GHz,orientation_search,GRVLAPTOP3,Intel(R) HD Graphics Family,2018_mei_31_1414,testMonitor,
209.5,207.9,186.3,199.5,36,10,187.2,215.7,183.5,177.6,8.424,7.969,8.389,7.798,7.629,8.465,7.523,4.709,-4.79,-7.808,2.022,-1.353,7.689,4.792,-4.542,-7.545,179.0,180.8,-8.37,176.1,215.6,181.9,183.9,198.0,36,216.5,2,10,prime,15,0,71,norm,36,-4.632,up,norm,190.20794601,,177.7,1.76,199.8,5,183.4,216.9,197.3,15,5,8.064,4.461,1.759,-2.001,-4.71,-7.869,182.5,5,261.2,-7.714,-7.762,10,-7.802,-7.869,-5.031,-4.643,-4.47,-4.605,4.63,7.841,17,-1.101,1.877,4.668,7.654,-8.431,-8.208,-1.947,1.882,178.7,208.3,175.5,201.1,194.4,168.9,208.0,189.4,220.2,183.0,0,norm,1.135,1.609,-2.048,-1.115,-4.707,-5.159,-1.615,-1.4,-1.718,-1.987,2.039,-1.786,180.6,206.2,-4.986,-7.853,160.2,-1.643,7.698,5.066,-4.305,-7.562,32,5.002,4.691,4.627,4.92,1.58,1.381,1.696,1.315,32,4.927,4.723,20,330.502817068,norm,0,83,83,83,570.273,570.28,570.282243442,570.283,570.286,570.291,up,1,3.34088749403,-13.0,001,002,800_600,Intel(R) Core(TM) i7-2670QM CPU @ 2.20GHz,orientation_search,GRVLAPTOP3,Intel(R) HD Graphics Family,2018_mei_31_1414,testMonitor,
188.9,182.8,170.8,162.5,36,10,202.4,187.8,196.8,160.2,8.181,8.422,7.789,7.924,8.225,8.31,7.856,5.056,-4.977,-7.788,1.372,-1.308,8.214,4.653,-4.789,-8.173,194.2,205.3,-7.645,189.2,172.2,203.4,195.4,199.3,36,187.3,3,10,prime,15,0,67,norm,36,-4.912,down,norm,190.20794601,205.0,187.8,1.72,178.8,1,204.8,208.5,181.6,15,5,7.643,4.989,1.508,-1.928,-4.487,-8.042,205.5,5,257.2,-7.631,-8.264,10,-8.298,-8.348,-5.228,-5.15,-5.095,-4.54,4.669,8.005,19,-1.83,1.731,4.439,8.085,-8.277,-7.734,-1.457,1.83,188.3,202.9,173.2,191.0,187.7,168.6,220.2,197.0,181.5,194.3,1,norm,1.533,1.563,-2.037,-1.935,-5.039,-4.404,-1.22,-1.682,-1.8,-1.799,1.745,-1.822,,178.1,-5.255,-8.051,186.5,-1.905,7.706,5.114,-4.316,-8.379,32,4.572,4.987,5.193,4.746,1.766,1.662,1.141,1.895,32,4.849,4.559,20,330.502817068,norm,0,84,84,84,573.643,573.65,573.652357469,573.653,573.657,573.662,up,0,1.34462083583,-17.0,001,002,800_600,Intel(R) Core(TM) i7-2670QM CPU @ 2.20GHz,orientation_search,GRVLAPTOP3,Intel(R) HD Graphics Family,2018_mei_31_1414,testMonitor,
169.4,192.0,190.8,166.4,36,10,175.7,207.5,212.2,187.5,8.329,7.608,8.117,7.632,8.388,7.973,7.717,4.738,-4.972,-7.844,2.007,-1.879,8.337,4.413,-4.323,-8.016,196.0,207.3,-8.153,219.3,193.6,195.1,181.7,160.2,36,185.5,0,10,prime,15,0,94,norm,36,-4.488,down,norm,190.20794601,196.1,205.5,1.278,167.7,1,174.6,179.8,208.4,15,5,7.806,5.014,1.35,-1.326,-5.006,-8.271,202.4,5,284.2,-7.717,-7.588,10,-8.293,-7.675,-4.389,-4.579,-4.346,-4.486,5.267,7.607,1,-1.798,1.349,4.744,7.75,-7.609,-8.419,-1.802,1.644,175.3,185.6,195.8,190.8,,203.0,188.2,220.2,197.5,209.1,2,norm,2.096,1.451,-1.818,-1.372,-4.553,-4.97,-1.894,-1.299,-1.665,-1.829,1.353,-1.2,176.8,177.6,-4.353,-7.845,193.1,-1.702,8.283,4.452,-4.32,-7.856,32,4.683,4.944,4.707,5.232,1.953,1.609,1.124,1.846,32,5.133,4.929,20,330.502817068,norm,0,85,85,85,576.018,576.025,576.027010343,576.028,576.031,576.036,down,1,3.96477070184,-20.0,001,002,800_600,Intel(R) Core(TM) i7-2670QM CPU @ 2.20GHz,orientation_search,GRVLAPTOP3,Intel(R) HD Graphics Family,2018_mei_31_1414,testMonitor,
202.4,209.2,201.4,200.4,36,10,193.5,212.2,191.3,200.2,8.226,8.192,8.381,7.863,7.858,7.628,8.298,4.972,-4.631,-7.624,1.931,-1.614,8.043,4.991,-5.195,-8.14,180.4,198.3,-7.66,201.9,220.0,196.7,196.4,177.2,36,214.3,0,10,prime,15,0,83,norm,36,-4.524,up,norm,190.20794601,201.7,212.0,1.705,176.5,4,160.2,200.6,184.7,15,5,8.136,4.677,1.524,-1.221,-4.513,-7.924,195.4,5,273.2,-8.224,-7.559,10,-8.018,-8.072,-5.196,-4.469,-4.787,-4.641,4.817,8.312,4,-1.118,1.997,5.197,8.442,-8.144,-7.705,-1.422,1.802,220.2,177.0,215.7,165.7,195.4,179.3,179.0,173.8,192.7,,3,norm,1.896,1.901,-1.971,-1.5,-5.176,-4.857,-1.96,-1.186,-2.079,-1.231,1.399,-1.976,187.3,185.8,-5.035,-7.768,169.6,-1.171,7.836,4.38,-4.453,-7.976,32,4.479,4.68,4.473,4.717,1.901,1.701,1.99,1.993,32,4.42,4.665,20,330.502817068,norm,0,86,86,86,580.012,580.019,580.021018784,580.021,580.025,580.031,down,0,1.56070311037,-14.0,001,002,800_600,Intel(R) Core(TM) i7-2670QM CPU @ 2.20GHz,orientation_search,GRVLAPTOP3,Intel(R) HD Graphics Family,2018_mei_31_1414,testMonitor,
179.3,182.2,218.2,185.9,36,10,171.8,177.4,187.6,180.9,8.358,8.289,7.594,7.595,8.34,7.978,8.402,4.863,-4.415,-8.122,1.595,-2.05,8.224,4.706,-4.5,-8.077,195.6,215.1,-8.138,196.7,220.2,183.4,211.7,,36,185.8,4,10,prime,15,0,104,norm,36,-4.585,down,norm,190.20794601,173.6,199.8,1.961,165.1,2,202.2,194.1,185.2,15,5,7.919,4.411,1.971,-1.863,-4.996,-8.17,188.7,5,294.2,-8.088,-8.031,10,-8.013,-7.569,-5.055,-5.201,-4.424,-4.929,5.055,8.38,26,-1.667,1.119,4.87,7.675,-7.55,-8.3,-1.212,1.549,216.2,187.5,181.3,165.2,165.2,179.1,196.2,168.0,203.7,181.9,4,norm,1.617,1.464,-2.098,-1.811,-4.724,-5.088,-1.716,-1.463,-1.217,-1.678,1.373,-1.139,160.2,180.4,-4.66,-8.214,199.4,-1.12,7.712,4.367,-5.153,-7.555,32,4.61,4.555,4.86,4.903,1.706,1.232,1.758,2.092,32,4.303,4.47,20,330.502817068,norm,0,87,87,87,582.617,582.626,582.628140945,582.629,582.633,582.639,down,1,2.67103491784,-7.0,001,002,800_600,Intel(R) Core(TM) i7-2670QM CPU @ 2.20GHz,orientation_search,GRVLAPTOP3,Intel(R) HD Graphics Family,2018_mei_31_1414,testMonitor,
302.9,298.6,327.2,308.7,36,0,304.6,311.0,307.5,312.0,7.895,8.372,8.302,8.096,8.124,7.615,7.649,5.12,-4.784,-8.026,1.698,-1.332,7.703,4.445,-4.407,-8.13,290.9,319.9,-7.756,305.8,309.6,315.3,295.1,309.5,36,309.1,1,10,probe,10,0,109,norm,36,-4.322,up,norm,307.192112221,312.7,309.1,1.42,309.9,4,310.0,308.3,289.9,15,5,8.159,5.066,1.739,-1.303,-4.572,-8.406,,2,198.2,-7.617,-7.575,10,-8.328,-8.316,-5.273,-5.193,-5.149,-4.868,5.298,8.233,10,-1.699,1.631,4.404,7.973,-7.644,-8.194,-1.83,1.329,313.6,306.8,302.0,302.2,297.1,306.9,305.3,313.0,287.2,297.3,0,norm,1.498,2.012,-1.179,-1.609,-4.876,-5.276,-1.956,-2.033,-1.334,-1.403,1.431,-1.508,312.9,294.1,-4.763,-7.614,292.8,-1.893,8.487,4.808,-4.948,-7.666,33,5.154,4.786,4.675,4.404,1.478,2.054,1.21,1.864,33,4.361,4.415,10,190.20794601,norm,0,88,88,88,585.323,585.331,585.333639348,585.334,585.338,585.344,up,1,1.60678828473,4.0,001,002,800_600,Intel(R) Core(TM) i7-2670QM CPU @ 2.20GHz,orientation_search,GRVLAPTOP3,Intel(R) HD Graphics Family,2018_mei_31_1414,testMonitor,
266.5,283.6,266.5,288.4,36,0,267.4,,262.4,282.3,7.723,8.048,7.844,7.676,7.548,8.075,8.177,4.883,-5.045,-7.944,1.428,-1.897,7.57,4.313,-5.065,-7.783,280.7,272.0,-7.841,291.5,276.9,294.2,267.3,288.2,36,276.3,4,10,probe,10,0,76,norm,36,-4.824,down,norm,274.192112221,268.7,269.9,1.275,283.5,1,273.2,267.9,259.7,15,5,7.641,4.823,1.566,-1.603,-5.02,-8.156,258.8,2,198.2,-7.995,-7.666,10,-7.855,-8.493,-4.429,-4.908,-4.799,-5.208,5.219,8.002,25,-1.565,1.404,4.498,8.368,-8.213,-8.439,-1.724,1.229,272.8,271.0,276.3,267.4,275.3,269.8,254.2,264.8,280.0,268.7,1,norm,1.555,1.122,-1.822,-1.777,-4.729,-4.333,-1.985,-1.5,-1.128,-1.31,1.846,-1.507,282.0,282.9,-5.161,-7.762,273.8,-1.187,7.687,4.355,-5.056,-7.998,33,4.431,4.856,4.359,4.392,1.609,1.222,1.251,2.032,33,4.568,4.833,10,190.20794601,norm,0,89,89,89,586.963,586.971,586.972968644,586.974,586.978,586.983,down,1,2.04388579476,0.0,001,002,800_600,Intel(R) Core(TM) i7-2670QM CPU @ 2.20GHz,orientation_search,GRVLAPTOP3,Intel(R) HD Graphics Family,2018_mei_31_1414,testMonitor,
144.5,167.2,143.4,154.2,36,40,137.9,168.2,152.7,127.3,7.52,8.396,7.791,7.851,7.616,8.217,7.612,4.997,-4.627,-7.841,1.147,-1.389,7.895,5.291,-4.303,-7.973,153.6,150.2,-8.27,172.1,145.3,180.5,150.6,123.9,36,156.3,2,10,prime,15,0,96,norm,36,-4.891,up,norm,150.510875346,142.2,,1.845,132.4,4,143.9,168.8,155.5,15,2,8.292,4.344,1.958,-1.456,-5.062,-8.128,148.6,2,246.5,-7.949,-8.013,40,-8.069,-8.166,-4.674,-4.865,-4.842,-4.375,5.068,8.122,16,-1.69,1.202,5.042,7.95,-7.721,-7.592,-1.357,2.082,120.5,153.0,158.9,140.8,152.2,144.6,133.7,136.0,164.0,148.5,0,norm,1.868,1.556,-1.496,-1.399,-4.451,-5.145,-1.78,-1.942,-1.46,-1.6,1.577,-1.272,163.4,168.5,-4.673,-8.405,169.9,-1.302,8.299,4.4,-4.969,-7.771,34,4.451,4.587,4.447,4.868,1.83,1.337,2.057,1.816,34,4.563,4.52,0,190.20794601,norm,0,90,90,90,589.038,589.045,589.047485586,589.048,589.052,589.057,up,1,1.72818750108,3.0,001,002,800_600,Intel(R) Core(TM) i7-2670QM CPU @ 2.20GHz,orientation_search,GRVLAPTOP3,Intel(R) HD Graphics Family,2018_mei_31_1414,testMonitor,
167.0,149.8,144.2,174.3,36,40,180.5,160.3,164.5,173.8,8.058,7.822,8.003,8.291,7.528,8.003,7.86,5.096,-4.467,-8.482,1.646,-1.608,7.965,5.096,-4.449,-8.487,142.1,130.5,-7.752,147.2,155.1,159.0,146.0,137.8,36,148.1,0,10,prime,15,0,108,norm,36,-4.408,up,norm,150.510875346,126.5,168.3,1.251,165.1,5,138.3,156.0,152.5,15,2,7.665,5.196,1.86,-1.216,-5.029,-8.011,150.0,2,258.5,-7.987,-8.448,40,-7.982,-8.019,-5.119,-4.649,-5.06,-4.887,4.829,7.81,5,-2.096,1.915,4.898,7.597,-8.019,-7.54,-1.788,1.82,135.8,161.2,146.5,120.5,151.5,129.6,163.9,151.4,,155.2,1,norm,1.916,1.616,-1.83,-1.373,-4.453,-4.309,-1.921,-1.278,-1.511,-1.546,1.246,-2.027,143.4,144.0,-5.008,-7.977,139.4,-1.869,8.271,5.075,-4.806,-8.295,34,4.851,4.353,5.006,5.244,1.221,1.483,1.927,1.996,34,4.516,5.276,0,190.20794601,norm,0,91,91,91,590.797,590.805,590.807637404,590.808,590.812,590.818,down,0,3.11112657266,-21.0,001,002,800_600,Intel(R) Core(TM) i7-2670QM CPU @ 2.20GHz,orientation_search,GRVLAPTOP3,Intel(R) HD Graphics Family,2018_mei_31_1414,testMonitor,
310.2,301.7,315.9,300.8,36,0,304.2,302.2,307.1,300.4,8.108,8.275,7.687,7.735,7.679,7.759,8.055,4.962,-5.202,-8.219,1.378,-2.076,7.533,5.221,-4.954,-7.606,310.0,302.4,-8.496,318.1,301.1,316.4,293.9,307.7,36,306.4,1,10,probe,10,0,115,norm,36,-5.268,up,norm,307.830396458,327.6,310.5,1.86,312.6,3,320.1,327.8,321.2,15,2,8.393,4.309,2.038,-1.172,-4.445,-8.119,308.0,2,192.8,-7.572,-7.753,40,-8.3,-8.006,-4.785,-4.316,-4.632,-4.501,5.223,8.344,9,-1.992,1.246,4.93,7.676,-8.466,-8.228,-1.841,1.595,,287.8,296.9,289.8,318.2,308.3,314.9,324.1,312.7,308.8,0,norm,1.887,1.823,-1.321,-1.161,-4.486,-4.727,-1.489,-1.422,-1.855,-1.796,1.442,-1.664,299.9,317.7,-4.843,-8.175,310.8,-2.068,7.938,4.482,-4.488,-7.553,35,4.498,4.637,4.788,4.827,1.488,2.059,1.651,1.703,35,4.461,4.887,40,150.510875346,norm,0,92,92,92,594.94,594.948,594.950001704,594.95,594.954,594.959,up,1,4.26140490392,-23.0,001,002,800_600,Intel(R) Core(TM) i7-2670QM CPU @ 2.20GHz,orientation_search,GRVLAPTOP3,Intel(R) HD Graphics Family,2018_mei_31_1414,testMonitor,
275.5,278.9,282.3,278.9,36,0,270.9,262.1,301.8,300.5,7.701,8.457,8.203,7.618,7.57,8.257,7.569,4.367,-4.838,-7.855,1.854,-1.461,8.093,4.399,-5.226,-8.048,273.5,279.3,-7.721,278.8,294.9,277.2,280.4,271.7,36,263.6,0,10,probe,10,0,89,norm,36,-4.333,down,norm,281.830396458,279.5,283.4,1.414,296.4,1,270.4,277.5,289.1,15,2,8.146,5.017,1.144,-1.233,-5.137,-7.983,298.0,2,192.8,-7.671,-8.071,40,-8.057,-7.84,-5.221,-5.042,-4.307,-4.394,4.964,7.844,1,-1.915,1.868,4.845,8.4,-7.6,-8.312,-1.774,1.873,261.8,281.4,279.5,272.4,,288.9,278.0,276.2,278.1,274.4,1,norm,1.144,1.495,-1.145,-1.256,-4.629,-4.653,-2.067,-1.969,-1.131,-1.318,1.821,-2.069,281.1,274.5,-4.937,-8.194,281.3,-1.878,7.531,5.232,-4.693,-7.528,35,4.726,4.796,4.822,4.606,2.032,1.114,2.028,1.473,35,5.057,4.365,40,150.510875346,norm,0,93,93,93,599.232,599.239,599.241676796,599.242,599.246,599.252,up,0,2.42528856934,-14.0,001,002,800_600,Intel(R) Core(TM) i7-2670QM CPU @ 2.20GHz,orientation_search,GRVLAPTOP3,Intel(R) HD Graphics Family,2018_mei_31_1414,testMonitor,
190.6,225.1,185.6,216.9,36,-20,210.9,202.8,169.3,216.5,8.212,7.731,7.633,7.878,7.516,7.887,8.079,5.281,-4.381,-7.851,1.779,-1.393,7.621,5.036,-4.489,-8.432,172.1,211.0,-8.063,219.7,165.7,166.9,168.5,214.5,36,191.4,0,10,prime,15,0,67,norm,36,-5.175,down,norm,195.680857505,192.8,191.1,1.945,185.7,2,202.1,201.9,195.9,15,5,7.771,4.366,1.155,-1.64,-4.731,-8.064,193.2,5,262.7,-7.663,-7.596,-20,-8.237,-7.869,-5.182,-4.919,-5.082,-5.292,4.44,7.753,2,-1.658,1.654,4.351,7.728,-7.682,-7.542,-1.667,1.267,207.8,199.9,205.9,,192.9,208.3,198.1,207.7,185.4,199.8,0,norm,1.526,1.643,-2.038,-1.285,-4.905,-4.465,-1.536,-1.574,-1.514,-1.617,1.262,-1.373,225.7,210.7,-4.717,-7.936,216.4,-1.36,8.321,4.549,-5.055,-7.56,36,4.478,4.416,4.866,5.259,2.01,1.462,1.331,1.142,36,5.245,4.49,0,150.510875346,norm,0,94,94,94,602.694,602.702,602.704519655,602.705,602.709,602.715,down,1,1.66208330279,3.0,001,002,800_600,Intel(R) Core(TM) i7-2670QM CPU @ 2.20GHz,orientation_search,GRVLAPTOP3,Intel(R) HD Graphics Family,2018_mei_31_1414,testMonitor,
190.3,193.4,202.0,180.2,36,-20,200.2,199.2,203.7,183.2,7.815,8.444,8.178,8.47,7.655,7.67,7.944,5.166,-4.841,-7.95,1.962,-2.057,7.983,4.763,-4.493,-7.81,211.2,170.4,-7.899,223.0,189.4,185.6,225.7,170.6,36,201.7,3,10,prime,15,0,107,norm,36,-4.995,down,norm,195.680857505,201.6,179.1,1.213,177.5,0,171.8,165.7,195.4,15,5,7.637,5.175,1.219,-1.667,-4.458,-8.277,199.5,5,302.7,-7.992,-8.077,-20,-7.678,-8.187,-4.743,-5.06,-4.784,-5.08,4.829,7.802,18,-1.82,1.83,4.415,7.801,-7.695,-7.593,-1.733,1.945,208.3,181.2,202.3,171.6,198.1,188.0,186.8,187.5,212.5,195.2,1,norm,1.298,1.516,-1.567,-1.34,-4.811,-4.852,-1.111,-1.266,-2.033,-1.646,1.319,-1.24,189.1,,-4.4,-8.461,173.3,-1.438,7.634,4.914,-4.593,-7.582,36,4.736,4.419,5.262,4.671,1.117,1.614,1.212,1.445,36,4.629,5.05,0,150.510875346,norm,0,95,95,95,604.388,604.397,604.399649687,604.4,604.404,604.41,up,0,3.15583795195,-22.0,001,002,800_600,Intel(R) Core(TM) i7-2670QM CPU @ 2.20GHz,orientation_search,GRVLAPTOP3,Intel(R) HD Graphics Family,2018_mei_31_1414,testMonitor,
