d_ori_22,d_ori_23,d_ori_20,d_ori_21,set_size,ctpd,d_ori_24,d_ori_25,d_ori_28,d_ori_29,stim_pos_x_30,stim_pos_x_31,stim_pos_x_32,stim_pos_x_33,stim_pos_x_34,stim_pos_x_35,stim_pos_y_11,stim_pos_y_10,stim_pos_y_13,stim_pos_y_12,stim_pos_y_15,stim_pos_y_14,stim_pos_y_17,stim_pos_y_16,stim_pos_y_19,stim_pos_y_18,d_ori_35,d_ori_34,stim_pos_x_3,d_ori_31,d_ori_30,d_ori_33,d_ori_32,d_ori_26,test_set_size,d_ori_27,targetCol,dsd_test,seq_type,dsd,blockRepN,targetDist,dtype_test,prime_set_size,stim_pos_y_25,correctResponse,dtype,distrMean,d_ori_17,d_ori_16,stim_pos_y_3,d_ori_14,targetRow,d_ori_11,d_ori_13,d_ori_12,dsd_prime,streak_length_prime,stim_pos_y_35,stim_pos_y_34,stim_pos_y_33,stim_pos_y_32,stim_pos_y_31,stim_pos_y_30,d_ori_10,nextProbe,targetOri,stim_pos_x_1,stim_pos_x_2,ctpd_prime,stim_pos_x_4,stim_pos_x_5,stim_pos_x_6,stim_pos_x_7,stim_pos_x_8,stim_pos_x_9,stim_pos_y_28,stim_pos_y_29,targetPos,stim_pos_y_20,stim_pos_y_21,stim_pos_y_22,stim_pos_y_23,stim_pos_y_24,stim_pos_x_0,stim_pos_y_26,stim_pos_y_27,d_ori_9,d_ori_8,d_ori_3,d_ori_2,d_ori_1,d_ori_0,d_ori_7,d_ori_6,d_ori_5,d_ori_4,trialN,dtype_prime,stim_pos_x_18,stim_pos_x_19,stim_pos_x_12,stim_pos_x_13,stim_pos_x_10,stim_pos_x_11,stim_pos_x_16,stim_pos_x_17,stim_pos_x_14,stim_pos_x_15,stim_pos_y_9,stim_pos_y_8,d_ori_19,d_ori_18,stim_pos_y_1,stim_pos_y_0,d_ori_15,stim_pos_y_2,stim_pos_y_5,stim_pos_y_4,stim_pos_y_7,stim_pos_y_6,totBlockN,stim_pos_x_27,stim_pos_x_26,stim_pos_x_25,stim_pos_x_24,stim_pos_x_23,stim_pos_x_22,stim_pos_x_21,stim_pos_x_20,blockN,stim_pos_x_29,stim_pos_x_28,prevDistrCTPD,prevDistrMean,prevDistrType,trials.thisRepN,trials.thisTrialN,trials.thisN,trials.thisIndex,timeStart,timeBeforeDraw,timeDraw,timeAfterSaving,timeAfterWritingToTemp,timeAfterPreparingNext,answer,correct,rt,trialScore,session,participant,resolution,cpu_info,expName,pc_name,graphic_card,date,monitorName,
304.1,289.1,,295.1,36,-30,298.3,319.7,281.8,307.8,8.119,7.578,8.49,7.935,7.566,8.046,7.809,5.264,-4.704,-7.885,1.891,-1.344,7.643,4.461,-4.71,-8.339,298.7,279.7,-7.509,304.4,319.7,298.2,313.7,309.4,36,298.7,3,5,prime,10,0,81,norm,36,-5.102,down,norm,299.693697743,297.2,313.0,1.605,288.5,2,293.7,295.3,285.8,10,6,7.578,4.543,1.737,-1.123,-4.823,-8.417,286.2,6,380.7,-8.143,-7.753,-30,-7.726,-7.594,-4.89,-4.668,-5.158,-4.747,4.531,7.711,20,-1.779,1.772,4.355,7.612,-8.088,-7.838,-1.537,1.338,298.5,293.5,296.3,301.9,306.3,302.5,297.6,308.5,286.6,298.3,0,norm,1.415,1.905,-1.84,-1.211,-4.622,-5.247,-2.084,-1.174,-1.585,-1.204,1.376,-1.88,301.2,300.9,-5.271,-8.351,304.3,-1.636,8.035,4.503,-4.743,-8.217,0,4.549,5.136,4.797,4.336,1.218,1.521,1.881,1.927,0,4.545,5.169,,,,0,0,0,0,1402.838,1402.848,1402.85384912,1402.854,1402.854,1402.858,down,1,0.954788507002,9.045211493,001,021,800_600,Intel(R) Core(TM) i7-2670QM CPU @ 2.20GHz,orientation_search,GRVLAPTOP3,Intel(R) HD Graphics Family,2018_jul_31_1457,testMonitor,
291.1,298.5,287.7,302.0,36,-30,319.7,307.8,315.7,306.8,7.864,7.735,7.872,7.84,8.124,7.612,8.417,4.488,-5.027,-8.272,1.349,-1.907,7.745,4.441,-5.193,-7.851,304.6,298.6,-8.235,295.0,288.3,291.4,292.6,303.3,36,297.1,2,5,prime,10,0,112,norm,36,-4.743,down,norm,299.693697743,292.5,312.6,1.401,297.9,1,280.8,,313.2,10,6,8.162,4.951,1.398,-1.71,-5.223,-8.092,292.6,6,411.7,-8.055,-8.405,-30,-7.874,-7.726,-4.68,-4.638,-5.191,-4.73,4.915,8.412,13,-1.37,2.059,4.691,7.701,-8.414,-7.691,-1.339,1.484,309.4,313.6,294.0,300.8,283.8,302.0,290.7,298.9,294.8,296.0,1,norm,1.273,1.138,-1.633,-1.291,-4.755,-5.043,-1.415,-1.254,-2.074,-1.276,1.667,-1.239,293.9,297.7,-4.547,-7.656,306.2,-1.673,7.895,4.892,-4.646,-8.425,0,4.474,4.95,4.712,4.334,1.53,1.809,1.911,1.33,0,4.982,5.247,,,,0,1,1,1,1403.824,1403.83,1403.83285556,1403.833,1403.836,1403.839,down,1,0.905165179945,9.09483482005,001,021,800_600,Intel(R) Core(TM) i7-2670QM CPU @ 2.20GHz,orientation_search,GRVLAPTOP3,Intel(R) HD Graphics Family,2018_jul_31_1457,testMonitor,
303.5,296.1,286.8,293.2,36,-30,297.6,294.6,,283.0,8.352,7.85,7.948,8.304,7.573,8.226,8.231,5.075,-4.553,-8.216,1.743,-1.508,8.443,4.683,-4.995,-7.724,293.6,306.3,-7.634,293.8,291.5,304.4,294.4,297.9,36,305.2,4,5,prime,10,0,114,norm,36,-5.168,up,norm,299.693697743,298.3,292.8,1.604,279.7,4,309.5,297.1,289.2,10,6,7.933,5.202,1.706,-1.688,-5.245,-7.715,303.6,6,413.7,-8.188,-8.284,-30,-7.789,-8.118,-5.101,-4.909,-5.018,-4.967,4.751,7.964,28,-1.759,1.781,4.597,8.08,-7.88,-7.955,-1.755,1.948,309.6,303.3,301.3,282.8,312.2,297.6,295.4,290.7,292.4,312.3,2,norm,1.528,1.357,-1.569,-1.228,-4.803,-4.792,-1.141,-1.506,-1.589,-1.153,1.854,-1.209,297.9,310.1,-4.767,-8.334,297.9,-1.375,7.706,5.195,-4.327,-7.561,0,4.767,4.966,4.39,5.206,1.192,1.649,1.596,1.112,0,4.499,4.482,,,,0,2,2,2,1404.756,1404.762,1404.76451649,1404.765,1404.767,1404.771,up,1,0.886454109783,9.11354589022,001,021,800_600,Intel(R) Core(TM) i7-2670QM CPU @ 2.20GHz,orientation_search,GRVLAPTOP3,Intel(R) HD Graphics Family,2018_jul_31_1457,testMonitor,
300.4,303.5,294.1,297.2,36,-30,289.7,295.3,307.5,292.0,7.596,8.43,7.646,7.987,8.017,8.14,8.404,4.824,-4.962,-8.28,1.226,-2.018,7.635,4.593,-5.239,-7.603,304.0,312.7,-8.408,303.6,310.7,319.7,279.7,292.5,36,311.4,2,5,prime,10,0,75,norm,36,-4.919,down,norm,299.693697743,311.7,297.2,1.915,291.8,0,290.7,300.1,,10,6,7.819,5.137,1.3,-1.719,-5.026,-7.681,305.0,6,374.7,-7.663,-8.049,-30,-7.853,-8.374,-4.772,-4.776,-4.984,-4.789,4.843,7.76,12,-1.507,1.74,5.287,7.893,-8.464,-8.388,-1.8,1.607,294.5,305.4,318.8,298.7,308.5,307.4,300.3,308.1,305.4,305.1,3,norm,1.37,1.54,-2.003,-1.424,-4.953,-4.405,-1.227,-1.82,-1.495,-1.388,1.19,-2.098,310.2,312.6,-5.264,-7.625,292.4,-1.124,7.593,4.462,-5.204,-8.259,0,4.533,4.989,4.396,4.597,1.4,1.708,1.474,1.994,0,4.977,4.501,,,,0,3,3,3,1405.667,1405.673,1405.674998,1405.675,1405.678,1405.682,down,1,2.35855023995,7.64144976005,001,021,800_600,Intel(R) Core(TM) i7-2670QM CPU @ 2.20GHz,orientation_search,GRVLAPTOP3,Intel(R) HD Graphics Family,2018_jul_31_1457,testMonitor,
306.7,293.4,306.4,314.0,36,-30,308.2,291.2,298.7,279.7,8.037,7.531,8.49,7.565,7.725,8.46,7.658,4.397,-4.547,-8.403,1.313,-1.95,7.972,5.239,-5.247,-8.307,294.8,291.1,-8.098,307.7,295.3,300.6,299.2,300.0,36,290.9,0,5,prime,10,0,69,norm,36,-5.029,down,norm,299.693697743,281.8,309.7,1.564,313.1,0,306.0,292.5,307.0,10,6,8.222,5.148,1.979,-1.95,-5.156,-8.14,299.5,6,368.7,-7.744,-7.615,-30,-8.273,-7.884,-5.174,-4.816,-5.241,-4.349,5.119,8.024,0,-1.233,1.607,5.184,7.548,-8.087,-8.139,-1.647,1.196,306.9,296.4,307.0,314.2,289.2,,311.5,293.4,300.1,319.7,4,norm,1.788,1.152,-1.22,-1.195,-4.348,-4.479,-1.883,-1.569,-1.116,-2.053,1.675,-1.342,294.2,293.5,-5.085,-8.088,284.0,-1.56,8.31,4.661,-4.881,-8.077,0,5.234,4.4,4.798,4.936,1.292,1.965,1.978,1.563,0,5.296,4.66,,,,0,4,4,4,1408.05,1408.056,1408.05806315,1408.058,1408.061,1408.065,down,1,1.50895184853,8.49104815147,001,021,800_600,Intel(R) Core(TM) i7-2670QM CPU @ 2.20GHz,orientation_search,GRVLAPTOP3,Intel(R) HD Graphics Family,2018_jul_31_1457,testMonitor,
299.5,288.8,302.4,301.9,36,-30,308.0,305.7,285.9,308.7,8.414,7.858,7.768,8.098,8.472,8.467,7.614,5.235,-4.655,-7.685,1.121,-1.513,7.603,4.63,-4.907,-8.44,300.0,300.7,-7.524,290.5,292.8,285.2,286.6,300.0,36,296.0,2,5,prime,10,0,113,norm,36,-4.534,down,norm,299.693697743,307.0,319.7,1.63,,2,289.3,288.4,312.4,10,6,8.031,4.385,1.968,-1.66,-4.577,-8.243,310.0,6,412.7,-7.997,-7.98,-30,-7.618,-7.696,-4.676,-4.674,-5.215,-4.658,4.882,7.736,14,-1.906,1.913,5.188,8.057,-8.292,-7.794,-1.187,1.347,279.7,305.8,302.9,311.0,290.2,297.9,291.8,290.5,297.7,304.3,5,norm,1.52,1.913,-1.782,-1.388,-5.092,-4.614,-1.668,-1.817,-1.944,-1.341,2.004,-1.755,287.4,298.2,-4.418,-8.182,294.0,-1.526,7.675,4.56,-5.076,-8.379,0,4.639,4.638,4.686,5.266,1.167,2.035,1.108,1.646,0,5.01,5.064,,,,0,5,5,5,1409.584,1409.593,1409.59528894,1409.596,1409.599,1409.603,down,1,1.3284887834,8.6715112166,001,021,800_600,Intel(R) Core(TM) i7-2670QM CPU @ 2.20GHz,orientation_search,GRVLAPTOP3,Intel(R) HD Graphics Family,2018_jul_31_1457,testMonitor,
341.5,354.9,345.3,351.8,36,0,350.7,351.9,357.3,359.8,8.234,7.911,7.767,8.455,8.27,8.254,8.487,4.897,-5.249,-8.369,1.844,-1.431,8.384,4.817,-4.361,-8.46,354.6,344.9,-7.655,350.4,356.4,360.2,,348.8,36,356.6,5,5,probe,5,0,78,norm,36,-5.007,down,norm,350.23417362,350.2,347.7,1.612,356.7,2,344.2,345.4,352.5,10,6,8.491,4.567,1.101,-1.129,-4.704,-7.954,351.4,1,272.2,-7.885,-8.081,-30,-8.166,-7.725,-5.153,-4.771,-4.726,-5.283,4.674,7.575,32,-1.89,1.97,4.537,8.349,-8.136,-7.608,-1.778,1.753,350.5,340.3,355.6,340.2,356.8,346.3,342.4,343.7,345.5,345.8,0,norm,2.065,1.878,-1.894,-1.124,-5.068,-4.663,-2.044,-1.29,-1.711,-2.061,1.563,-2.049,357.5,350.1,-5.072,-8.359,356.2,-1.15,8.492,5.138,-5.116,-7.821,1,4.334,5.281,4.801,4.39,1.81,1.625,2.066,2.027,1,4.975,4.956,-30,299.693697743,norm,0,6,6,6,1410.943,1410.949,1410.95162812,1410.952,1410.955,1410.96,down,1,1.42162060188,8.57837939812,001,021,800_600,Intel(R) Core(TM) i7-2670QM CPU @ 2.20GHz,orientation_search,GRVLAPTOP3,Intel(R) HD Graphics Family,2018_jul_31_1457,testMonitor,
351.7,351.6,360.6,353.4,36,-60,363.5,372.9,356.6,357.7,7.545,8.056,8.409,7.822,8.126,8.164,7.743,4.482,-4.945,-8.263,1.35,-1.779,7.977,5.21,-4.883,-8.354,353.9,369.4,-7.972,361.7,338.6,355.3,348.6,352.9,36,378.6,2,5,prime,10,0,61,norm,36,-4.914,down,norm,358.57796333,357.6,373.0,1.159,,2,349.2,368.0,350.6,10,5,8.1,4.869,1.32,-1.68,-5.1,-7.638,366.5,5,419.6,-7.985,-8.264,-60,-8.106,-8.493,-4.773,-4.908,-4.646,-4.699,4.334,7.656,14,-2.011,1.334,5.019,8.103,-8.007,-7.558,-1.717,1.778,372.7,349.4,349.1,366.0,362.8,376.7,341.7,368.0,349.5,343.0,0,norm,1.546,1.125,-1.378,-1.683,-4.615,-4.699,-1.816,-1.156,-1.339,-2.019,2.016,-1.724,351.6,359.4,-4.678,-8.212,357.7,-1.284,7.725,5.088,-4.402,-8.471,2,4.949,4.39,4.584,5.122,1.344,1.824,1.545,1.649,2,5.225,4.793,0,299.693697743,norm,0,7,7,7,1412.393,1412.399,1412.4015376,1412.402,1412.406,1412.41,down,1,1.53827410807,8.46172589193,001,021,800_600,Intel(R) Core(TM) i7-2670QM CPU @ 2.20GHz,orientation_search,GRVLAPTOP3,Intel(R) HD Graphics Family,2018_jul_31_1457,testMonitor,
,365.5,364.6,346.1,36,-60,371.7,368.0,350.7,354.9,7.622,8.175,8.209,7.892,8.367,7.79,7.829,4.865,-5.033,-8.116,1.582,-1.214,7.546,4.671,-5.003,-8.144,350.2,360.8,-7.821,370.3,351.2,359.4,375.0,356.1,36,360.2,3,5,prime,10,0,113,norm,36,-4.365,up,norm,358.57796333,373.2,348.7,1.825,344.2,4,364.1,363.5,344.4,10,5,7.624,5.001,1.629,-2.062,-4.401,-7.831,357.8,5,471.6,-7.712,-8.404,-60,-8.495,-7.859,-4.376,-4.469,-5.052,-4.669,4.422,7.92,22,-1.321,1.264,4.378,7.522,-7.863,-8.496,-1.347,1.364,338.6,357.4,361.9,359.6,378.6,351.8,355.9,349.0,347.9,367.3,1,norm,1.499,1.91,-1.768,-1.95,-4.392,-4.33,-2.037,-1.875,-1.461,-2.013,1.153,-1.478,356.3,357.1,-4.804,-7.579,365.8,-1.778,7.787,5.173,-5.022,-7.676,2,5.275,4.319,4.4,4.568,2.08,1.248,2.087,1.905,2,4.952,5.246,0,299.693697743,norm,0,8,8,8,1413.959,1413.966,1413.96902937,1413.969,1413.973,1413.978,up,1,1.13148601012,8.86851398988,001,021,800_600,Intel(R) Core(TM) i7-2670QM CPU @ 2.20GHz,orientation_search,GRVLAPTOP3,Intel(R) HD Graphics Family,2018_jul_31_1457,testMonitor,
364.5,358.3,361.2,374.0,36,-60,338.9,362.3,377.2,346.1,8.166,8.485,7.98,7.922,7.907,8.043,7.783,5.25,-5.228,-8.448,1.148,-1.607,7.895,4.478,-5.128,-8.337,369.0,361.7,-7.642,378.6,360.9,372.7,362.4,360.4,36,349.0,0,5,prime,10,0,110,norm,36,-4.511,down,norm,358.57796333,339.2,350.2,1.262,351.9,1,375.1,355.6,360.3,10,5,8.164,4.49,1.858,-1.997,-4.961,-8.439,361.6,5,468.6,-8.287,-8.098,-60,-7.53,-7.768,-4.762,-5.193,-4.847,-4.924,4.519,8.335,1,-1.59,1.552,4.363,8.196,-8.073,-8.242,-1.298,1.151,356.2,364.5,366.3,362.9,,366.1,367.7,370.6,352.0,349.4,2,norm,1.753,1.226,-1.269,-1.165,-4.781,-4.655,-1.312,-1.453,-1.163,-1.986,1.371,-1.384,364.8,338.6,-4.546,-7.532,354.0,-1.278,8.003,4.399,-5.048,-7.801,2,4.677,4.47,4.837,4.902,1.675,1.939,1.629,2.021,2,4.702,4.69,0,299.693697743,norm,0,9,9,9,1415.12,1415.127,1415.1297111,1415.13,1415.134,1415.139,down,1,3.14991643759,6.85008356241,001,021,800_600,Intel(R) Core(TM) i7-2670QM CPU @ 2.20GHz,orientation_search,GRVLAPTOP3,Intel(R) HD Graphics Family,2018_jul_31_1457,testMonitor,
364.0,344.5,362.2,367.2,36,-60,363.2,353.7,361.3,364.5,8.272,8.395,7.832,8.015,7.783,7.93,8.477,4.801,-4.422,-7.84,1.151,-1.386,7.984,5.052,-4.935,-8.479,360.5,371.1,-7.965,353.7,368.2,363.2,350.1,356.2,36,360.4,0,5,prime,10,0,103,norm,36,-4.916,down,norm,358.57796333,359.1,378.6,1.158,355.3,0,365.5,338.6,359.9,10,5,8.405,4.72,1.324,-1.108,-5.198,-7.976,355.0,5,461.6,-7.764,-8.189,-60,-8.057,-8.045,-5.193,-5.002,-4.489,-4.805,4.357,8.069,0,-2.097,1.691,5.214,8.458,-8.024,-8.479,-1.279,1.483,368.5,352.9,375.4,360.9,342.4,,358.3,366.4,372.2,369.5,3,norm,1.453,1.819,-1.423,-1.631,-4.484,-4.596,-1.211,-1.846,-2.047,-1.178,1.242,-1.337,368.7,361.2,-5.084,-7.876,367.0,-1.935,8.19,5.046,-4.451,-8.214,2,4.361,4.905,5.258,4.596,1.115,1.19,1.791,1.862,2,5.058,4.515,0,299.693697743,norm,0,10,10,10,1418.299,1418.307,1418.30951248,1418.31,1418.314,1418.319,down,1,1.64577567355,8.35422432645,001,021,800_600,Intel(R) Core(TM) i7-2670QM CPU @ 2.20GHz,orientation_search,GRVLAPTOP3,Intel(R) HD Graphics Family,2018_jul_31_1457,testMonitor,
372.9,353.5,359.7,356.8,36,-60,347.2,359.7,,353.9,7.59,8.452,8.123,7.776,8.009,7.994,7.998,4.777,-4.421,-7.639,1.416,-1.169,8.113,4.449,-4.345,-7.848,349.4,366.7,-8.376,371.2,348.9,338.6,365.4,364.7,36,359.5,4,5,prime,10,0,67,norm,36,-5.046,up,norm,358.57796333,350.6,343.7,1.823,350.5,4,353.2,372.8,347.2,10,5,8.252,4.859,1.795,-2.058,-4.827,-8.113,341.8,5,425.6,-8.042,-8.351,-60,-8.066,-7.581,-5.143,-4.65,-4.725,-4.836,4.656,8.458,28,-1.932,1.968,4.489,7.606,-8.413,-8.261,-1.583,1.325,356.5,355.0,352.8,353.6,366.2,378.6,358.3,350.8,351.1,362.7,4,norm,1.471,1.417,-1.346,-1.605,-4.821,-4.537,-1.768,-1.664,-1.583,-1.788,1.513,-1.549,355.8,353.5,-4.582,-8.005,359.8,-1.309,7.533,4.653,-5.087,-8.239,2,4.766,4.47,4.836,4.458,1.426,1.57,1.156,1.614,2,4.503,4.755,0,299.693697743,norm,0,11,11,11,1419.975,1419.983,1419.98535942,1419.986,1419.989,1419.994,up,1,1.54957219498,8.45042780502,001,021,800_600,Intel(R) Core(TM) i7-2670QM CPU @ 2.20GHz,orientation_search,GRVLAPTOP3,Intel(R) HD Graphics Family,2018_jul_31_1457,testMonitor,
,390.6,401.5,398.6,36,60,394.7,397.6,386.5,395.0,7.722,8.195,8.316,7.503,7.713,8.191,7.702,4.785,-4.361,-8.328,1.994,-1.604,8.5,4.471,-4.532,-8.347,393.3,397.5,-8.175,386.0,388.0,396.7,392.6,390.3,36,389.2,3,5,probe,5,0,100,norm,36,-5.081,up,norm,391.474639147,389.4,381.5,1.952,386.0,4,395.7,389.1,396.0,10,5,7.684,4.594,1.309,-1.671,-4.484,-8.171,398.5,2,291.5,-7.764,-7.708,-60,-8.342,-8.308,-4.338,-5.046,-5.128,-5.217,4.753,7.957,22,-1.858,2.034,4.482,8.439,-7.86,-7.669,-1.944,2.04,394.6,391.0,391.0,394.6,393.4,391.5,390.5,381.8,392.9,386.9,0,norm,2.027,1.704,-1.561,-1.594,-5.157,-4.494,-1.312,-1.954,-1.431,-1.468,1.43,-1.739,382.8,385.3,-4.501,-8.405,397.9,-1.453,7.905,4.832,-4.833,-8.312,3,4.476,5.079,4.713,4.877,1.207,1.983,1.583,1.136,3,4.396,4.991,-60,358.57796333,norm,0,12,12,12,1421.555,1421.562,1421.56514997,1421.566,1421.569,1421.574,up,1,1.09048976121,8.90951023879,001,021,800_600,Intel(R) Core(TM) i7-2670QM CPU @ 2.20GHz,orientation_search,GRVLAPTOP3,Intel(R) HD Graphics Family,2018_jul_31_1457,testMonitor,
372.4,373.2,366.9,370.7,36,60,367.0,364.7,368.6,364.6,7.98,8.347,7.826,7.984,8.44,7.724,7.844,4.415,-4.763,-8.368,1.305,-1.709,7.885,4.697,-5.124,-8.053,365.0,378.5,-7.901,366.6,368.3,366.0,364.4,372.0,36,361.5,2,5,probe,5,0,77,norm,36,-4.645,up,norm,368.474639147,364.6,363.7,2.062,368.0,3,366.0,370.0,369.8,10,5,7.702,4.333,1.443,-1.564,-4.82,-7.822,361.4,2,291.5,-8.107,-7.582,-60,-7.813,-8.263,-5.09,-5.063,-4.317,-5.281,4.596,7.653,15,-2.089,1.874,4.456,8.168,-7.914,-8.36,-1.343,2.012,367.4,372.2,372.0,358.5,371.5,359.1,371.8,372.0,360.2,362.6,1,norm,1.642,1.999,-1.989,-1.41,-4.425,-4.487,-1.696,-2.045,-1.263,-1.67,1.838,-1.988,374.2,370.1,-4.564,-7.849,,-1.345,8.14,4.654,-4.426,-7.701,3,4.691,4.448,4.376,5.035,2.051,1.679,1.35,1.614,3,4.666,5.108,-60,358.57796333,norm,0,13,13,13,1422.679,1422.686,1422.6888116,1422.689,1422.693,1422.698,up,1,1.00830394212,8.99169605788,001,021,800_600,Intel(R) Core(TM) i7-2670QM CPU @ 2.20GHz,orientation_search,GRVLAPTOP3,Intel(R) HD Graphics Family,2018_jul_31_1457,testMonitor,
300.2,297.7,325.6,303.9,36,-10,313.9,304.9,304.4,303.1,7.847,7.736,8.475,8.198,7.982,7.638,7.742,4.56,-4.951,-7.939,1.818,-1.35,7.954,5.16,-4.569,-7.904,308.1,309.3,-7.729,302.3,308.3,292.6,291.3,319.8,36,307.4,0,5,prime,10,0,72,norm,36,-5.057,up,norm,305.594169568,309.7,297.4,1.138,301.3,5,299.2,313.1,303.9,10,5,7.794,4.587,2.007,-1.245,-5.153,-7.867,314.4,5,377.6,-7.975,-7.519,-10,-8.058,-7.93,-4.607,-4.549,-4.512,-4.953,4.49,7.628,5,-1.409,1.461,4.551,8.383,-8.403,-8.15,-1.618,1.796,307.6,306.0,306.0,307.1,309.0,299.5,310.5,305.1,,299.9,0,norm,1.769,2.016,-1.85,-1.916,-4.795,-4.326,-1.268,-1.635,-1.714,-1.196,1.584,-1.911,285.6,300.7,-4.764,-7.744,315.6,-1.833,8.379,4.991,-5.107,-7.553,4,5.286,4.828,5.093,4.733,1.55,1.415,1.867,2.003,4,5.194,4.39,60,358.57796333,norm,0,14,14,14,1423.718,1423.726,1423.72816602,1423.729,1423.732,1423.737,up,1,2.30493020589,7.69506979411,001,021,800_600,Intel(R) Core(TM) i7-2670QM CPU @ 2.20GHz,orientation_search,GRVLAPTOP3,Intel(R) HD Graphics Family,2018_jul_31_1457,testMonitor,
314.2,293.6,292.9,301.5,36,-10,285.6,321.7,308.9,300.8,7.891,8.437,8.39,8.181,7.902,8.389,8.069,4.324,-5.224,-7.865,1.212,-2.015,7.851,5.046,-4.898,-7.567,,292.0,-7.55,308.0,300.0,294.7,302.3,296.3,36,310.9,5,5,prime,10,0,89,norm,36,-4.597,up,norm,305.594169568,296.0,302.9,1.91,307.4,5,309.6,288.2,298.7,10,5,8.117,5.096,1.747,-1.77,-4.836,-8.112,313.6,5,394.6,-8.26,-7.84,-10,-7.525,-7.991,-5.011,-5.09,-5.159,-5.172,5.222,8.322,35,-1.489,1.997,5.223,7.551,-8.414,-7.688,-2.036,2.078,300.0,294.9,300.6,322.2,308.0,303.3,303.8,319.6,296.9,314.9,1,norm,1.778,2.094,-1.888,-1.997,-5.271,-4.86,-1.363,-1.545,-1.826,-1.803,1.698,-1.923,297.7,325.6,-4.839,-7.525,306.2,-1.746,8.208,4.776,-5.142,-8.029,4,5.284,4.873,4.846,4.877,1.541,1.433,1.407,1.995,4,5.049,4.882,60,358.57796333,norm,0,15,15,15,1426.054,1426.061,1426.06359803,1426.064,1426.068,1426.073,up,1,1.0262235158,8.9737764842,001,021,800_600,Intel(R) Core(TM) i7-2670QM CPU @ 2.20GHz,orientation_search,GRVLAPTOP3,Intel(R) HD Graphics Family,2018_jul_31_1457,testMonitor,
309.0,299.5,308.7,290.0,36,-10,285.6,305.4,325.6,303.6,7.875,8.202,7.945,8.102,7.62,7.734,8.398,4.78,-5.1,-7.595,1.492,-1.833,7.52,5.159,-5.12,-7.738,306.1,300.1,-7.637,297.4,319.0,300.7,299.5,301.7,36,309.2,2,5,prime,10,0,67,norm,36,-5.297,down,norm,305.594169568,308.9,299.4,1.132,318.8,1,296.7,,300.3,10,5,7.979,4.496,1.465,-1.224,-5.111,-8.069,312.8,5,372.6,-8.379,-8.217,-10,-7.551,-8.488,-4.304,-4.703,-5.02,-4.476,5.298,8.168,13,-2.083,1.43,4.936,7.504,-8.258,-8.321,-1.716,1.891,302.6,300.7,308.4,305.3,290.3,313.4,316.6,293.6,308.5,307.2,2,norm,1.446,1.626,-1.762,-1.445,-5.216,-5.135,-1.725,-1.717,-1.781,-2.038,2.086,-1.579,311.8,302.1,-4.378,-8.418,302.6,-1.476,7.765,4.771,-4.519,-8.306,4,5.104,4.359,4.533,4.335,1.357,1.724,1.732,1.545,4,4.953,4.412,60,358.57796333,norm,0,16,16,16,1427.11,1427.117,1427.11974805,1427.12,1427.124,1427.129,up,0,1.4701204242,-10,001,021,800_600,Intel(R) Core(TM) i7-2670QM CPU @ 2.20GHz,orientation_search,GRVLAPTOP3,Intel(R) HD Graphics Family,2018_jul_31_1457,testMonitor,
312.7,313.0,321.6,308.3,36,-10,304.1,302.3,306.4,301.7,8.086,7.944,7.88,8.449,8.025,7.587,8.316,5.264,-4.644,-8.007,2.043,-1.227,7.898,5.294,-4.498,-8.196,296.7,317.6,-7.812,285.6,304.6,304.9,305.4,297.1,36,305.8,2,5,prime,10,0,105,norm,36,-4.624,up,norm,305.594169568,319.2,299.8,1.754,302.4,3,315.1,289.7,304.2,10,5,7.644,4.989,1.445,-1.856,-5.192,-8.306,308.3,5,410.6,-7.873,-8.229,-10,-7.966,-7.557,-4.437,-4.789,-4.456,-4.601,4.525,8.323,15,-1.623,1.908,4.954,7.923,-7.913,-8.061,-1.609,1.295,299.2,304.2,301.4,323.1,293.3,302.5,325.6,321.1,294.3,303.9,3,norm,1.591,2.076,-1.776,-1.849,-4.449,-5.038,-1.19,-1.396,-1.517,-1.328,1.578,-1.132,307.2,298.3,-5.158,-7.868,,-1.423,7.766,4.47,-4.487,-8.43,4,4.652,4.781,4.643,4.413,1.478,2.076,2.044,1.72,4,5.017,5.086,60,358.57796333,norm,0,17,17,17,1429.613,1429.622,1429.62501745,1429.625,1429.63,1429.635,up,1,1.41491319455,8.58508680545,001,021,800_600,Intel(R) Core(TM) i7-2670QM CPU @ 2.20GHz,orientation_search,GRVLAPTOP3,Intel(R) HD Graphics Family,2018_jul_31_1457,testMonitor,
305.1,288.6,314.5,316.0,36,-10,299.3,309.8,307.8,318.8,8.047,8.244,8.43,8.144,8.464,7.637,7.956,5.069,-4.431,-7.794,1.27,-1.324,8.305,4.84,-4.367,-7.772,323.0,323.2,-8.386,299.9,285.6,301.9,311.1,293.7,36,316.8,0,5,prime,10,0,115,norm,36,-4.396,down,norm,305.594169568,308.7,314.6,1.462,320.0,1,316.0,312.1,322.3,10,5,7.817,4.832,1.608,-1.159,-4.453,-7.965,303.4,5,420.6,-8.256,-8.182,-10,-8.342,-8.384,-4.414,-4.352,-4.814,-4.349,5.219,8.051,1,-1.55,1.264,5.111,7.608,-8.038,-7.7,-1.564,1.996,325.6,287.0,310.4,294.1,,300.8,315.5,315.3,295.4,291.2,4,norm,1.366,1.659,-1.295,-1.472,-5.194,-4.609,-1.731,-1.624,-1.16,-1.103,1.64,-1.977,312.3,310.4,-5.027,-7.905,319.5,-1.711,8.079,4.402,-5.199,-7.768,4,4.727,4.498,4.944,4.35,1.565,1.224,1.878,1.889,4,5.13,4.763,60,358.57796333,norm,0,18,18,18,1431.061,1431.068,1431.07062717,1431.071,1431.075,1431.08,down,1,1.0026117049,8.9973882951,001,021,800_600,Intel(R) Core(TM) i7-2670QM CPU @ 2.20GHz,orientation_search,GRVLAPTOP3,Intel(R) HD Graphics Family,2018_jul_31_1457,testMonitor,
361.2,368.0,348.0,358.3,36,40,354.9,358.9,357.5,355.9,8.021,8.255,8.258,8.031,8.395,7.995,7.689,5.119,-4.622,-7.896,1.825,-1.949,8.443,4.542,-4.624,-8.054,350.4,354.2,-8.498,357.0,354.4,357.9,349.5,358.1,36,360.2,2,5,probe,5,0,63,norm,36,-5.065,down,norm,358.012135663,355.7,361.0,1.801,362.0,1,364.1,,363.2,10,5,7.542,4.599,1.288,-1.308,-4.839,-7.957,349.7,1,295.0,-7.632,-8.276,-10,-7.792,-8.062,-4.344,-4.449,-4.713,-4.525,4.593,8.008,13,-1.136,1.149,4.748,8.28,-7.722,-7.673,-2.058,1.661,359.1,354.7,352.5,362.1,360.5,360.6,359.8,350.6,353.7,351.4,0,norm,1.592,1.638,-1.763,-1.58,-5.063,-5.231,-1.875,-2.002,-1.557,-1.237,1.944,-1.117,363.4,355.2,-5.254,-8.294,362.5,-1.907,8.469,4.529,-4.324,-8.01,5,5.039,4.352,4.865,4.962,1.607,1.778,1.307,1.226,5,4.937,4.959,-10,305.594169568,norm,0,19,19,19,1432.093,1432.1,1432.10314623,1432.104,1432.107,1432.112,down,1,2.36725249859,7.63274750141,001,021,800_600,Intel(R) Core(TM) i7-2670QM CPU @ 2.20GHz,orientation_search,GRVLAPTOP3,Intel(R) HD Graphics Family,2018_jul_31_1457,testMonitor,
229.6,240.8,224.4,238.3,36,-20,236.0,238.5,236.3,236.1,7.681,8.275,7.711,8.284,7.853,7.561,7.869,4.83,-4.318,-7.797,1.733,-1.261,7.808,5.182,-4.51,-7.595,239.2,227.8,-7.797,234.0,232.7,242.1,235.6,254.9,36,230.5,0,5,prime,10,0,116,norm,36,-4.582,down,norm,237.222424172,248.1,246.6,1.147,257.2,0,249.9,217.2,237.2,10,6,8.261,4.606,1.986,-1.875,-4.75,-8.389,236.1,6,353.2,-7.508,-8.21,-20,-8.109,-7.659,-4.528,-4.577,-5.245,-4.695,5.211,7.76,0,-1.503,1.246,4.333,7.849,-7.935,-8.483,-1.315,1.869,225.7,232.2,252.6,239.0,233.3,,233.9,240.1,230.3,228.2,0,norm,2.072,1.579,-1.62,-1.999,-4.38,-4.91,-1.162,-1.755,-2.005,-1.903,1.808,-1.798,234.1,238.4,-4.368,-8.336,243.7,-1.816,7.993,4.388,-4.638,-7.53,6,4.646,4.661,4.75,4.617,1.698,1.694,1.861,1.119,6,4.577,5.156,40,305.594169568,norm,0,20,20,20,1434.491,1434.498,1434.5007511,1434.501,1434.505,1434.51,down,1,1.28793848088,8.71206151912,001,021,800_600,Intel(R) Core(TM) i7-2670QM CPU @ 2.20GHz,orientation_search,GRVLAPTOP3,Intel(R) HD Graphics Family,2018_jul_31_1457,testMonitor,
232.9,248.9,253.9,217.2,36,-20,233.7,226.9,224.3,,8.366,7.827,8.057,7.998,8.259,7.516,8.311,5.088,-4.47,-8.002,1.112,-1.44,8.015,4.353,-4.66,-8.188,252.9,243.4,-8.1,246.0,234.7,241.9,230.5,239.8,36,245.3,4,5,prime,10,0,72,norm,36,-5.036,up,norm,237.222424172,238.4,224.7,1.242,257.2,5,233.5,249.2,243.3,10,6,8.369,5.121,2.003,-1.813,-4.717,-8.492,225.6,6,309.2,-7.635,-7.862,-20,-7.667,-7.612,-4.543,-4.586,-4.928,-4.45,4.454,7.615,29,-1.795,1.406,4.651,8.162,-7.695,-7.541,-1.517,1.325,250.8,249.4,229.3,251.7,234.2,243.3,222.8,244.8,224.7,245.5,1,norm,1.19,2.065,-2.036,-2.057,-5.124,-5.241,-1.486,-1.615,-1.712,-1.105,1.114,-1.88,235.7,234.9,-5.07,-7.536,255.9,-1.594,7.906,4.405,-4.571,-7.909,6,4.551,4.668,4.47,5.208,1.394,1.683,1.632,1.496,6,5.149,4.844,40,305.594169568,norm,0,21,21,21,1435.808,1435.815,1435.81766816,1435.818,1435.822,1435.827,up,1,2.06845207103,7.93154792897,001,021,800_600,Intel(R) Core(TM) i7-2670QM CPU @ 2.20GHz,orientation_search,GRVLAPTOP3,Intel(R) HD Graphics Family,2018_jul_31_1457,testMonitor,
236.8,,253.0,232.9,36,-20,257.2,243.8,231.4,244.2,8.049,7.833,7.829,7.896,8.212,8.356,8.228,4.455,-4.651,-8.47,1.127,-1.102,8.159,4.927,-4.972,-8.289,217.2,218.9,-7.868,230.5,255.6,220.6,239.2,241.5,36,218.2,3,5,prime,10,0,77,norm,36,-4.951,up,norm,237.222424172,241.5,241.2,1.744,236.1,5,232.7,246.3,223.1,10,6,7.704,4.738,1.905,-1.762,-4.566,-7.907,253.1,6,314.2,-8.15,-8.225,-20,-8.468,-7.888,-4.699,-5.019,-5.118,-4.713,5.142,7.976,23,-1.687,1.843,5.202,8.036,-8.264,-7.632,-1.808,1.455,253.9,256.7,243.1,236.6,244.9,238.5,232.6,243.9,249.9,226.8,2,norm,1.542,1.163,-2.033,-1.47,-5.23,-4.498,-1.952,-1.271,-2.023,-1.837,1.795,-1.286,235.9,241.6,-5.159,-8.439,240.9,-1.817,7.684,4.301,-4.79,-8.042,6,4.952,4.503,5.008,5.244,2.07,2.066,1.62,1.363,6,5.256,4.784,40,305.594169568,norm,0,22,22,22,1437.906,1437.914,1437.91636941,1437.917,1437.921,1437.926,up,1,0.794651725206,9.20534827479,001,021,800_600,Intel(R) Core(TM) i7-2670QM CPU @ 2.20GHz,orientation_search,GRVLAPTOP3,Intel(R) HD Graphics Family,2018_jul_31_1457,testMonitor,
232.5,254.2,237.2,,36,-20,236.2,239.8,240.9,228.9,8.021,8.187,8.113,8.138,8.054,8.118,7.503,5.191,-4.937,-8.109,1.674,-1.437,8.133,4.571,-4.425,-7.909,226.4,231.8,-7.679,230.5,243.5,242.7,219.3,244.8,36,235.2,3,5,prime,10,0,92,norm,36,-4.802,up,norm,237.222424172,247.6,219.9,1.15,247.9,3,229.4,257.2,241.6,10,6,8.359,4.302,1.805,-1.841,-4.957,-8.079,247.7,6,329.2,-8.077,-7.647,-20,-8.405,-7.743,-5.262,-5.017,-5.13,-4.747,4.602,8.361,21,-1.15,1.521,5.234,7.645,-8.46,-8.05,-1.881,1.529,236.0,217.2,218.1,249.4,247.5,241.6,238.5,219.3,254.7,240.5,3,norm,1.16,1.999,-1.806,-1.115,-4.833,-4.756,-1.532,-1.598,-1.215,-1.787,1.479,-1.901,242.2,244.6,-5.148,-8.437,238.6,-1.841,8.351,4.997,-4.876,-7.797,6,4.3,4.698,4.942,4.746,1.168,2.063,1.602,1.104,6,4.734,4.696,40,305.594169568,norm,0,23,23,23,1438.731,1438.739,1438.74108492,1438.741,1438.745,1438.75,up,1,1.31416713324,8.68583286676,001,021,800_600,Intel(R) Core(TM) i7-2670QM CPU @ 2.20GHz,orientation_search,GRVLAPTOP3,Intel(R) HD Graphics Family,2018_jul_31_1457,testMonitor,
246.2,223.9,225.4,253.4,36,-20,241.2,229.0,246.2,226.7,7.712,7.53,8.036,7.648,8.391,8.063,8.272,4.944,-4.314,-7.805,1.246,-1.772,7.564,4.878,-4.394,-8.414,232.3,225.5,-7.678,225.7,230.3,236.0,244.0,226.6,36,242.6,0,5,prime,10,0,97,norm,36,-4.562,down,norm,237.222424172,218.1,257.2,1.829,217.2,2,247.6,238.1,217.9,10,6,7.899,4.443,1.321,-1.997,-4.567,-8.391,232.8,6,334.2,-7.831,-8.318,-20,-8.068,-7.722,-5.237,-4.62,-4.331,-4.992,4.817,7.936,2,-1.916,1.181,4.585,8.312,-8.288,-8.133,-1.304,1.43,228.1,228.1,231.3,,244.5,250.1,231.2,237.8,250.9,242.8,4,norm,2.001,1.279,-1.532,-2.079,-4.473,-4.935,-1.341,-2.001,-1.393,-1.662,1.973,-1.581,253.2,228.4,-4.791,-8.015,220.0,-1.356,8.187,4.948,-4.722,-8.024,6,4.832,5.02,5.23,4.349,1.294,1.199,1.537,1.145,6,5.173,4.367,40,305.594169568,norm,0,24,24,24,1440.075,1440.082,1440.08454817,1440.085,1440.089,1440.094,down,1,2.30303528393,7.69696471607,001,021,800_600,Intel(R) Core(TM) i7-2670QM CPU @ 2.20GHz,orientation_search,GRVLAPTOP3,Intel(R) HD Graphics Family,2018_jul_31_1457,testMonitor,
233.1,227.5,225.0,249.6,36,-20,226.3,239.1,236.8,257.2,7.513,7.676,7.668,7.791,7.961,8.177,8.444,5.227,-4.895,-7.6,1.362,-1.377,7.959,4.849,-4.855,-7.543,237.2,234.9,-8.16,250.7,231.8,236.4,217.2,252.5,36,238.1,2,5,prime,10,0,70,norm,36,-4.567,down,norm,237.222424172,237.9,233.4,1.365,242.1,0,242.9,237.5,,10,6,8.46,4.329,1.477,-1.135,-5.191,-7.744,227.4,6,307.2,-7.639,-7.732,-20,-8.004,-7.969,-5.127,-4.571,-4.594,-4.516,4.796,7.815,12,-1.783,1.834,4.318,8.208,-8.412,-8.122,-1.859,1.264,233.8,237.0,238.1,239.5,243.3,250.8,231.2,240.8,239.6,233.8,5,norm,1.559,2.083,-1.55,-1.788,-4.397,-4.31,-1.978,-1.77,-1.31,-1.509,1.302,-1.91,226.0,250.6,-4.677,-8.288,233.2,-1.625,7.597,4.381,-5.154,-8.447,6,4.589,4.791,4.576,5.219,1.854,1.59,1.727,2.036,6,5.216,4.824,40,305.594169568,norm,0,25,25,25,1442.408,1442.415,1442.41795357,1442.418,1442.422,1442.427,down,1,1.1611682955,8.8388317045,001,021,800_600,Intel(R) Core(TM) i7-2670QM CPU @ 2.20GHz,orientation_search,GRVLAPTOP3,Intel(R) HD Graphics Family,2018_jul_31_1457,testMonitor,
295.2,291.2,296.0,303.7,36,-60,294.8,299.1,291.7,298.3,8.153,7.98,7.8,8.219,7.633,7.827,8.222,4.59,-4.855,-7.895,2.04,-1.396,8.066,5.017,-4.377,-7.632,285.6,293.8,-8.155,292.2,304.0,290.8,,291.5,36,304.4,5,5,probe,5,0,82,norm,36,-4.643,down,norm,294.35746315,292.9,292.2,2.018,284.4,2,289.7,300.8,298.3,10,6,7.61,4.863,1.355,-1.928,-5.227,-7.595,300.6,1,212.4,-8.017,-8.449,-20,-8.163,-8.415,-4.948,-4.89,-4.83,-4.92,4.503,7.671,32,-1.456,1.795,5.17,7.795,-7.833,-8.071,-2.047,2.042,291.8,287.0,297.5,299.3,292.1,295.5,303.2,289.2,288.2,292.0,0,norm,1.784,1.242,-1.227,-1.994,-4.389,-4.64,-1.241,-1.578,-1.45,-1.625,1.515,-1.994,299.0,290.5,-4.465,-7.817,294.2,-1.381,8.2,4.747,-4.746,-8.444,7,4.315,4.507,4.587,4.417,1.609,1.18,2.073,1.2,7,5.211,4.307,-20,237.222424172,norm,0,26,26,26,1443.599,1443.607,1443.60926551,1443.61,1443.613,1443.618,down,1,1.72475021165,8.27524978835,001,021,800_600,Intel(R) Core(TM) i7-2670QM CPU @ 2.20GHz,orientation_search,GRVLAPTOP3,Intel(R) HD Graphics Family,2018_jul_31_1457,testMonitor,
94.6,,97.5,125.1,36,30,108.2,121.6,107.7,110.3,7.63,7.961,8.105,7.833,8.121,7.95,8.145,4.748,-5.227,-8.444,1.631,-1.52,7.743,4.383,-4.748,-7.667,102.8,120.5,-7.537,108.0,98.7,93.6,99.9,115.8,36,113.8,3,5,prime,10,0,105,norm,36,-4.392,up,norm,107.653968515,125.9,117.5,1.85,103.2,5,127.7,107.5,113.7,10,5,7.721,4.595,1.179,-1.382,-4.76,-7.603,124.8,5,212.7,-7.528,-7.941,30,-7.746,-7.504,-4.781,-4.386,-4.833,-5.047,4.458,8.111,23,-1.302,1.393,5.056,8.068,-8.19,-8.056,-1.885,1.335,99.3,103.3,105.6,125.2,102.0,91.4,96.6,106.8,104.8,87.7,0,norm,1.729,2.086,-1.116,-1.905,-4.61,-4.398,-1.77,-1.205,-1.606,-1.865,1.855,-1.288,108.9,112.7,-4.766,-7.767,109.0,-1.676,8.494,5.014,-4.928,-7.552,8,4.813,4.812,4.5,4.781,1.292,1.178,1.339,1.633,8,4.317,4.436,-60,237.222424172,norm,0,27,27,27,1445.354,1445.361,1445.36395063,1445.364,1445.368,1445.373,up,1,1.83953728042,8.16046271958,001,021,800_600,Intel(R) Core(TM) i7-2670QM CPU @ 2.20GHz,orientation_search,GRVLAPTOP3,Intel(R) HD Graphics Family,2018_jul_31_1457,testMonitor,
93.3,112.0,102.2,107.3,36,30,87.7,103.3,113.4,101.7,7.718,7.785,7.7,8.003,7.935,7.823,8.009,5.099,-4.451,-7.975,1.88,-1.992,7.574,4.78,-5.068,-7.781,106.1,,-7.694,116.0,108.3,107.8,127.7,100.8,36,106.2,5,5,prime,10,0,67,norm,36,-4.412,up,norm,107.653968515,104.6,111.0,1.464,113.6,4,97.9,103.1,97.4,10,5,8.46,4.975,1.421,-1.887,-4.743,-8.46,104.8,5,174.7,-8.413,-7.63,30,-7.641,-8.087,-4.939,-4.738,-4.338,-4.637,4.377,8.316,34,-1.553,1.825,4.435,8.096,-8.174,-7.613,-1.525,1.329,108.7,110.9,106.1,100.1,94.0,115.8,115.8,112.2,92.2,101.3,1,norm,1.391,1.474,-1.285,-1.312,-5.203,-4.463,-1.63,-1.618,-1.295,-1.714,1.636,-2.036,110.8,118.6,-4.417,-7.759,105.9,-2.013,8.082,4.937,-4.624,-8.036,8,5.109,4.684,4.853,4.497,1.614,1.586,1.63,1.5,8,4.466,5.271,-60,237.222424172,norm,0,28,28,28,1447.224,1447.231,1447.23359466,1447.234,1447.238,1447.243,up,1,3.02212361074,6.97787638926,001,021,800_600,Intel(R) Core(TM) i7-2670QM CPU @ 2.20GHz,orientation_search,GRVLAPTOP3,Intel(R) HD Graphics Family,2018_jul_31_1457,testMonitor,
107.2,97.9,114.4,119.7,36,30,87.7,103.7,115.5,94.2,8.479,8.236,8.025,8.297,8.453,7.73,7.625,4.749,-4.342,-8.072,1.249,-1.331,7.852,4.959,-4.393,-7.872,107.5,116.5,-7.787,110.9,108.5,105.5,127.7,104.4,36,114.0,0,5,prime,10,0,70,norm,36,-5.003,up,norm,107.653968515,96.0,94.7,1.114,104.9,5,107.7,106.4,98.8,10,5,8.294,4.436,1.301,-1.654,-4.813,-8.361,116.7,5,177.7,-8.073,-8.262,30,-7.774,-8.418,-5.17,-4.639,-4.526,-5.25,4.563,7.872,5,-1.258,1.375,4.937,8.419,-8.319,-7.912,-1.343,1.171,102.8,119.1,98.9,91.8,109.4,125.5,108.7,106.9,,107.8,2,norm,1.657,2.012,-1.904,-1.885,-4.696,-4.734,-1.177,-1.173,-1.723,-2.093,1.944,-1.29,105.2,115.0,-4.384,-8.269,112.0,-2.013,7.733,5.116,-4.464,-7.854,8,4.572,5.121,4.825,4.742,1.486,1.669,1.17,1.32,8,5.025,5.118,-60,237.222424172,norm,0,29,29,29,1450.276,1450.283,1450.28588853,1450.286,1450.29,1450.295,up,1,0.970307441512,9.02969255849,001,021,800_600,Intel(R) Core(TM) i7-2670QM CPU @ 2.20GHz,orientation_search,GRVLAPTOP3,Intel(R) HD Graphics Family,2018_jul_31_1457,testMonitor,
108.6,120.7,97.0,94.8,36,30,115.5,103.0,117.1,112.4,7.947,7.639,7.641,8.492,8.26,8.149,8.05,5.266,-5.054,-8.189,2.025,-1.612,8.378,4.875,-4.532,-7.65,96.0,104.6,-8.224,100.5,103.5,111.6,,112.7,36,118.7,5,5,prime,10,0,81,norm,36,-4.689,down,norm,107.653968515,109.4,111.6,1.583,96.8,2,99.6,111.1,120.6,10,5,8.234,4.558,1.974,-1.684,-4.911,-8.293,112.7,5,188.7,-8.147,-8.438,30,-8.05,-8.0,-4.37,-4.903,-5.16,-4.971,4.98,7.612,32,-1.117,1.204,5.243,8.224,-8.209,-7.591,-1.998,1.518,106.5,100.9,99.5,118.8,114.1,87.7,103.7,111.7,108.9,127.7,3,norm,1.777,1.807,-1.628,-1.831,-5.267,-4.728,-1.404,-1.267,-1.959,-1.24,1.351,-1.395,103.0,112.8,-4.432,-7.795,99.7,-1.139,8.199,4.31,-4.957,-8.059,8,4.524,4.391,5.243,5.076,1.243,1.617,1.187,1.655,8,4.646,5.156,-60,237.222424172,norm,0,30,30,30,1451.276,1451.283,1451.28609166,1451.287,1451.29,1451.295,down,1,3.39571742035,6.60428257965,001,021,800_600,Intel(R) Core(TM) i7-2670QM CPU @ 2.20GHz,orientation_search,GRVLAPTOP3,Intel(R) HD Graphics Family,2018_jul_31_1457,testMonitor,
109.0,127.7,122.8,104.8,36,30,104.2,113.9,92.7,115.9,7.551,7.622,8.047,8.495,7.759,8.271,8.277,4.667,-4.737,-7.923,1.641,-2.01,8.384,5.031,-5.24,-8.483,87.7,104.1,-7.594,108.1,110.6,107.5,103.8,101.2,36,96.4,2,5,prime,10,0,113,norm,36,-5.015,up,norm,107.653968515,94.6,94.4,1.951,121.6,3,108.8,103.1,107.9,10,5,8.048,4.616,1.352,-1.836,-5.096,-8.148,110.2,5,220.7,-8.415,-7.712,30,-8.118,-7.968,-5.299,-5.1,-5.272,-4.812,4.826,8.248,15,-1.526,2.029,4.822,7.758,-7.544,-8.472,-1.19,1.652,91.7,106.6,124.1,110.5,106.2,106.0,120.4,100.6,94.4,107.3,4,norm,1.303,1.107,-1.766,-1.838,-4.548,-4.841,-2.061,-1.741,-1.717,-1.948,1.898,-1.305,112.8,105.0,-4.85,-7.92,,-1.632,7.674,4.429,-4.785,-8.454,8,4.507,5.159,5.249,4.649,1.256,1.673,1.682,1.815,8,4.457,4.983,-60,237.222424172,norm,0,31,31,31,1454.702,1454.71,1454.71214277,1454.712,1454.716,1454.721,up,1,1.54415593087,8.45584406913,001,021,800_600,Intel(R) Core(TM) i7-2670QM CPU @ 2.20GHz,orientation_search,GRVLAPTOP3,Intel(R) HD Graphics Family,2018_jul_31_1457,testMonitor,
231.9,215.6,225.6,225.2,36,30,220.5,219.1,225.2,235.0,7.528,8.27,8.399,7.919,8.444,8.371,8.236,5.032,-4.671,-7.613,1.913,-1.221,7.527,4.953,-4.422,-7.536,223.3,,-8.218,221.9,230.7,224.8,229.6,220.7,36,217.7,5,5,probe,5,0,83,norm,36,-5.243,up,norm,225.612426404,231.7,233.6,1.235,225.7,4,224.8,223.9,222.5,10,5,8.188,4.31,1.165,-1.314,-4.933,-7.54,223.6,1,142.6,-7.623,-8.07,30,-8.28,-7.925,-4.311,-4.314,-4.79,-5.09,5.203,7.975,34,-2.013,1.112,4.729,8.412,-7.519,-8.375,-1.859,1.649,223.0,224.3,235.6,221.4,225.7,223.1,222.5,230.2,227.1,229.9,0,norm,1.558,1.265,-1.642,-1.514,-5.065,-5.148,-1.22,-1.444,-1.765,-1.592,1.674,-1.237,229.3,225.1,-5.009,-8.152,226.9,-1.707,7.884,4.566,-4.692,-8.149,9,4.374,5.254,4.878,5.002,1.402,1.371,1.304,1.753,9,4.461,5.273,30,107.653968515,norm,0,32,32,32,1456.277,1456.287,1456.29016168,1456.291,1456.294,1456.299,up,1,2.07602382054,7.92397617946,001,021,800_600,Intel(R) Core(TM) i7-2670QM CPU @ 2.20GHz,orientation_search,GRVLAPTOP3,Intel(R) HD Graphics Family,2018_jul_31_1457,testMonitor,
364.3,355.0,339.1,340.5,36,-10,347.1,341.7,332.3,346.0,7.893,8.482,7.658,8.394,8.191,7.849,7.661,4.987,-4.491,-7.682,1.368,-1.82,7.903,4.93,-4.709,-8.277,333.2,356.2,-7.554,336.4,344.0,,363.9,336.5,36,364.0,5,5,prime,10,0,113,norm,36,-5.226,up,norm,351.162514337,342.2,354.3,1.221,357.9,3,331.2,341.1,357.3,10,6,7.689,4.36,1.295,-1.299,-4.414,-7.822,350.0,6,464.2,-8.386,-8.325,-10,-8.094,-8.059,-5.298,-4.84,-4.331,-5.051,4.728,7.724,33,-1.486,1.12,5.12,7.685,-8.198,-7.605,-2.049,1.512,340.4,353.0,355.0,354.5,362.4,348.9,361.9,354.6,336.3,343.1,0,norm,1.687,2.064,-1.192,-1.925,-4.631,-5.189,-1.128,-1.826,-1.607,-1.168,1.842,-1.981,349.9,353.3,-5.036,-8.293,350.8,-1.753,8.196,4.35,-4.766,-7.987,10,5.25,4.806,4.765,4.868,2.049,1.208,2.077,2.052,10,4.747,4.348,30,107.653968515,norm,0,33,33,33,1458.386,1458.394,1458.39609099,1458.396,1458.4,1458.405,up,1,3.96656569444,6.03343430556,001,021,800_600,Intel(R) Core(TM) i7-2670QM CPU @ 2.20GHz,orientation_search,GRVLAPTOP3,Intel(R) HD Graphics Family,2018_jul_31_1457,testMonitor,
347.7,368.6,337.8,351.9,36,-10,340.0,356.6,349.7,347.8,7.857,7.778,7.933,7.548,8.086,7.779,8.296,4.6,-4.461,-8.008,1.46,-1.63,8.23,4.885,-5.025,-7.906,355.3,339.8,-8.492,347.2,331.2,347.7,349.8,348.2,36,346.7,0,5,prime,10,0,67,norm,36,-5.116,up,norm,351.162514337,337.4,345.3,1.462,360.7,3,351.6,346.4,361.4,10,6,8.305,4.766,1.965,-1.825,-4.556,-8.161,357.4,6,418.2,-8.46,-8.115,-10,-7.936,-7.999,-4.976,-5.122,-4.361,-5.199,4.437,7.506,3,-1.682,1.943,4.709,7.879,-8.156,-7.875,-1.638,1.838,356.9,347.5,,359.5,356.6,371.2,357.7,362.9,348.6,352.2,1,norm,1.943,1.41,-1.452,-1.947,-5.155,-4.668,-1.188,-1.164,-1.385,-1.952,1.284,-2.026,342.1,354.0,-5.193,-8.023,346.4,-1.859,8.283,4.81,-5.0,-8.071,10,4.309,5.217,5.082,4.563,1.52,1.653,1.638,1.988,10,5.134,4.55,30,107.653968515,norm,0,34,34,34,1462.383,1462.391,1462.39382297,1462.394,1462.398,1462.403,up,1,1.05261373618,8.94738626382,001,021,800_600,Intel(R) Core(TM) i7-2670QM CPU @ 2.20GHz,orientation_search,GRVLAPTOP3,Intel(R) HD Graphics Family,2018_jul_31_1457,testMonitor,
331.2,334.5,356.3,349.1,36,-10,349.3,339.1,351.0,355.0,7.537,8.36,8.286,8.47,7.871,7.793,8.483,4.402,-4.881,-7.913,1.22,-1.473,8.053,5.151,-5.162,-7.72,354.4,357.1,-7.806,338.7,364.8,361.6,351.3,350.5,36,339.2,2,5,prime,10,0,113,norm,36,-4.853,up,norm,351.162514337,,347.3,1.744,355.0,5,371.1,349.7,349.6,10,6,8.431,5.248,2.024,-1.887,-5.095,-7.993,355.1,6,464.2,-8.233,-8.291,-10,-7.659,-8.148,-4.824,-4.407,-4.527,-5.255,5.041,7.798,17,-2.046,1.359,5.242,7.705,-8.221,-7.824,-2.1,1.718,346.6,354.8,371.2,356.6,357.3,341.4,352.4,339.2,344.9,352.5,2,norm,1.687,1.904,-2.081,-1.467,-5.076,-4.44,-2.024,-1.634,-1.77,-1.363,1.935,-1.877,348.0,354.1,-5.291,-7.833,348.1,-1.97,7.56,5.246,-4.797,-8.261,10,5.284,5.004,4.527,4.355,1.769,1.408,1.367,2.042,10,4.4,4.714,30,107.653968515,norm,0,35,35,35,1463.468,1463.476,1463.47894689,1463.479,1463.483,1463.488,up,1,1.20963122802,8.79036877198,001,021,800_600,Intel(R) Core(TM) i7-2670QM CPU @ 2.20GHz,orientation_search,GRVLAPTOP3,Intel(R) HD Graphics Family,2018_jul_31_1457,testMonitor,
339.9,343.2,357.4,367.5,36,-10,345.4,332.0,331.2,343.8,8.376,7.514,8.337,7.747,7.705,7.795,8.473,4.389,-5.05,-8.454,1.776,-1.756,7.782,4.73,-4.874,-8.095,361.2,350.3,-7.923,,348.1,362.5,348.8,368.0,36,351.5,5,5,prime,10,0,83,norm,36,-4.759,down,norm,351.162514337,347.9,358.5,1.757,346.1,1,347.9,353.0,359.3,10,6,8.266,5.266,1.779,-1.665,-4.374,-7.675,338.9,6,434.2,-7.62,-8.208,-10,-7.53,-7.718,-4.429,-4.65,-4.873,-4.836,4.388,8.331,31,-1.614,1.132,5.026,7.915,-8.324,-7.902,-1.475,1.551,354.5,360.5,346.7,367.7,357.1,355.3,369.6,345.7,350.0,338.0,3,norm,1.968,1.479,-1.695,-1.913,-4.516,-4.409,-1.566,-1.702,-1.25,-2.003,1.307,-1.897,341.1,352.5,-5.069,-7.879,354.0,-1.153,8.355,4.801,-4.67,-7.982,10,4.591,4.643,4.471,4.783,1.261,1.908,1.416,1.986,10,4.579,4.889,30,107.653968515,norm,0,36,36,36,1464.708,1464.716,1464.71814087,1464.719,1464.722,1464.727,down,1,1.52075518571,8.47924481429,001,021,800_600,Intel(R) Core(TM) i7-2670QM CPU @ 2.20GHz,orientation_search,GRVLAPTOP3,Intel(R) HD Graphics Family,2018_jul_31_1457,testMonitor,
355.9,359.2,349.2,351.8,36,-10,362.9,351.9,347.3,355.9,8.042,7.536,8.366,8.062,8.289,7.734,7.576,4.766,-4.509,-8.486,1.312,-1.146,7.95,4.497,-4.466,-7.718,350.3,347.0,-7.579,351.8,352.7,355.3,344.3,332.2,36,343.0,0,5,prime,10,0,92,norm,36,-4.517,up,norm,351.162514337,351.6,350.4,1.833,342.7,5,343.7,345.8,351.1,10,6,7.648,4.989,1.986,-1.939,-4.691,-8.446,353.5,6,443.2,-8.241,-8.324,-10,-8.019,-8.494,-4.476,-5.024,-4.457,-5.202,4.395,8.067,5,-1.29,1.542,4.624,7.901,-8.004,-8.335,-1.785,1.282,349.8,347.4,357.1,345.4,347.7,331.2,345.9,371.2,,359.7,4,norm,1.87,1.974,-1.382,-1.87,-4.812,-4.803,-1.541,-1.583,-1.383,-1.994,1.639,-1.938,341.3,360.9,-4.485,-8.347,362.8,-1.205,8.496,5.244,-4.733,-8.083,10,4.908,4.752,4.33,5.193,1.728,1.75,1.524,1.161,10,4.547,4.345,30,107.653968515,norm,0,37,37,37,1466.259,1466.266,1466.26880948,1466.269,1466.273,1466.278,up,1,1.20125770892,8.79874229108,001,021,800_600,Intel(R) Core(TM) i7-2670QM CPU @ 2.20GHz,orientation_search,GRVLAPTOP3,Intel(R) HD Graphics Family,2018_jul_31_1457,testMonitor,
363.6,361.9,352.5,365.3,36,-10,363.4,350.8,344.8,348.8,7.684,7.554,8.34,8.138,8.13,8.415,8.233,5.265,-5.25,-8.345,1.792,-1.575,8.329,4.793,-4.626,-8.38,348.7,342.8,-7.951,346.1,353.6,341.9,338.9,344.6,36,359.9,2,5,prime,10,0,83,norm,36,-4.73,up,norm,351.162514337,351.0,355.0,1.755,339.3,3,337.7,358.6,371.2,10,6,7.696,4.744,1.192,-1.165,-4.522,-7.999,341.2,6,434.2,-7.571,-7.979,-10,-8.292,-8.142,-4.453,-4.708,-4.855,-5.132,4.628,7.561,15,-1.143,1.275,5.107,7.709,-8.301,-7.981,-1.326,1.863,338.1,340.5,362.1,355.0,355.4,344.8,336.2,363.8,345.9,331.6,5,norm,1.781,1.95,-1.79,-1.16,-4.618,-5.172,-2.015,-1.673,-1.518,-2.031,1.589,-1.807,331.2,359.4,-5.077,-8.487,,-2.01,8.216,4.724,-4.82,-8.029,10,4.807,5.167,5.121,4.543,1.314,1.105,1.291,1.293,10,5.246,4.799,30,107.653968515,norm,0,38,38,38,1467.491,1467.499,1467.50142399,1467.502,1467.506,1467.511,up,1,1.39684979732,8.60315020268,001,021,800_600,Intel(R) Core(TM) i7-2670QM CPU @ 2.20GHz,orientation_search,GRVLAPTOP3,Intel(R) HD Graphics Family,2018_jul_31_1457,testMonitor,
423.3,426.2,420.6,425.3,36,20,426.0,425.6,419.2,428.2,7.648,8.371,7.612,7.62,8.475,8.072,7.601,4.518,-5.03,-8.1,1.968,-1.998,8.352,4.463,-5.245,-8.318,415.9,420.3,-7.609,417.2,419.1,416.3,430.1,423.2,36,424.4,2,5,probe,5,0,78,norm,36,-4.504,down,norm,423.935255516,424.5,429.1,1.192,417.8,1,427.1,,422.7,10,6,8.196,4.583,1.722,-1.777,-5.162,-8.181,431.1,1,345.9,-7.756,-8.483,-10,-7.993,-8.314,-4.541,-4.9,-4.42,-4.57,4.36,7.606,13,-1.383,1.88,4.395,8.384,-7.626,-8.036,-1.449,1.721,428.8,432.5,423.1,427.2,425.4,418.6,429.0,424.4,427.1,427.9,0,norm,1.362,1.739,-1.925,-1.412,-4.755,-5.294,-1.288,-2.092,-1.692,-2.053,1.967,-1.12,432.6,425.2,-5.16,-8.402,433.9,-1.508,8.001,5.022,-4.666,-8.389,11,4.565,4.749,4.424,5.289,1.338,1.708,1.73,2.088,11,4.493,4.55,-10,351.162514337,norm,0,39,39,39,1468.919,1468.927,1468.92947603,1468.93,1468.934,1468.939,down,1,1.1678252712,8.8321747288,001,021,800_600,Intel(R) Core(TM) i7-2670QM CPU @ 2.20GHz,orientation_search,GRVLAPTOP3,Intel(R) HD Graphics Family,2018_jul_31_1457,testMonitor,
310.1,284.8,302.9,287.2,36,0,293.6,275.4,315.4,288.7,8.04,7.724,7.553,8.047,8.418,7.674,7.51,4.884,-4.524,-7.628,1.105,-1.725,7.698,4.77,-5.083,-8.129,287.9,306.3,-7.621,306.9,304.5,309.3,290.7,300.2,36,285.6,3,5,prime,10,0,85,norm,36,-4.937,down,norm,295.394912977,284.8,302.8,1.583,306.9,0,292.3,276.1,281.4,10,6,8.287,5.111,1.744,-1.938,-5.05,-7.873,288.0,6,380.4,-8.362,-7.632,0,-8.171,-7.662,-4.773,-5.02,-4.308,-5.282,4.827,8.164,18,-1.37,1.212,4.866,7.937,-8.183,-7.666,-1.866,1.786,289.5,296.4,308.1,290.9,296.0,302.7,283.8,310.1,293.1,280.8,0,norm,1.823,1.384,-1.598,-1.267,-4.907,-5.054,-1.284,-1.568,-1.748,-1.199,1.291,-1.241,301.3,,-4.906,-8.008,300.7,-1.141,8.313,5.232,-5.011,-8.295,12,4.674,4.432,4.691,5.256,1.855,1.891,1.48,1.87,12,4.727,4.797,20,351.162514337,norm,0,40,40,40,1470.12,1470.128,1470.13202675,1470.133,1470.137,1470.143,down,1,2.32703280345,7.67296719655,001,021,800_600,Intel(R) Core(TM) i7-2670QM CPU @ 2.20GHz,orientation_search,GRVLAPTOP3,Intel(R) HD Graphics Family,2018_jul_31_1457,testMonitor,
284.0,283.4,285.3,280.4,36,0,293.9,302.8,287.2,300.1,8.126,7.509,7.683,7.863,7.549,7.882,7.908,4.482,-4.387,-7.597,2.078,-1.503,8.39,5.013,-5.18,-8.011,300.3,299.2,-7.872,297.3,288.7,305.8,277.1,286.6,36,282.6,2,5,prime,10,0,72,norm,36,-4.549,up,norm,295.394912977,,292.5,1.917,291.1,5,315.4,305.6,282.9,10,6,8.425,4.924,1.569,-1.792,-4.347,-8.177,300.5,6,367.4,-8.203,-8.04,0,-7.9,-8.199,-4.614,-4.663,-5.043,-4.937,5.168,7.938,17,-2.051,1.451,4.861,8.086,-7.913,-7.729,-1.419,2.067,296.1,309.5,303.4,303.5,294.7,275.4,302.2,308.9,312.3,303.5,1,norm,1.35,1.724,-1.687,-1.814,-5.101,-4.622,-1.553,-1.759,-1.614,-1.337,1.34,-1.903,296.4,288.1,-5.035,-7.887,292.2,-1.172,8.047,4.337,-4.563,-8.388,12,4.37,5.21,4.788,4.949,1.6,1.882,1.36,1.303,12,4.623,4.898,20,351.162514337,norm,0,41,41,41,1472.484,1472.493,1472.49647842,1472.497,1472.502,1472.508,up,1,1.23785006208,8.76214993792,001,021,800_600,Intel(R) Core(TM) i7-2670QM CPU @ 2.20GHz,orientation_search,GRVLAPTOP3,Intel(R) HD Graphics Family,2018_jul_31_1457,testMonitor,
287.6,312.6,279.5,283.9,36,0,288.7,288.5,301.1,294.4,8.493,7.946,8.268,7.685,7.539,7.595,8.236,4.432,-5.222,-7.873,1.436,-1.403,8.473,4.442,-4.698,-7.832,286.6,305.6,-8.083,307.6,,275.4,287.0,288.8,36,308.1,5,5,prime,10,0,94,norm,36,-4.454,down,norm,295.394912977,304.6,313.3,1.158,284.7,0,289.7,282.5,285.0,10,6,7.766,4.647,1.16,-1.168,-5.225,-7.778,308.2,6,389.4,-8.22,-7.92,0,-7.752,-8.489,-4.507,-4.559,-4.46,-5.234,4.482,7.703,30,-1.574,1.445,5.142,8.352,-8.131,-7.737,-1.51,1.835,309.3,309.4,297.7,277.0,312.7,314.5,300.7,290.9,307.0,294.6,2,norm,1.969,1.464,-1.65,-1.878,-5.031,-4.681,-1.357,-1.537,-1.152,-1.931,1.811,-2.084,294.4,297.6,-4.524,-7.781,283.5,-1.481,8.057,5.126,-4.781,-7.572,12,5.243,4.821,4.351,4.95,1.932,1.567,1.574,1.359,12,5.136,4.413,20,351.162514337,norm,0,42,42,42,1473.759,1473.769,1473.77239783,1473.773,1473.778,1473.784,down,1,1.23964271989,8.76035728011,001,021,800_600,Intel(R) Core(TM) i7-2670QM CPU @ 2.20GHz,orientation_search,GRVLAPTOP3,Intel(R) HD Graphics Family,2018_jul_31_1457,testMonitor,
283.1,293.5,306.5,297.2,36,0,289.1,304.2,291.4,,7.853,8.048,7.647,7.976,8.292,8.419,8.417,4.772,-5.062,-7.981,1.996,-1.727,7.901,4.352,-5.045,-7.645,310.0,296.2,-8.121,287.9,294.1,302.4,285.9,300.6,36,289.6,4,5,prime,10,0,67,norm,36,-5.066,up,norm,295.394912977,290.9,292.0,1.321,286.9,5,285.6,287.3,315.4,10,6,8.258,4.313,2.059,-1.231,-4.519,-8.028,292.4,6,362.4,-7.544,-7.878,0,-7.975,-7.85,-4.749,-4.875,-4.97,-5.241,4.737,7.939,29,-1.92,1.786,4.771,7.693,-8.071,-7.578,-1.465,1.948,296.9,296.5,276.3,315.1,300.0,294.4,286.2,305.9,305.1,305.5,3,norm,1.485,1.189,-1.214,-1.909,-4.539,-4.823,-1.612,-1.374,-1.67,-1.664,1.529,-1.789,303.9,284.3,-5.059,-8.419,294.8,-1.504,7.634,4.82,-4.368,-8.256,12,5.216,4.825,4.703,4.627,1.372,1.213,1.383,1.849,12,4.394,5.238,20,351.162514337,norm,0,43,43,43,1475.041,1475.052,1475.05656328,1475.057,1475.063,1475.071,up,1,1.43830413357,8.56169586643,001,021,800_600,Intel(R) Core(TM) i7-2670QM CPU @ 2.20GHz,orientation_search,GRVLAPTOP3,Intel(R) HD Graphics Family,2018_jul_31_1457,testMonitor,
296.4,303.7,302.5,304.6,36,0,286.5,300.2,315.4,289.4,7.643,8.161,7.664,7.865,8.308,8.342,7.955,4.919,-4.535,-7.764,1.667,-1.782,8.459,4.743,-4.483,-7.585,310.9,289.0,-7.575,297.8,293.8,294.2,294.4,289.5,36,295.8,0,5,prime,10,0,71,norm,36,-4.625,up,norm,295.394912977,287.9,303.0,1.341,293.0,5,305.7,296.5,275.4,10,6,8.008,4.813,2.084,-1.391,-4.707,-8.047,291.7,6,366.4,-8.324,-7.971,0,-7.854,-7.976,-4.578,-4.912,-4.323,-5.045,4.633,7.977,5,-1.975,1.436,5.242,7.866,-7.696,-8.076,-1.938,1.737,295.4,297.5,296.4,282.9,299.9,279.4,283.9,310.5,,300.4,4,norm,1.543,1.462,-1.401,-1.195,-4.527,-4.69,-1.425,-2.021,-1.573,-2.072,1.359,-1.643,302.8,286.5,-4.411,-7.564,299.6,-1.225,8.002,4.856,-4.955,-8.17,12,4.404,4.329,5.042,4.492,1.109,1.63,1.545,1.644,12,4.34,5.127,20,351.162514337,norm,0,44,44,44,1476.529,1476.544,1476.548939,1476.55,1476.557,1476.566,up,1,1.34679033002,8.65320966998,001,021,800_600,Intel(R) Core(TM) i7-2670QM CPU @ 2.20GHz,orientation_search,GRVLAPTOP3,Intel(R) HD Graphics Family,2018_jul_31_1457,testMonitor,
315.4,293.0,280.4,297.1,36,0,299.6,297.8,291.5,275.4,7.855,8.292,8.107,8.061,8.296,7.63,7.959,4.518,-5.134,-8.158,1.583,-1.973,7.534,4.599,-4.859,-8.195,286.0,286.4,-7.958,294.8,279.6,301.4,288.7,298.9,36,294.4,3,5,prime,10,0,118,norm,36,-4.935,down,norm,295.394912977,294.7,284.0,1.824,282.1,1,289.4,307.7,284.7,10,6,7.517,4.844,1.49,-1.504,-4.853,-7.836,296.5,6,413.4,-8.243,-7.689,0,-7.84,-7.951,-4.414,-4.945,-5.144,-4.827,4.963,7.897,19,-1.713,1.457,5.081,8.182,-7.866,-8.44,-1.265,1.166,282.2,306.3,280.4,299.1,294.2,303.4,278.6,282.9,306.3,287.3,5,norm,1.481,1.568,-1.884,-1.25,-5.289,-4.374,-1.923,-1.622,-2.088,-2.089,1.233,-1.98,,286.5,-4.858,-8.346,286.0,-1.337,8.297,5.208,-5.181,-8.068,12,5.228,4.416,5.281,4.908,1.8,1.258,2.081,1.667,12,4.347,4.369,20,351.162514337,norm,0,45,45,45,1477.955,1477.983,1477.9928798,1477.994,1478.008,1478.029,down,1,2.06985294976,7.93014705024,001,021,800_600,Intel(R) Core(TM) i7-2670QM CPU @ 2.20GHz,orientation_search,GRVLAPTOP3,Intel(R) HD Graphics Family,2018_jul_31_1457,testMonitor,
375.6,384.7,388.4,392.2,36,20,391.2,384.3,382.8,373.9,7.965,7.576,8.205,7.828,8.443,8.163,7.863,4.826,-5.062,-7.825,1.991,-1.979,7.99,5.057,-4.466,-7.977,377.5,392.9,-8.493,373.3,386.5,,380.7,384.2,36,378.2,5,5,probe,5,0,88,norm,36,-4.708,up,norm,382.881204448,374.0,379.6,1.884,383.9,3,387.4,377.7,388.4,10,6,8.268,5.033,1.742,-1.318,-5.063,-7.798,375.9,1,294.9,-7.835,-7.729,0,-8.168,-7.68,-4.656,-4.432,-5.149,-5.202,4.536,8.267,33,-1.807,1.475,4.813,8.034,-7.855,-8.275,-1.13,1.281,381.9,377.7,384.2,372.9,387.3,378.8,378.7,379.9,382.0,381.4,0,norm,2.073,2.086,-1.675,-1.168,-4.889,-4.84,-1.33,-1.752,-2.002,-1.89,1.458,-1.686,389.3,384.5,-5.094,-8.343,380.4,-1.552,7.516,4.763,-5.108,-7.615,13,4.936,4.462,4.876,4.535,2.099,1.321,1.466,1.951,13,4.503,4.361,0,295.394912977,norm,0,46,46,46,1480.14,1480.168,1480.17713458,1480.178,1480.192,1480.212,up,1,1.2682930246,8.7317069754,001,021,800_600,Intel(R) Core(TM) i7-2670QM CPU @ 2.20GHz,orientation_search,GRVLAPTOP3,Intel(R) HD Graphics Family,2018_jul_31_1457,testMonitor,
343.6,351.3,345.5,352.4,36,10,368.1,348.7,343.3,354.4,8.191,7.944,8.017,7.611,8.032,7.606,8.024,4.549,-4.361,-8.473,1.198,-1.174,8.401,5.191,-5.225,-7.723,335.5,352.5,-8.13,,359.0,354.5,328.1,330.2,36,353.0,5,5,prime,10,0,103,norm,36,-4.84,down,norm,348.056731295,354.8,350.4,1.664,342.5,1,333.3,344.2,365.7,10,5,7.604,5.0,1.247,-1.857,-4.533,-8.04,348.3,5,451.1,-7.561,-7.894,10,-7.761,-7.958,-5.167,-4.395,-4.861,-4.45,4.761,8.05,31,-1.72,1.72,5.282,8.324,-8.381,-8.159,-2.011,1.376,332.4,353.1,355.0,344.4,343.5,349.2,348.0,367.3,351.7,345.0,0,norm,1.488,1.254,-1.697,-1.602,-4.344,-5.23,-1.732,-1.335,-1.739,-2.064,1.502,-1.38,349.0,343.2,-4.537,-8.028,349.4,-1.931,8.029,4.324,-4.691,-8.271,14,5.035,4.389,5.005,5.064,1.406,1.927,1.585,2.085,14,4.632,4.485,20,295.394912977,norm,0,47,47,47,1481.52,1481.552,1481.56194429,1481.563,1481.577,1481.597,down,1,0.981710127373,9.01828987263,001,021,800_600,Intel(R) Core(TM) i7-2670QM CPU @ 2.20GHz,orientation_search,GRVLAPTOP3,Intel(R) HD Graphics Family,2018_jul_31_1457,testMonitor,
332.2,345.3,348.1,352.2,36,10,356.5,335.5,349.5,340.3,7.766,7.763,8.028,7.796,8.082,7.677,8.269,4.775,-5.254,-8.135,2.073,-2.057,7.7,4.492,-4.791,-8.242,352.7,361.0,-7.755,363.4,343.5,334.8,362.6,365.7,36,368.1,0,5,prime,10,0,73,norm,36,-5.193,down,norm,348.056731295,363.1,358.4,1.677,345.0,1,342.0,348.3,360.3,10,5,8.369,4.801,1.542,-1.62,-4.726,-8.28,356.7,5,421.1,-7.644,-8.414,10,-7.751,-8.174,-4.543,-4.957,-4.74,-5.217,4.671,7.739,1,-1.402,1.141,5.088,7.592,-7.869,-8.107,-1.494,1.276,345.0,348.4,351.7,350.6,,330.1,344.7,359.6,328.1,338.3,1,norm,2.052,2.066,-1.593,-1.51,-5.293,-4.704,-2.027,-1.431,-1.685,-1.634,1.569,-1.189,334.7,340.4,-4.431,-8.176,366.6,-1.276,8.041,4.67,-5.087,-7.734,14,5.117,4.896,4.748,5.269,1.428,1.196,1.874,1.307,14,5.041,4.64,20,295.394912977,norm,0,48,48,48,1482.618,1482.646,1482.65502708,1482.656,1482.67,1482.69,down,1,2.04816407839,7.95183592161,001,021,800_600,Intel(R) Core(TM) i7-2670QM CPU @ 2.20GHz,orientation_search,GRVLAPTOP3,Intel(R) HD Graphics Family,2018_jul_31_1457,testMonitor,
346.5,355.1,347.8,355.2,36,10,353.9,335.5,362.0,338.7,8.472,8.185,7.883,8.421,7.655,7.851,7.66,4.819,-4.871,-8.112,1.271,-1.998,8.451,5.258,-5.148,-8.255,347.8,328.1,-8.344,340.6,350.9,361.8,351.0,335.1,36,362.7,1,5,prime,10,0,83,norm,36,-4.828,down,norm,348.056731295,344.9,334.9,1.21,342.6,2,350.4,362.4,344.1,10,5,7.943,4.542,1.536,-1.162,-4.891,-8.146,353.2,5,431.1,-8.09,-8.105,10,-7.636,-8.453,-5.243,-4.536,-4.788,-4.939,4.332,8.374,8,-1.711,1.167,5.108,7.893,-7.597,-7.871,-1.502,2.027,345.7,,329.3,345.9,349.8,343.3,358.3,354.7,333.1,341.4,2,norm,1.502,1.178,-1.866,-2.082,-4.755,-5.143,-1.362,-1.689,-1.159,-1.776,1.406,-1.225,349.1,343.7,-4.909,-8.347,368.1,-1.808,8.359,5.13,-4.31,-7.695,14,4.778,4.444,4.365,4.526,1.947,1.408,1.391,2.006,14,4.968,4.883,20,295.394912977,norm,0,49,49,49,1484.777,1484.804,1484.81309943,1484.814,1484.828,1484.848,down,1,1.22957553842,8.77042446158,001,021,800_600,Intel(R) Core(TM) i7-2670QM CPU @ 2.20GHz,orientation_search,GRVLAPTOP3,Intel(R) HD Graphics Family,2018_jul_31_1457,testMonitor,
342.5,355.0,356.0,351.7,36,10,352.6,346.4,368.1,329.5,8.437,8.384,8.194,7.888,7.68,7.833,8.359,4.809,-4.41,-8.066,1.337,-1.777,7.778,5.176,-4.908,-8.215,335.9,339.9,-8.315,328.1,364.9,343.5,361.4,350.7,36,342.0,0,5,prime,10,0,93,norm,36,-4.392,down,norm,348.056731295,340.7,352.9,1.368,340.0,1,346.1,346.8,353.3,10,5,7.531,5.059,1.725,-1.997,-4.684,-7.5,355.6,5,441.1,-8.058,-8.006,10,-7.772,-8.051,-5.069,-4.68,-5.26,-4.859,5.216,7.733,1,-1.24,1.641,5.101,7.714,-7.529,-8.276,-1.405,1.758,351.8,359.3,345.8,347.6,,329.1,362.2,355.0,330.9,333.6,3,norm,1.989,1.837,-1.487,-1.425,-4.796,-4.443,-1.582,-1.349,-1.415,-1.224,1.925,-1.185,353.1,349.8,-4.761,-7.938,352.0,-1.815,8.244,5.278,-4.676,-8.282,14,5.068,4.656,4.811,5.152,1.872,2.041,1.304,1.575,14,4.39,4.792,20,295.394912977,norm,0,50,50,50,1486.118,1486.147,1486.15728319,1486.159,1486.173,1486.193,down,1,0.907763343021,9.09223665698,001,021,800_600,Intel(R) Core(TM) i7-2670QM CPU @ 2.20GHz,orientation_search,GRVLAPTOP3,Intel(R) HD Graphics Family,2018_jul_31_1457,testMonitor,
338.0,359.7,353.4,336.3,36,10,362.8,362.5,348.8,341.0,7.857,8.464,8.3,8.047,8.219,8.282,7.936,4.33,-5.115,-8.306,1.736,-1.363,7.721,5.094,-4.853,-8.02,368.1,348.0,-8.218,355.0,341.4,346.9,328.1,349.3,36,348.1,1,5,prime,10,0,106,norm,36,-4.946,up,norm,348.056731295,339.8,361.3,2.092,344.8,5,,341.3,334.9,10,5,8.381,4.912,1.922,-1.758,-4.754,-7.899,364.5,5,454.1,-7.786,-8.241,10,-7.894,-7.809,-4.879,-5.131,-4.758,-4.76,4.327,7.672,11,-1.128,1.346,4.567,8.214,-8.18,-8.312,-1.663,1.243,358.7,352.6,343.8,344.5,345.9,351.5,338.5,352.4,367.1,342.1,4,norm,1.88,1.328,-1.828,-1.826,-4.793,-4.858,-1.78,-1.994,-1.134,-1.14,1.349,-2.09,349.4,349.6,-4.909,-7.525,341.4,-1.394,8.326,4.479,-5.012,-8.316,14,4.605,5.278,4.335,4.332,1.624,2.062,1.733,1.212,14,5.085,4.469,20,295.394912977,norm,0,51,51,51,1487.141,1487.169,1487.17807877,1487.179,1487.194,1487.213,up,1,1.08902164031,8.91097835969,001,021,800_600,Intel(R) Core(TM) i7-2670QM CPU @ 2.20GHz,orientation_search,GRVLAPTOP3,Intel(R) HD Graphics Family,2018_jul_31_1457,testMonitor,
451.0,459.3,463.6,452.7,36,-40,465.2,450.9,455.3,453.0,7.699,7.688,8.34,7.916,8.311,7.923,8.391,4.946,-4.907,-7.644,1.747,-1.172,7.608,4.546,-4.718,-8.483,452.0,461.0,-8.055,460.9,456.3,462.9,452.9,448.9,36,452.3,0,5,probe,5,0,95,norm,36,-4.953,up,norm,455.177311402,461.2,456.9,1.822,461.1,4,458.8,451.4,445.2,10,5,8.092,4.851,1.426,-1.187,-4.418,-7.609,456.4,1,360.2,-7.752,-8.43,10,-7.656,-7.858,-5.261,-5.268,-4.364,-4.721,4.765,8.069,4,-1.744,1.738,4.867,8.306,-8.105,-8.071,-1.174,1.899,460.5,454.1,461.8,462.5,456.1,451.6,449.2,452.0,460.3,,0,norm,1.247,1.416,-1.186,-1.617,-4.487,-4.445,-1.475,-2.007,-1.18,-1.609,1.137,-1.345,449.9,453.1,-4.39,-7.559,461.1,-1.153,8.388,5.254,-4.606,-7.85,15,4.758,5.292,4.757,5.114,1.769,1.873,1.346,1.187,15,5.039,4.43,10,348.056731295,norm,0,52,52,52,1488.341,1488.368,1488.37722022,1488.378,1488.392,1488.411,up,1,1.78164456625,8.21835543375,001,021,800_600,Intel(R) Core(TM) i7-2670QM CPU @ 2.20GHz,orientation_search,GRVLAPTOP3,Intel(R) HD Graphics Family,2018_jul_31_1457,testMonitor,
10.7,46.0,44.3,22.6,36,-30,38.6,31.6,15.5,40.4,8.246,8.421,7.865,7.875,7.948,8.27,8.492,4.392,-5.133,-7.566,1.725,-1.92,8.237,4.854,-4.873,-7.786,33.5,20.8,-8.17,39.8,18.2,28.0,28.8,26.1,36,45.5,1,5,prime,10,0,108,norm,36,-4.975,up,norm,30.7283180244,33.9,38.2,1.9,43.3,5,,40.5,30.1,10,5,8.354,4.579,1.561,-1.439,-4.575,-7.79,26.1,5,138.7,-7.899,-8.12,-30,-8.358,-7.512,-5.07,-4.903,-5.224,-5.013,4.437,7.742,11,-1.937,1.353,4.587,8.409,-7.574,-7.964,-1.577,1.791,38.3,33.3,28.1,40.4,22.7,28.0,50.7,13.4,36.0,35.2,0,norm,1.708,1.995,-1.817,-1.168,-4.53,-4.418,-1.358,-1.83,-1.781,-1.631,1.952,-1.666,44.3,23.4,-4.427,-7.651,19.8,-1.311,8.344,4.377,-4.621,-8.205,16,5.128,4.997,4.7,5.203,1.982,1.548,1.152,1.237,16,4.445,4.466,-40,348.056731295,norm,0,53,53,53,1490.233,1490.263,1490.27227526,1490.274,1490.288,1490.307,up,1,0.859660903294,9.14033909671,001,021,800_600,Intel(R) Core(TM) i7-2670QM CPU @ 2.20GHz,orientation_search,GRVLAPTOP3,Intel(R) HD Graphics Family,2018_jul_31_1457,testMonitor,
44.2,35.6,,27.9,36,-30,24.5,44.8,32.5,41.5,8.285,8.258,7.522,7.941,7.957,7.785,7.991,5.154,-4.537,-8.07,2.016,-1.562,8.412,4.528,-4.678,-8.147,27.4,25.4,-7.727,20.9,12.9,28.0,40.4,26.5,36,40.8,3,5,prime,10,0,65,norm,36,-5.121,down,norm,30.7283180244,44.1,33.7,1.467,22.6,2,41.0,50.7,21.8,10,5,7.624,5.176,1.23,-1.227,-5.019,-7.698,39.3,5,95.7,-7.618,-8.445,-30,-8.497,-8.471,-4.557,-4.945,-4.952,-4.514,4.406,8.402,20,-1.61,1.665,5.187,8.002,-8.403,-7.653,-1.719,1.72,44.4,32.6,43.6,31.8,14.2,32.7,44.1,21.4,30.4,10.7,1,norm,2.039,1.563,-1.835,-1.6,-5.072,-4.935,-1.247,-1.598,-1.132,-1.364,2.023,-1.433,35.2,39.6,-5.147,-7.66,36.1,-1.818,7.941,4.78,-5.045,-7.987,16,4.478,4.9,4.664,4.338,1.257,1.522,1.389,1.116,16,4.484,5.223,-40,348.056731295,norm,0,54,54,54,1491.208,1491.236,1491.2454106,1491.247,1491.261,1491.281,down,1,1.15074715867,8.84925284133,001,021,800_600,Intel(R) Core(TM) i7-2670QM CPU @ 2.20GHz,orientation_search,GRVLAPTOP3,Intel(R) HD Graphics Family,2018_jul_31_1457,testMonitor,
37.9,42.4,20.5,30.9,36,-30,31.2,21.9,41.6,43.1,8.308,7.941,8.32,7.633,7.563,7.658,8.183,4.969,-4.581,-7.825,1.421,-1.974,7.865,5.024,-4.625,-8.102,50.7,35.8,-7.787,28.4,34.2,41.9,10.7,42.0,36,19.7,0,5,prime,10,0,63,norm,36,-4.83,up,norm,30.7283180244,39.6,31.8,1.403,31.5,5,33.4,33.3,31.4,10,5,8.491,4.932,1.553,-1.617,-4.995,-7.655,31.4,5,93.7,-8.058,-8.39,-30,-7.871,-7.954,-4.31,-5.236,-4.646,-4.555,4.505,8.39,5,-1.263,1.965,4.731,7.807,-7.964,-8.082,-1.426,1.703,34.6,22.3,34.8,26.6,46.4,23.0,25.3,14.5,,22.1,2,norm,1.68,1.848,-1.741,-1.67,-4.569,-5.176,-1.861,-1.626,-1.731,-1.561,1.176,-1.776,35.1,32.4,-4.679,-7.984,16.6,-1.461,8.319,5.021,-4.512,-8.265,16,4.928,4.825,4.731,5.142,1.727,1.768,1.988,1.556,16,4.587,4.409,-40,348.056731295,norm,0,55,55,55,1492.471,1492.498,1492.5077018,1492.509,1492.523,1492.542,up,1,0.889044801504,9.1109551985,001,021,800_600,Intel(R) Core(TM) i7-2670QM CPU @ 2.20GHz,orientation_search,GRVLAPTOP3,Intel(R) HD Graphics Family,2018_jul_31_1457,testMonitor,
37.4,36.5,33.4,41.3,36,-30,29.6,30.0,17.0,30.6,8.224,8.452,7.979,7.692,8.298,7.812,7.995,4.586,-4.499,-8.088,1.174,-1.569,7.97,5.108,-4.659,-8.168,44.4,24.3,-8.014,24.7,23.5,10.7,33.9,24.4,36,34.3,2,5,prime,10,0,117,norm,36,-5.265,down,norm,30.7283180244,34.1,12.2,1.916,43.2,0,47.6,34.4,,10,5,8.042,5.2,1.943,-1.242,-4.805,-8.009,40.6,5,147.7,-7.669,-8.366,-30,-7.645,-7.767,-5.209,-5.036,-4.359,-4.474,5.12,7.801,12,-1.978,1.551,4.72,7.824,-7.527,-7.666,-1.817,1.191,33.1,22.9,35.5,37.2,35.8,30.7,39.5,14.6,27.9,33.3,3,norm,1.672,1.904,-1.561,-2.009,-4.542,-5.039,-1.905,-1.702,-1.725,-1.883,1.564,-1.881,47.4,50.7,-5.156,-8.366,32.6,-2.022,8.353,4.861,-5.178,-8.113,16,4.956,5.069,5.213,4.542,1.705,1.583,1.541,1.226,16,4.825,4.649,-40,348.056731295,norm,0,56,56,56,1493.47,1493.5,1493.50894391,1493.51,1493.524,1493.544,down,1,1.75267719598,8.24732280402,001,021,800_600,Intel(R) Core(TM) i7-2670QM CPU @ 2.20GHz,orientation_search,GRVLAPTOP3,Intel(R) HD Graphics Family,2018_jul_31_1457,testMonitor,
21.5,23.1,18.4,50.7,36,-30,31.8,25.0,16.9,36.7,8.102,7.512,8.477,7.824,8.315,7.53,8.454,4.526,-4.618,-8.324,1.296,-1.687,8.389,4.878,-4.578,-7.929,43.2,18.6,-7.962,16.0,13.9,10.7,26.4,42.0,36,29.6,1,5,prime,10,0,67,norm,36,-4.856,up,norm,30.7283180244,44.2,37.1,1.986,25.4,3,15.1,31.9,24.3,10,5,7.535,4.747,1.626,-1.325,-4.326,-7.867,30.3,5,97.7,-7.591,-7.857,-30,-7.691,-7.675,-4.498,-4.456,-4.789,-4.489,5.295,7.621,9,-1.804,1.934,5.244,8.072,-8.372,-7.883,-1.911,1.876,,20.0,22.1,15.3,32.2,36.3,30.9,16.6,47.7,28.7,4,norm,1.443,1.361,-1.815,-1.804,-4.516,-4.943,-1.536,-1.864,-1.358,-1.189,1.689,-1.784,17.3,31.0,-4.59,-8.389,34.1,-1.171,8.176,4.799,-5.11,-8.07,16,5.285,5.175,4.339,4.67,1.649,2.049,1.908,1.591,16,4.466,5.146,-40,348.056731295,norm,0,57,57,57,1495.337,1495.365,1495.37471965,1495.376,1495.39,1495.41,up,1,1.23051412716,8.76948587284,001,021,800_600,Intel(R) Core(TM) i7-2670QM CPU @ 2.20GHz,orientation_search,GRVLAPTOP3,Intel(R) HD Graphics Family,2018_jul_31_1457,testMonitor,
67.9,54.0,65.2,,36,40,57.6,59.1,56.2,67.1,7.694,8.263,7.834,7.601,7.505,8.483,8.296,5.272,-5.149,-8.266,1.957,-2.064,7.839,5.071,-4.315,-8.211,74.0,62.1,-8.258,69.1,64.5,65.4,68.9,59.2,36,62.2,3,5,probe,5,0,66,norm,36,-5.003,up,norm,64.0402261031,66.3,62.7,2.049,69.9,3,67.5,70.6,63.5,10,5,7.614,4.598,1.963,-1.815,-4.833,-8.366,61.5,1,-2.0,-7.614,-7.931,-30,-7.863,-7.677,-5.091,-5.012,-5.123,-4.597,4.496,8.088,21,-1.439,1.865,4.504,8.074,-8.132,-7.678,-1.736,1.485,67.3,65.2,62.0,71.6,66.0,62.1,64.3,64.8,54.3,71.7,0,norm,1.192,1.755,-1.247,-1.263,-5.259,-5.256,-1.16,-1.548,-1.121,-1.754,1.721,-1.759,60.8,59.2,-4.852,-7.605,54.3,-1.384,8.125,4.329,-4.961,-8.435,17,4.487,5.17,4.54,4.89,1.972,1.449,1.902,2.044,17,5.271,4.98,-30,30.7283180244,norm,0,58,58,58,1496.681,1496.709,1496.71790739,1496.719,1496.733,1496.754,up,1,1.06876913659,8.93123086341,001,021,800_600,Intel(R) Core(TM) i7-2670QM CPU @ 2.20GHz,orientation_search,GRVLAPTOP3,Intel(R) HD Graphics Family,2018_jul_31_1457,testMonitor,
139.7,133.7,111.3,121.6,36,60,102.9,113.8,127.0,107.3,8.352,7.939,7.751,8.462,8.452,8.096,7.777,4.911,-4.748,-8.352,1.816,-1.355,7.852,4.418,-4.995,-8.177,142.3,122.3,-8.365,138.6,128.6,117.1,125.0,125.2,36,124.4,0,5,prime,10,0,67,norm,36,-4.633,down,norm,122.867871827,126.0,125.6,1.751,122.5,0,130.6,115.8,119.5,10,5,8.451,4.418,1.94,-1.336,-4.378,-8.143,129.7,5,189.9,-8.222,-8.393,60,-7.624,-8.125,-4.535,-5.026,-5.007,-4.377,4.327,8.1,0,-1.822,1.419,4.772,7.733,-8.428,-8.358,-1.724,1.311,137.4,123.3,110.3,124.2,130.2,,125.3,124.6,142.9,133.1,0,norm,2.021,1.334,-1.971,-1.467,-4.906,-4.599,-1.129,-1.199,-1.583,-1.101,1.928,-2.01,125.3,130.4,-4.627,-7.71,123.3,-1.387,8.166,4.591,-4.95,-8.383,18,4.306,5.291,5.118,5.115,1.401,1.178,1.367,1.773,18,4.858,4.938,40,30.7283180244,norm,0,59,59,59,1497.863,1506.09,1506.09933257,1506.101,1506.116,1506.136,up,0,1.84426804787,-10,001,021,800_600,Intel(R) Core(TM) i7-2670QM CPU @ 2.20GHz,orientation_search,GRVLAPTOP3,Intel(R) HD Graphics Family,2018_jul_31_1457,testMonitor,
134.6,,113.9,123.6,36,60,135.6,123.8,135.9,142.9,7.72,7.69,8.336,7.649,8.452,8.175,7.565,5.195,-5.226,-7.833,1.378,-1.786,8.457,4.359,-4.922,-8.238,113.3,113.3,-7.618,136.5,130.1,133.5,102.9,119.4,36,115.0,3,5,prime,10,0,64,norm,36,-4.655,up,norm,122.867871827,134.6,130.8,1.312,114.5,5,116.8,116.8,113.9,10,5,7.827,4.635,1.853,-2.054,-4.526,-8.052,117.1,5,186.9,-8.4,-8.408,60,-7.802,-8.125,-4.725,-4.856,-4.489,-4.837,4.579,8.001,23,-1.177,1.968,4.313,7.791,-8.428,-7.876,-1.338,1.189,134.2,130.5,124.1,128.1,126.4,126.0,116.4,109.8,105.9,118.4,1,norm,1.182,1.367,-1.116,-1.642,-4.344,-5.222,-1.603,-1.242,-1.832,-1.497,1.893,-1.704,120.1,120.8,-5.234,-8.353,104.2,-1.595,7.553,4.743,-4.529,-8.418,18,4.752,4.692,4.327,5.079,1.844,1.418,2.097,1.365,18,5.142,4.413,40,30.7283180244,norm,0,60,60,60,1509.02,1509.044,1509.05147576,1509.052,1509.064,1509.08,up,1,1.34185830299,8.65814169701,001,021,800_600,Intel(R) Core(TM) i7-2670QM CPU @ 2.20GHz,orientation_search,GRVLAPTOP3,Intel(R) HD Graphics Family,2018_jul_31_1457,testMonitor,
120.6,117.5,138.1,134.2,36,60,122.4,124.4,134.3,129.2,7.816,7.854,7.854,7.629,8.167,8.389,8.231,4.697,-5.161,-7.884,1.962,-1.87,8.251,4.358,-4.6,-7.723,116.0,102.9,-8.19,122.7,115.1,129.6,131.4,115.8,36,123.5,2,5,prime,10,0,93,norm,36,-4.495,down,norm,122.867871827,114.1,125.4,1.593,,2,117.6,136.0,133.5,10,5,7.698,5.111,1.536,-1.605,-4.34,-8.054,120.4,5,215.9,-8.359,-7.783,60,-8.437,-7.712,-4.883,-5.224,-4.894,-4.443,5.03,7.736,14,-1.729,1.619,5.105,8.235,-7.601,-7.682,-1.387,1.48,121.9,109.4,109.1,140.1,123.3,142.9,132.0,125.1,116.5,132.0,2,norm,1.793,1.944,-1.328,-1.574,-5.248,-4.508,-1.518,-1.572,-1.872,-1.882,1.932,-2.093,116.8,128.0,-4.477,-7.563,125.3,-1.79,7.513,4.748,-5.058,-8.301,18,4.917,5.084,4.942,4.692,1.701,1.817,1.507,1.593,18,4.704,5.119,40,30.7283180244,norm,0,61,61,61,1510.456,1510.48,1510.48795875,1510.489,1510.501,1510.518,down,1,1.03206237833,8.96793762167,001,021,800_600,Intel(R) Core(TM) i7-2670QM CPU @ 2.20GHz,orientation_search,GRVLAPTOP3,Intel(R) HD Graphics Family,2018_jul_31_1457,testMonitor,
122.9,118.3,128.7,121.8,36,60,116.7,119.1,137.8,138.0,7.595,8.353,8.157,8.377,7.606,8.225,8.358,4.936,-4.948,-8.381,1.957,-1.419,7.676,4.6,-4.404,-8.417,125.4,118.8,-7.565,139.4,114.4,126.0,121.9,137.6,36,120.4,1,5,prime,10,0,80,norm,36,-5.262,down,norm,122.867871827,129.9,119.9,1.672,139.7,1,120.5,131.1,142.9,10,5,7.968,4.329,1.743,-1.174,-4.33,-8.231,127.0,5,202.9,-7.952,-7.936,60,-7.819,-7.899,-4.625,-5.233,-5.162,-4.867,4.915,7.622,7,-1.423,1.421,5.187,7.582,-8.467,-8.394,-2.09,2.094,102.9,126.2,128.3,120.8,119.4,124.7,,104.6,113.4,139.6,3,norm,1.615,1.633,-1.931,-1.987,-4.707,-4.527,-1.132,-1.136,-1.681,-1.151,1.791,-1.825,118.4,121.0,-4.976,-8.467,129.6,-1.567,7.973,5.166,-4.774,-7.896,18,4.541,5.288,5.081,5.243,1.424,1.735,1.341,1.755,18,4.649,4.721,40,30.7283180244,norm,0,62,62,62,1511.584,1511.608,1511.61512445,1511.616,1511.628,1511.644,down,1,0.949323212139,9.05067678786,001,021,800_600,Intel(R) Core(TM) i7-2670QM CPU @ 2.20GHz,orientation_search,GRVLAPTOP3,Intel(R) HD Graphics Family,2018_jul_31_1457,testMonitor,
121.7,109.4,129.5,136.6,36,60,122.0,116.6,133.7,115.0,7.962,8.463,8.031,7.839,7.688,7.886,8.15,4.702,-4.726,-7.765,1.602,-1.977,7.556,5.107,-5.078,-8.347,114.0,130.6,-7.581,118.7,124.8,126.4,135.6,115.9,36,121.9,0,5,prime,10,0,113,norm,36,-4.838,up,norm,122.867871827,121.1,142.9,1.645,112.9,3,126.5,114.4,122.7,10,5,7.864,5.091,2.057,-1.139,-4.975,-7.731,110.2,5,235.9,-7.566,-7.924,60,-8.333,-8.013,-5.247,-4.612,-4.341,-5.23,4.938,8.113,3,-1.315,2.059,4.955,8.204,-7.815,-8.374,-1.908,1.949,132.8,102.9,,126.3,120.9,112.5,110.7,133.6,111.1,126.8,4,norm,1.402,1.882,-1.78,-1.825,-4.631,-4.399,-1.38,-1.6,-1.862,-1.661,1.446,-1.826,130.7,131.4,-4.792,-8.465,115.1,-1.25,8.433,4.39,-4.456,-8.218,18,4.88,4.399,4.78,4.836,1.391,1.918,1.834,1.423,18,4.577,4.586,40,30.7283180244,norm,0,63,63,63,1512.627,1512.651,1512.65871185,1512.66,1512.672,1512.688,up,1,1.20365974897,8.79634025103,001,021,800_600,Intel(R) Core(TM) i7-2670QM CPU @ 2.20GHz,orientation_search,GRVLAPTOP3,Intel(R) HD Graphics Family,2018_jul_31_1457,testMonitor,
271.0,262.9,265.7,259.6,36,-80,274.9,275.5,,263.7,8.053,7.587,7.529,8.304,8.011,7.989,8.4,4.631,-4.965,-7.758,1.989,-1.32,7.838,4.619,-4.802,-8.403,272.6,268.0,-7.528,268.4,258.1,267.9,265.5,262.1,36,258.7,4,5,probe,5,0,74,norm,36,-5.27,up,norm,265.782667676,263.2,262.3,1.285,265.3,4,274.5,270.7,270.1,10,5,7.615,4.6,1.905,-1.103,-4.593,-8.074,270.1,1,191.8,-8.38,-8.066,60,-7.809,-7.703,-4.614,-5.048,-5.003,-4.461,4.755,7.886,28,-1.434,1.406,5.023,8.121,-7.602,-8.428,-1.699,2.016,259.4,272.2,262.5,260.0,268.8,264.4,268.2,255.8,256.2,260.1,0,norm,2.028,1.363,-1.359,-1.383,-5.102,-4.381,-1.46,-1.759,-1.4,-1.222,1.394,-2.074,262.8,275.8,-4.359,-7.536,263.6,-1.359,7.739,4.476,-4.479,-7.807,19,4.835,4.875,4.681,4.566,1.43,1.465,1.387,1.732,19,5.175,5.046,60,122.867871827,norm,0,64,64,64,1513.926,1513.949,1513.95707801,1513.958,1513.97,1513.987,up,1,1.68129028402,8.31870971598,001,021,800_600,Intel(R) Core(TM) i7-2670QM CPU @ 2.20GHz,orientation_search,GRVLAPTOP3,Intel(R) HD Graphics Family,2018_jul_31_1457,testMonitor,
31.7,19.4,34.6,38.5,36,-40,39.0,25.0,29.6,23.9,8.458,8.116,8.29,7.729,7.815,7.958,8.194,4.3,-4.741,-8.307,1.869,-2.06,8.468,4.394,-4.648,-7.753,14.9,23.1,-7.534,32.0,31.4,54.9,29.7,25.3,36,30.3,2,5,prime,10,0,112,norm,36,-4.661,down,norm,34.8761409061,40.1,42.1,1.72,38.6,1,42.7,,37.4,10,6,7.784,4.647,2.036,-1.744,-4.542,-8.05,36.4,6,146.9,-8.132,-7.543,-40,-7.711,-8.244,-5.022,-4.972,-4.915,-5.061,5.157,8.111,13,-1.835,1.57,4.991,8.293,-7.838,-7.545,-1.737,2.007,47.4,37.2,19.3,23.4,30.2,53.8,28.3,34.0,52.6,39.2,0,norm,1.748,1.787,-1.796,-1.763,-4.359,-5.025,-2.039,-1.34,-1.938,-1.602,1.875,-1.659,33.2,44.2,-5.141,-8.196,19.6,-1.297,7.937,4.874,-4.512,-7.538,20,5.17,4.594,5.146,5.155,1.324,2.007,1.692,2.014,20,4.955,4.307,-80,122.867871827,norm,0,65,65,65,1515.702,1515.728,1515.7358844,1515.737,1515.749,1515.765,down,1,1.21867156538,8.78132843462,001,021,800_600,Intel(R) Core(TM) i7-2670QM CPU @ 2.20GHz,orientation_search,GRVLAPTOP3,Intel(R) HD Graphics Family,2018_jul_31_1457,testMonitor,
41.0,30.4,40.2,43.3,36,-40,40.3,33.1,43.6,18.8,8.25,7.972,7.537,8.16,7.656,7.607,7.809,4.399,-4.846,-7.968,1.621,-1.481,7.647,4.57,-4.732,-8.479,37.3,51.3,-7.566,48.3,45.3,40.9,40.5,34.1,36,36.2,0,5,prime,10,0,78,norm,36,-4.983,up,norm,34.8761409061,32.4,25.6,1.447,27.4,3,29.0,40.5,36.1,10,6,8.201,4.562,1.701,-1.518,-4.597,-8.331,38.9,6,112.9,-8.489,-8.234,-40,-8.289,-7.895,-4.555,-4.445,-4.8,-4.856,4.617,7.966,3,-1.983,1.789,4.674,8.499,-8.1,-7.979,-1.774,1.741,37.9,27.7,,30.7,29.3,32.7,39.0,30.2,47.1,37.8,1,norm,1.692,1.657,-1.168,-1.232,-4.861,-4.806,-1.928,-1.322,-1.768,-1.522,1.132,-1.417,31.3,47.4,-4.324,-8.263,54.9,-1.264,7.797,4.832,-4.52,-8.448,20,5.112,4.948,5.191,4.562,1.295,2.064,1.136,1.89,20,4.502,4.565,-80,122.867871827,norm,0,66,66,66,1517.016,1517.04,1517.04738052,1517.048,1517.061,1517.077,up,1,1.10663348763,8.89336651237,001,021,800_600,Intel(R) Core(TM) i7-2670QM CPU @ 2.20GHz,orientation_search,GRVLAPTOP3,Intel(R) HD Graphics Family,2018_jul_31_1457,testMonitor,
40.2,27.8,29.3,,36,-40,44.4,27.1,52.6,38.8,8.027,8.043,7.924,8.294,7.766,8.436,8.011,4.606,-4.867,-7.699,1.267,-1.736,7.611,5.258,-5.192,-8.366,36.0,38.4,-7.505,26.0,28.8,35.1,25.6,54.9,36,28.9,3,5,prime,10,0,79,norm,36,-4.308,up,norm,34.8761409061,45.7,39.7,1.745,37.9,3,35.2,29.7,42.0,10,6,8.388,4.566,1.894,-1.826,-4.894,-7.74,24.7,6,113.9,-7.831,-7.855,-40,-7.823,-7.994,-5.076,-5.028,-4.442,-4.6,5.206,8.325,21,-1.768,1.974,4.955,8.003,-8.282,-8.407,-1.291,1.898,28.5,24.7,14.9,16.2,37.2,43.4,18.3,19.4,46.5,29.1,2,norm,1.418,1.557,-1.477,-1.314,-4.586,-5.084,-2.065,-1.967,-2.017,-1.362,1.53,-1.471,41.0,38.0,-4.348,-7.677,38.2,-2.086,8.226,4.922,-4.857,-7.858,20,4.91,5.235,4.316,5.051,1.932,1.42,1.401,1.718,20,5.287,5.299,-80,122.867871827,norm,0,67,67,67,1518.217,1518.24,1518.24768423,1518.249,1518.261,1518.277,up,1,1.01935687525,8.98064312475,001,021,800_600,Intel(R) Core(TM) i7-2670QM CPU @ 2.20GHz,orientation_search,GRVLAPTOP3,Intel(R) HD Graphics Family,2018_jul_31_1457,testMonitor,
30.3,37.5,28.6,49.5,36,-40,41.3,42.5,27.5,26.0,7.794,8.281,8.226,7.541,8.158,7.711,7.61,5.098,-4.81,-8.339,1.415,-1.19,8.365,4.792,-5.269,-8.333,32.0,26.5,-7.846,28.2,34.8,22.5,22.8,46.5,36,41.3,1,5,prime,10,0,77,norm,36,-5.284,up,norm,34.8761409061,34.0,37.9,1.747,36.5,4,34.9,14.9,30.5,10,6,7.52,4.986,1.46,-1.292,-5.255,-8.008,,6,111.9,-7.664,-7.76,-40,-7.574,-7.949,-4.655,-4.688,-4.366,-5.22,5.062,7.897,10,-1.544,1.449,4.381,8.175,-8.111,-8.052,-1.14,2.004,33.0,28.8,27.9,53.7,40.4,27.2,33.6,36.1,37.5,34.7,3,norm,1.59,1.498,-1.711,-1.256,-5.164,-4.559,-1.23,-1.705,-1.891,-2.027,1.755,-2.029,48.3,32.4,-5.288,-8.361,53.9,-1.259,7.622,4.396,-5.001,-8.314,20,5.15,4.972,5.013,5.107,1.742,2.09,1.868,1.462,20,4.32,5.001,-80,122.867871827,norm,0,68,68,68,1519.337,1519.361,1519.36867766,1519.37,1519.381,1519.397,up,1,0.783340563423,9.21665943658,001,021,800_600,Intel(R) Core(TM) i7-2670QM CPU @ 2.20GHz,orientation_search,GRVLAPTOP3,Intel(R) HD Graphics Family,2018_jul_31_1457,testMonitor,
29.8,19.0,25.5,37.2,36,-40,29.3,32.0,50.8,38.5,7.661,8.013,8.203,7.603,7.744,8.006,7.522,4.874,-4.435,-8.052,1.352,-2.084,7.837,4.995,-4.438,-8.198,40.1,39.4,-7.8,37.6,,37.8,44.9,21.0,36,45.0,5,5,prime,10,0,91,norm,36,-5.243,down,norm,34.8761409061,31.4,18.3,1.321,47.6,0,35.5,25.9,37.9,10,6,8.187,4.734,1.396,-1.402,-5.181,-7.834,26.9,6,125.9,-7.9,-7.828,-40,-8.288,-7.548,-4.773,-4.552,-4.464,-4.318,5.061,7.559,30,-1.178,1.536,4.568,8.396,-7.661,-8.025,-1.925,2.032,35.5,30.1,14.9,45.1,44.1,41.6,30.2,43.0,27.1,29.1,4,norm,1.913,1.275,-2.048,-1.349,-4.625,-4.694,-1.185,-1.629,-1.365,-1.938,1.704,-2.003,38.1,54.9,-5.216,-7.509,26.5,-2.059,8.452,5.238,-5.102,-8.229,20,4.977,4.515,4.378,4.63,2.039,1.28,1.279,1.269,20,4.977,4.986,-80,122.867871827,norm,0,69,69,69,1520.213,1520.236,1520.24320095,1520.244,1520.256,1520.272,down,1,1.24198452216,8.75801547784,001,021,800_600,Intel(R) Core(TM) i7-2670QM CPU @ 2.20GHz,orientation_search,GRVLAPTOP3,Intel(R) HD Graphics Family,2018_jul_31_1457,testMonitor,
38.9,14.9,26.5,27.9,36,-40,31.4,24.1,24.1,47.7,7.654,8.176,8.279,7.79,8.136,7.506,7.81,4.707,-4.936,-8.333,1.541,-1.956,7.583,5.245,-4.666,-7.827,40.6,19.8,-8.139,17.7,36.3,36.0,24.5,48.6,36,51.1,1,5,prime,10,0,105,norm,36,-4.539,down,norm,34.8761409061,54.9,45.2,1.305,19.4,2,37.5,28.8,35.8,10,6,7.784,4.758,1.886,-1.558,-4.801,-7.618,34.3,6,139.9,-7.806,-8.037,-40,-8.128,-7.818,-4.485,-4.889,-4.511,-5.105,4.925,8.2,8,-1.503,1.183,4.822,8.052,-8.254,-8.215,-2.063,1.84,35.4,,42.8,25.0,25.0,41.1,53.9,33.6,27.1,22.9,5,norm,1.262,1.942,-1.455,-2.1,-4.61,-4.329,-1.771,-1.949,-1.348,-1.126,1.778,-1.979,41.9,24.8,-4.346,-8.488,39.2,-1.999,7.639,5.164,-5.158,-7.586,20,4.641,5.194,5.053,4.755,1.148,2.019,1.593,2.019,20,4.372,4.489,-80,122.867871827,norm,0,70,70,70,1521.547,1521.571,1521.57875857,1521.58,1521.592,1521.608,down,1,1.56492115621,8.43507884379,001,021,800_600,Intel(R) Core(TM) i7-2670QM CPU @ 2.20GHz,orientation_search,GRVLAPTOP3,Intel(R) HD Graphics Family,2018_jul_31_1457,testMonitor,
93.1,91.6,85.4,92.7,36,80,87.5,80.4,89.0,87.2,7.712,7.595,8.136,7.557,7.775,8.161,7.575,4.658,-4.845,-8.485,1.836,-1.531,8.08,5.033,-4.495,-7.788,94.4,90.2,-7.616,90.0,98.8,,92.9,91.4,36,78.8,5,5,probe,5,0,102,norm,36,-5.215,up,norm,88.7714867527,92.6,79.7,1.568,87.9,3,82.5,92.5,94.4,10,6,8.22,4.899,2.082,-1.923,-5.259,-7.565,90.1,2,-13.2,-8.299,-8.491,-40,-8.446,-7.996,-4.715,-4.377,-5.255,-4.709,4.7,7.714,33,-1.854,1.443,4.645,8.017,-8.154,-8.483,-1.199,1.233,98.6,83.4,96.0,89.1,85.2,89.9,87.2,94.6,90.8,96.1,0,norm,1.718,1.46,-1.89,-1.226,-4.898,-4.513,-1.508,-1.503,-1.732,-1.536,1.314,-1.549,89.6,88.2,-5.035,-7.6,82.6,-1.495,8.214,5.168,-5.135,-7.715,21,4.943,4.844,5.106,5.075,1.611,2.088,1.474,1.785,21,4.707,4.897,-40,34.8761409061,norm,0,71,71,71,1523.208,1523.232,1523.23966887,1523.241,1523.253,1523.269,up,1,1.17553290594,8.82446709406,001,021,800_600,Intel(R) Core(TM) i7-2670QM CPU @ 2.20GHz,orientation_search,GRVLAPTOP3,Intel(R) HD Graphics Family,2018_jul_31_1457,testMonitor,
56.6,57.7,49.3,65.8,36,80,,57.5,51.8,60.4,8.448,8.445,8.072,7.562,8.379,7.567,7.892,4.873,-4.679,-8.091,1.933,-1.223,7.998,4.895,-5.046,-8.059,50.1,54.2,-7.556,52.7,53.9,60.8,55.0,51.6,36,61.8,4,5,probe,5,0,69,norm,36,-5.109,down,norm,55.7714867527,46.0,54.7,1.574,51.7,0,51.7,61.3,55.3,10,6,8.497,5.042,1.267,-1.672,-4.604,-8.269,52.2,2,-13.2,-8.448,-7.921,-40,-8.365,-7.529,-4.687,-4.652,-4.621,-4.962,4.881,8.261,24,-1.877,1.463,5.265,7.866,-7.725,-8.466,-1.76,1.816,63.6,61.2,59.0,56.8,56.5,63.4,50.5,45.8,58.7,48.4,1,norm,1.598,1.938,-1.853,-1.71,-4.564,-4.713,-1.54,-1.182,-1.443,-1.205,1.44,-1.57,55.6,60.0,-5.063,-7.668,64.2,-1.862,7.862,4.495,-4.561,-7.787,21,4.925,4.758,5.14,4.69,1.779,1.447,1.946,1.339,21,4.774,5.147,-40,34.8761409061,norm,0,72,72,72,1524.478,1524.5,1524.50819491,1524.509,1524.521,1524.538,down,1,1.25321163121,8.74678836879,001,021,800_600,Intel(R) Core(TM) i7-2670QM CPU @ 2.20GHz,orientation_search,GRVLAPTOP3,Intel(R) HD Graphics Family,2018_jul_31_1457,testMonitor,
151.3,140.7,152.9,170.0,36,10,140.8,146.8,151.9,162.1,7.862,7.802,8.354,7.983,8.157,8.405,8.161,4.542,-4.327,-8.326,2.071,-2.043,8.328,4.705,-5.3,-7.631,146.7,140.1,-7.848,149.7,149.5,139.6,142.9,153.7,36,143.2,2,5,prime,10,0,108,norm,36,-4.974,up,norm,149.975140507,131.4,143.7,1.832,159.5,3,142.6,150.4,130.0,10,6,7.94,5.134,1.922,-1.337,-5.241,-7.579,151.3,6,258.0,-8.281,-7.967,10,-8.439,-8.31,-4.309,-4.613,-5.293,-4.813,4.755,8.206,15,-1.383,1.823,4.934,7.734,-8.075,-8.478,-1.652,1.812,153.5,157.1,161.4,147.9,152.9,165.4,142.1,157.8,137.0,155.4,0,norm,1.386,1.802,-1.744,-1.849,-4.379,-5.285,-1.975,-1.136,-1.944,-1.298,1.863,-1.232,150.1,153.0,-4.924,-8.256,,-1.151,7.636,5.246,-4.314,-8.44,22,4.629,4.834,4.415,4.566,1.562,1.821,1.392,1.222,22,4.976,5.09,80,34.8761409061,norm,0,73,73,73,1525.826,1525.849,1525.85680171,1525.858,1525.87,1525.886,up,1,1.84073222997,8.15926777003,001,021,800_600,Intel(R) Core(TM) i7-2670QM CPU @ 2.20GHz,orientation_search,GRVLAPTOP3,Intel(R) HD Graphics Family,2018_jul_31_1457,testMonitor,
136.7,150.1,139.0,163.7,36,10,156.3,,141.1,162.0,8.499,8.004,7.9,7.662,7.913,8.37,8.259,4.978,-4.841,-7.867,1.393,-1.645,7.831,4.375,-4.932,-7.594,151.1,143.1,-8.096,152.6,166.5,144.0,130.5,145.6,36,161.5,4,5,prime,10,0,61,norm,36,-4.725,down,norm,149.975140507,153.4,141.1,2.051,154.5,1,150.8,143.7,146.1,10,6,8.248,4.455,1.225,-1.968,-4.849,-8.455,145.9,6,211.0,-7.582,-7.917,10,-7.687,-8.214,-4.912,-5.284,-5.252,-5.23,4.549,7.672,25,-1.251,1.885,4.958,8.084,-7.698,-7.536,-1.499,1.699,146.2,138.3,170.0,134.4,146.2,143.5,144.2,147.5,130.0,155.5,1,norm,1.241,1.711,-1.279,-1.331,-5.266,-4.837,-1.923,-1.775,-2.065,-1.569,1.966,-1.302,142.8,146.6,-4.546,-7.962,148.3,-1.699,8.497,4.79,-5.01,-8.223,22,4.967,5.186,5.242,5.185,1.893,1.499,1.525,1.7,22,4.572,4.734,80,34.8761409061,norm,0,74,74,74,1527.759,1527.784,1527.79191908,1527.793,1527.805,1527.821,down,1,1.56071478436,8.43928521564,001,021,800_600,Intel(R) Core(TM) i7-2670QM CPU @ 2.20GHz,orientation_search,GRVLAPTOP3,Intel(R) HD Graphics Family,2018_jul_31_1457,testMonitor,
149.2,158.2,145.3,167.9,36,10,134.1,148.5,130.0,153.3,8.206,8.004,8.451,7.822,7.783,8.431,8.036,4.423,-4.712,-7.755,1.898,-1.646,8.384,5.149,-4.303,-8.227,156.6,154.3,-7.734,157.6,151.3,159.4,143.8,148.8,36,170.0,2,5,prime,10,0,66,norm,36,-4.354,up,norm,149.975140507,142.9,163.3,1.775,154.9,3,159.8,148.9,146.1,10,6,8.433,4.618,1.273,-1.478,-5.069,-7.668,154.3,6,216.0,-7.982,-7.61,10,-8.033,-8.017,-4.957,-5.078,-5.018,-4.631,4.69,8.126,15,-1.389,1.473,4.442,7.799,-7.982,-8.431,-1.503,1.402,147.4,138.1,143.3,148.3,158.4,132.6,144.9,143.0,153.2,138.7,2,norm,1.536,1.95,-1.686,-1.385,-4.512,-5.03,-1.362,-1.376,-1.901,-1.844,1.502,-2.073,144.0,139.4,-5.1,-7.932,,-1.882,7.707,4.977,-4.617,-7.954,22,4.749,4.762,4.615,4.736,1.165,1.298,1.115,1.899,22,5.073,4.586,80,34.8761409061,norm,0,75,75,75,1529.415,1529.438,1529.44540519,1529.446,1529.458,1529.475,up,1,1.03390219905,8.96609780095,001,021,800_600,Intel(R) Core(TM) i7-2670QM CPU @ 2.20GHz,orientation_search,GRVLAPTOP3,Intel(R) HD Graphics Family,2018_jul_31_1457,testMonitor,
147.1,131.1,155.6,132.4,36,10,,144.6,144.9,143.1,8.397,7.94,7.878,7.763,8.454,8.059,8.434,4.537,-4.989,-7.643,1.157,-1.221,7.715,4.534,-5.014,-7.857,168.0,153.8,-8.149,148.1,155.5,142.2,167.4,135.9,36,165.0,4,5,prime,10,0,89,norm,36,-4.475,down,norm,149.975140507,165.9,146.0,1.729,147.9,0,152.1,162.4,137.9,10,6,7.573,4.801,1.9,-1.77,-4.99,-7.752,152.2,6,239.0,-8.092,-8.468,10,-8.179,-8.219,-4.87,-5.281,-5.011,-4.417,4.776,7.904,24,-1.801,1.973,5.286,7.935,-7.54,-8.024,-1.75,1.127,170.0,142.9,138.8,150.4,157.6,154.3,145.1,137.5,141.9,141.9,3,norm,1.118,1.681,-1.378,-1.784,-4.669,-4.944,-1.501,-1.568,-1.679,-2.021,1.811,-1.516,159.2,141.2,-4.814,-7.869,144.6,-2.046,7.914,4.952,-4.748,-7.651,22,4.33,4.975,4.525,5.083,1.838,1.488,1.352,1.292,22,5.065,4.483,80,34.8761409061,norm,0,76,76,76,1530.542,1530.566,1530.57335071,1530.574,1530.586,1530.602,down,1,1.03859747758,8.96140252242,001,021,800_600,Intel(R) Core(TM) i7-2670QM CPU @ 2.20GHz,orientation_search,GRVLAPTOP3,Intel(R) HD Graphics Family,2018_jul_31_1457,testMonitor,
148.4,145.2,150.8,148.1,36,10,150.5,140.9,147.8,161.7,8.4,7.664,8.121,7.535,8.399,8.001,7.796,5.203,-4.772,-8.389,1.577,-1.756,8.239,4.741,-4.828,-7.571,156.9,168.1,-7.924,149.0,166.1,146.0,141.0,169.6,36,134.5,2,5,prime,10,0,67,norm,36,-5.115,up,norm,149.975140507,,158.8,1.382,154.4,5,147.4,153.4,153.0,10,6,8.409,4.887,1.71,-1.565,-5.198,-8.234,170.0,6,217.0,-8.49,-7.68,10,-7.581,-8.417,-4.911,-5.163,-4.31,-4.823,4.37,8.379,17,-1.659,1.471,5.016,8.202,-8.448,-7.748,-1.809,1.566,147.2,141.1,145.7,160.5,148.8,159.8,150.2,164.2,157.0,138.2,4,norm,1.431,1.543,-1.883,-1.434,-5.034,-4.538,-1.426,-1.141,-1.508,-1.558,1.973,-2.023,148.5,160.2,-4.824,-7.741,163.4,-1.803,8.336,5.272,-4.45,-7.948,22,5.2,4.606,4.452,4.688,1.555,1.632,1.645,1.472,22,4.415,4.485,80,34.8761409061,norm,0,77,77,77,1531.674,1531.699,1531.706564,1531.707,1531.719,1531.736,up,1,1.16282833679,8.83717166321,001,021,800_600,Intel(R) Core(TM) i7-2670QM CPU @ 2.20GHz,orientation_search,GRVLAPTOP3,Intel(R) HD Graphics Family,2018_jul_31_1457,testMonitor,
142.7,135.9,,149.0,36,10,142.7,150.2,130.0,157.4,7.619,7.762,7.886,8.418,8.299,7.767,8.491,4.831,-4.824,-7.615,1.929,-1.487,7.891,4.338,-5.081,-8.044,145.8,142.9,-8.134,131.8,169.2,155.7,133.5,148.8,36,160.8,3,5,prime,10,0,104,norm,36,-4.929,down,norm,149.975140507,145.1,152.7,1.148,169.2,2,162.4,149.1,154.8,10,6,8.025,5.157,1.985,-2.02,-4.54,-7.636,163.4,6,254.0,-8.498,-8.247,10,-7.981,-7.662,-5.214,-4.595,-4.877,-4.618,4.981,8.263,20,-1.78,1.849,4.568,8.225,-8.154,-7.601,-2.067,1.229,131.1,147.8,150.7,170.0,153.0,137.7,148.7,142.8,143.7,162.4,5,norm,2.05,2.054,-2.067,-1.515,-5.11,-4.588,-1.924,-1.26,-1.785,-1.832,1.256,-1.732,147.3,151.9,-5.004,-7.748,140.2,-1.202,8.291,5.247,-4.924,-7.906,22,4.874,4.37,4.822,4.853,1.187,1.721,1.546,1.363,22,4.971,4.76,80,34.8761409061,norm,0,78,78,78,1532.932,1532.956,1532.96396893,1532.965,1532.977,1532.994,down,1,0.87270401814,9.12729598186,001,021,800_600,Intel(R) Core(TM) i7-2670QM CPU @ 2.20GHz,orientation_search,GRVLAPTOP3,Intel(R) HD Graphics Family,2018_jul_31_1457,testMonitor,
239.6,237.3,241.7,247.9,36,80,244.7,243.2,248.6,237.2,7.614,8.011,7.981,8.01,8.415,7.769,7.747,4.709,-4.815,-7.585,1.924,-2.034,8.467,4.562,-4.763,-8.437,241.1,255.6,-8.294,238.0,252.8,250.4,,235.6,36,253.5,5,5,probe,5,0,89,norm,36,-4.578,down,norm,245.563978043,252.3,240.7,1.147,243.8,2,247.6,244.3,240.7,10,6,8.412,4.434,1.284,-1.861,-5.056,-7.684,243.5,1,156.6,-8.233,-7.816,10,-7.67,-7.579,-5.017,-5.251,-4.574,-5.014,4.831,8.377,32,-1.952,1.229,4.734,7.936,-7.907,-7.737,-1.365,1.31,249.5,249.3,244.0,252.0,246.4,249.2,242.8,241.8,239.3,244.6,0,norm,1.316,1.934,-1.43,-2.067,-4.785,-4.958,-1.35,-1.366,-1.27,-1.455,1.339,-1.444,251.7,249.9,-5.217,-7.514,236.6,-1.602,7.925,4.352,-4.969,-8.413,23,5.27,4.845,4.987,4.625,1.547,1.535,1.531,1.194,23,4.751,4.628,10,149.975140507,norm,0,79,79,79,1533.9,1533.923,1533.93107396,1533.932,1533.944,1533.96,up,0,1.04786849298,-10,001,021,800_600,Intel(R) Core(TM) i7-2670QM CPU @ 2.20GHz,orientation_search,GRVLAPTOP3,Intel(R) HD Graphics Family,2018_jul_31_1457,testMonitor,
38.7,56.3,41.7,47.3,36,-20,37.2,29.4,57.8,45.9,8.221,7.903,8.144,7.796,8.44,8.12,7.524,5.086,-4.504,-7.78,1.133,-1.932,7.538,4.524,-4.612,-7.578,29.9,28.5,-8.428,52.1,38.1,28.6,57.4,41.9,36,40.1,2,5,prime,10,0,64,norm,36,-4.74,up,norm,41.0613668425,,28.7,1.676,49.6,5,43.1,35.2,61.1,10,5,8.463,4.508,1.333,-1.253,-4.913,-7.543,47.4,5,105.1,-7.962,-8.236,-20,-8.42,-8.141,-4.861,-4.54,-5.037,-4.482,4.998,8.042,17,-2.038,1.801,5.163,7.964,-8.11,-8.443,-2.097,2.028,45.0,21.1,47.3,50.7,39.1,51.3,46.5,43.0,45.7,33.2,0,norm,1.596,2.002,-1.226,-1.482,-4.813,-4.697,-1.992,-1.755,-1.252,-1.41,1.666,-1.287,56.9,44.9,-4.706,-8.303,32.0,-1.383,7.527,4.747,-4.562,-7.924,24,4.669,4.694,4.77,4.472,2.012,1.108,1.547,1.363,24,5.134,5.272,80,149.975140507,norm,0,80,80,80,1536.047,1536.071,1536.07921829,1536.08,1536.093,1536.11,up,1,2.16830110301,7.83169889699,001,021,800_600,Intel(R) Core(TM) i7-2670QM CPU @ 2.20GHz,orientation_search,GRVLAPTOP3,Intel(R) HD Graphics Family,2018_jul_31_1457,testMonitor,
29.6,44.6,53.6,,36,-20,36.4,57.6,42.6,29.3,8.276,7.659,8.066,7.861,7.774,7.938,8.457,4.736,-4.967,-7.583,1.751,-1.164,7.699,4.638,-4.559,-8.47,55.9,31.4,-7.643,54.7,38.7,41.3,25.7,43.3,36,37.8,3,5,prime,10,0,89,norm,36,-4.666,up,norm,41.0613668425,48.6,48.8,1.697,44.5,3,57.5,46.4,39.8,10,5,7.569,4.991,1.32,-1.702,-4.683,-7.817,61.1,5,130.1,-8.152,-7.75,-20,-7.679,-8.356,-4.37,-4.857,-4.604,-4.568,4.746,7.773,21,-2.013,1.383,4.678,8.429,-8.013,-8.407,-1.736,1.97,45.5,49.8,44.7,32.7,30.0,41.4,43.8,31.5,36.0,30.6,1,norm,1.748,1.524,-1.854,-1.577,-5.192,-4.673,-1.211,-1.993,-1.836,-1.916,1.841,-1.593,21.1,46.1,-4.501,-7.783,42.4,-2.068,8.263,5.031,-4.808,-8.449,24,4.8,4.777,4.72,4.391,1.499,1.888,1.444,1.647,24,4.425,5.239,80,149.975140507,norm,0,81,81,81,1538.312,1538.335,1538.34256621,1538.343,1538.355,1538.372,up,1,2.14959843811,7.85040156189,001,021,800_600,Intel(R) Core(TM) i7-2670QM CPU @ 2.20GHz,orientation_search,GRVLAPTOP3,Intel(R) HD Graphics Family,2018_jul_31_1457,testMonitor,
47.0,55.6,40.9,42.3,36,-20,34.6,38.3,44.0,42.4,7.757,8.092,8.33,8.498,8.201,7.535,7.88,4.598,-5.3,-7.556,1.307,-1.939,8.324,5.238,-4.474,-8.207,35.3,52.3,-7.957,41.9,50.8,37.0,37.4,39.8,36,22.8,3,5,prime,10,0,87,norm,36,-4.405,down,norm,41.0613668425,23.4,61.1,2.068,22.6,0,36.5,48.4,42.9,10,5,7.817,4.367,1.478,-1.936,-5.066,-7.569,54.0,5,128.1,-8.268,-8.033,-20,-7.796,-7.735,-5.225,-5.023,-4.648,-4.869,4.735,7.632,18,-1.444,1.673,4.359,7.663,-7.583,-8.227,-1.475,2.005,32.8,51.5,39.8,21.1,54.0,56.0,46.3,39.6,36.6,30.7,2,norm,1.385,1.178,-1.109,-1.624,-4.435,-4.79,-1.566,-1.193,-2.053,-1.792,1.101,-1.865,43.8,,-4.534,-7.717,35.8,-1.149,7.818,4.785,-4.948,-7.523,24,5.017,4.937,4.686,5.086,1.181,2.081,1.386,1.408,24,4.921,4.809,80,149.975140507,norm,0,82,82,82,1540.547,1540.566,1540.5722711,1540.573,1540.582,1540.595,down,1,0.978014609296,9.0219853907,001,021,800_600,Intel(R) Core(TM) i7-2670QM CPU @ 2.20GHz,orientation_search,GRVLAPTOP3,Intel(R) HD Graphics Family,2018_jul_31_1457,testMonitor,
55.3,24.1,48.2,41.5,36,-20,41.1,53.2,43.2,42.5,8.439,8.102,8.34,7.568,8.074,8.321,7.585,4.606,-4.918,-8.494,1.113,-1.565,7.988,4.614,-4.396,-8.275,44.0,61.1,-7.689,,30.3,33.6,43.8,32.1,36,39.3,5,5,prime,10,0,106,norm,36,-4.607,down,norm,41.0613668425,39.3,24.9,1.719,47.1,1,47.3,32.8,53.1,10,5,8.387,5.232,1.524,-2.049,-4.547,-8.209,35.4,5,147.1,-8.065,-8.226,-20,-8.201,-7.861,-4.817,-5.018,-5.073,-4.748,4.434,7.709,31,-1.898,1.693,4.325,7.913,-7.574,-8.252,-1.321,1.203,29.9,47.7,50.3,24.4,31.6,33.1,33.7,38.8,47.7,36.5,3,norm,1.857,1.31,-2.052,-1.713,-4.734,-5.107,-2.081,-1.647,-1.44,-1.35,1.964,-2.009,56.5,49.8,-5.237,-8.119,37.1,-1.776,8.167,4.599,-5.154,-7.603,24,4.338,4.952,5.267,5.292,1.984,1.181,2.086,1.846,24,5.026,4.71,80,149.975140507,norm,0,83,83,83,1541.599,1541.616,1541.62246972,1541.623,1541.633,1541.644,down,1,2.09520465204,7.90479534796,001,021,800_600,Intel(R) Core(TM) i7-2670QM CPU @ 2.20GHz,orientation_search,GRVLAPTOP3,Intel(R) HD Graphics Family,2018_jul_31_1457,testMonitor,
45.3,38.1,54.9,,36,-20,43.6,42.8,26.3,46.6,8.017,7.783,7.971,8.063,7.78,8.22,8.285,5.141,-5.06,-8.086,1.998,-1.222,7.578,5.041,-5.028,-7.907,43.0,46.7,-7.7,53.3,31.3,45.0,28.6,55.6,36,53.8,3,5,prime,10,0,93,norm,36,-5.227,up,norm,41.0613668425,51.8,57.3,1.934,50.3,3,37.4,41.0,44.5,10,5,8.144,5.002,1.909,-1.126,-4.758,-8.469,36.8,5,134.1,-8.251,-8.181,-20,-8.082,-8.155,-4.576,-4.736,-4.801,-5.137,4.499,7.644,21,-1.501,1.106,4.494,8.202,-7.58,-7.648,-1.993,1.307,55.5,43.2,45.7,40.7,46.6,21.1,44.7,43.7,44.1,61.1,4,norm,1.828,1.668,-1.484,-1.341,-4.843,-4.876,-1.302,-1.816,-1.705,-1.262,1.413,-1.452,38.1,45.3,-4.411,-7.556,48.3,-2.082,8.345,4.701,-5.167,-8.06,24,5.284,4.361,5.085,4.736,1.182,1.955,1.813,1.66,24,4.315,4.455,80,149.975140507,norm,0,84,84,84,1543.764,1543.78,1543.78546383,1543.786,1543.794,1543.806,up,1,1.20591983331,8.79408016669,001,021,800_600,Intel(R) Core(TM) i7-2670QM CPU @ 2.20GHz,orientation_search,GRVLAPTOP3,Intel(R) HD Graphics Family,2018_jul_31_1457,testMonitor,
110.2,97.1,100.3,106.5,36,-80,98.1,94.3,104.3,93.8,8.456,7.618,7.673,8.03,8.377,8.254,7.67,4.892,-5.111,-8.01,1.227,-1.9,7.984,4.953,-4.819,-8.278,101.5,102.8,-7.987,104.8,100.5,101.4,,100.1,36,94.0,5,5,probe,5,0,80,norm,36,-4.937,down,norm,100.231758046,93.3,93.9,1.547,99.3,2,99.4,104.3,103.1,10,5,7.517,5.169,1.965,-1.377,-5.102,-8.121,93.5,1,20.2,-8.214,-8.443,-20,-8.213,-7.517,-4.456,-4.593,-4.936,-5.224,4.438,7.868,32,-1.982,1.152,4.96,7.58,-7.91,-8.298,-1.254,1.724,90.2,106.7,101.9,97.2,99.3,96.1,103.7,108.4,102.9,94.4,0,norm,1.694,1.579,-1.671,-1.428,-4.621,-5.041,-1.89,-1.686,-1.636,-1.353,1.988,-1.159,103.1,105.5,-4.455,-7.611,103.4,-1.867,8.281,4.316,-4.378,-7.964,25,5.014,5.13,4.646,4.865,1.997,1.671,1.785,1.175,25,4.896,5.292,-20,41.0613668425,norm,0,85,85,85,1545.034,1545.05,1545.05523058,1545.056,1545.064,1545.075,down,1,1.84320571484,8.15679428516,001,021,800_600,Intel(R) Core(TM) i7-2670QM CPU @ 2.20GHz,orientation_search,GRVLAPTOP3,Intel(R) HD Graphics Family,2018_jul_31_1457,testMonitor,
61.0,49.9,65.5,63.6,36,-80,55.8,80.0,64.7,,7.762,8.19,7.919,8.313,8.417,7.788,7.505,5.255,-4.838,-8.323,1.8,-1.465,7.617,4.928,-4.883,-7.925,61.3,65.1,-7.623,80.0,59.5,71.6,62.9,66.9,36,71.2,4,5,prime,10,0,95,norm,36,-5.07,up,norm,59.9967575459,44.1,69.8,1.13,64.6,5,47.9,43.3,57.6,10,6,7.799,5.205,1.266,-2.012,-4.855,-8.388,72.6,6,155.0,-8.197,-8.088,-80,-8.216,-8.183,-4.978,-4.955,-4.39,-5.045,5.128,7.567,29,-1.505,1.202,5.086,8.289,-8.135,-7.814,-1.995,1.514,76.5,45.7,70.4,64.8,40.2,68.2,60.9,63.1,79.6,40.0,0,norm,1.802,1.802,-1.851,-2.097,-4.894,-4.359,-1.818,-1.513,-1.717,-1.541,1.615,-1.613,58.3,66.8,-5.172,-8.449,56.7,-1.894,7.506,5.155,-4.819,-8.265,26,5.146,4.832,4.323,5.156,1.457,1.107,1.173,1.98,26,5.038,4.561,-80,41.0613668425,norm,0,86,86,86,1546.938,1546.953,1546.95765704,1546.958,1546.965,1546.975,up,1,1.55854855889,8.44145144111,001,021,800_600,Intel(R) Core(TM) i7-2670QM CPU @ 2.20GHz,orientation_search,GRVLAPTOP3,Intel(R) HD Graphics Family,2018_jul_31_1457,testMonitor,
58.2,60.9,70.1,58.9,36,-80,48.5,64.0,68.0,47.3,8.061,8.359,7.86,8.248,7.694,8.358,8.484,4.872,-5.184,-7.849,1.265,-1.836,7.904,4.811,-4.32,-7.553,51.3,61.9,-7.756,75.4,48.8,53.5,59.5,45.2,36,59.9,2,5,prime,10,0,90,norm,36,-4.751,up,norm,59.9967575459,52.2,,1.74,48.3,4,58.3,56.4,71.5,10,6,8.26,5.121,1.498,-1.139,-4.409,-7.661,53.0,6,150.0,-8.054,-7.618,-80,-7.796,-7.802,-5.047,-5.191,-4.481,-4.612,5.083,7.53,16,-1.485,1.637,4.88,7.541,-7.791,-7.856,-1.267,1.286,67.3,63.5,48.4,78.4,80.0,49.0,69.7,67.4,63.1,68.9,1,norm,1.692,1.168,-1.251,-2.035,-4.739,-5.262,-1.276,-1.533,-1.437,-1.981,1.956,-2.071,40.0,69.9,-4.833,-7.952,60.7,-1.461,7.833,5.022,-4.766,-8.092,26,4.709,4.377,5.27,4.532,1.975,1.149,1.205,2.085,26,4.987,4.461,-80,41.0613668425,norm,0,87,87,87,1548.555,1548.57,1548.57513823,1548.576,1548.583,1548.593,up,1,1.75805376853,8.24194623147,001,021,800_600,Intel(R) Core(TM) i7-2670QM CPU @ 2.20GHz,orientation_search,GRVLAPTOP3,Intel(R) HD Graphics Family,2018_jul_31_1457,testMonitor,
61.5,70.8,57.0,53.9,36,-80,59.2,,47.4,50.5,7.944,8.392,7.91,8.076,7.741,7.546,7.59,4.67,-4.582,-8.158,1.238,-2.048,8.306,4.627,-4.305,-8.077,58.6,59.9,-8.108,72.1,61.7,46.6,66.5,55.9,36,56.4,4,5,prime,10,0,84,norm,36,-4.536,down,norm,59.9967575459,64.2,40.4,1.29,57.8,1,74.5,60.0,52.8,10,6,7.956,4.392,1.759,-1.541,-4.901,-8.359,67.7,6,144.0,-8.291,-8.208,-80,-7.747,-8.254,-4.555,-4.661,-5.298,-5.283,4.587,8.377,25,-1.84,2.097,4.406,7.529,-8.284,-7.915,-2.029,1.517,61.9,53.2,73.0,48.0,64.6,57.6,40.0,43.0,45.4,67.2,2,norm,2.017,1.879,-1.942,-1.579,-4.67,-4.703,-1.39,-2.018,-1.492,-1.817,1.236,-1.463,80.0,54.7,-4.75,-7.777,50.1,-1.462,7.707,4.32,-4.632,-7.848,26,5.195,4.732,4.881,4.941,1.561,1.328,1.191,2.014,26,4.512,5.29,-80,41.0613668425,norm,0,88,88,88,1550.372,1550.386,1550.39123087,1550.392,1550.399,1550.41,down,1,1.49364771542,8.50635228458,001,021,800_600,Intel(R) Core(TM) i7-2670QM CPU @ 2.20GHz,orientation_search,GRVLAPTOP3,Intel(R) HD Graphics Family,2018_jul_31_1457,testMonitor,
53.0,61.1,53.0,70.2,36,-80,67.6,66.3,40.0,57.4,8.424,8.215,8.397,8.139,7.502,7.841,7.994,5.033,-4.456,-8.434,1.559,-2.08,8.176,4.767,-4.977,-8.223,58.2,70.1,-7.503,75.9,60.6,70.3,60.1,54.8,36,44.4,2,5,prime,10,0,85,norm,36,-4.613,down,norm,59.9967575459,65.1,64.8,1.75,60.8,1,54.7,,64.2,10,6,8.259,4.607,1.756,-1.21,-5.0,-8.034,77.3,6,145.0,-8.024,-8.191,-80,-8.143,-8.22,-4.787,-4.475,-4.936,-4.915,4.486,8.011,13,-1.577,1.175,4.588,7.717,-7.853,-7.693,-1.625,1.695,52.6,64.3,69.2,61.2,67.6,69.5,45.3,60.4,70.5,63.4,3,norm,1.859,1.992,-2.095,-2.048,-5.219,-5.202,-1.141,-1.964,-1.31,-1.612,1.387,-1.573,44.4,63.0,-4.765,-7.925,76.8,-1.207,7.755,4.625,-4.908,-8.234,26,4.7,5.07,5.295,5.113,1.879,1.166,1.459,1.793,26,5.09,4.706,-80,41.0613668425,norm,0,89,89,89,1551.922,1551.935,1551.93890254,1551.939,1551.946,1551.955,down,1,1.67872107244,8.32127892756,001,021,800_600,Intel(R) Core(TM) i7-2670QM CPU @ 2.20GHz,orientation_search,GRVLAPTOP3,Intel(R) HD Graphics Family,2018_jul_31_1457,testMonitor,
70.0,59.6,66.3,64.3,36,-80,47.7,64.2,62.1,55.7,8.411,8.274,8.479,7.656,7.683,7.971,8.283,5.054,-4.689,-8.164,1.973,-1.507,7.726,4.427,-4.929,-8.187,40.0,51.5,-8.0,67.1,48.9,66.7,71.3,67.9,36,47.3,1,5,prime,10,0,113,norm,36,-4.98,up,norm,59.9967575459,69.5,53.7,1.855,60.5,3,59.9,62.2,68.8,10,6,7.872,4.757,1.397,-1.188,-4.71,-7.593,62.8,6,173.0,-8.105,-8.09,-80,-8.27,-7.658,-4.761,-4.479,-4.635,-4.448,4.341,7.8,9,-1.94,1.234,4.626,8.332,-7.537,-8.085,-1.685,1.35,,60.2,80.0,69.2,59.4,59.2,58.6,53.4,57.1,49.9,4,norm,1.398,1.716,-1.792,-2.078,-4.851,-4.503,-1.124,-1.486,-1.728,-1.18,2.047,-1.14,68.8,51.0,-4.817,-8.25,71.6,-1.935,8.226,4.595,-4.929,-7.677,26,4.861,4.674,4.967,4.701,1.405,1.288,1.211,1.808,26,4.373,4.467,-80,41.0613668425,norm,0,90,90,90,1553.652,1553.667,1553.67113298,1553.672,1553.679,1553.687,up,1,1.19608286291,8.80391713709,001,021,800_600,Intel(R) Core(TM) i7-2670QM CPU @ 2.20GHz,orientation_search,GRVLAPTOP3,Intel(R) HD Graphics Family,2018_jul_31_1457,testMonitor,
53.1,48.1,54.7,44.9,36,-80,68.5,80.0,57.6,73.2,8.2,7.73,7.673,8.028,8.035,8.303,8.043,4.676,-4.933,-8.068,1.467,-1.314,7.769,4.442,-4.72,-8.419,55.6,74.8,-7.513,75.0,56.4,62.8,58.1,52.8,36,66.9,1,5,prime,10,0,104,norm,36,-4.731,down,norm,59.9967575459,64.9,58.2,1.748,54.3,2,40.0,53.5,50.8,10,6,8.333,5.13,1.679,-1.237,-5.055,-8.243,65.5,6,164.0,-7.621,-7.511,-80,-8.102,-7.929,-5.242,-5.167,-4.835,-4.34,4.912,8.442,8,-1.976,1.633,4.751,7.603,-7.646,-7.571,-1.556,1.889,52.1,,64.4,57.4,54.5,60.7,55.7,44.1,51.6,48.5,5,norm,1.499,1.659,-1.502,-2.055,-4.414,-5.109,-1.207,-1.255,-1.37,-1.567,1.665,-1.663,73.4,58.3,-5.199,-8.242,64.3,-1.768,7.879,4.872,-4.968,-8.032,26,4.486,4.56,4.981,4.539,1.273,1.295,1.497,1.47,26,4.953,4.906,-80,41.0613668425,norm,0,91,91,91,1554.902,1554.915,1554.9197628,1554.92,1554.927,1554.936,down,1,1.22188891685,8.77811108315,001,021,800_600,Intel(R) Core(TM) i7-2670QM CPU @ 2.20GHz,orientation_search,GRVLAPTOP3,Intel(R) HD Graphics Family,2018_jul_31_1457,testMonitor,
67.6,,54.6,63.6,36,-20,70.1,66.5,64.0,66.0,8.23,8.455,7.764,8.489,7.789,8.067,7.88,5.211,-4.974,-8.19,1.695,-1.845,7.812,5.165,-5.056,-8.265,54.8,67.1,-8.198,62.3,60.7,64.6,66.6,68.2,36,68.9,3,5,probe,5,0,81,norm,36,-5.168,up,norm,64.5605620947,73.1,66.4,1.281,65.3,5,69.4,69.0,66.0,10,6,7.834,4.518,1.478,-1.713,-4.691,-8.378,69.6,1,-16.4,-8.223,-7.902,-80,-7.813,-7.893,-5.091,-4.332,-4.842,-4.414,5.153,8.234,23,-1.34,1.972,4.322,7.531,-8.325,-8.337,-1.658,1.645,65.9,67.1,63.3,69.4,60.4,62.0,57.8,65.0,67.4,74.6,0,norm,1.891,1.112,-1.747,-1.597,-4.749,-4.483,-2.041,-1.764,-1.788,-1.356,1.474,-1.214,59.1,64.7,-4.923,-8.462,61.2,-1.379,7.822,5.037,-5.042,-7.632,27,5.151,5.004,5.084,4.578,1.664,1.794,1.324,1.586,27,5.11,4.902,-80,59.9967575459,norm,0,92,92,92,1556.178,1556.191,1556.19526382,1556.196,1556.202,1556.211,up,1,0.943596419915,9.05640358009,001,021,800_600,Intel(R) Core(TM) i7-2670QM CPU @ 2.20GHz,orientation_search,GRVLAPTOP3,Intel(R) HD Graphics Family,2018_jul_31_1457,testMonitor,
212.4,209.9,230.5,231.3,36,80,225.2,231.3,241.5,236.5,8.246,8.238,7.8,7.772,8.376,7.874,7.618,4.665,-4.472,-7.504,2.034,-1.228,8.247,4.928,-5.262,-8.366,225.7,239.5,-7.979,234.7,233.0,237.3,235.2,222.2,36,239.9,1,5,prime,10,0,75,norm,36,-5.136,up,norm,229.353326754,215.4,221.3,1.301,226.3,4,231.0,209.4,235.7,10,5,7.682,4.337,2.095,-1.852,-4.606,-7.71,,5,304.4,-8.473,-8.407,80,-8.228,-7.525,-4.441,-4.781,-4.373,-4.874,4.672,7.792,10,-2.041,2.089,4.86,8.104,-8.426,-8.262,-2.053,1.193,217.5,221.7,215.6,239.6,242.8,245.3,226.2,224.2,231.1,234.1,0,norm,2.012,1.84,-1.419,-1.909,-4.463,-4.463,-1.45,-1.693,-1.576,-2.014,1.187,-1.711,219.2,221.2,-5.192,-7.922,240.8,-1.365,7.954,4.654,-4.496,-7.922,28,4.408,4.412,4.431,4.982,1.8,1.364,1.54,1.361,28,4.875,4.357,-20,59.9967575459,norm,0,93,93,93,1557.173,1557.187,1557.19122415,1557.192,1557.198,1557.208,up,1,1.33480020901,8.66519979099,001,021,800_600,Intel(R) Core(TM) i7-2670QM CPU @ 2.20GHz,orientation_search,GRVLAPTOP3,Intel(R) HD Graphics Family,2018_jul_31_1457,testMonitor,
236.1,220.7,249.4,239.6,36,80,228.8,234.9,219.4,233.8,7.831,7.744,7.679,8.449,7.949,7.57,7.553,4.738,-4.325,-8.244,1.813,-1.522,7.97,4.886,-4.473,-7.832,232.5,226.4,-8.204,229.4,231.1,210.0,221.2,220.5,36,220.3,0,5,prime,10,0,78,norm,36,-4.789,down,norm,229.353326754,210.3,209.4,1.562,233.2,0,241.2,223.3,220.1,10,5,8.126,4.793,2.093,-1.946,-4.59,-8.388,234.3,5,307.4,-8.196,-8.245,80,-8.097,-7.822,-5.03,-5.25,-4.984,-4.902,4.512,8.375,0,-1.37,2.018,4.525,8.223,-8.3,-8.43,-1.529,1.679,238.1,237.1,238.3,240.9,234.0,,239.8,242.1,236.3,242.1,1,norm,1.302,1.539,-1.282,-1.47,-5.267,-4.676,-1.35,-1.917,-1.109,-1.16,1.756,-1.35,236.9,222.6,-4.306,-7.804,238.2,-1.258,8.176,5.152,-5.066,-8.379,28,4.63,4.756,4.89,4.548,1.964,1.712,1.467,1.349,28,4.416,4.39,-20,59.9967575459,norm,0,94,94,94,1558.561,1558.574,1558.57800863,1558.579,1558.585,1558.594,down,1,0.879558050783,9.12044194922,001,021,800_600,Intel(R) Core(TM) i7-2670QM CPU @ 2.20GHz,orientation_search,GRVLAPTOP3,Intel(R) HD Graphics Family,2018_jul_31_1457,testMonitor,
