d_ori_22,d_ori_23,d_ori_20,d_ori_21,set_size,ctpd,d_ori_24,d_ori_25,d_ori_28,d_ori_29,stim_pos_x_30,stim_pos_x_31,stim_pos_x_32,stim_pos_x_33,stim_pos_x_34,stim_pos_x_35,stim_pos_y_11,stim_pos_y_10,stim_pos_y_13,stim_pos_y_12,stim_pos_y_15,stim_pos_y_14,stim_pos_y_17,stim_pos_y_16,stim_pos_y_19,stim_pos_y_18,d_ori_35,d_ori_34,stim_pos_x_3,d_ori_31,d_ori_30,d_ori_33,d_ori_32,d_ori_26,test_set_size,d_ori_27,targetCol,dsd_test,seq_type,dsd,blockRepN,targetDist,dtype_test,prime_set_size,stim_pos_y_25,correctResponse,dtype,distrMean,d_ori_17,d_ori_16,stim_pos_y_3,d_ori_14,targetRow,d_ori_11,d_ori_13,d_ori_12,dsd_prime,streak_length_prime,stim_pos_y_35,stim_pos_y_34,stim_pos_y_33,stim_pos_y_32,stim_pos_y_31,stim_pos_y_30,d_ori_10,nextProbe,targetOri,stim_pos_x_1,stim_pos_x_2,ctpd_prime,stim_pos_x_4,stim_pos_x_5,stim_pos_x_6,stim_pos_x_7,stim_pos_x_8,stim_pos_x_9,stim_pos_y_28,stim_pos_y_29,targetPos,stim_pos_y_20,stim_pos_y_21,stim_pos_y_22,stim_pos_y_23,stim_pos_y_24,stim_pos_x_0,stim_pos_y_26,stim_pos_y_27,d_ori_9,d_ori_8,d_ori_3,d_ori_2,d_ori_1,d_ori_0,d_ori_7,d_ori_6,d_ori_5,d_ori_4,trialN,dtype_prime,stim_pos_x_18,stim_pos_x_19,stim_pos_x_12,stim_pos_x_13,stim_pos_x_10,stim_pos_x_11,stim_pos_x_16,stim_pos_x_17,stim_pos_x_14,stim_pos_x_15,stim_pos_y_9,stim_pos_y_8,d_ori_19,d_ori_18,stim_pos_y_1,stim_pos_y_0,d_ori_15,stim_pos_y_2,stim_pos_y_5,stim_pos_y_4,stim_pos_y_7,stim_pos_y_6,totBlockN,stim_pos_x_27,stim_pos_x_26,stim_pos_x_25,stim_pos_x_24,stim_pos_x_23,stim_pos_x_22,stim_pos_x_21,stim_pos_x_20,blockN,stim_pos_x_29,stim_pos_x_28,prevDistrCTPD,prevDistrMean,prevDistrType,trials.thisRepN,trials.thisTrialN,trials.thisN,trials.thisIndex,timeStart,timeBeforeDraw,timeDraw,timeAfterSaving,timeAfterWritingToTemp,timeAfterPreparingNext,answer,correct,rt,trialScore,session,participant,resolution,cpu_info,expName,pc_name,graphic_card,date,monitorName,
11.9,3.4,10.1,21.2,36,-10,10.3,19.3,26.4,,7.842,8.469,7.701,8.165,7.966,7.89,8.059,4.41,-4.87,-7.826,1.734,-1.274,8.486,4.494,-4.774,-7.531,35.9,26.7,-7.723,21.8,15.1,31.6,18.5,12.0,36,13.9,4,5,prime,10,0,80,norm,36,-4.357,up,norm,15.8542492989,26.8,-4.1,1.138,16.9,5,9.0,14.7,9.1,10,6,7.812,5.15,1.765,-1.947,-4.644,-8.116,12.8,6,95.9,-8.37,-7.635,-10,-7.852,-8.312,-5.009,-4.798,-5.114,-4.664,4.597,7.934,29,-1.254,1.661,4.695,8.28,-7.734,-8.315,-1.372,1.708,24.4,16.0,14.6,17.3,27.0,20.2,14.8,13.6,21.2,7.0,0,norm,2.078,1.696,-1.927,-1.529,-4.838,-4.355,-1.131,-1.284,-1.231,-1.267,1.734,-1.782,21.5,25.6,-4.767,-8.394,26.0,-1.673,7.822,5.252,-4.757,-8.49,0,5.244,5.108,4.49,4.465,1.866,1.301,1.517,1.905,0,4.929,4.946,,,,0,0,0,0,347.85,347.861,347.868362228,347.869,347.869,347.873,up,1,2.27616689696,7.72383310304,001,011,800_600,Intel(R) Core(TM) i7-2670QM CPU @ 2.20GHz,orientation_search,GRVLAPTOP3,Intel(R) HD Graphics Family,2018_jun_07_1337,testMonitor,
21.2,17.8,14.6,5.9,36,-10,21.3,35.9,13.5,13.3,8.068,8.46,7.676,8.291,8.25,8.302,7.885,4.937,-4.372,-8.38,1.43,-1.434,7.869,4.823,-5.197,-8.422,12.9,7.7,-8.329,7.2,27.3,23.4,18.0,13.6,36,10.7,2,5,prime,10,0,104,norm,36,-4.886,up,norm,15.8542492989,22.5,,1.854,-4.1,4,12.2,29.8,6.2,10,6,7.595,4.588,1.912,-1.513,-4.836,-8.178,31.7,6,119.9,-7.687,-8.146,-10,-7.503,-7.934,-5.037,-4.715,-4.704,-4.336,4.433,7.611,16,-1.524,1.958,4.336,8.052,-7.658,-7.563,-1.3,1.818,22.9,21.8,14.0,25.8,12.8,17.0,13.3,17.7,14.4,11.4,1,norm,1.142,1.315,-1.88,-1.427,-4.794,-4.379,-1.313,-1.197,-1.502,-1.176,1.661,-1.53,16.8,14.8,-4.992,-7.587,18.0,-1.169,7.681,5.082,-4.986,-8.448,0,4.89,5.208,4.419,5.07,1.739,2.028,1.915,1.312,0,5.038,4.784,,,,0,1,1,1,350.16,350.167,350.169215877,350.17,350.172,350.176,up,1,2.42815663505,7.57184336495,001,011,800_600,Intel(R) Core(TM) i7-2670QM CPU @ 2.20GHz,orientation_search,GRVLAPTOP3,Intel(R) HD Graphics Family,2018_jun_07_1337,testMonitor,
1.8,17.8,12.4,20.5,36,-10,-4.1,7.5,13.4,24.7,7.841,8.07,7.58,7.719,8.322,8.081,8.121,4.848,-4.907,-7.95,1.922,-1.634,8.464,4.612,-5.124,-8.06,18.8,13.8,-8.245,35.9,3.5,26.1,24.8,,36,16.9,4,5,prime,10,0,87,norm,36,-4.637,down,norm,15.8542492989,12.6,20.8,1.831,5.1,2,19.7,8.9,15.7,10,6,8.182,5.079,1.994,-1.744,-4.783,-8.211,25.0,6,102.9,-8.126,-7.953,-10,-8.318,-8.145,-4.709,-4.969,-5.283,-4.495,4.663,8.342,26,-1.812,1.998,4.308,8.215,-7.953,-8.42,-1.735,1.151,14.7,21.1,10.3,19.0,22.6,14.6,8.8,6.5,23.5,19.4,2,norm,1.645,1.318,-1.293,-1.329,-4.886,-4.701,-2.087,-1.62,-1.119,-1.817,1.502,-1.102,-0.5,14.7,-4.49,-8.386,7.7,-1.223,7.6,4.686,-4.469,-7.923,0,4.68,4.848,5.048,4.316,1.176,1.721,1.332,2.074,0,5.274,5.088,,,,0,2,2,2,352.613,352.62,352.622027977,352.623,352.625,352.629,down,1,2.22879758376,7.77120241624,001,011,800_600,Intel(R) Core(TM) i7-2670QM CPU @ 2.20GHz,orientation_search,GRVLAPTOP3,Intel(R) HD Graphics Family,2018_jun_07_1337,testMonitor,
19.1,0.9,23.5,11.9,36,-10,13.6,-4.1,13.4,30.8,8.431,7.887,7.732,8.345,8.157,7.808,7.671,5.083,-4.552,-8.078,1.442,-1.803,7.854,4.422,-4.995,-7.87,7.1,13.4,-7.821,10.8,29.3,16.5,35.9,29.7,36,7.0,0,5,prime,10,0,110,norm,36,-4.54,down,norm,15.8542492989,30.4,1.4,1.898,10.7,2,7.4,5.9,21.7,10,6,7.735,4.845,1.219,-1.455,-5.009,-8.484,13.0,6,125.9,-7.805,-7.589,-10,-7.926,-8.476,-5.178,-4.792,-4.866,-4.578,4.986,8.27,2,-2.033,1.59,4.997,8.022,-7.952,-7.936,-1.58,1.834,17.3,12.7,2.6,,13.2,6.4,24.5,18.7,8.3,8.8,3,norm,2.035,1.257,-1.341,-1.541,-5.244,-4.405,-1.141,-1.956,-1.353,-2.015,1.192,-1.659,15.3,18.9,-5.27,-8.267,25.5,-1.958,7.882,5.159,-5.208,-7.93,0,4.481,4.719,4.842,4.75,1.973,1.887,1.579,1.558,0,4.769,5.159,,,,0,3,3,3,354.866,354.872,354.873567426,354.874,354.877,354.88,down,1,3.73009129527,6.26990870473,001,011,800_600,Intel(R) Core(TM) i7-2670QM CPU @ 2.20GHz,orientation_search,GRVLAPTOP3,Intel(R) HD Graphics Family,2018_jun_07_1337,testMonitor,
11.7,-4.1,23.4,15.6,36,-10,15.9,13.2,25.7,18.8,8.235,7.532,7.754,8.449,7.851,7.8,7.947,4.718,-4.839,-7.53,1.373,-1.953,7.913,4.697,-4.674,-7.881,30.2,13.5,-7.941,15.4,,35.9,4.6,14.8,36,11.2,5,5,prime,10,0,110,norm,36,-4.815,down,norm,15.8542492989,29.6,31.6,1.508,24.2,0,22.3,14.9,14.1,10,6,7.794,4.813,1.851,-1.667,-5.238,-8.43,3.6,6,125.9,-7.538,-8.277,-10,-8.328,-8.453,-4.693,-5.04,-4.745,-4.85,4.755,8.188,30,-1.603,1.191,5.1,8.447,-7.732,-7.932,-1.962,1.616,16.2,12.3,27.9,20.2,3.2,21.1,22.6,24.3,13.6,12.8,4,norm,1.464,1.839,-1.967,-1.151,-5.124,-5.247,-1.315,-1.452,-1.469,-1.341,1.45,-1.472,2.4,18.9,-4.788,-8.105,22.4,-1.845,7.909,5.041,-4.94,-7.893,0,4.558,4.854,4.691,5.244,1.808,1.824,1.369,1.496,0,5.081,4.849,,,,0,4,4,4,358.619,358.624,358.625608156,358.626,358.629,358.633,down,1,3.7798327631,6.2201672369,001,011,800_600,Intel(R) Core(TM) i7-2670QM CPU @ 2.20GHz,orientation_search,GRVLAPTOP3,Intel(R) HD Graphics Family,2018_jun_07_1337,testMonitor,
28.6,23.5,21.0,9.5,36,-10,25.8,8.8,11.3,9.4,7.691,7.729,7.912,8.124,8.211,7.813,8.171,4.802,-4.923,-7.731,1.841,-1.401,8.366,4.358,-5.279,-8.334,13.2,18.4,-8.373,21.8,,2.3,5.6,35.9,36,34.1,5,5,prime,10,0,72,norm,36,-4.885,down,norm,15.8542492989,12.3,13.3,1.541,23.9,0,19.9,2.2,2.4,10,6,7.764,4.732,1.893,-1.12,-5.168,-8.321,-1.9,6,87.9,-8.085,-8.381,-10,-7.644,-8.167,-4.511,-4.947,-5.006,-4.377,4.545,8.302,30,-1.615,1.688,4.426,8.09,-7.572,-8.206,-1.457,1.94,5.8,-0.5,20.9,7.2,10.6,16.7,1.1,32.3,20.1,-4.1,5,norm,1.913,1.357,-1.261,-1.451,-5.215,-4.518,-1.468,-1.126,-1.738,-1.791,1.591,-1.338,14.1,32.6,-4.932,-7.586,22.9,-1.114,8.388,4.476,-4.78,-8.132,0,5.135,5.242,5.122,4.963,1.288,1.858,1.672,1.58,0,4.346,5.264,,,,0,5,5,5,362.422,362.429,362.430910763,362.431,362.434,362.437,down,1,3.23972303694,6.76027696306,001,011,800_600,Intel(R) Core(TM) i7-2670QM CPU @ 2.20GHz,orientation_search,GRVLAPTOP3,Intel(R) HD Graphics Family,2018_jun_07_1337,testMonitor,
73.0,74.1,73.3,70.7,36,-40,75.7,83.9,82.4,78.3,7.9,8.048,8.462,7.844,8.159,8.281,8.338,4.674,-4.929,-8.189,1.466,-1.811,8.49,4.308,-4.926,-8.337,69.6,73.6,-8.42,72.7,72.0,65.4,65.3,84.7,36,73.9,1,5,probe,5,0,73,norm,36,-5.079,down,norm,75.2886312859,82.9,75.6,1.885,77.4,2,76.3,79.5,74.8,10,6,8.029,4.853,1.329,-1.696,-4.908,-7.856,72.3,1,2.3,-7.859,-7.861,-10,-8.11,-7.591,-4.359,-5.154,-4.854,-4.437,5.215,7.861,8,-2.012,1.5,5.228,8.479,-7.862,-7.881,-2.098,2.008,78.5,,82.7,73.3,74.6,74.3,80.1,71.5,75.7,76.8,0,norm,1.849,1.587,-2.026,-1.534,-4.509,-5.178,-1.463,-1.491,-1.185,-1.734,1.422,-1.913,85.3,66.7,-4.669,-8.18,75.6,-1.126,8.217,4.384,-5.265,-8.325,1,4.9,4.814,4.941,5.251,1.833,2.064,1.408,1.956,1,4.571,4.728,-10,15.8542492989,norm,0,6,6,6,365.686,365.69,365.692121411,365.693,365.696,365.7,down,1,2.52114789871,7.47885210129,001,011,800_600,Intel(R) Core(TM) i7-2670QM CPU @ 2.20GHz,orientation_search,GRVLAPTOP3,Intel(R) HD Graphics Family,2018_jun_07_1337,testMonitor,
321.7,327.2,326.1,324.7,36,30,341.1,327.1,327.6,321.3,8.093,8.427,8.274,8.011,8.024,8.442,8.123,4.875,-5.15,-7.961,1.948,-1.222,7.72,4.537,-4.574,-7.968,312.8,314.1,-7.867,321.7,313.4,328.4,329.2,312.1,36,329.0,0,5,prime,10,0,116,norm,36,-4.315,up,norm,321.147839524,301.1,335.1,1.303,308.6,4,322.8,327.1,323.4,10,6,7.536,5.162,1.17,-1.543,-4.652,-8.281,331.8,6,437.1,-7.511,-7.832,30,-8.402,-7.766,-4.325,-5.008,-4.659,-4.957,4.494,8.078,4,-1.684,1.192,4.399,8.219,-8.391,-8.334,-1.762,1.721,332.8,327.1,321.0,328.0,327.3,323.6,322.9,316.6,309.7,,0,norm,1.653,1.633,-1.54,-1.809,-4.696,-4.76,-1.695,-1.133,-1.654,-1.309,1.154,-1.496,331.1,332.4,-5.076,-8.225,312.6,-1.486,8.359,4.775,-5.128,-7.721,2,5.238,4.685,5.222,5.142,1.89,1.664,1.805,1.275,2,4.499,4.557,-40,15.8542492989,norm,0,7,7,7,368.231,368.237,368.239716966,368.24,368.244,368.249,up,1,2.66896955564,7.33103044436,001,011,800_600,Intel(R) Core(TM) i7-2670QM CPU @ 2.20GHz,orientation_search,GRVLAPTOP3,Intel(R) HD Graphics Family,2018_jun_07_1337,testMonitor,
,328.1,311.3,315.9,36,30,337.1,318.1,329.3,329.4,7.81,7.836,7.955,7.604,8.436,7.538,8.118,4.69,-5.23,-8.045,1.568,-1.598,8.299,4.397,-4.394,-8.451,311.5,326.5,-7.985,329.9,322.1,322.1,321.4,326.5,36,311.2,3,5,prime,10,0,113,norm,36,-4.856,up,norm,321.147839524,308.3,320.2,1.678,338.4,4,332.0,325.3,301.1,10,6,7.778,4.908,1.803,-1.196,-4.595,-7.531,316.3,6,434.1,-8.009,-7.693,30,-8.444,-8.088,-5.17,-5.287,-4.388,-5.266,4.662,7.83,22,-1.62,1.133,4.742,7.798,-7.501,-8.183,-1.101,1.883,327.8,326.9,320.9,315.8,341.1,312.1,321.6,319.9,325.7,322.5,1,norm,1.313,1.582,-1.862,-1.128,-4.893,-4.808,-1.399,-1.476,-1.166,-1.81,1.463,-1.551,316.2,338.0,-4.362,-7.717,323.0,-1.7,7.937,5.007,-4.752,-8.022,2,4.901,5.253,5.239,4.978,1.126,1.945,1.586,1.617,2,5.239,4.799,-40,15.8542492989,norm,0,8,8,8,370.927,370.934,370.93645474,370.937,370.941,370.945,up,1,2.88053212845,7.11946787155,001,011,800_600,Intel(R) Core(TM) i7-2670QM CPU @ 2.20GHz,orientation_search,GRVLAPTOP3,Intel(R) HD Graphics Family,2018_jun_07_1337,testMonitor,
301.1,302.8,323.5,321.9,36,30,315.7,324.9,317.5,333.5,7.673,8.216,8.474,8.086,8.254,7.786,7.72,4.31,-5.122,-8.061,1.676,-1.78,8.267,4.583,-5.228,-7.619,331.7,326.3,-7.999,335.2,,341.1,322.9,316.4,36,321.0,5,5,prime,10,0,110,norm,36,-4.645,down,norm,321.147839524,329.8,340.6,2.037,325.6,0,316.6,310.9,318.1,10,6,8.331,4.344,1.785,-1.96,-4.891,-8.281,322.3,6,431.1,-8.133,-8.168,30,-8.477,-8.248,-5.091,-4.376,-4.644,-5.277,4.802,8.478,30,-1.359,1.265,4.651,7.76,-7.617,-8.185,-1.936,2.036,312.5,313.1,322.2,316.5,308.4,337.9,322.0,325.4,325.0,332.4,2,norm,2.082,1.188,-1.78,-1.873,-4.734,-4.671,-1.957,-1.145,-1.484,-1.297,1.566,-1.174,322.8,316.8,-4.385,-7.981,324.1,-1.523,7.789,4.762,-5.19,-8.035,2,4.59,4.955,4.618,4.67,1.798,1.964,1.598,1.41,2,5.222,4.358,-40,15.8542492989,norm,0,9,9,9,373.837,373.844,373.846028952,373.847,373.85,373.855,down,1,1.90933839767,8.09066160233,001,011,800_600,Intel(R) Core(TM) i7-2670QM CPU @ 2.20GHz,orientation_search,GRVLAPTOP3,Intel(R) HD Graphics Family,2018_jun_07_1337,testMonitor,
,310.8,333.4,319.7,36,30,317.4,326.5,322.2,320.0,8.066,8.128,7.557,8.051,7.837,8.317,7.572,4.726,-4.5,-8.099,1.852,-1.456,8.141,4.555,-4.785,-8.066,326.0,315.7,-8.443,335.2,322.2,314.4,323.6,312.7,36,329.0,3,5,prime,10,0,67,norm,36,-4.377,up,norm,321.147839524,317.7,301.7,1.733,326.7,4,312.4,326.5,317.6,10,6,8.269,4.774,1.407,-2.059,-4.406,-7.85,335.0,6,388.1,-7.553,-8.27,30,-8.379,-7.959,-4.418,-4.794,-4.529,-5.167,4.735,8.384,22,-1.367,2.071,4.48,7.519,-8.5,-8.216,-1.165,2.092,311.1,313.9,320.1,321.7,336.9,341.1,323.4,313.3,315.4,306.9,3,norm,1.707,1.616,-1.586,-1.423,-4.378,-4.697,-1.213,-1.47,-1.141,-1.163,1.266,-1.837,326.7,310.6,-5.05,-7.809,301.1,-1.888,7.55,4.561,-5.186,-8.258,2,5.123,4.963,4.869,4.378,1.27,1.984,1.208,1.403,2,4.971,4.408,-40,15.8542492989,norm,0,10,10,10,375.774,375.781,375.783794448,375.784,375.788,375.793,up,1,1.38379547544,8.61620452456,001,011,800_600,Intel(R) Core(TM) i7-2670QM CPU @ 2.20GHz,orientation_search,GRVLAPTOP3,Intel(R) HD Graphics Family,2018_jun_07_1337,testMonitor,
321.8,332.2,322.8,,36,30,314.6,330.0,313.4,317.6,8.142,8.356,7.628,8.09,7.53,7.951,7.876,4.412,-4.632,-8.411,1.838,-1.136,7.608,5.2,-4.481,-8.468,320.7,327.6,-8.306,330.3,323.0,336.3,309.8,328.6,36,321.1,3,5,prime,10,0,111,norm,36,-5.279,up,norm,321.147839524,334.3,328.3,1.363,324.8,3,326.5,322.8,320.5,10,6,7.609,4.915,1.923,-1.77,-4.726,-7.623,341.1,6,432.1,-8.015,-8.054,30,-8.34,-7.928,-4.577,-4.753,-4.545,-5.296,4.922,8.086,21,-2.089,1.678,5.183,8.113,-7.526,-7.591,-1.429,1.401,301.1,320.3,314.9,320.4,326.4,315.3,307.7,313.4,329.1,313.5,4,norm,1.431,1.271,-2.073,-1.973,-4.596,-5.251,-1.166,-1.104,-1.965,-1.315,1.688,-2.034,309.4,316.1,-4.81,-8.153,327.3,-1.153,8.439,4.588,-5.133,-8.077,2,5.138,4.623,4.368,4.397,1.84,1.519,1.546,1.838,2,5.091,4.95,-40,15.8542492989,norm,0,11,11,11,377.187,377.194,377.196004881,377.196,377.2,377.205,up,1,3.08317810819,6.91682189181,001,011,800_600,Intel(R) Core(TM) i7-2670QM CPU @ 2.20GHz,orientation_search,GRVLAPTOP3,Intel(R) HD Graphics Family,2018_jun_07_1337,testMonitor,
332.1,318.5,302.6,,36,30,330.0,318.9,324.3,312.8,7.635,8.246,7.884,7.809,7.919,7.772,7.58,4.985,-5.204,-7.97,1.872,-1.183,8.186,5.203,-4.541,-8.128,304.9,328.4,-8.016,318.6,318.0,309.0,312.5,327.2,36,324.6,3,5,prime,10,0,106,norm,36,-4.651,up,norm,321.147839524,314.2,325.7,1.397,327.5,3,327.5,319.0,306.5,10,6,8.007,5.235,1.637,-1.4,-5.152,-8.208,315.9,6,427.1,-8.17,-7.603,30,-7.908,-7.744,-4.484,-4.912,-4.541,-5.231,5.089,8.325,21,-1.454,1.456,4.43,7.907,-7.591,-8.498,-1.683,1.548,326.1,323.1,310.9,321.7,330.8,331.3,317.8,301.1,315.5,328.5,5,norm,1.42,1.936,-1.92,-1.411,-4.687,-4.928,-1.846,-1.453,-1.52,-1.402,1.858,-1.478,341.1,324.0,-4.76,-8.463,313.9,-1.742,7.87,5.043,-5.243,-7.524,2,4.81,5.02,5.114,4.492,2.052,1.884,1.343,1.434,2,5.132,4.737,-40,15.8542492989,norm,0,12,12,12,380.299,380.306,380.308241416,380.309,380.312,380.317,up,1,2.27049567292,7.72950432708,001,011,800_600,Intel(R) Core(TM) i7-2670QM CPU @ 2.20GHz,orientation_search,GRVLAPTOP3,Intel(R) HD Graphics Family,2018_jun_07_1337,testMonitor,
432.5,431.5,428.2,441.4,36,-20,433.3,432.5,431.8,435.8,8.473,7.865,8.379,7.82,8.276,7.781,8.499,5.004,-4.432,-8.396,1.38,-1.25,8.337,4.558,-5.29,-8.282,440.8,440.0,-8.223,435.3,433.6,441.3,431.2,431.1,36,435.2,0,5,probe,5,0,81,norm,36,-4.301,up,norm,431.431369543,425.5,429.5,2.011,430.3,3,439.9,428.8,428.5,10,6,8.348,4.904,1.435,-2.083,-5.192,-7.643,431.8,1,350.4,-7.573,-8.353,30,-8.096,-8.449,-4.982,-4.505,-4.302,-4.329,4.731,7.833,3,-1.158,1.53,4.925,8.336,-7.554,-7.849,-1.465,1.96,422.4,421.4,,437.1,429.5,431.4,429.8,435.2,434.8,433.6,0,norm,1.822,1.793,-2.019,-1.382,-4.505,-4.548,-1.153,-1.464,-1.386,-1.467,1.448,-1.445,427.9,427.6,-5.118,-7.575,428.5,-1.105,8.359,5.155,-4.413,-7.577,3,4.641,4.711,5.036,4.553,1.869,1.419,1.417,1.524,3,5.156,4.82,30,321.147839524,norm,0,13,13,13,382.597,382.604,382.60626996,382.607,382.61,382.615,down,0,5.58856005077,-10,001,011,800_600,Intel(R) Core(TM) i7-2670QM CPU @ 2.20GHz,orientation_search,GRVLAPTOP3,Intel(R) HD Graphics Family,2018_jun_07_1337,testMonitor,
191.5,185.3,190.5,180.8,36,0,204.5,185.6,175.9,192.9,7.679,8.409,7.893,7.549,8.153,7.972,7.726,4.419,-4.909,-7.635,1.624,-1.649,7.628,4.386,-4.347,-7.753,199.0,201.0,-7.838,,197.1,191.3,205.2,211.1,36,195.1,5,5,prime,10,0,62,norm,36,-4.913,down,norm,191.136815703,198.0,192.3,1.879,192.8,1,174.9,176.8,193.4,10,5,7.691,5.122,1.169,-1.597,-4.592,-7.81,175.2,5,253.1,-8.442,-7.632,0,-8.371,-8.289,-4.734,-4.946,-5.038,-5.134,4.775,7.884,31,-1.2,1.142,5.165,7.737,-8.285,-7.914,-1.454,1.183,202.7,186.3,186.8,192.9,171.1,182.9,191.6,199.9,199.8,181.3,0,norm,1.126,1.885,-1.423,-1.722,-4.722,-4.325,-1.834,-1.955,-2.053,-1.857,1.158,-1.134,192.7,176.5,-5.155,-7.76,188.0,-1.138,8.254,4.641,-5.105,-7.83,4,4.979,4.538,4.984,4.731,1.514,1.725,1.949,1.715,4,5.062,5.141,-20,321.147839524,norm,0,14,14,14,389.216,389.223,389.225357026,389.226,389.229,389.234,up,0,6.98431296004,-10,001,011,800_600,Intel(R) Core(TM) i7-2670QM CPU @ 2.20GHz,orientation_search,GRVLAPTOP3,Intel(R) HD Graphics Family,2018_jun_07_1337,testMonitor,
189.8,189.4,187.2,183.7,36,0,189.2,201.0,211.1,205.0,8.472,8.439,7.902,7.553,7.606,8.238,7.917,4.406,-4.535,-8.281,1.496,-1.323,8.481,4.455,-4.781,-8.246,199.8,194.4,-7.811,188.4,180.9,175.1,195.3,179.8,36,,4,5,prime,10,0,109,norm,36,-5.238,up,norm,191.136815703,193.5,175.2,1.569,194.7,3,177.2,205.4,181.4,10,5,8.332,4.582,1.596,-1.196,-4.475,-8.098,171.7,5,300.1,-8.326,-8.287,0,-8.217,-7.907,-4.807,-4.552,-5.17,-4.498,5.067,8.282,27,-1.815,1.3,4.637,7.656,-7.705,-7.855,-1.791,1.449,193.5,198.2,206.8,181.5,192.2,177.7,195.0,195.2,187.9,171.1,1,norm,1.414,1.721,-1.743,-1.765,-5.128,-4.472,-1.278,-1.636,-1.608,-1.808,1.291,-2.039,208.4,193.3,-5.23,-8.32,196.3,-1.18,7.507,5.213,-4.863,-8.363,4,4.905,4.506,4.307,4.643,1.255,1.633,1.866,1.358,4,4.816,4.671,-20,321.147839524,norm,0,15,15,15,397.235,397.242,397.243734687,397.244,397.248,397.253,up,1,3.87255832675,6.12744167325,001,011,800_600,Intel(R) Core(TM) i7-2670QM CPU @ 2.20GHz,orientation_search,GRVLAPTOP3,Intel(R) HD Graphics Family,2018_jun_07_1337,testMonitor,
211.1,190.6,203.0,178.0,36,0,195.3,198.9,194.4,192.3,7.649,7.675,8.482,8.083,7.797,8.463,8.273,4.604,-4.564,-7.553,1.716,-1.303,8.381,5.125,-5.129,-8.071,191.1,190.3,-8.426,189.0,,182.4,202.1,196.0,36,199.4,5,5,prime,10,0,85,norm,36,-4.943,down,norm,191.136815703,190.6,182.7,1.803,194.1,0,204.3,171.1,194.6,10,5,7.603,4.474,1.241,-1.612,-4.701,-7.871,193.4,5,276.1,-8.217,-7.643,0,-8.326,-7.644,-4.952,-5.068,-5.248,-4.499,4.681,8.391,30,-1.62,1.62,5.001,7.522,-7.649,-7.523,-1.538,1.414,198.3,193.3,181.6,177.0,191.3,191.4,182.9,199.3,190.9,190.4,2,norm,1.354,1.859,-1.689,-1.42,-5.187,-4.384,-1.36,-1.686,-1.948,-1.458,1.845,-2.011,202.1,201.9,-4.379,-8.002,188.7,-1.859,8.262,4.445,-4.415,-7.838,4,4.327,5.14,4.792,5.148,1.157,1.746,1.874,1.633,4,5.141,4.821,-20,321.147839524,norm,0,16,16,16,401.135,401.142,401.143653576,401.144,401.148,401.152,down,1,3.14132391445,6.85867608555,001,011,800_600,Intel(R) Core(TM) i7-2670QM CPU @ 2.20GHz,orientation_search,GRVLAPTOP3,Intel(R) HD Graphics Family,2018_jun_07_1337,testMonitor,
211.1,201.1,188.9,185.7,36,0,196.5,171.1,197.1,203.5,7.647,8.018,8.022,8.016,8.012,7.871,7.502,5.187,-5.076,-8.201,1.638,-1.681,7.876,4.305,-4.831,-7.958,176.2,193.8,-7.523,188.9,185.4,192.8,200.7,,36,200.2,4,5,prime,10,0,86,norm,36,-4.478,down,norm,191.136815703,187.6,183.4,1.169,200.3,2,208.7,202.3,191.6,10,5,7.81,4.408,1.663,-1.827,-5.256,-8.341,194.2,5,277.1,-8.292,-7.898,0,-8.3,-7.519,-4.805,-4.611,-4.712,-4.791,4.645,8.097,26,-1.78,1.665,4.65,7.682,-7.51,-7.673,-1.953,1.672,191.3,188.1,200.1,177.8,189.2,194.7,198.1,198.1,199.0,192.6,3,norm,1.358,1.791,-1.253,-1.961,-5.153,-4.743,-1.931,-1.528,-1.443,-1.332,1.926,-1.731,183.3,181.6,-4.373,-8.238,192.0,-2.097,7.567,5.062,-4.756,-8.252,4,5.038,5.297,5.268,4.477,1.308,1.957,2.031,1.53,4,4.898,5.052,-20,321.147839524,norm,0,17,17,17,404.304,404.311,404.312702748,404.313,404.317,404.322,down,1,5.06340003539,4.93659996461,001,011,800_600,Intel(R) Core(TM) i7-2670QM CPU @ 2.20GHz,orientation_search,GRVLAPTOP3,Intel(R) HD Graphics Family,2018_jun_07_1337,testMonitor,
173.8,185.2,182.6,199.0,36,0,175.6,211.1,190.6,198.8,7.94,7.863,8.297,7.897,8.265,8.099,7.525,4.365,-4.966,-7.907,2.02,-1.115,7.717,5.086,-4.541,-8.424,202.9,197.2,-7.634,202.0,190.8,194.4,193.5,193.2,36,186.9,2,5,prime,10,0,84,norm,36,-4.975,up,norm,191.136815703,,190.4,1.888,197.1,5,188.2,186.7,207.9,10,5,7.974,5.016,1.649,-1.201,-4.98,-8.335,202.1,5,275.1,-7.747,-7.92,0,-8.25,-7.513,-4.698,-4.404,-4.969,-4.812,4.64,7.512,17,-2.062,1.58,5.027,7.787,-7.804,-7.926,-1.79,1.545,199.2,180.1,177.1,187.1,194.3,171.1,208.1,181.4,200.1,201.3,4,norm,1.726,1.469,-1.938,-1.944,-4.587,-4.793,-1.486,-1.289,-1.261,-1.739,1.904,-1.16,193.6,200.9,-4.494,-8.378,188.8,-1.239,7.722,4.474,-5.267,-7.898,4,5.172,4.639,4.779,4.918,2.053,1.638,1.815,1.154,4,4.513,4.469,-20,321.147839524,norm,0,18,18,18,409.397,409.403,409.405415704,409.406,409.41,409.415,up,1,4.74225372435,5.25774627565,001,011,800_600,Intel(R) Core(TM) i7-2670QM CPU @ 2.20GHz,orientation_search,GRVLAPTOP3,Intel(R) HD Graphics Family,2018_jun_07_1337,testMonitor,
295.7,304.7,293.4,299.7,36,-20,303.5,290.8,295.6,292.5,8.156,8.123,7.553,8.442,7.889,7.768,7.816,4.422,-5.212,-7.946,1.281,-2.099,7.8,4.467,-5.089,-7.965,287.3,303.0,-8.184,304.1,,300.6,301.3,292.8,36,300.0,5,5,probe,5,0,104,norm,36,-4.812,down,norm,297.295485021,293.7,292.9,1.484,292.6,0,289.6,302.9,307.3,10,5,8.291,4.957,1.268,-1.478,-4.753,-7.739,301.3,1,193.3,-8.328,-7.504,0,-8.348,-7.849,-4.708,-4.541,-4.814,-5.266,4.645,7.874,30,-1.23,1.955,4.895,7.739,-7.573,-8.116,-2.075,1.278,296.8,290.1,287.7,288.8,291.9,297.8,297.4,294.8,296.3,300.8,0,norm,1.912,1.278,-1.978,-1.182,-5.224,-4.984,-1.711,-2.011,-1.556,-1.326,1.828,-1.584,293.4,298.2,-4.357,-7.504,297.9,-1.338,8.155,4.744,-4.893,-8.455,5,5.161,4.396,4.794,4.629,1.462,1.934,1.207,1.851,5,4.956,5.296,0,191.136815703,norm,0,19,19,19,414.167,414.174,414.176186182,414.177,414.18,414.185,down,1,1.76063605498,8.23936394502,001,011,800_600,Intel(R) Core(TM) i7-2670QM CPU @ 2.20GHz,orientation_search,GRVLAPTOP3,Intel(R) HD Graphics Family,2018_jun_07_1337,testMonitor,
206.2,214.5,204.1,206.3,36,20,211.4,208.0,198.6,200.7,8.041,7.994,8.23,8.134,8.398,8.258,8.379,4.397,-4.33,-7.92,1.937,-1.573,8.214,4.639,-4.949,-8.406,206.4,219.3,-7.882,227.3,216.7,216.2,205.1,196.5,36,212.4,1,5,prime,10,0,70,norm,36,-4.687,down,norm,207.25214705,201.3,209.8,1.131,187.3,0,208.9,206.0,217.9,10,6,7.705,4.554,1.228,-1.539,-4.833,-7.621,193.9,6,277.3,-8.099,-8.496,20,-7.535,-8.047,-4.758,-4.391,-4.653,-5.208,4.489,8.271,6,-2.043,1.354,4.624,7.545,-8.225,-8.268,-1.688,1.57,197.4,196.2,210.8,212.7,209.1,203.9,201.8,,217.4,202.4,0,norm,1.238,1.814,-1.77,-2.088,-4.983,-5.012,-1.633,-1.778,-1.925,-1.508,2.021,-1.639,202.0,218.2,-5.25,-7.738,193.8,-1.515,7.94,4.521,-4.948,-8.248,6,5.251,4.481,4.633,4.337,1.473,1.204,1.779,1.638,6,5.018,4.587,-20,191.136815703,norm,0,20,20,20,415.956,415.969,415.971402929,415.972,415.975,415.98,down,1,3.17435476693,6.82564523307,001,011,800_600,Intel(R) Core(TM) i7-2670QM CPU @ 2.20GHz,orientation_search,GRVLAPTOP3,Intel(R) HD Graphics Family,2018_jun_07_1337,testMonitor,
199.5,218.3,201.5,211.8,36,20,200.2,187.3,214.6,216.2,8.126,7.504,7.539,8.236,8.288,8.285,8.166,5.023,-4.819,-8.023,1.253,-2.076,8.308,4.481,-4.848,-8.202,208.0,214.6,-7.866,208.5,211.5,199.0,212.9,218.4,36,208.1,1,5,prime,10,0,106,norm,36,-4.971,down,norm,207.25214705,194.1,204.0,1.15,208.0,2,223.6,212.5,201.3,10,6,7.973,4.806,1.638,-1.267,-4.306,-7.614,200.7,6,313.3,-8.187,-7.557,20,-7.583,-7.791,-4.972,-5.12,-5.097,-4.311,5.147,8.179,8,-1.162,1.526,4.53,8.17,-8.313,-7.531,-1.302,1.59,217.6,,198.6,201.7,204.6,219.1,198.7,208.6,227.3,211.3,1,norm,1.763,1.705,-1.264,-1.604,-4.748,-5.031,-1.877,-1.848,-1.459,-1.758,1.393,-1.347,203.6,212.1,-4.845,-7.808,210.1,-1.114,7.763,4.714,-4.583,-7.889,6,4.341,4.946,4.461,5.233,1.503,1.572,2.07,1.499,6,4.67,5.187,-20,191.136815703,norm,0,21,21,21,419.165,419.172,419.174019023,419.175,419.178,419.183,down,1,3.75285977718,6.24714022282,001,011,800_600,Intel(R) Core(TM) i7-2670QM CPU @ 2.20GHz,orientation_search,GRVLAPTOP3,Intel(R) HD Graphics Family,2018_jun_07_1337,testMonitor,
197.3,207.8,212.0,214.3,36,20,193.7,187.3,197.8,195.2,7.551,8.081,7.608,7.773,7.929,7.847,8.492,5.015,-4.543,-7.543,1.787,-1.23,7.905,4.433,-4.516,-8.057,209.6,187.5,-7.668,202.7,219.0,221.3,207.0,205.4,36,196.8,1,5,prime,10,0,68,norm,36,-4.53,down,norm,207.25214705,205.4,198.8,2.085,206.8,1,212.9,209.4,205.5,10,6,8.472,5.227,1.686,-1.513,-5.283,-8.115,201.0,6,275.3,-8.353,-7.678,20,-7.889,-7.953,-4.85,-4.808,-4.32,-4.906,4.907,7.72,7,-2.019,1.351,4.498,7.57,-7.517,-7.592,-2.089,1.926,227.3,209.8,196.3,204.3,211.0,210.4,,208.0,208.7,220.1,2,norm,1.181,1.412,-1.475,-1.376,-4.942,-4.708,-1.68,-1.116,-1.269,-1.748,1.545,-1.135,213.2,204.6,-5.11,-8.458,191.6,-1.426,8.216,4.797,-4.841,-7.705,6,4.942,4.437,4.797,4.327,1.933,1.181,1.442,1.969,6,5.119,5.022,-20,191.136815703,norm,0,22,22,22,422.946,422.953,422.955959642,422.957,422.96,422.965,down,1,3.78077508752,6.21922491248,001,011,800_600,Intel(R) Core(TM) i7-2670QM CPU @ 2.20GHz,orientation_search,GRVLAPTOP3,Intel(R) HD Graphics Family,2018_jun_07_1337,testMonitor,
197.5,204.2,220.9,221.7,36,20,205.6,194.3,209.8,208.8,8.476,7.73,7.816,8.361,8.109,7.997,8.1,5.276,-5.076,-8.15,1.351,-1.388,8.355,4.87,-5.101,-8.096,213.9,207.2,-8.37,200.8,190.0,203.3,195.2,192.3,36,206.2,0,5,prime,10,0,76,norm,36,-4.71,down,norm,207.25214705,206.3,217.2,1.173,211.9,2,205.0,220.2,202.3,10,6,7.993,4.791,1.476,-1.63,-5.255,-7.855,215.9,6,283.3,-8.088,-7.659,20,-7.505,-8.222,-4.956,-4.972,-4.442,-4.937,4.829,8.42,2,-1.249,1.413,4.729,8.081,-7.535,-8.294,-1.99,1.918,205.7,214.2,207.2,,227.3,210.9,196.5,217.2,211.6,222.6,3,norm,1.271,2.066,-1.271,-1.285,-4.403,-4.955,-1.192,-1.177,-1.33,-1.27,1.631,-1.526,212.4,187.3,-5.051,-8.483,215.9,-1.454,7.535,4.309,-4.329,-7.774,6,5.3,4.362,5.212,4.975,1.873,1.102,1.56,1.272,6,4.881,4.55,-20,191.136815703,norm,0,23,23,23,426.756,426.763,426.765720778,426.766,426.77,426.775,up,0,3.54752177549,-10,001,011,800_600,Intel(R) Core(TM) i7-2670QM CPU @ 2.20GHz,orientation_search,GRVLAPTOP3,Intel(R) HD Graphics Family,2018_jun_07_1337,testMonitor,
187.3,209.8,208.2,220.9,36,20,197.3,198.4,210.9,197.8,7.77,7.721,8.063,8.487,7.538,7.897,7.589,5.249,-4.736,-7.97,1.921,-1.504,8.279,5.139,-4.349,-8.206,208.9,196.0,-7.917,204.9,222.6,220.3,195.2,210.2,36,189.9,0,5,prime,10,0,106,norm,36,-5.276,up,norm,207.25214705,226.3,201.3,1.488,208.6,4,207.7,190.5,214.4,10,6,7.7,4.964,1.812,-1.612,-4.723,-8.43,210.7,6,313.3,-7.901,-7.528,20,-7.711,-7.968,-4.701,-4.981,-4.932,-4.935,4.924,7.867,4,-1.738,1.813,5.131,7.839,-8.192,-8.163,-1.253,1.757,219.1,214.7,194.2,208.2,202.8,196.4,194.6,227.3,217.3,,4,norm,1.726,1.79,-1.114,-1.631,-4.505,-5.093,-1.841,-1.67,-1.442,-1.647,1.807,-2.028,209.9,212.2,-4.545,-7.829,216.5,-1.484,7.979,4.577,-4.977,-7.688,6,4.824,4.799,5.051,5.257,1.688,2.031,2.019,1.911,6,5.144,4.932,-20,191.136815703,norm,0,24,24,24,431.336,431.343,431.344573206,431.345,431.349,431.353,up,1,2.60945042127,7.39054957873,001,011,800_600,Intel(R) Core(TM) i7-2670QM CPU @ 2.20GHz,orientation_search,GRVLAPTOP3,Intel(R) HD Graphics Family,2018_jun_07_1337,testMonitor,
199.6,214.9,217.1,215.5,36,20,187.3,205.9,216.8,206.2,7.802,7.663,7.769,7.875,7.915,8.253,8.445,5.063,-4.851,-7.615,1.688,-1.673,7.66,5.069,-5.269,-8.29,210.2,208.3,-7.667,213.9,197.7,213.8,194.4,224.6,36,189.2,2,5,prime,10,0,82,norm,36,-5.18,down,norm,207.25214705,215.9,200.9,1.197,209.7,1,206.7,,202.8,10,6,7.857,4.538,1.923,-1.302,-5.049,-8.149,206.8,6,289.3,-7.942,-7.55,20,-7.956,-8.195,-4.59,-4.756,-4.87,-5.147,4.787,7.6,13,-1.172,1.396,4.805,7.669,-8.191,-7.77,-1.385,1.472,227.3,206.7,216.7,206.4,206.6,211.7,192.5,213.8,212.0,212.3,5,norm,1.371,1.238,-1.493,-1.199,-5.02,-4.37,-1.329,-1.799,-1.299,-2.0,1.177,-1.913,197.9,192.0,-4.918,-7.809,208.9,-1.421,8.453,4.963,-5.218,-8.126,6,5.144,4.633,4.93,4.624,2.03,1.621,1.815,1.528,6,4.384,4.582,-20,191.136815703,norm,0,25,25,25,433.971,433.977,433.979200687,433.98,433.983,433.986,down,1,1.86069708659,8.13930291341,001,011,800_600,Intel(R) Core(TM) i7-2670QM CPU @ 2.20GHz,orientation_search,GRVLAPTOP3,Intel(R) HD Graphics Family,2018_jun_07_1337,testMonitor,
338.6,352.0,345.0,337.6,36,-40,344.3,336.1,344.0,344.3,8.1,7.656,8.266,7.567,7.613,8.212,7.513,4.93,-4.705,-7.772,1.317,-1.63,7.724,4.975,-4.437,-8.255,347.8,349.0,-8.351,335.8,350.1,351.7,337.2,341.7,36,343.5,1,5,probe,5,0,110,norm,36,-4.584,down,norm,342.136592313,352.1,349.9,1.64,340.0,2,335.4,337.5,332.1,10,6,8.306,4.995,1.685,-2.045,-4.929,-7.728,335.7,1,232.1,-8.113,-7.82,20,-7.596,-8.37,-4.514,-4.324,-5.275,-4.572,5.039,7.69,8,-1.295,1.438,4.86,8.392,-7.587,-7.772,-2.058,1.33,338.1,,343.0,335.8,346.8,338.5,347.2,339.3,339.1,338.9,0,norm,1.713,1.262,-1.868,-1.606,-4.537,-4.836,-1.841,-1.642,-1.653,-1.683,1.68,-1.228,333.8,335.9,-4.778,-8.056,345.3,-1.646,8.329,4.305,-4.457,-7.772,7,4.565,4.432,4.319,4.606,1.709,1.508,1.305,1.292,7,4.321,4.743,20,207.25214705,norm,0,26,26,26,435.855,435.861,435.862515427,435.863,435.866,435.869,up,0,2.3406348689,-10,001,011,800_600,Intel(R) Core(TM) i7-2670QM CPU @ 2.20GHz,orientation_search,GRVLAPTOP3,Intel(R) HD Graphics Family,2018_jun_07_1337,testMonitor,
84.5,81.9,98.5,92.2,36,30,,77.2,93.9,100.9,8.175,7.987,7.913,8.199,8.041,7.995,8.376,4.499,-5.089,-7.758,1.164,-1.671,8.392,4.884,-5.171,-7.502,95.3,89.3,-7.868,103.9,75.5,75.1,76.8,95.3,36,91.6,4,5,prime,10,0,98,norm,36,-4.804,down,norm,90.6743098912,87.5,82.6,2.02,77.8,0,106.5,101.1,105.3,10,5,7.689,5.128,1.688,-1.715,-4.731,-7.913,85.6,5,188.7,-8.491,-8.362,30,-8.01,-8.417,-4.558,-4.698,-5.068,-4.371,5.015,8.414,24,-1.3,1.794,4.576,7.571,-7.787,-8.285,-1.306,1.582,88.1,89.5,98.8,84.7,87.6,84.8,81.9,107.0,100.6,82.7,0,norm,1.407,1.788,-1.912,-1.358,-4.703,-4.993,-2.08,-1.15,-2.028,-1.5,1.35,-1.595,70.7,110.7,-4.341,-7.988,83.0,-1.379,7.91,4.737,-4.778,-8.074,8,4.325,4.836,4.339,4.326,1.715,1.578,1.27,1.137,8,5.211,5.062,-40,207.25214705,norm,0,27,27,27,439.229,439.235,439.236364197,439.237,439.24,439.243,down,1,5.81084354846,4.18915645154,001,011,800_600,Intel(R) Core(TM) i7-2670QM CPU @ 2.20GHz,orientation_search,GRVLAPTOP3,Intel(R) HD Graphics Family,2018_jun_07_1337,testMonitor,
89.5,110.7,106.6,107.9,36,30,73.3,73.4,85.1,93.6,7.645,7.85,7.606,8.322,8.113,8.159,7.813,4.305,-4.71,-7.905,1.114,-1.236,8.006,4.987,-4.425,-8.446,103.1,100.9,-8.325,104.5,83.9,94.7,87.3,94.0,36,89.0,0,5,prime,10,0,89,norm,36,-4.868,up,norm,90.6743098912,70.7,88.5,1.557,103.6,3,104.0,78.9,100.3,10,5,8.32,4.343,1.61,-1.541,-4.427,-7.582,102.6,5,179.7,-7.851,-8.42,30,-7.591,-8.044,-4.983,-5.205,-5.014,-4.673,4.644,7.715,3,-1.509,1.723,4.405,8.334,-8.376,-8.449,-1.853,1.865,107.7,93.3,,83.7,96.8,89.4,87.5,80.8,96.2,79.9,1,norm,1.315,1.512,-1.607,-1.168,-5.197,-4.859,-1.106,-1.531,-1.142,-1.87,1.158,-1.336,88.7,89.0,-5.218,-8.424,97.5,-2.083,8.06,5.035,-4.423,-7.667,8,4.574,4.42,4.549,5.187,1.422,1.917,1.366,1.783,8,5.284,4.463,-40,207.25214705,norm,0,28,28,28,445.062,445.068,445.069373382,445.07,445.073,445.076,down,0,4.65785638471,-10,001,011,800_600,Intel(R) Core(TM) i7-2670QM CPU @ 2.20GHz,orientation_search,GRVLAPTOP3,Intel(R) HD Graphics Family,2018_jun_07_1337,testMonitor,
83.2,93.7,110.7,76.8,36,30,84.3,83.5,70.7,90.2,8.08,7.637,8.402,7.68,7.704,8.294,8.453,4.709,-4.322,-7.612,1.58,-2.094,8.228,4.42,-4.454,-7.582,89.2,82.1,-7.731,96.5,85.5,110.7,,87.2,36,78.6,5,5,prime,10,0,101,norm,36,-5.048,down,norm,90.6743098912,100.6,99.9,1.948,83.7,2,107.4,86.6,77.8,10,5,8.171,5.13,1.815,-1.787,-5.26,-7.711,78.1,5,191.7,-8.342,-8.262,30,-8.386,-7.671,-4.437,-4.616,-4.859,-4.606,4.787,7.811,32,-1.802,1.587,4.321,7.979,-7.978,-8.387,-1.671,2.006,87.0,96.5,108.1,81.2,82.7,72.8,102.4,97.7,90.8,90.5,2,norm,1.735,2.058,-1.356,-1.906,-5.079,-5.055,-2.042,-1.532,-1.373,-1.429,1.322,-1.162,101.0,89.3,-4.941,-7.535,94.3,-1.747,8.268,4.75,-4.324,-7.559,8,4.526,4.814,4.55,4.935,1.2,1.155,2.072,2.081,8,5.046,4.651,-40,207.25214705,norm,0,29,29,29,450.742,450.747,450.749071334,450.75,450.752,450.756,up,0,5.48241873853,-10,001,011,800_600,Intel(R) Core(TM) i7-2670QM CPU @ 2.20GHz,orientation_search,GRVLAPTOP3,Intel(R) HD Graphics Family,2018_jun_07_1337,testMonitor,
83.2,102.3,103.9,97.5,36,30,90.6,92.3,97.8,75.3,8.197,7.968,7.723,8.234,7.854,8.157,7.742,5.016,-5.182,-8.227,1.251,-1.229,8.271,5.155,-4.831,-7.997,103.6,90.1,-8.175,98.4,99.7,98.6,91.8,103.5,36,88.8,1,5,prime,10,0,89,norm,36,-4.899,down,norm,90.6743098912,80.0,98.6,1.832,95.6,1,70.7,110.7,90.0,10,5,7.513,4.949,1.956,-1.637,-4.443,-8.109,89.5,5,179.7,-8.32,-7.7,30,-7.747,-7.517,-4.489,-5.189,-4.845,-4.404,4.887,8.396,7,-1.829,1.144,4.444,8.38,-7.892,-8.262,-1.118,1.348,79.6,91.1,87.8,92.6,94.4,91.8,,104.5,90.4,99.9,3,norm,1.632,1.178,-1.372,-1.691,-4.881,-4.934,-1.838,-1.399,-1.66,-1.375,1.756,-1.455,85.9,75.7,-4.409,-7.673,91.7,-1.646,8.205,4.523,-4.389,-7.714,8,5.141,4.616,4.659,5.151,2.036,1.452,1.975,2.016,8,5.198,4.326,-40,207.25214705,norm,0,30,30,30,457.263,457.271,457.273004647,457.274,457.277,457.282,down,1,2.18283101713,7.81716898287,001,011,800_600,Intel(R) Core(TM) i7-2670QM CPU @ 2.20GHz,orientation_search,GRVLAPTOP3,Intel(R) HD Graphics Family,2018_jun_07_1337,testMonitor,
70.7,99.6,103.5,101.9,36,30,85.8,99.0,85.1,86.7,8.077,7.956,7.542,7.659,7.678,8.07,8.057,5.1,-5.192,-7.711,1.733,-1.176,8.217,5.181,-4.467,-8.487,91.9,89.5,-7.791,100.5,104.0,92.1,88.2,105.2,36,92.7,3,5,prime,10,0,91,norm,36,-4.624,down,norm,90.6743098912,108.4,89.4,1.315,82.7,1,110.7,98.8,80.4,10,5,8.383,5.28,1.547,-1.135,-5.079,-8.16,91.0,5,181.7,-8.118,-8.199,30,-8.378,-8.069,-5.113,-5.23,-5.003,-4.698,5.057,8.157,19,-2.078,1.521,4.89,8.044,-8.23,-8.142,-1.341,2.042,86.6,82.5,93.8,80.4,82.5,81.0,85.3,94.0,83.0,99.8,4,norm,1.8,1.619,-1.735,-1.52,-4.989,-4.922,-2.037,-1.891,-1.554,-1.934,1.372,-1.874,,103.2,-4.732,-7.956,87.0,-1.257,7.904,4.564,-4.904,-8.065,8,4.736,4.63,4.544,4.858,1.421,1.88,1.345,1.372,8,4.451,4.482,-40,207.25214705,norm,0,31,31,31,459.476,459.484,459.485959226,459.487,459.49,459.495,down,1,6.67227329463,3.32772670537,001,011,800_600,Intel(R) Core(TM) i7-2670QM CPU @ 2.20GHz,orientation_search,GRVLAPTOP3,Intel(R) HD Graphics Family,2018_jun_07_1337,testMonitor,
240.5,234.8,241.2,239.5,36,-10,241.2,240.1,237.4,251.4,7.605,7.652,8.388,7.763,7.931,7.763,7.983,4.757,-4.306,-7.948,1.639,-1.32,7.597,4.543,-4.436,-8.254,,243.1,-7.785,245.6,232.9,246.7,241.0,238.1,36,251.6,5,5,probe,5,0,117,norm,36,-4.812,up,norm,241.619611707,244.0,235.7,1.85,241.3,5,246.5,240.3,231.6,10,5,7.831,4.728,1.789,-1.584,-5.152,-7.679,240.6,1,124.6,-7.926,-8.089,30,-7.647,-8.428,-4.899,-5.063,-5.198,-5.065,4.341,8.202,35,-1.635,1.757,4.505,7.848,-7.596,-7.992,-1.251,1.424,244.4,247.0,238.9,241.4,243.5,243.9,247.3,234.0,250.4,236.5,0,norm,1.138,1.937,-1.791,-1.147,-4.417,-4.449,-1.154,-1.901,-1.528,-1.208,1.753,-1.364,242.1,246.9,-5.193,-7.864,241.6,-1.525,7.657,4.865,-4.911,-8.466,9,4.62,5.092,5.185,4.625,2.061,1.611,1.646,1.403,9,5.159,5.117,30,90.6743098912,norm,0,32,32,32,466.179,466.186,466.188907562,466.19,466.193,466.199,up,1,2.12027711249,7.87972288751,001,011,800_600,Intel(R) Core(TM) i7-2670QM CPU @ 2.20GHz,orientation_search,GRVLAPTOP3,Intel(R) HD Graphics Family,2018_jun_07_1337,testMonitor,
205.2,200.6,179.4,191.1,36,10,200.1,213.0,200.1,191.5,8.36,7.823,8.136,7.575,8.178,8.487,8.272,4.966,-4.304,-8.004,1.29,-2.063,8.169,5.12,-4.896,-8.436,186.0,197.7,-8.255,204.4,210.6,197.4,208.7,197.7,36,200.1,0,5,prime,10,0,69,norm,36,-5.203,up,norm,199.437621136,212.7,200.1,1.625,200.6,3,203.9,192.1,179.7,10,6,8.149,4.725,1.443,-1.8,-4.331,-7.955,208.3,6,268.4,-8.006,-7.589,10,-8.259,-8.273,-4.417,-4.759,-4.471,-4.62,5.16,7.601,3,-1.682,1.325,4.774,8.089,-8.324,-8.12,-1.248,1.807,219.4,195.0,,193.4,195.8,201.5,187.9,193.0,205.8,198.3,0,norm,1.406,1.593,-1.753,-1.246,-4.752,-4.95,-1.154,-1.215,-1.524,-1.468,1.499,-2.092,192.8,200.0,-5.153,-8.364,208.5,-1.994,8.135,4.528,-5.162,-7.898,10,4.451,5.043,4.937,5.195,1.667,1.219,1.427,1.155,10,4.565,4.904,-10,90.6743098912,norm,0,33,33,33,468.333,468.34,468.342351412,468.343,468.347,468.352,down,0,3.14433206803,-10,001,011,800_600,Intel(R) Core(TM) i7-2670QM CPU @ 2.20GHz,orientation_search,GRVLAPTOP3,Intel(R) HD Graphics Family,2018_jun_07_1337,testMonitor,
210.7,196.9,202.5,188.0,36,10,202.0,191.8,200.9,204.7,7.639,7.709,8.226,8.234,8.37,8.074,8.018,4.968,-4.727,-8.193,1.293,-1.477,8.265,4.984,-4.48,-8.396,219.4,195.7,-7.897,191.0,195.6,207.2,183.5,184.8,36,206.7,1,5,prime,10,0,84,norm,36,-5.236,up,norm,199.437621136,207.7,200.1,2.003,202.3,4,205.9,195.5,195.5,10,6,8.113,5.045,1.49,-1.42,-4.342,-8.271,,6,283.4,-8.276,-8.362,10,-8.27,-7.755,-4.755,-4.46,-4.795,-5.299,4.522,8.363,10,-1.951,1.365,4.933,8.302,-8.444,-8.344,-1.148,1.241,200.3,196.3,179.4,200.2,193.4,203.6,200.6,190.4,191.6,186.0,1,norm,1.194,1.831,-1.663,-1.44,-5.246,-4.678,-1.362,-1.716,-1.639,-1.509,1.311,-1.318,201.4,193.7,-4.571,-8.308,191.7,-1.178,8.061,4.373,-4.857,-8.078,10,4.355,5.143,4.576,4.319,2.071,1.706,1.423,1.688,10,4.348,4.316,-10,90.6743098912,norm,0,34,34,34,472.519,472.527,472.528783155,472.529,472.533,472.538,up,1,1.70199994116,8.29800005884,001,011,800_600,Intel(R) Core(TM) i7-2670QM CPU @ 2.20GHz,orientation_search,GRVLAPTOP3,Intel(R) HD Graphics Family,2018_jun_07_1337,testMonitor,
214.7,212.7,204.9,218.7,36,10,200.5,204.9,216.1,185.0,8.364,7.613,8.496,7.911,7.838,7.876,8.15,4.545,-4.654,-7.574,1.24,-1.944,8.498,5.283,-4.902,-8.306,203.5,179.4,-7.905,202.5,190.1,219.4,180.5,180.3,36,183.7,3,5,prime,10,0,101,norm,36,-4.779,down,norm,199.437621136,204.1,203.6,1.65,180.5,0,203.9,199.6,196.0,10,6,8.45,4.651,1.98,-1.308,-5.088,-7.826,197.5,6,300.4,-8.057,-8.027,10,-8.069,-7.926,-4.349,-4.314,-5.183,-4.479,5.159,8.435,18,-1.556,1.996,5.294,7.573,-7.744,-7.513,-1.408,1.786,195.4,200.7,194.5,206.7,192.0,199.1,202.2,196.6,201.7,196.3,2,norm,1.558,1.658,-1.193,-1.97,-4.588,-4.725,-1.213,-1.807,-1.8,-1.643,1.8,-1.887,188.7,,-5.027,-7.707,205.7,-1.792,7.819,5.112,-4.898,-7.856,10,4.915,5.021,4.782,4.333,1.19,1.315,1.338,1.737,10,5.286,4.805,-10,90.6743098912,norm,0,35,35,35,474.251,474.258,474.260318289,474.261,474.265,474.27,up,0,4.20914092046,-10,001,011,800_600,Intel(R) Core(TM) i7-2670QM CPU @ 2.20GHz,orientation_search,GRVLAPTOP3,Intel(R) HD Graphics Family,2018_jun_07_1337,testMonitor,
,193.6,199.1,205.4,36,10,196.1,197.9,207.0,209.4,7.627,7.747,7.701,8.327,8.136,8.318,7.796,5.083,-5.153,-8.007,1.838,-1.423,7.646,5.226,-4.977,-7.555,195.6,188.1,-8.309,193.1,197.4,203.7,219.4,191.2,36,205.9,3,5,prime,10,0,87,norm,36,-5.209,up,norm,199.437621136,179.4,209.4,1.517,194.6,4,199.3,200.0,199.7,10,6,7.511,4.425,1.6,-1.716,-4.432,-7.916,191.1,6,286.4,-8.276,-7.861,10,-7.609,-7.724,-4.653,-5.037,-4.783,-4.765,4.95,8.234,22,-1.395,1.432,4.47,7.867,-8.085,-8.39,-1.753,1.838,190.2,189.5,210.5,206.2,183.4,199.3,204.2,198.3,197.5,196.7,3,norm,1.827,2.021,-1.127,-1.102,-5.264,-5.02,-2.03,-1.624,-1.712,-1.197,1.66,-2.092,211.3,219.2,-4.995,-8.169,200.8,-1.899,7.724,5.137,-4.419,-8.47,10,5.065,4.892,4.647,4.801,1.574,1.664,1.213,1.161,10,5.078,4.667,-10,90.6743098912,norm,0,36,36,36,479.492,479.501,479.502914995,479.503,479.507,479.512,up,1,3.34358465253,6.65641534747,001,011,800_600,Intel(R) Core(TM) i7-2670QM CPU @ 2.20GHz,orientation_search,GRVLAPTOP3,Intel(R) HD Graphics Family,2018_jun_07_1337,testMonitor,
201.0,202.7,183.5,,36,10,191.7,185.6,197.9,196.6,8.267,8.071,8.038,7.621,7.896,7.555,8.145,4.714,-5.048,-7.963,1.423,-1.456,8.286,4.764,-4.748,-8.497,190.1,213.0,-8.346,195.3,196.7,213.0,205.3,208.8,36,211.2,3,5,prime,10,0,82,norm,36,-4.634,up,norm,199.437621136,219.4,179.4,1.491,213.5,3,192.9,194.3,199.9,10,6,8.495,4.849,1.449,-1.948,-4.396,-8.125,195.7,6,281.4,-7.795,-7.985,10,-8.203,-8.132,-4.316,-4.952,-4.842,-4.953,5.022,7.768,21,-1.109,1.256,4.359,7.991,-8.371,-8.211,-1.517,2.001,182.5,206.1,211.8,199.2,195.0,199.3,193.6,198.2,188.7,212.2,4,norm,1.321,2.07,-1.996,-1.257,-4.818,-4.673,-1.714,-1.705,-1.498,-1.746,1.75,-1.994,205.5,215.1,-4.385,-7.723,193.2,-1.387,7.518,4.578,-4.485,-7.569,10,4.368,5.198,5.274,4.673,1.503,1.413,1.801,1.842,10,4.709,5.076,-10,90.6743098912,norm,0,37,37,37,482.867,482.875,482.876940742,482.878,482.882,482.886,down,0,5.21458473518,-10,001,011,800_600,Intel(R) Core(TM) i7-2670QM CPU @ 2.20GHz,orientation_search,GRVLAPTOP3,Intel(R) HD Graphics Family,2018_jun_07_1337,testMonitor,
197.0,,194.2,219.4,36,10,187.5,194.6,207.0,180.7,7.948,8.109,8.458,7.566,7.576,8.484,7.824,5.057,-4.873,-8.007,1.142,-1.347,8.156,4.571,-4.398,-7.657,193.6,197.4,-8.472,186.6,201.2,205.1,212.1,188.0,36,208.2,3,5,prime,10,0,87,norm,36,-4.94,up,norm,199.437621136,194.3,204.6,1.299,192.8,5,190.7,212.6,213.1,10,6,7.972,4.935,1.694,-1.554,-5.217,-7.843,198.5,6,286.4,-7.899,-8.211,10,-7.85,-7.581,-4.833,-4.539,-4.498,-4.717,4.311,8.369,23,-1.541,1.251,4.502,8.097,-8.005,-7.949,-1.484,1.445,205.0,211.1,198.3,216.8,196.2,179.4,198.0,211.4,201.4,206.0,5,norm,1.188,1.728,-1.881,-1.568,-4.71,-4.887,-1.903,-1.658,-1.945,-1.989,1.303,-1.152,182.2,192.6,-4.858,-7.72,195.5,-1.881,8.482,4.533,-5.166,-7.986,10,5.18,4.541,4.559,4.71,1.163,2.04,2.086,1.829,10,4.866,5.238,-10,90.6743098912,norm,0,38,38,38,489.117,489.125,489.126831357,489.127,489.131,489.136,up,1,2.20295230522,7.79704769478,001,011,800_600,Intel(R) Core(TM) i7-2670QM CPU @ 2.20GHz,orientation_search,GRVLAPTOP3,Intel(R) HD Graphics Family,2018_jun_07_1337,testMonitor,
305.9,302.8,310.5,308.1,36,60,316.2,315.5,309.8,321.0,7.526,8.155,7.623,7.881,7.887,8.326,8.211,5.184,-5.045,-7.812,1.787,-1.145,7.534,4.959,-4.864,-7.976,306.5,315.4,-8.099,303.8,,322.8,310.2,309.8,36,308.5,5,5,probe,5,0,101,norm,36,-5.019,down,norm,312.827041698,307.8,312.6,1.306,317.8,0,311.9,310.7,312.8,10,6,8.046,4.955,1.182,-1.283,-5.222,-8.325,314.2,1,211.8,-7.692,-8.121,10,-7.587,-8.323,-4.303,-4.378,-4.838,-4.905,4.312,7.889,30,-1.539,2.096,5.012,7.729,-8.448,-7.957,-1.583,1.887,311.1,316.5,308.9,312.9,320.0,310.5,304.8,314.0,317.1,309.2,0,norm,1.909,1.766,-1.233,-1.914,-4.3,-4.822,-1.532,-1.32,-1.31,-1.472,1.176,-1.986,317.2,317.2,-4.621,-8.252,306.3,-1.431,8.348,4.626,-4.548,-8.129,11,4.315,4.845,4.752,4.6,2.065,1.83,1.755,1.926,11,5.056,4.621,10,199.437621136,norm,0,39,39,39,491.351,491.359,491.361376279,491.362,491.366,491.371,down,1,2.14477848138,7.85522151862,001,011,800_600,Intel(R) Core(TM) i7-2670QM CPU @ 2.20GHz,orientation_search,GRVLAPTOP3,Intel(R) HD Graphics Family,2018_jun_07_1337,testMonitor,
36.9,36.8,16.2,35.3,36,-30,30.2,30.5,31.6,49.3,8.423,8.104,8.388,7.899,8.446,8.064,7.734,5.032,-4.915,-8.032,1.341,-1.557,7.506,5.292,-4.659,-7.991,27.3,49.2,-7.617,32.6,34.9,32.3,38.7,29.6,36,34.3,2,5,prime,10,0,83,norm,36,-5.044,up,norm,36.2115468418,38.3,24.7,1.257,32.5,3,49.6,56.2,41.8,10,5,8.129,4.972,1.528,-1.18,-4.414,-8.326,43.4,5,119.2,-7.985,-7.822,-30,-8.452,-8.48,-5.181,-4.355,-5.13,-4.962,4.566,7.999,15,-1.407,1.27,4.881,7.975,-8.486,-7.741,-1.493,1.867,47.5,30.7,40.7,36.3,39.3,33.1,24.8,29.9,33.4,46.0,0,norm,1.71,1.533,-1.622,-1.737,-4.876,-4.833,-1.489,-1.128,-2.091,-1.922,1.664,-1.669,23.3,21.3,-4.532,-8.343,,-1.181,8.013,5.254,-5.026,-7.558,12,4.505,4.749,4.633,5.151,1.887,2.029,1.27,1.58,12,4.464,5.216,60,199.437621136,norm,0,40,40,40,493.527,493.534,493.536302138,493.537,493.541,493.546,up,1,3.69948956649,6.30051043351,001,011,800_600,Intel(R) Core(TM) i7-2670QM CPU @ 2.20GHz,orientation_search,GRVLAPTOP3,Intel(R) HD Graphics Family,2018_jun_07_1337,testMonitor,
33.0,30.9,56.2,25.8,36,-30,40.4,29.9,35.6,30.4,7.503,8.147,8.065,7.576,7.575,8.335,7.683,4.682,-4.642,-8.142,1.116,-1.213,8.469,4.918,-4.428,-8.334,35.1,17.7,-8.081,25.6,47.0,39.6,34.5,30.9,36,43.0,1,5,prime,10,0,108,norm,36,-4.943,down,norm,36.2115468418,32.3,46.9,2.06,45.5,2,52.7,46.0,28.4,10,5,8.08,4.99,1.815,-1.612,-4.495,-7.647,41.0,5,144.2,-8.037,-7.93,-30,-8.423,-7.601,-4.789,-4.539,-4.381,-4.732,5.071,7.713,8,-1.976,1.338,4.978,8.036,-7.853,-7.661,-1.301,1.405,16.2,,32.1,36.8,39.1,24.9,41.9,25.8,47.7,22.1,1,norm,2.058,1.313,-1.882,-1.882,-4.318,-4.433,-1.608,-2.054,-1.627,-2.082,1.189,-1.991,43.5,42.8,-4.314,-7.927,25.5,-1.927,8.006,5.062,-4.566,-8.218,12,4.743,4.783,5.168,4.427,1.128,2.072,1.398,1.588,12,5.255,4.986,60,199.437621136,norm,0,41,41,41,497.256,497.264,497.265938147,497.266,497.27,497.275,down,1,3.69290029993,6.30709970007,001,011,800_600,Intel(R) Core(TM) i7-2670QM CPU @ 2.20GHz,orientation_search,GRVLAPTOP3,Intel(R) HD Graphics Family,2018_jun_07_1337,testMonitor,
40.8,36.2,47.2,31.4,36,-30,47.7,32.4,47.2,33.6,7.857,7.758,7.925,7.814,8.001,7.92,7.691,4.914,-4.699,-8.018,1.707,-1.121,8.38,4.568,-4.569,-8.062,50.6,49.2,-8.205,27.2,41.2,38.8,42.5,34.6,36,36.8,1,5,prime,10,0,114,norm,36,-5.062,up,norm,36.2115468418,34.3,28.8,1.722,17.4,4,22.7,56.2,48.9,10,5,7.938,4.792,1.405,-1.781,-5.052,-7.514,,5,150.2,-8.351,-8.451,-30,-7.718,-8.252,-4.574,-4.356,-5.258,-4.981,5.101,8.215,10,-1.732,1.83,4.362,8.22,-7.958,-8.073,-1.253,2.086,26.6,35.2,31.2,53.8,29.8,41.4,28.4,41.8,16.2,39.2,2,norm,1.845,2.026,-1.357,-2.088,-4.76,-4.63,-1.931,-1.608,-1.658,-1.516,1.617,-1.459,49.9,33.1,-4.648,-8.416,35.7,-1.129,8.362,4.475,-4.98,-7.694,12,4.596,4.497,4.466,4.847,2.017,1.207,1.188,1.979,12,4.491,5.143,60,199.437621136,norm,0,42,42,42,500.979,500.987,500.989747436,500.99,500.994,500.999,up,1,1.69849447564,8.30150552436,001,011,800_600,Intel(R) Core(TM) i7-2670QM CPU @ 2.20GHz,orientation_search,GRVLAPTOP3,Intel(R) HD Graphics Family,2018_jun_07_1337,testMonitor,
26.8,41.5,39.3,45.6,36,-30,19.9,32.9,,48.6,8.371,7.818,7.578,8.111,7.666,8.048,8.063,4.56,-4.536,-8.453,1.243,-1.356,8.326,4.428,-5.144,-8.067,40.6,35.1,-7.829,40.8,35.7,16.2,37.2,37.5,36,39.8,4,5,prime,10,0,71,norm,36,-5.149,up,norm,36.2115468418,52.8,38.3,1.855,35.6,4,35.7,56.2,23.2,10,5,8.309,5.06,1.595,-1.474,-4.353,-7.659,17.4,5,107.2,-7.544,-8.272,-30,-8.404,-8.446,-4.578,-4.332,-4.768,-4.764,4.677,8.179,28,-1.73,1.503,4.317,8.075,-8.486,-7.845,-1.143,1.607,47.7,46.9,40.3,52.2,30.7,34.7,24.5,25.8,41.5,38.7,3,norm,1.241,2.011,-1.201,-1.875,-4.689,-4.359,-1.653,-2.071,-1.142,-1.251,1.104,-1.62,30.9,30.2,-4.385,-8.202,38.1,-1.114,8.087,5.263,-5.175,-7.663,12,4.426,5.264,4.351,4.495,2.085,1.178,1.252,1.604,12,4.891,4.462,60,199.437621136,norm,0,43,43,43,502.71,502.718,502.720051664,502.721,502.724,502.729,up,1,2.95861850944,7.04138149056,001,011,800_600,Intel(R) Core(TM) i7-2670QM CPU @ 2.20GHz,orientation_search,GRVLAPTOP3,Intel(R) HD Graphics Family,2018_jun_07_1337,testMonitor,
31.4,56.2,30.8,36.8,36,-30,41.9,23.6,35.3,29.3,7.836,7.728,8.443,8.048,7.579,8.376,7.918,4.988,-4.512,-8.388,1.948,-1.646,7.811,4.375,-4.66,-8.008,45.9,28.8,-8.313,44.9,26.2,43.7,34.1,33.8,36,34.2,0,5,prime,10,0,93,norm,36,-5.26,up,norm,36.2115468418,39.7,51.4,1.912,37.7,3,33.1,23.6,31.3,10,5,7.833,4.568,1.594,-2.019,-5.126,-8.279,40.4,5,129.2,-7.994,-8.282,-30,-8.248,-7.858,-5.199,-4.896,-4.84,-4.719,4.752,7.62,3,-1.713,2.059,5.059,7.539,-8.237,-8.034,-1.384,1.3,41.6,42.5,,51.0,36.4,39.5,35.6,41.6,34.3,32.8,4,norm,1.546,1.824,-1.876,-1.349,-4.708,-5.146,-1.225,-1.114,-2.064,-1.851,1.545,-1.939,46.0,46.0,-4.404,-8.185,16.2,-1.565,8.341,4.77,-5.022,-8.124,12,4.689,5.263,4.881,4.612,1.2,1.75,1.293,1.784,12,4.529,4.448,60,199.437621136,norm,0,44,44,44,505.699,505.706,505.708716688,505.709,505.713,505.718,up,1,2.28726652605,7.71273347395,001,011,800_600,Intel(R) Core(TM) i7-2670QM CPU @ 2.20GHz,orientation_search,GRVLAPTOP3,Intel(R) HD Graphics Family,2018_jun_07_1337,testMonitor,
104.1,99.7,97.3,104.0,36,-10,94.7,96.7,95.7,99.6,8.427,8.156,8.14,8.383,8.302,8.314,8.021,5.119,-4.614,-7.569,1.275,-1.692,7.666,4.939,-4.789,-7.617,102.4,93.8,-8.42,104.4,100.9,104.1,95.0,103.9,36,97.2,0,5,probe,5,0,91,norm,36,-4.987,up,norm,97.4814561927,95.7,101.8,1.981,91.4,5,87.5,95.7,100.0,10,5,7.821,4.787,2.009,-1.108,-5.001,-8.136,101.8,1,6.5,-7.721,-7.624,-30,-7.977,-8.184,-4.448,-5.224,-4.807,-4.454,4.767,7.996,5,-2.053,1.749,4.684,7.982,-8.382,-7.831,-1.323,1.994,107.5,96.1,90.0,94.0,96.0,105.9,100.6,94.1,,98.9,0,norm,1.611,2.084,-1.842,-1.604,-4.366,-4.909,-2.004,-1.973,-1.108,-1.295,1.783,-1.342,91.3,89.7,-4.767,-8.463,93.1,-1.37,7.513,4.69,-4.579,-8.127,13,4.629,4.799,4.883,4.457,1.261,1.892,1.654,1.469,13,4.793,5.247,-30,36.2115468418,norm,0,45,45,45,508.017,508.025,508.027222342,508.028,508.032,508.037,up,1,3.29536593988,6.70463406012,001,011,800_600,Intel(R) Core(TM) i7-2670QM CPU @ 2.20GHz,orientation_search,GRVLAPTOP3,Intel(R) HD Graphics Family,2018_jun_07_1337,testMonitor,
333.5,322.7,350.6,,36,-30,336.1,358.1,348.0,336.9,8.074,7.519,8.264,8.446,7.514,8.434,8.059,5.002,-4.717,-8.439,1.429,-1.395,8.284,4.563,-4.304,-7.589,333.5,325.6,-7.94,330.3,338.8,335.6,353.2,330.9,36,337.6,3,5,prime,10,0,93,norm,36,-5.235,up,norm,342.679111617,341.7,327.3,1.482,336.5,3,355.0,347.7,348.8,10,2,8.374,4.618,1.582,-1.364,-4.459,-8.089,358.9,2,435.7,-7.926,-7.976,-30,-8.346,-7.576,-4.887,-4.32,-4.86,-4.623,5.141,7.603,21,-1.126,1.916,5.203,8.157,-7.643,-7.696,-1.239,1.932,362.7,352.0,334.8,344.5,325.0,352.7,344.5,350.7,336.3,358.7,0,norm,1.209,1.741,-1.204,-1.647,-4.924,-5.175,-1.542,-1.879,-1.991,-1.257,1.792,-2.006,345.5,345.1,-4.824,-7.689,344.3,-1.687,7.771,4.558,-5.263,-8.331,14,5.177,4.317,4.905,4.429,1.383,1.505,1.495,1.751,14,4.644,4.913,-10,36.2115468418,norm,0,46,46,46,511.343,511.35,511.352522726,511.353,511.357,511.362,up,1,2.77483956436,7.22516043564,001,011,800_600,Intel(R) Core(TM) i7-2670QM CPU @ 2.20GHz,orientation_search,GRVLAPTOP3,Intel(R) HD Graphics Family,2018_jun_07_1337,testMonitor,
336.0,357.1,343.6,352.8,36,-30,344.4,346.0,338.2,356.0,8.049,8.303,8.365,7.871,7.555,8.268,8.464,5.111,-4.558,-8.45,1.278,-2.086,7.576,4.763,-4.98,-8.472,348.2,344.0,-8.404,329.7,330.5,358.3,350.2,338.2,36,354.0,2,5,prime,10,0,77,norm,36,-4.575,up,norm,342.679111617,342.7,362.7,1.58,334.0,3,357.3,340.7,333.2,10,2,7.96,4.498,1.437,-1.81,-5.11,-7.502,356.8,2,419.7,-8.393,-7.584,-30,-8.195,-7.788,-4.837,-5.223,-4.767,-4.784,4.727,8.045,15,-1.382,1.57,5.066,8.041,-8.281,-8.411,-1.153,1.374,322.7,346.3,334.9,355.7,353.1,343.5,353.2,360.9,334.4,330.4,1,norm,1.525,1.502,-1.489,-1.747,-5.06,-4.833,-1.259,-1.149,-1.735,-1.317,1.763,-1.167,345.0,355.9,-4.348,-8.053,,-1.135,8.24,4.434,-4.349,-8.188,14,5.084,4.547,4.449,4.89,1.64,1.466,1.53,1.367,14,5.217,4.848,-10,36.2115468418,norm,0,47,47,47,514.148,514.155,514.157139368,514.158,514.161,514.166,up,1,9.49398439328,0.506015606723,001,011,800_600,Intel(R) Core(TM) i7-2670QM CPU @ 2.20GHz,orientation_search,GRVLAPTOP3,Intel(R) HD Graphics Family,2018_jun_07_1337,testMonitor,
388.3,380.0,385.8,387.0,36,80,382.3,384.8,380.1,377.3,8.092,7.736,7.916,8.212,7.756,8.251,8.429,4.968,-5.027,-7.9,1.46,-1.797,7.901,4.939,-4.442,-7.841,387.3,,-8.303,381.1,375.9,378.7,378.7,383.1,36,381.5,5,5,probe,5,0,70,norm,36,-4.718,up,norm,382.511708532,384.3,380.9,1.688,382.3,4,382.8,373.7,380.5,10,2,8.13,4.316,1.577,-1.862,-4.552,-7.794,382.4,2,312.5,-8.364,-7.607,-30,-7.95,-8.33,-5.104,-4.527,-5.061,-4.524,5.048,7.552,34,-1.492,1.787,5.275,7.941,-8.303,-8.413,-1.799,1.113,375.3,392.5,382.5,391.9,387.5,372.5,383.8,384.4,381.8,376.0,0,norm,1.619,1.627,-1.428,-1.312,-4.976,-5.071,-1.334,-1.822,-1.303,-1.133,1.849,-1.179,372.7,378.0,-4.585,-7.927,378.2,-1.285,8.033,4.393,-4.787,-8.393,15,4.994,5.177,4.815,5.198,1.774,1.846,1.57,1.402,15,5.208,4.829,-30,342.679111617,norm,0,48,48,48,523.665,523.672,523.674316243,523.675,523.679,523.684,up,1,3.21677430863,6.78322569137,001,011,800_600,Intel(R) Core(TM) i7-2670QM CPU @ 2.20GHz,orientation_search,GRVLAPTOP3,Intel(R) HD Graphics Family,2018_jun_07_1337,testMonitor,
418.2,420.8,413.4,414.3,36,80,417.4,420.1,425.5,410.9,7.897,7.776,7.786,8.117,7.74,7.705,7.89,4.607,-4.612,-8.154,1.819,-1.864,8.069,5.276,-4.861,-7.521,409.3,413.9,-7.544,410.2,,413.8,414.4,422.3,36,412.9,5,5,probe,5,0,103,norm,36,-4.387,down,norm,415.511708532,418.5,419.0,1.232,417.1,0,411.8,409.9,406.1,10,2,7.931,5.173,1.185,-1.264,-4.773,-8.068,410.8,2,312.5,-7.657,-7.657,-30,-7.682,-7.956,-4.322,-5.09,-5.211,-4.485,4.352,7.723,30,-1.707,1.903,4.433,7.58,-8.433,-8.461,-1.439,1.913,416.2,405.5,412.0,416.4,423.1,415.5,409.7,414.5,415.2,418.0,1,norm,2.061,1.349,-1.372,-2.036,-4.496,-5.199,-1.649,-1.79,-1.642,-2.094,1.439,-2.075,413.3,409.0,-4.777,-7.577,416.7,-1.183,7.578,4.89,-5.181,-8.109,15,5.242,4.941,4.461,4.957,1.365,1.713,1.219,1.448,15,5.285,5.099,-30,342.679111617,norm,0,49,49,49,526.913,526.92,526.92265375,526.923,526.927,526.932,down,1,3.11877677138,6.88122322862,001,011,800_600,Intel(R) Core(TM) i7-2670QM CPU @ 2.20GHz,orientation_search,GRVLAPTOP3,Intel(R) HD Graphics Family,2018_jun_07_1337,testMonitor,
88.5,87.9,102.6,98.9,36,10,92.2,100.2,100.9,104.6,8.071,8.353,7.681,7.598,8.299,7.951,7.812,5.037,-4.906,-8.221,1.704,-1.171,8.088,4.634,-4.337,-8.168,76.2,103.9,-8.272,81.6,96.5,95.0,91.7,99.0,36,91.9,2,5,prime,10,0,103,norm,36,-5.031,up,norm,92.7954057489,97.6,92.4,1.265,88.6,3,106.0,92.2,112.8,10,5,7.668,4.791,1.655,-1.381,-5.019,-7.857,80.3,5,195.8,-8.097,-7.949,10,-8.126,-7.977,-5.227,-5.148,-5.119,-4.985,4.389,7.523,15,-1.486,1.133,4.782,8.478,-8.145,-7.922,-1.517,1.442,82.6,82.5,105.5,98.0,112.1,89.1,100.7,87.2,99.9,83.5,0,norm,1.17,1.642,-2.067,-1.933,-4.498,-4.826,-1.889,-1.494,-1.476,-1.681,1.957,-1.947,72.8,90.7,-4.963,-8.129,,-1.799,7.522,4.602,-5.1,-7.546,16,4.68,4.7,4.994,4.789,1.817,1.342,1.497,1.495,16,4.48,4.853,80,342.679111617,norm,0,50,50,50,530.062,530.069,530.071598445,530.072,530.076,530.081,up,1,1.81067404214,8.18932595786,001,011,800_600,Intel(R) Core(TM) i7-2670QM CPU @ 2.20GHz,orientation_search,GRVLAPTOP3,Intel(R) HD Graphics Family,2018_jun_07_1337,testMonitor,
89.5,81.0,75.6,78.1,36,10,102.9,98.7,72.8,106.4,8.174,7.741,7.922,7.682,8.438,7.676,8.077,4.892,-4.586,-7.513,2.058,-1.569,8.286,4.37,-4.416,-7.65,81.2,91.4,-8.144,78.4,89.8,112.8,82.9,,36,102.2,4,5,prime,10,0,94,norm,36,-4.391,down,norm,92.7954057489,85.5,92.5,1.582,92.7,2,92.6,83.8,106.6,10,5,7.713,5.01,1.539,-1.358,-4.942,-8.455,100.1,5,186.8,-8.13,-7.655,10,-7.925,-7.661,-5.001,-4.671,-4.327,-4.51,5.266,8.302,26,-1.294,1.199,4.856,7.818,-8.319,-7.632,-1.274,1.447,86.3,97.9,98.7,91.8,95.5,91.2,89.5,87.4,102.0,89.3,1,norm,2.06,1.149,-1.575,-1.734,-5.181,-5.043,-1.513,-1.623,-1.692,-2.058,1.927,-2.032,95.3,97.2,-4.439,-8.046,82.0,-1.425,8.47,4.61,-4.379,-8.305,16,5.14,5.155,4.313,5.03,1.56,1.537,1.965,1.952,16,4.517,5.09,80,342.679111617,norm,0,51,51,51,531.904,531.911,531.91377358,531.914,531.918,531.923,down,1,4.02630009718,5.97369990282,001,011,800_600,Intel(R) Core(TM) i7-2670QM CPU @ 2.20GHz,orientation_search,GRVLAPTOP3,Intel(R) HD Graphics Family,2018_jun_07_1337,testMonitor,
108.4,86.9,87.6,95.1,36,10,97.2,98.2,97.4,72.8,7.555,7.997,8.416,7.95,8.129,8.467,7.665,5.045,-5.041,-7.616,1.676,-1.873,7.887,4.441,-4.888,-7.96,87.4,98.1,-8.322,95.7,94.5,82.3,99.2,103.5,36,82.0,2,5,prime,10,0,97,norm,36,-4.737,up,norm,92.7954057489,,93.4,1.976,88.9,5,92.3,90.0,101.6,10,5,8.373,5.258,1.915,-1.537,-5.026,-7.701,103.5,5,189.8,-7.957,-7.597,10,-7.573,-8.401,-4.485,-4.341,-4.65,-4.604,4.827,8.042,17,-1.215,1.533,4.35,7.564,-7.82,-7.584,-1.223,1.525,103.0,75.4,90.3,93.1,77.3,82.2,112.8,83.6,82.6,97.2,2,norm,2.084,1.982,-1.602,-1.921,-4.373,-4.995,-1.857,-1.772,-1.841,-1.434,1.35,-2.05,103.8,94.9,-4.889,-8.457,77.4,-1.854,8.269,5.064,-4.32,-7.768,16,4.601,4.547,5.292,4.875,1.528,1.278,1.713,1.362,16,4.561,4.476,80,342.679111617,norm,0,52,52,52,535.96,535.968,535.970832304,535.971,535.975,535.98,up,1,5.13870473819,4.86129526181,001,011,800_600,Intel(R) Core(TM) i7-2670QM CPU @ 2.20GHz,orientation_search,GRVLAPTOP3,Intel(R) HD Graphics Family,2018_jun_07_1337,testMonitor,
86.9,90.5,104.3,92.0,36,10,101.3,101.1,73.0,94.1,7.531,7.866,7.954,7.756,7.683,7.698,7.532,5.209,-4.879,-7.522,1.186,-1.202,7.919,4.958,-4.579,-8.098,88.6,106.7,-7.941,97.2,109.8,88.3,87.6,112.8,36,84.7,0,5,prime,10,0,106,norm,36,-4.429,up,norm,92.7954057489,88.6,88.4,1.694,91.1,3,98.2,87.8,97.8,10,5,8.039,4.488,1.886,-1.188,-5.201,-7.962,89.5,5,198.8,-8.291,-7.87,10,-8.086,-7.718,-4.644,-4.768,-5.163,-4.535,4.384,7.912,3,-1.66,1.652,4.884,8.195,-7.598,-8.091,-1.143,1.483,89.0,84.7,,91.1,87.3,99.7,107.3,72.8,82.4,86.3,3,norm,1.665,1.238,-1.715,-2.0,-5.119,-4.304,-1.622,-1.794,-2.018,-1.401,1.247,-1.533,106.5,106.4,-4.988,-8.396,88.4,-1.134,7.99,4.591,-4.622,-7.788,16,4.41,4.423,4.424,4.865,1.25,1.258,1.187,1.763,16,4.535,4.466,80,342.679111617,norm,0,53,53,53,541.13,541.137,541.139679283,541.14,541.144,541.149,up,1,4.66484770347,5.33515229653,001,011,800_600,Intel(R) Core(TM) i7-2670QM CPU @ 2.20GHz,orientation_search,GRVLAPTOP3,Intel(R) HD Graphics Family,2018_jun_07_1337,testMonitor,
78.1,96.5,84.9,107.4,36,10,99.9,90.0,96.3,86.7,7.89,8.478,8.434,7.535,7.557,8.462,7.694,4.463,-4.768,-7.585,1.602,-1.112,8.069,5.081,-4.857,-7.704,73.8,75.7,-7.899,77.7,87.7,102.2,99.6,112.8,36,73.5,1,5,prime,10,0,104,norm,36,-4.958,down,norm,92.7954057489,99.5,72.8,1.887,86.8,0,88.7,89.9,92.4,10,5,7.538,4.417,1.486,-1.563,-4.315,-7.704,94.7,5,196.8,-8.284,-8.451,10,-7.824,-7.522,-4.549,-4.713,-4.745,-5.095,4.959,8.46,6,-1.286,1.23,5.24,7.678,-7.602,-8.271,-1.554,1.726,87.4,99.1,82.7,91.6,95.5,102.7,98.0,,81.6,82.1,4,norm,1.15,1.744,-1.946,-1.321,-4.636,-5.157,-1.466,-2.036,-1.826,-1.113,1.398,-1.516,87.5,101.3,-4.754,-7.806,94.5,-1.604,8.2,5.261,-4.819,-7.734,16,4.517,4.84,4.908,4.334,1.279,1.178,1.398,1.338,16,4.964,4.773,80,342.679111617,norm,0,54,54,54,545.825,545.833,545.834965279,545.836,545.839,545.845,up,0,3.55511967473,-10,001,011,800_600,Intel(R) Core(TM) i7-2670QM CPU @ 2.20GHz,orientation_search,GRVLAPTOP3,Intel(R) HD Graphics Family,2018_jun_07_1337,testMonitor,
218.2,220.3,219.8,222.2,36,30,223.5,225.6,216.6,210.4,8.292,7.689,7.545,8.468,7.54,8.379,8.466,4.592,-4.382,-8.452,1.15,-1.411,8.305,5.255,-4.966,-7.999,214.8,218.3,-8.132,215.8,213.4,211.5,205.6,219.3,36,215.9,0,5,probe,5,0,112,norm,36,-4.727,down,norm,215.580853059,221.0,215.7,2.054,214.4,1,210.2,207.4,212.6,10,5,8.105,4.97,2.002,-1.306,-4.947,-8.441,217.1,1,103.6,-7.796,-8.34,10,-7.658,-7.747,-5.235,-4.729,-4.498,-4.731,4.602,7.64,1,-1.992,2.048,4.693,7.589,-7.812,-7.694,-1.779,1.751,223.7,223.0,214.2,213.0,,214.6,211.0,207.5,215.8,218.6,0,norm,1.822,2.054,-1.913,-1.257,-5.124,-4.911,-1.283,-2.017,-1.862,-2.09,1.346,-2.055,211.3,214.4,-5.098,-7.609,214.6,-1.484,8.436,5.127,-5.096,-8.146,17,5.201,5.193,4.517,4.374,1.665,1.909,2.015,1.259,17,5.237,4.762,10,92.7954057489,norm,0,55,55,55,550.425,550.433,550.434850034,550.435,550.439,550.444,down,1,1.38111325964,8.61888674036,001,011,800_600,Intel(R) Core(TM) i7-2670QM CPU @ 2.20GHz,orientation_search,GRVLAPTOP3,Intel(R) HD Graphics Family,2018_jun_07_1337,testMonitor,
32.9,40.6,31.8,16.5,36,60,21.9,43.8,30.8,39.5,8.031,8.481,7.523,7.659,7.686,7.821,8.247,4.924,-5.128,-8.398,1.352,-1.144,7.761,5.033,-4.737,-7.993,43.7,48.2,-7.942,28.9,38.1,35.7,21.7,53.7,36,29.8,1,5,prime,10,0,111,norm,36,-5.26,up,norm,33.7017560772,31.8,42.7,1.956,32.7,3,43.8,28.4,38.7,10,6,8.226,5.176,2.045,-1.447,-5.102,-7.506,42.8,6,144.7,-7.716,-7.653,60,-7.99,-7.643,-5.185,-4.429,-4.804,-5.076,5.206,7.992,9,-1.69,1.426,4.72,7.541,-7.532,-7.723,-1.946,1.606,,32.7,39.9,28.3,36.1,22.8,13.7,21.3,33.0,35.8,0,norm,1.72,2.033,-1.23,-1.444,-4.907,-4.458,-1.649,-2.054,-1.238,-1.853,1.557,-1.163,39.8,29.7,-4.597,-7.692,39.8,-1.937,8.156,4.841,-4.949,-8.184,18,4.805,4.963,4.58,5.186,1.596,1.571,1.637,1.682,18,4.957,4.734,30,92.7954057489,norm,0,56,56,56,551.836,551.843,551.845510627,551.846,551.85,551.855,up,1,2.07063884273,7.92936115727,001,011,800_600,Intel(R) Core(TM) i7-2670QM CPU @ 2.20GHz,orientation_search,GRVLAPTOP3,Intel(R) HD Graphics Family,2018_jun_07_1337,testMonitor,
28.1,33.0,43.9,25.8,36,60,25.1,42.3,28.7,24.7,8.19,7.926,8.22,8.146,7.826,8.408,8.304,4.351,-5.144,-8.162,1.876,-1.741,8.031,4.52,-4.819,-8.261,15.4,51.4,-8.437,41.3,39.7,24.7,44.0,25.5,36,48.2,2,5,prime,10,0,80,norm,36,-5.257,up,norm,33.7017560772,,53.7,1.708,31.1,5,25.3,23.6,24.5,10,6,7.993,4.3,1.655,-1.925,-5.184,-7.722,35.4,6,113.7,-8.447,-8.291,60,-8.099,-8.337,-5.134,-4.448,-4.801,-4.547,5.007,8.128,17,-1.441,1.969,5.0,8.151,-7.535,-8.064,-2.0,1.429,24.9,30.7,46.2,45.8,23.9,29.0,13.7,23.5,45.3,31.1,1,norm,1.374,1.472,-1.376,-1.941,-5.19,-4.918,-2.048,-1.434,-2.09,-1.426,1.281,-1.955,28.8,46.7,-4.371,-7.665,46.5,-1.949,8.192,4.891,-4.942,-7.503,18,5.137,4.465,4.914,4.556,1.844,1.863,1.436,1.406,18,4.776,5.016,30,92.7954057489,norm,0,57,57,57,553.937,553.944,553.946457948,553.947,553.951,553.956,up,1,6.34746321876,3.65253678124,001,011,800_600,Intel(R) Core(TM) i7-2670QM CPU @ 2.20GHz,orientation_search,GRVLAPTOP3,Intel(R) HD Graphics Family,2018_jun_07_1337,testMonitor,
47.7,17.8,52.1,44.6,36,60,35.3,28.9,34.6,24.7,8.44,7.826,7.922,8.23,8.252,7.749,7.977,4.487,-4.427,-7.549,1.732,-1.349,7.87,5.186,-4.807,-8.354,13.7,27.8,-7.699,35.9,20.5,30.1,36.6,23.3,36,,4,5,prime,10,0,97,norm,36,-5.132,up,norm,33.7017560772,51.7,17.6,1.949,41.7,3,42.5,41.2,40.3,10,6,7.859,5.197,1.676,-1.58,-4.775,-7.871,39.7,6,130.7,-7.722,-7.505,60,-8.29,-8.418,-4.766,-5.067,-4.752,-5.262,5.045,8.374,27,-1.47,1.37,4.869,7.665,-7.752,-8.171,-1.468,2.036,39.8,26.6,40.3,30.3,31.7,32.9,53.7,43.2,30.8,33.9,2,norm,1.561,1.626,-1.851,-1.409,-5.012,-5.036,-1.778,-1.41,-1.843,-1.829,1.99,-1.726,26.1,20.5,-4.941,-7.79,40.5,-1.99,7.577,5.036,-4.399,-8.415,18,4.404,4.626,4.655,5.246,1.607,2.092,1.618,2.09,18,4.662,5.204,30,92.7954057489,norm,0,58,58,58,560.314,560.322,560.324677926,560.325,560.329,560.334,up,1,7.63675728329,2.36324271671,001,011,800_600,Intel(R) Core(TM) i7-2670QM CPU @ 2.20GHz,orientation_search,GRVLAPTOP3,Intel(R) HD Graphics Family,2018_jun_07_1337,testMonitor,
39.4,42.0,22.4,27.9,36,60,30.0,36.4,32.8,22.9,8.239,8.497,7.791,8.443,7.625,7.567,7.922,5.119,-4.601,-7.738,1.111,-1.999,7.781,4.675,-4.921,-7.884,33.3,46.9,-8.057,35.8,39.4,24.5,24.5,46.4,36,43.2,1,5,prime,10,0,86,norm,36,-5.196,up,norm,33.7017560772,53.7,29.9,1.397,32.0,5,,41.0,13.7,10,6,8.071,5.119,1.592,-1.84,-4.81,-7.885,29.0,6,119.7,-7.921,-8.176,60,-8.173,-7.662,-5.068,-4.998,-4.524,-4.51,4.325,7.569,11,-1.204,1.565,5.064,7.685,-8.356,-8.329,-1.745,1.485,37.5,27.8,26.0,17.0,35.0,17.6,14.7,30.2,25.2,34.4,3,norm,1.762,1.52,-1.904,-2.096,-5.25,-4.494,-1.639,-1.283,-1.518,-1.788,1.98,-1.931,42.9,39.1,-4.374,-7.565,36.4,-1.163,8.428,5.192,-5.131,-8.469,18,5.274,4.583,4.823,4.516,1.894,1.146,1.4,1.568,18,4.576,4.949,30,92.7954057489,norm,0,59,59,59,567.982,567.989,567.991512076,567.992,567.996,568.001,up,1,1.89064086933,8.10935913067,001,011,800_600,Intel(R) Core(TM) i7-2670QM CPU @ 2.20GHz,orientation_search,GRVLAPTOP3,Intel(R) HD Graphics Family,2018_jun_07_1337,testMonitor,
36.8,22.1,29.0,21.8,36,60,34.8,,28.0,37.0,8.036,8.25,8.19,7.826,8.306,7.802,7.995,4.564,-4.324,-8.254,2.004,-2.011,7.906,4.863,-4.61,-8.116,41.3,29.2,-7.642,45.2,35.7,44.0,39.2,40.1,36,21.1,4,5,prime,10,0,109,norm,36,-5.19,down,norm,33.7017560772,43.8,36.4,1.175,38.2,1,36.9,40.9,27.2,10,6,7.964,5.187,1.98,-1.351,-4.728,-7.907,13.7,6,142.7,-8.28,-7.774,60,-7.692,-8.322,-5.026,-5.003,-4.996,-4.838,4.423,7.808,25,-1.164,1.647,4.78,7.567,-8.163,-8.043,-1.515,1.155,36.3,29.8,49.9,17.4,39.3,40.7,17.1,37.8,36.8,51.0,4,norm,1.281,1.911,-2.013,-1.996,-5.105,-4.555,-1.652,-1.135,-1.156,-1.664,2.028,-1.121,29.6,41.7,-4.728,-8.326,53.7,-1.227,8.112,4.787,-4.921,-7.597,18,4.493,4.829,4.782,4.571,2.015,1.626,1.983,1.343,18,4.759,4.49,30,92.7954057489,norm,0,60,60,60,569.903,569.911,569.912925114,569.913,569.917,569.922,down,1,3.54521686303,6.45478313697,001,011,800_600,Intel(R) Core(TM) i7-2670QM CPU @ 2.20GHz,orientation_search,GRVLAPTOP3,Intel(R) HD Graphics Family,2018_jun_07_1337,testMonitor,
32.8,21.7,39.1,42.9,36,60,53.2,43.7,14.2,32.9,8.376,7.683,8.241,7.947,7.736,8.167,8.002,5.121,-4.467,-7.729,1.711,-1.673,7.693,5.143,-5.117,-8.046,38.7,,-8.336,13.7,32.6,29.3,43.5,34.5,36,34.4,5,5,prime,10,0,90,norm,36,-4.539,up,norm,33.7017560772,32.3,40.1,1.73,31.3,4,44.8,37.2,44.1,10,6,7.613,4.899,1.874,-1.63,-5.188,-8.238,28.2,6,123.7,-7.577,-8.294,60,-7.655,-7.572,-5.205,-4.881,-4.747,-5.059,5.024,7.849,34,-1.304,1.522,5.291,8.184,-7.97,-7.584,-1.743,1.181,46.1,32.4,26.7,36.8,25.2,20.3,16.3,30.6,39.4,34.7,5,norm,1.328,1.369,-1.236,-1.656,-4.463,-4.806,-1.805,-1.638,-1.908,-1.521,1.54,-1.941,53.7,22.1,-4.394,-7.686,36.7,-1.414,8.421,4.654,-4.644,-7.708,18,4.993,4.628,5.043,4.932,1.267,1.401,1.661,1.704,18,4.838,4.539,30,92.7954057489,norm,0,61,61,61,573.479,573.487,573.488739036,573.489,573.493,573.498,up,1,1.60812238824,8.39187761176,001,011,800_600,Intel(R) Core(TM) i7-2670QM CPU @ 2.20GHz,orientation_search,GRVLAPTOP3,Intel(R) HD Graphics Family,2018_jun_07_1337,testMonitor,
210.1,214.8,214.3,216.3,36,20,217.4,214.4,217.1,209.3,7.803,8.249,7.763,8.149,8.498,7.81,7.711,5.141,-5.194,-7.99,2.1,-2.058,7.758,4.658,-4.711,-8.356,216.0,208.8,-8.064,220.0,218.6,210.5,208.3,213.5,36,211.1,2,5,probe,5,0,113,norm,36,-4.816,up,norm,213.735771944,,209.3,1.188,219.8,5,212.9,210.8,217.3,10,6,8.144,5.269,1.664,-1.483,-5.117,-7.795,210.1,1,100.7,-7.772,-8.29,60,-8.328,-7.714,-4.837,-4.799,-4.985,-4.439,4.98,7.818,17,-1.807,1.322,4.824,7.878,-8.165,-7.719,-1.161,1.348,209.9,211.8,216.5,216.0,207.1,205.8,217.9,223.7,217.8,216.3,0,norm,1.39,1.977,-1.447,-1.766,-4.607,-4.685,-1.4,-1.545,-1.888,-1.878,1.979,-1.995,211.0,205.5,-4.72,-7.823,209.5,-1.735,8.222,4.376,-4.417,-7.571,19,4.765,4.759,4.922,4.861,1.46,1.73,1.935,1.84,19,4.924,4.929,60,33.7017560772,norm,0,62,62,62,575.117,575.125,575.12684163,575.127,575.131,575.136,up,1,1.61404997308,8.38595002692,001,011,800_600,Intel(R) Core(TM) i7-2670QM CPU @ 2.20GHz,orientation_search,GRVLAPTOP3,Intel(R) HD Graphics Family,2018_jun_07_1337,testMonitor,
295.6,305.0,314.0,307.4,36,60,286.3,294.4,299.9,293.4,8.379,8.293,7.948,8.253,7.68,8.321,8.276,4.93,-4.835,-8.319,1.475,-1.992,7.9,5.143,-4.864,-7.809,293.2,282.7,-8.374,297.4,299.9,284.8,300.9,304.0,36,283.5,1,5,prime,10,0,91,norm,36,-4.319,down,norm,295.673850786,293.9,307.9,1.288,290.7,1,288.0,315.7,294.5,10,5,7.847,5.084,1.849,-1.304,-5.054,-8.309,287.4,5,386.7,-8.456,-7.986,60,-7.728,-7.637,-4.307,-5.13,-4.681,-4.863,4.712,7.521,7,-1.45,1.685,4.776,7.99,-7.642,-8.001,-1.302,1.697,304.6,292.3,280.7,297.9,314.6,282.3,,287.7,275.7,313.0,0,norm,1.688,1.911,-1.122,-1.392,-5.15,-5.23,-1.989,-1.628,-1.282,-1.74,1.667,-1.772,292.4,299.1,-4.611,-8.421,299.4,-1.329,8.247,4.657,-5.158,-7.945,20,4.352,4.398,4.4,4.389,1.829,1.336,1.226,2.054,20,4.499,4.483,20,33.7017560772,norm,0,63,63,63,576.761,606.724,606.726762807,606.727,606.731,606.736,down,1,1.78369498574,8.21630501426,001,011,800_600,Intel(R) Core(TM) i7-2670QM CPU @ 2.20GHz,orientation_search,GRVLAPTOP3,Intel(R) HD Graphics Family,2018_jun_07_1337,testMonitor,
289.4,313.3,298.7,302.8,36,60,303.8,304.8,275.7,295.7,7.667,7.688,8.498,7.643,7.684,7.648,8.004,4.605,-4.835,-8.276,1.713,-1.582,7.612,4.802,-5.119,-8.37,293.5,283.4,-7.653,282.4,304.4,307.4,295.3,300.3,36,293.5,3,5,prime,10,0,77,norm,36,-4.696,down,norm,295.673850786,305.3,288.3,1.553,302.5,0,313.1,295.5,276.9,10,5,8.39,5.172,1.365,-1.196,-4.646,-7.853,295.3,5,372.7,-7.985,-8.0,60,-7.914,-8.12,-5.191,-5.107,-4.493,-5.051,4.526,7.61,18,-1.805,1.775,4.972,7.813,-8.009,-8.03,-1.963,1.39,308.4,307.4,296.7,300.0,294.2,292.0,292.8,284.5,297.0,292.1,1,norm,1.186,1.698,-1.238,-1.367,-5.275,-5.281,-1.123,-1.609,-1.711,-2.053,1.657,-1.242,297.6,,-5.14,-7.835,315.7,-1.938,7.613,5.274,-5.184,-7.89,20,5.247,4.981,4.696,4.948,1.149,1.877,1.887,1.609,20,5.296,5.111,20,33.7017560772,norm,0,64,64,64,608.531,608.539,608.541222024,608.542,608.546,608.551,down,1,2.14298955925,7.85701044075,001,011,800_600,Intel(R) Core(TM) i7-2670QM CPU @ 2.20GHz,orientation_search,GRVLAPTOP3,Intel(R) HD Graphics Family,2018_jun_07_1337,testMonitor,
297.3,296.8,294.5,303.8,36,60,280.1,309.0,300.0,303.1,8.139,8.335,8.07,7.7,8.315,8.35,7.796,4.574,-4.376,-7.96,1.53,-2.076,7.968,4.579,-4.985,-7.746,305.8,285.6,-7.858,291.3,296.4,284.7,301.1,281.1,36,,4,5,prime,10,0,93,norm,36,-5.017,up,norm,295.673850786,295.3,300.3,1.745,287.7,3,303.4,298.2,302.4,10,5,8.495,5.223,1.951,-2.054,-4.903,-7.594,300.1,5,388.7,-8.215,-8.389,60,-8.21,-8.338,-5.18,-5.267,-4.644,-5.177,5.135,7.959,27,-1.356,1.191,4.762,7.924,-8.057,-7.614,-2.031,1.84,303.1,275.7,306.7,313.7,280.9,290.0,291.9,285.6,309.8,285.1,2,norm,1.543,1.203,-1.995,-1.701,-5.182,-4.779,-1.167,-1.739,-1.774,-1.972,1.987,-1.961,315.7,276.4,-4.627,-8.315,309.4,-1.274,7.576,5.218,-5.151,-7.546,20,4.351,5.165,5.135,4.748,2.016,1.151,1.946,1.374,20,4.97,5.285,20,33.7017560772,norm,0,65,65,65,610.705,610.713,610.715230774,610.716,610.72,610.725,up,1,1.80964579715,8.19035420285,001,011,800_600,Intel(R) Core(TM) i7-2670QM CPU @ 2.20GHz,orientation_search,GRVLAPTOP3,Intel(R) HD Graphics Family,2018_jun_07_1337,testMonitor,
301.8,295.9,284.1,294.5,36,60,293.5,301.2,275.7,279.3,8.303,7.892,7.595,7.645,8.333,8.018,7.596,4.888,-5.143,-7.885,1.467,-1.203,8.171,4.884,-4.613,-7.92,283.2,291.6,-7.824,280.2,287.5,304.9,305.0,289.6,36,296.9,2,5,prime,10,0,116,norm,36,-4.61,down,norm,295.673850786,297.8,280.3,1.192,301.2,1,300.0,,283.9,10,5,8.113,4.652,1.429,-1.733,-5.145,-8.132,281.1,5,411.7,-7.903,-8.09,60,-7.885,-8.006,-5.024,-4.364,-5.159,-4.828,4.539,8.24,13,-1.285,1.183,5.123,8.14,-7.883,-8.105,-1.102,1.984,302.7,291.0,310.5,298.8,287.0,301.2,298.8,299.7,286.3,292.8,3,norm,1.407,2.052,-1.68,-1.72,-4.329,-4.995,-1.484,-1.827,-1.596,-2.007,1.698,-1.582,301.2,315.7,-4.359,-8.271,289.4,-1.485,7.774,4.79,-5.182,-8.384,20,4.38,4.413,5.056,5.196,1.818,1.794,1.343,1.861,20,4.302,4.908,20,33.7017560772,norm,0,66,66,66,612.546,612.553,612.55545822,612.556,612.56,612.565,down,1,1.12921611963,8.87078388037,001,011,800_600,Intel(R) Core(TM) i7-2670QM CPU @ 2.20GHz,orientation_search,GRVLAPTOP3,Intel(R) HD Graphics Family,2018_jun_07_1337,testMonitor,
292.3,306.6,296.0,304.7,36,60,285.5,293.7,292.4,289.0,8.355,8.248,8.085,7.745,8.2,8.299,8.122,4.495,-5.204,-8.406,1.126,-2.022,7.642,4.434,-4.59,-7.522,284.9,305.6,-7.846,297.4,308.0,305.5,302.8,315.7,36,288.8,0,5,prime,10,0,101,norm,36,-5.229,down,norm,295.673850786,310.8,302.4,1.279,282.6,0,310.8,299.4,290.8,10,5,7.939,4.424,1.762,-1.226,-4.328,-7.783,301.7,5,396.7,-8.204,-7.679,60,-7.729,-7.558,-5.17,-5.16,-5.064,-5.114,4.767,8.087,0,-1.163,1.411,4.428,8.194,-8.437,-8.19,-2.001,1.872,296.9,294.6,306.4,288.1,278.6,,285.9,314.9,294.0,306.1,4,norm,2.014,2.068,-1.177,-1.416,-5.072,-4.767,-1.785,-1.672,-1.4,-1.354,1.348,-1.445,300.7,286.0,-4.728,-7.582,275.7,-1.489,8.379,4.818,-5.075,-7.867,20,4.657,4.913,4.59,4.532,2.044,2.035,1.59,1.54,20,4.692,4.661,20,33.7017560772,norm,0,67,67,67,613.705,613.713,613.715605742,613.716,613.72,613.725,down,1,1.75847309823,8.24152690177,001,011,800_600,Intel(R) Core(TM) i7-2670QM CPU @ 2.20GHz,orientation_search,GRVLAPTOP3,Intel(R) HD Graphics Family,2018_jun_07_1337,testMonitor,
408.9,417.5,416.7,417.8,36,-20,423.8,414.5,406.2,419.2,7.595,7.745,7.504,8.112,8.063,7.709,8.396,5.137,-5.083,-8.475,1.901,-1.733,7.929,4.964,-4.573,-8.026,414.1,408.9,-7.536,422.1,410.0,412.7,412.3,410.8,36,409.0,1,5,probe,5,0,66,norm,36,-4.864,down,norm,413.844236525,414.5,413.8,1.448,405.7,1,417.5,414.9,421.3,10,5,8.211,4.668,1.466,-1.377,-4.343,-8.341,404.5,1,347.8,-7.671,-8.421,60,-7.745,-7.832,-4.417,-4.323,-4.806,-4.671,4.509,8.058,7,-1.511,1.117,4.303,8.387,-8.343,-7.584,-1.303,1.896,413.7,417.5,409.9,415.5,403.8,409.4,,410.8,422.3,404.7,0,norm,1.615,1.513,-1.928,-2.09,-4.865,-5.238,-1.115,-1.286,-1.243,-1.41,1.545,-1.422,412.2,411.0,-5.102,-8.308,409.6,-1.417,7.576,4.945,-4.856,-7.825,21,4.999,4.579,4.823,4.307,1.902,1.348,1.208,1.734,21,5.198,4.477,60,295.673850786,norm,0,68,68,68,615.495,615.503,615.505004172,615.506,615.509,615.514,down,1,2.21942243638,7.78057756362,001,011,800_600,Intel(R) Core(TM) i7-2670QM CPU @ 2.20GHz,orientation_search,GRVLAPTOP3,Intel(R) HD Graphics Family,2018_jun_07_1337,testMonitor,
187.6,156.6,174.0,171.5,36,-20,162.0,161.0,188.0,154.6,8.484,7.921,7.723,7.606,8.037,8.466,8.148,4.704,-4.908,-8.381,1.659,-1.908,8.333,5.236,-5.222,-7.569,179.6,,-8.24,167.7,187.0,163.9,170.4,163.5,36,175.4,5,5,prime,10,0,76,norm,36,-4.983,up,norm,168.006309325,161.9,155.0,1.277,150.2,4,148.0,181.9,163.8,10,6,8.336,5.247,1.99,-1.624,-4.617,-7.671,157.7,6,244.0,-7.951,-7.856,-20,-8.225,-8.409,-5.298,-5.159,-4.342,-4.341,4.529,7.839,34,-1.539,1.8,4.418,8.405,-8.245,-8.101,-1.545,1.246,162.5,179.0,179.2,177.0,168.3,161.6,179.1,172.8,171.6,165.3,0,norm,1.121,2.08,-1.449,-2.062,-5.169,-4.391,-1.965,-1.42,-1.379,-2.086,1.203,-1.879,166.7,176.4,-4.989,-8.056,158.0,-1.946,8.08,4.326,-4.961,-7.895,22,4.487,4.846,5.049,4.798,1.371,1.501,1.294,1.855,22,5.076,4.304,-20,295.673850786,norm,0,69,69,69,617.745,617.752,617.754757034,617.755,617.76,617.765,up,1,1.63916305902,8.36083694098,001,011,800_600,Intel(R) Core(TM) i7-2670QM CPU @ 2.20GHz,orientation_search,GRVLAPTOP3,Intel(R) HD Graphics Family,2018_jun_07_1337,testMonitor,
180.9,161.5,178.4,164.8,36,-20,157.0,,187.3,157.3,7.71,8.103,7.57,8.358,8.444,7.552,8.269,5.209,-4.929,-8.038,1.866,-1.135,8.405,5.145,-4.82,-7.788,176.9,158.8,-8.042,148.0,162.9,175.2,176.0,174.6,36,179.4,4,5,prime,10,0,79,norm,36,-4.616,down,norm,168.006309325,188.0,180.8,1.737,156.0,1,156.1,166.6,157.7,10,6,7.669,4.775,1.177,-1.207,-5.281,-8.171,154.7,6,247.0,-8.133,-8.339,-20,-8.161,-8.012,-4.792,-4.347,-4.78,-4.677,5.048,8.371,25,-1.275,1.615,4.321,7.745,-8.303,-8.202,-1.766,2.076,169.7,172.9,154.4,184.3,159.2,169.9,156.9,163.3,162.0,156.1,1,norm,1.586,1.633,-1.719,-1.111,-5.053,-4.684,-1.402,-1.541,-2.037,-1.935,1.148,-1.295,161.6,167.3,-5.213,-8.274,171.9,-1.988,8.374,4.573,-5.024,-7.885,22,4.871,4.661,4.547,5.221,1.788,1.865,1.978,1.826,22,4.483,4.374,-20,295.673850786,norm,0,70,70,70,619.415,619.425,619.427018655,619.428,619.431,619.436,down,1,1.87100708704,8.12899291296,001,011,800_600,Intel(R) Core(TM) i7-2670QM CPU @ 2.20GHz,orientation_search,GRVLAPTOP3,Intel(R) HD Graphics Family,2018_jun_07_1337,testMonitor,
150.9,176.5,155.4,182.8,36,-20,188.0,181.9,174.8,151.6,8.115,7.835,8.05,8.143,7.865,7.927,7.83,4.533,-4.903,-7.865,1.551,-1.282,7.819,4.554,-4.405,-7.654,164.6,161.1,-8.03,160.6,164.5,159.6,167.0,153.9,36,154.1,0,5,prime,10,0,119,norm,36,-4.648,up,norm,168.006309325,163.7,172.2,1.191,161.5,4,148.0,176.1,153.8,10,6,7.845,4.735,1.211,-1.225,-5.046,-7.584,172.5,6,287.0,-8.35,-8.254,-20,-8.274,-7.734,-4.548,-4.748,-5.221,-4.773,5.142,8.471,4,-1.236,1.73,5.205,7.702,-7.615,-7.817,-2.011,1.419,169.5,150.2,165.1,174.3,158.8,157.7,161.7,160.2,168.8,,2,norm,1.841,1.797,-1.226,-1.972,-4.992,-4.311,-2.053,-1.493,-1.546,-1.446,1.731,-1.978,167.4,154.8,-5.106,-7.8,175.2,-1.444,7.764,4.645,-5.19,-7.534,22,4.501,4.981,4.821,5.125,1.848,1.631,1.784,1.187,22,4.831,4.999,-20,295.673850786,norm,0,71,71,71,621.318,621.326,621.328069921,621.328,621.332,621.337,up,1,4.9454955445,5.0545044555,001,011,800_600,Intel(R) Core(TM) i7-2670QM CPU @ 2.20GHz,orientation_search,GRVLAPTOP3,Intel(R) HD Graphics Family,2018_jun_07_1337,testMonitor,
159.5,148.0,172.9,155.2,36,-20,177.0,154.5,169.1,167.8,8.321,7.778,8.001,7.561,8.318,8.175,7.524,5.034,-4.323,-7.945,1.411,-1.888,8.491,4.502,-4.925,-7.788,176.3,168.1,-7.595,166.8,164.9,,159.9,167.4,36,167.1,5,5,prime,10,0,87,norm,36,-4.742,up,norm,168.006309325,170.4,161.4,1.426,158.9,3,188.0,153.5,183.6,10,6,8.334,5.233,1.131,-1.848,-4.823,-8.314,155.9,6,255.0,-8.484,-8.237,-20,-7.652,-8.191,-4.549,-5.178,-4.609,-4.379,4.996,8.098,33,-1.416,1.43,4.416,8.386,-7.851,-8.018,-1.513,1.35,168.4,166.1,158.4,170.5,168.6,176.0,168.9,181.9,160.6,148.8,3,norm,1.718,1.917,-1.677,-1.662,-4.603,-4.818,-1.895,-1.903,-1.172,-1.812,1.511,-1.51,162.0,151.6,-4.898,-8.242,180.6,-1.687,8.017,4.994,-5.091,-7.948,22,4.612,5.143,5.263,4.71,1.61,1.32,1.432,1.988,22,4.599,4.606,-20,295.673850786,norm,0,72,72,72,626.294,626.301,626.303468155,626.304,626.308,626.313,up,1,2.73523018539,7.26476981461,001,011,800_600,Intel(R) Core(TM) i7-2670QM CPU @ 2.20GHz,orientation_search,GRVLAPTOP3,Intel(R) HD Graphics Family,2018_jun_07_1337,testMonitor,
168.1,164.0,169.2,148.0,36,-20,171.2,161.6,156.3,167.9,8.393,8.388,8.043,8.37,7.576,7.998,8.427,4.979,-5.004,-7.527,1.166,-1.695,7.643,4.546,-5.12,-8.499,162.0,188.0,-7.589,160.5,177.1,160.9,160.2,166.0,36,166.6,1,5,prime,10,0,105,norm,36,-5.068,down,norm,168.006309325,174.4,169.9,1.385,174.3,2,168.4,169.9,167.1,10,6,7.984,4.937,1.364,-1.645,-5.19,-8.2,164.8,6,273.0,-8.048,-7.895,-20,-8.197,-8.028,-5.032,-4.817,-4.945,-4.994,5.109,7.831,8,-1.495,1.307,5.071,8.388,-8.145,-8.096,-1.8,1.887,170.5,,170.1,179.0,175.2,151.2,164.0,165.4,168.6,162.8,4,norm,1.514,1.661,-1.931,-1.744,-4.327,-4.912,-1.897,-1.825,-1.55,-1.648,1.971,-1.14,167.5,180.5,-5.111,-7.798,176.4,-1.547,8.268,4.538,-5.062,-7.971,22,4.901,4.352,4.825,4.38,1.997,1.648,1.747,1.71,22,4.856,5.064,-20,295.673850786,norm,0,73,73,73,629.059,629.066,629.068622044,629.069,629.073,629.078,down,1,3.23779262606,6.76220737394,001,011,800_600,Intel(R) Core(TM) i7-2670QM CPU @ 2.20GHz,orientation_search,GRVLAPTOP3,Intel(R) HD Graphics Family,2018_jun_07_1337,testMonitor,
170.5,173.0,151.2,175.5,36,-20,156.1,167.0,154.5,179.0,7.961,7.54,7.572,8.432,7.937,8.348,7.938,5.276,-4.728,-8.198,1.362,-1.377,8.172,4.935,-4.622,-8.171,165.0,165.8,-8.46,172.2,148.0,179.8,188.0,160.1,36,160.6,1,5,prime,10,0,119,norm,36,-4.799,down,norm,168.006309325,174.7,165.6,1.48,165.2,0,165.6,152.6,162.2,10,6,8.494,4.775,1.794,-1.924,-4.477,-7.937,175.3,6,287.0,-8.369,-8.438,-20,-8.076,-7.655,-4.576,-4.337,-4.947,-5.029,4.466,7.998,6,-1.221,1.875,5.007,8.486,-7.751,-8.032,-1.771,1.749,154.8,174.9,155.8,175.2,182.7,161.7,160.8,,175.8,164.5,5,norm,2.062,1.992,-1.241,-1.985,-5.102,-4.628,-1.465,-1.527,-1.462,-1.128,2.062,-1.981,176.4,171.5,-5.138,-8.321,152.3,-1.319,8.304,4.715,-5.243,-8.224,22,5.232,4.498,5.289,5.079,1.565,1.394,1.311,1.827,22,4.581,4.825,-20,295.673850786,norm,0,74,74,74,632.327,632.334,632.336947289,632.338,632.341,632.346,up,0,5.60073275296,-10,001,011,800_600,Intel(R) Core(TM) i7-2670QM CPU @ 2.20GHz,orientation_search,GRVLAPTOP3,Intel(R) HD Graphics Family,2018_jun_07_1337,testMonitor,
247.3,241.3,247.3,247.9,36,-40,241.6,257.1,247.2,245.3,7.994,7.519,7.791,8.375,7.763,7.505,8.433,5.151,-4.903,-7.925,1.942,-1.641,7.8,4.453,-4.346,-8.079,249.1,244.6,-7.723,251.3,244.5,243.2,248.6,242.9,36,257.5,1,5,probe,5,0,97,norm,36,-4.592,up,norm,247.916269155,257.9,251.3,1.345,240.9,3,242.8,250.4,247.1,10,6,7.991,4.436,1.683,-2.07,-4.737,-8.096,244.4,2,150.9,-7.888,-8.45,-20,-7.946,-8.139,-4.93,-4.684,-4.995,-5.191,4.535,7.679,9,-1.812,1.18,4.547,7.767,-8.383,-8.394,-1.501,1.662,,250.0,246.3,240.3,237.9,246.8,238.6,247.6,247.8,243.9,0,norm,1.337,1.617,-1.84,-1.43,-4.585,-5.218,-1.151,-1.285,-2.064,-1.408,1.349,-1.439,252.9,250.1,-4.651,-7.56,247.9,-1.41,7.764,4.735,-4.859,-7.767,23,5.066,5.217,4.84,4.927,1.417,1.251,1.861,1.811,23,5.141,4.515,-20,168.006309325,norm,0,75,75,75,638.969,638.976,638.978507252,638.979,638.983,638.988,up,1,3.27971438885,6.72028561115,001,011,800_600,Intel(R) Core(TM) i7-2670QM CPU @ 2.20GHz,orientation_search,GRVLAPTOP3,Intel(R) HD Graphics Family,2018_jun_07_1337,testMonitor,
276.9,270.4,269.8,268.4,36,-40,269.0,269.2,269.4,264.0,7.54,8.383,8.055,8.416,8.476,8.011,7.647,4.805,-4.496,-8.025,1.343,-1.176,8.459,5.288,-4.673,-7.702,263.0,270.4,-8.487,267.4,270.8,273.1,272.5,273.4,36,257.9,0,5,probe,5,0,117,norm,36,-4.815,up,norm,267.916269155,262.7,265.0,1.713,265.1,4,271.3,270.4,264.2,10,6,7.927,4.555,1.302,-1.729,-4.994,-7.939,276.6,2,150.9,-8.373,-7.766,-20,-7.56,-8.276,-4.609,-4.821,-4.582,-4.403,4.775,8.411,4,-1.724,1.373,4.829,8.072,-8.267,-7.996,-1.601,1.656,277.3,273.6,275.4,265.8,267.0,265.1,274.3,263.4,271.5,,1,norm,1.746,1.154,-1.395,-1.256,-4.637,-4.932,-1.277,-1.659,-1.258,-1.658,2.03,-1.168,271.2,277.9,-5.195,-8.41,261.5,-1.494,7.56,5.023,-4.321,-7.889,23,4.475,4.773,5.059,4.745,1.232,1.439,1.376,1.123,23,4.715,5.197,-20,168.006309325,norm,0,76,76,76,642.279,642.286,642.288443731,642.289,642.293,642.298,up,1,4.16520002447,5.83479997553,001,011,800_600,Intel(R) Core(TM) i7-2670QM CPU @ 2.20GHz,orientation_search,GRVLAPTOP3,Intel(R) HD Graphics Family,2018_jun_07_1337,testMonitor,
140.4,121.2,109.6,123.9,36,-60,100.4,131.2,117.4,119.3,8.471,8.17,8.097,8.377,7.908,7.714,7.808,4.396,-5.084,-8.495,1.94,-1.987,8.023,5.185,-5.16,-7.952,123.9,118.4,-8.02,121.8,126.3,125.8,120.8,123.3,36,128.0,1,5,prime,10,0,102,norm,36,-5.145,down,norm,120.378365666,123.5,122.5,1.515,116.2,1,119.6,117.6,139.4,10,5,7.941,5.1,1.637,-1.213,-5.181,-7.687,115.3,5,222.4,-7.876,-7.623,-60,-8.099,-7.559,-4.748,-5.207,-4.818,-4.791,4.675,7.821,7,-1.183,1.588,5.185,7.71,-7.743,-7.768,-1.504,2.001,122.3,134.0,113.7,104.1,107.2,122.4,,137.4,117.4,120.7,0,norm,1.651,1.596,-1.391,-1.462,-4.693,-4.809,-1.339,-1.503,-1.871,-1.391,1.823,-1.313,117.9,131.2,-4.706,-7.618,121.7,-1.6,7.876,4.778,-5.189,-8.327,24,4.416,4.383,4.832,5.233,1.482,1.64,1.732,1.258,24,4.653,5.019,-40,168.006309325,norm,0,77,77,77,646.474,646.483,646.48486514,646.485,646.489,646.494,down,1,2.49402922139,7.50597077861,001,011,800_600,Intel(R) Core(TM) i7-2670QM CPU @ 2.20GHz,orientation_search,GRVLAPTOP3,Intel(R) HD Graphics Family,2018_jun_07_1337,testMonitor,
131.0,108.7,115.5,100.4,36,-60,124.0,122.8,121.0,135.1,7.959,8.036,7.616,8.12,8.066,7.964,8.086,5.273,-4.452,-8.157,2.019,-1.819,7.584,5.017,-5.289,-8.261,108.0,124.4,-8.226,116.2,115.2,111.9,135.9,127.0,36,118.9,1,5,prime,10,0,102,norm,36,-4.995,down,norm,120.378365666,125.9,122.1,1.585,109.7,1,116.8,110.8,124.5,10,5,8.35,4.625,2.058,-1.205,-4.572,-8.149,110.0,5,222.4,-7.803,-8.058,-60,-8.134,-8.335,-4.731,-4.464,-4.735,-5.031,5.133,7.843,7,-1.939,1.618,4.335,8.387,-7.846,-8.5,-1.212,1.732,118.7,130.6,115.0,122.4,116.6,102.2,,111.7,121.6,113.5,1,norm,1.169,1.204,-2.09,-1.107,-4.464,-4.825,-1.756,-1.438,-1.517,-1.914,1.667,-1.922,129.5,140.4,-4.493,-7.813,103.3,-1.141,7.587,4.819,-4.919,-8.048,24,4.828,4.913,4.789,4.984,1.947,1.5,1.158,1.38,24,5.19,5.29,-40,168.006309325,norm,0,78,78,78,648.999,649.006,649.008638752,649.009,649.013,649.018,down,1,1.36699893953,8.63300106047,001,011,800_600,Intel(R) Core(TM) i7-2670QM CPU @ 2.20GHz,orientation_search,GRVLAPTOP3,Intel(R) HD Graphics Family,2018_jun_07_1337,testMonitor,
105.4,112.6,125.6,100.4,36,-60,100.4,111.6,101.9,121.9,8.204,8.288,7.909,7.631,8.463,8.319,8.077,4.629,-4.333,-7.576,1.265,-1.325,8.068,4.796,-5.258,-8.151,114.1,124.1,-7.599,116.0,105.2,,139.9,112.6,36,126.8,5,5,prime,10,0,67,norm,36,-4.794,up,norm,120.378365666,112.4,116.3,1.264,119.4,3,113.2,134.7,121.0,10,5,8.305,4.835,1.786,-1.167,-4.91,-8.402,116.4,5,187.4,-8.047,-8.105,-60,-7.891,-7.671,-4.677,-5.112,-5.175,-5.151,5.169,7.77,33,-2.079,1.586,4.562,7.904,-8.411,-7.712,-1.757,1.398,128.3,121.9,140.4,129.0,120.7,100.7,108.8,122.1,119.9,120.1,2,norm,1.512,1.191,-1.671,-1.591,-4.319,-4.496,-1.495,-1.764,-1.249,-2.056,1.547,-1.89,106.8,123.6,-4.394,-8.098,112.8,-1.6,8.413,5.04,-5.159,-8.281,24,4.353,4.396,5.06,5.125,1.664,2.056,1.289,1.647,24,4.454,4.444,-40,168.006309325,norm,0,79,79,79,650.396,650.404,650.406620459,650.407,650.411,650.416,down,0,3.91507032645,-10,001,011,800_600,Intel(R) Core(TM) i7-2670QM CPU @ 2.20GHz,orientation_search,GRVLAPTOP3,Intel(R) HD Graphics Family,2018_jun_07_1337,testMonitor,
125.2,133.8,140.4,104.6,36,-60,136.5,119.5,107.2,113.8,8.226,7.548,7.786,8.268,8.435,7.647,7.769,4.909,-4.919,-8.102,1.794,-1.811,7.851,4.769,-5.266,-8.257,131.9,122.2,-7.728,124.6,133.0,130.1,111.3,114.3,36,113.2,2,5,prime,10,0,76,norm,36,-4.864,down,norm,120.378365666,108.3,105.0,1.458,,2,117.9,117.2,122.1,10,5,7.835,4.558,2.01,-1.265,-5.115,-8.427,111.3,5,196.4,-7.529,-7.747,-60,-8.353,-8.064,-4.826,-5.041,-5.054,-5.137,4.705,7.528,14,-1.773,1.307,5.099,8.15,-7.906,-8.402,-1.28,1.849,128.5,127.3,102.3,119.6,117.9,118.9,100.4,127.2,114.4,140.3,3,norm,1.359,1.614,-1.359,-1.903,-5.193,-4.65,-1.67,-2.076,-1.33,-1.115,1.764,-1.127,116.8,109.8,-4.769,-8.49,112.8,-1.39,8.276,4.811,-4.548,-7.522,24,4.619,4.892,4.966,4.933,1.156,1.784,1.516,1.712,24,5.279,4.958,-40,168.006309325,norm,0,80,80,80,655.349,655.356,655.358461051,655.359,655.363,655.368,down,1,3.18121953964,6.81878046036,001,011,800_600,Intel(R) Core(TM) i7-2670QM CPU @ 2.20GHz,orientation_search,GRVLAPTOP3,Intel(R) HD Graphics Family,2018_jun_07_1337,testMonitor,
132.0,116.8,119.2,125.4,36,-60,114.1,124.6,121.1,121.9,7.737,8.26,8.197,7.797,7.889,7.903,8.279,5.154,-4.652,-8.212,1.386,-1.846,7.793,5.294,-5.103,-7.69,116.0,128.5,-7.752,100.4,119.7,115.5,,116.4,36,140.4,5,5,prime,10,0,84,norm,36,-4.846,down,norm,120.378365666,126.6,123.3,1.467,126.0,2,125.5,126.0,117.7,10,5,8.076,5.119,1.429,-2.021,-5.152,-7.967,122.0,5,204.4,-7.546,-7.542,-60,-8.348,-7.619,-4.412,-4.31,-4.546,-5.011,4.652,8.389,32,-1.429,1.916,4.757,7.66,-8.359,-8.314,-1.727,2.001,112.6,121.5,118.3,128.8,101.6,106.7,123.1,101.8,132.1,123.5,4,norm,1.659,1.986,-1.511,-1.133,-4.657,-5.148,-1.356,-2.018,-1.698,-1.488,1.237,-2.078,116.7,119.5,-4.595,-7.81,114.5,-1.122,7.689,4.967,-5.274,-8.327,24,4.796,4.399,4.599,4.997,1.63,1.448,1.924,1.274,24,4.849,5.031,-40,168.006309325,norm,0,81,81,81,658.56,658.567,658.569804152,658.57,658.574,658.58,down,1,2.563006155,7.436993845,001,011,800_600,Intel(R) Core(TM) i7-2670QM CPU @ 2.20GHz,orientation_search,GRVLAPTOP3,Intel(R) HD Graphics Family,2018_jun_07_1337,testMonitor,
159.2,168.9,168.8,174.8,36,-60,175.6,172.9,167.9,165.0,8.489,7.951,8.313,8.36,7.929,7.777,7.817,5.16,-5.226,-7.715,1.777,-1.325,8.465,4.999,-4.654,-7.976,175.2,160.5,-7.682,169.5,160.5,166.4,172.4,,36,168.9,4,5,probe,5,0,99,norm,36,-4.311,down,norm,169.168495881,167.5,172.6,1.9,173.1,2,162.6,165.8,167.1,10,5,8.472,5.257,2.018,-2.034,-4.747,-7.994,179.2,1,70.2,-7.545,-8.077,-60,-7.86,-8.356,-5.13,-5.245,-4.375,-4.479,4.925,7.922,26,-1.429,1.467,4.817,8.329,-7.897,-7.741,-1.862,1.829,172.3,168.7,174.1,175.2,159.4,159.7,178.6,171.6,170.9,164.9,0,norm,1.239,1.745,-1.309,-1.101,-5.237,-4.462,-1.966,-2.06,-1.942,-1.359,1.579,-1.93,176.3,166.0,-4.347,-8.313,168.1,-2.025,7.725,4.959,-4.644,-8.379,25,4.542,4.377,5.118,4.34,1.88,1.585,1.519,1.655,25,4.8,5.063,-60,120.378365666,norm,0,82,82,82,661.154,661.162,661.164863347,661.166,661.169,661.174,down,1,4.92071586771,5.07928413229,001,011,800_600,Intel(R) Core(TM) i7-2670QM CPU @ 2.20GHz,orientation_search,GRVLAPTOP3,Intel(R) HD Graphics Family,2018_jun_07_1337,testMonitor,
52.1,40.6,46.2,64.6,36,-40,44.8,65.2,,53.6,8.272,8.174,7.96,8.44,8.464,7.666,7.611,4.728,-5.106,-7.865,1.806,-1.75,7.602,4.655,-5.245,-7.664,52.6,37.5,-7.788,51.1,52.9,66.6,60.5,69.5,36,29.5,4,5,prime,10,0,111,norm,36,-5.129,up,norm,49.4517926092,55.9,51.5,1.867,56.0,4,61.4,67.8,45.0,10,2,8.011,4.937,2.069,-1.448,-5.252,-8.392,31.0,2,160.5,-7.966,-8.019,-40,-7.658,-7.889,-4.544,-4.703,-5.167,-4.767,5.084,7.867,28,-2.087,1.864,4.446,7.565,-8.415,-7.799,-1.505,2.087,47.4,61.7,65.8,35.5,59.4,41.8,55.3,57.6,56.4,40.2,0,norm,1.444,1.736,-1.763,-1.178,-4.377,-4.418,-1.488,-1.691,-1.471,-1.342,1.624,-1.423,45.3,55.7,-4.326,-7.561,44.6,-1.367,8.229,4.654,-4.672,-7.882,26,4.58,4.437,5.02,4.961,1.552,1.255,1.512,1.78,26,4.662,4.745,-60,120.378365666,norm,0,83,83,83,666.106,666.114,666.116270132,666.117,666.121,666.126,up,1,2.35107328324,7.64892671676,001,011,800_600,Intel(R) Core(TM) i7-2670QM CPU @ 2.20GHz,orientation_search,GRVLAPTOP3,Intel(R) HD Graphics Family,2018_jun_07_1337,testMonitor,
46.9,39.5,50.4,52.9,36,-40,52.5,46.1,32.5,53.4,8.116,7.725,7.976,8.458,8.499,7.903,8.474,5.183,-5.132,-7.852,1.102,-1.221,8.382,4.755,-5.266,-7.875,60.8,47.4,-8.306,57.3,47.0,46.2,39.4,,36,60.0,4,5,prime,10,0,96,norm,36,-4.959,down,norm,49.4517926092,58.5,49.8,2.076,51.8,2,51.3,57.7,69.5,10,2,8.119,4.889,1.566,-2.005,-4.421,-8.49,41.0,2,145.5,-8.111,-7.886,-40,-8.135,-7.753,-4.346,-4.4,-4.652,-4.745,4.984,8.01,26,-1.453,1.878,5.262,8.265,-7.527,-7.989,-1.667,1.901,29.5,60.4,63.7,44.9,65.1,35.9,58.9,51.1,50.0,45.0,1,norm,1.929,1.881,-1.596,-1.686,-5.139,-4.645,-1.537,-1.108,-1.728,-1.818,1.135,-1.602,38.9,44.2,-5.006,-8.095,59.7,-1.461,8.222,4.398,-4.73,-7.842,26,4.538,4.929,4.663,4.385,1.63,2.013,1.732,1.303,26,4.748,5.106,-60,120.378365666,norm,0,84,84,84,668.488,668.495,668.497245172,668.498,668.502,668.507,down,1,2.3708817084,7.6291182916,001,011,800_600,Intel(R) Core(TM) i7-2670QM CPU @ 2.20GHz,orientation_search,GRVLAPTOP3,Intel(R) HD Graphics Family,2018_jun_07_1337,testMonitor,
104.4,101.1,102.5,107.1,36,30,104.8,113.3,,106.9,8.042,7.871,8.062,7.813,8.092,8.03,7.66,4.446,-4.977,-8.262,1.163,-1.876,8.195,4.393,-5.136,-8.151,107.3,100.2,-7.901,106.2,101.6,98.3,108.4,106.4,36,104.7,4,5,probe,5,0,103,norm,36,-4.532,up,norm,105.590349656,105.1,106.9,1.245,115.6,4,106.8,95.6,105.3,10,2,7.995,5.173,1.547,-1.237,-4.477,-7.895,106.2,2,2.6,-8.352,-8.078,-40,-7.917,-7.844,-4.963,-5.154,-5.167,-4.801,4.978,8.393,28,-1.564,1.13,4.759,7.977,-8.369,-7.81,-1.465,1.496,105.3,104.6,103.5,109.4,113.2,109.7,100.0,113.4,107.7,99.9,0,norm,1.512,1.342,-1.134,-2.001,-5.112,-4.68,-1.135,-1.865,-1.698,-1.494,1.132,-1.98,100.7,107.5,-5.249,-8.32,103.9,-1.393,8.101,5.122,-4.603,-7.733,27,4.758,4.317,4.954,4.542,1.284,1.686,1.928,1.356,27,4.417,4.793,-40,49.4517926092,norm,0,85,85,85,670.888,670.896,670.898382592,670.899,670.903,670.908,up,1,2.23129068093,7.76870931907,001,011,800_600,Intel(R) Core(TM) i7-2670QM CPU @ 2.20GHz,orientation_search,GRVLAPTOP3,Intel(R) HD Graphics Family,2018_jun_07_1337,testMonitor,
126.4,114.5,120.9,119.3,36,30,113.8,122.4,126.0,116.5,7.731,7.855,8.374,8.179,8.257,7.897,8.412,4.315,-5.296,-7.732,1.831,-1.289,8.191,5.234,-5.152,-8.039,120.4,126.1,-8.373,116.1,119.2,121.6,120.2,119.6,36,129.5,0,5,probe,5,0,117,norm,36,-4.572,down,norm,119.590349656,115.1,116.9,2.053,121.2,2,117.6,115.4,115.4,10,2,7.819,4.678,1.907,-1.723,-4.42,-7.94,120.0,2,2.6,-7.815,-7.657,-40,-8.199,-7.616,-5.045,-4.92,-4.648,-4.515,5.148,7.968,2,-1.643,1.934,4.676,8.333,-8.315,-7.653,-2.066,1.702,112.9,109.6,128.7,,112.4,129.6,121.7,118.4,114.8,113.4,1,norm,1.816,1.429,-1.833,-1.46,-4.628,-4.621,-1.999,-1.14,-1.417,-1.137,1.564,-2.027,117.3,116.5,-4.309,-7.521,118.2,-1.752,8.4,4.739,-4.571,-7.619,27,4.424,4.787,5.169,4.374,1.269,1.178,1.431,1.836,27,4.313,4.794,-40,49.4517926092,norm,0,86,86,86,673.15,673.157,673.159633399,673.16,673.164,673.169,down,1,3.29738694091,6.70261305909,001,011,800_600,Intel(R) Core(TM) i7-2670QM CPU @ 2.20GHz,orientation_search,GRVLAPTOP3,Intel(R) HD Graphics Family,2018_jun_07_1337,testMonitor,
136.9,141.3,133.7,141.6,36,60,168.3,169.8,154.3,152.4,8.129,8.354,7.701,7.644,8.462,8.007,8.126,5.281,-4.606,-8.119,2.087,-1.918,7.7,4.706,-4.972,-7.928,162.2,164.9,-8.056,155.0,160.7,150.8,140.5,161.3,36,151.0,1,5,prime,10,0,110,norm,36,-4.337,down,norm,153.685536319,144.2,172.5,2.061,152.3,2,159.2,143.1,157.2,10,3,7.925,5.148,1.177,-1.39,-4.363,-7.769,156.8,3,263.7,-8.135,-8.437,60,-7.566,-8.176,-4.749,-4.967,-4.817,-4.36,5.144,8.327,8,-1.558,1.497,5.24,8.242,-7.621,-7.945,-1.12,1.737,164.2,,155.4,154.6,152.2,163.0,155.4,150.8,163.6,173.7,0,norm,1.313,1.218,-1.75,-1.265,-4.679,-4.723,-1.288,-1.801,-1.845,-1.489,1.941,-1.895,147.8,135.7,-4.76,-7.837,153.4,-1.328,8.126,4.771,-5.276,-7.904,28,4.671,4.432,4.43,5.086,1.35,1.764,1.1,1.782,28,4.72,4.996,30,49.4517926092,norm,0,87,87,87,676.479,676.486,676.488633504,676.489,676.493,676.498,down,1,3.1820563312,6.8179436688,001,011,800_600,Intel(R) Core(TM) i7-2670QM CPU @ 2.20GHz,orientation_search,GRVLAPTOP3,Intel(R) HD Graphics Family,2018_jun_07_1337,testMonitor,
163.8,144.4,153.7,154.9,36,60,149.3,145.2,158.8,159.3,8.112,8.132,8.156,8.451,8.032,8.398,7.632,4.479,-4.33,-7.521,2.058,-1.694,7.979,5.22,-4.638,-8.337,156.3,163.2,-8.03,173.7,146.5,161.8,136.5,158.5,36,157.4,0,5,prime,10,0,110,norm,36,-4.407,up,norm,153.685536319,155.4,151.0,1.655,167.1,4,147.8,170.9,164.4,10,3,7.853,5.298,1.603,-1.243,-4.587,-8.258,159.2,3,263.7,-7.737,-8.403,60,-8.4,-7.756,-5.091,-4.956,-4.399,-5.136,5.155,8.065,4,-1.924,1.778,4.634,8.005,-7.671,-8.184,-1.892,1.576,144.5,161.1,159.2,139.8,163.0,167.7,140.9,158.7,133.7,,1,norm,1.125,1.235,-1.423,-1.579,-5.045,-4.349,-1.753,-1.135,-1.786,-1.385,1.517,-1.623,162.9,173.1,-4.904,-7.615,147.4,-1.473,8.49,4.644,-4.963,-7.608,28,4.559,5.102,4.774,5.224,1.842,1.139,1.457,1.247,28,4.603,5.025,30,49.4517926092,norm,0,88,88,88,679.691,679.698,679.700718137,679.701,679.705,679.71,up,1,4.29358308822,5.70641691178,001,011,800_600,Intel(R) Core(TM) i7-2670QM CPU @ 2.20GHz,orientation_search,GRVLAPTOP3,Intel(R) HD Graphics Family,2018_jun_07_1337,testMonitor,
151.9,151.1,144.9,152.7,36,60,157.6,139.4,149.9,162.1,8.282,7.596,8.319,8.329,8.454,7.56,7.928,4.393,-4.653,-8.385,1.573,-1.21,7.518,4.891,-4.482,-8.091,153.8,133.7,-8.424,173.7,159.7,144.7,156.8,146.1,36,161.7,1,5,prime,10,0,74,norm,36,-4.477,down,norm,153.685536319,151.8,160.5,1.885,163.8,1,162.3,148.9,152.3,10,3,8.201,4.527,1.526,-1.33,-5.274,-7.783,156.2,3,227.7,-7.575,-7.849,60,-7.887,-7.741,-4.888,-4.645,-5.119,-5.259,5.231,7.924,7,-1.941,2.038,4.45,8.008,-7.508,-8.326,-1.859,1.524,169.7,158.8,148.1,159.8,155.2,160.9,,166.1,158.1,153.3,2,norm,1.569,1.826,-1.701,-1.39,-5.029,-4.89,-1.961,-2.012,-1.772,-1.684,1.391,-1.788,142.9,145.1,-4.313,-7.823,166.5,-1.111,8.102,4.385,-4.507,-7.543,28,5.105,5.077,5.003,4.904,1.775,1.364,1.756,1.848,28,4.482,5.075,30,49.4517926092,norm,0,89,89,89,684.016,684.024,684.025945675,684.026,684.03,684.035,down,1,1.91742240182,8.08257759818,001,011,800_600,Intel(R) Core(TM) i7-2670QM CPU @ 2.20GHz,orientation_search,GRVLAPTOP3,Intel(R) HD Graphics Family,2018_jun_07_1337,testMonitor,
310.8,311.4,318.1,306.1,36,10,311.8,310.5,299.8,310.6,7.908,7.762,8.38,8.406,8.092,7.728,8.289,4.948,-5.007,-7.825,1.235,-1.415,7.612,4.994,-4.702,-8.497,307.1,298.1,-8.304,306.6,304.6,309.5,,312.8,36,300.1,5,5,probe,5,0,90,norm,36,-4.587,down,norm,308.101560844,299.9,304.7,1.441,314.1,2,309.7,308.8,303.9,10,3,7.566,4.753,2.072,-1.766,-4.555,-7.945,309.5,2,218.1,-7.595,-7.793,60,-8.129,-7.784,-4.434,-5.047,-4.986,-4.557,4.457,8.297,32,-1.978,1.152,5.002,8.323,-8.015,-8.348,-1.346,1.229,309.8,311.5,307.3,316.2,301.5,303.1,306.8,310.7,307.2,312.6,0,norm,1.588,1.52,-1.978,-1.169,-4.402,-4.875,-1.678,-1.831,-1.713,-1.828,1.152,-1.648,310.3,309.4,-4.873,-8.226,308.5,-1.894,7.782,4.964,-4.454,-8.331,29,4.332,4.854,4.94,4.67,1.789,1.623,1.164,1.941,29,4.61,5.298,60,153.685536319,norm,0,90,90,90,685.964,685.971,685.973948792,685.975,685.978,685.984,up,0,2.55840333447,-10,001,011,800_600,Intel(R) Core(TM) i7-2670QM CPU @ 2.20GHz,orientation_search,GRVLAPTOP3,Intel(R) HD Graphics Family,2018_jun_07_1337,testMonitor,
300.3,306.3,305.9,300.3,36,10,304.2,296.9,303.4,296.5,7.632,7.515,8.307,8.219,7.94,8.206,7.877,4.408,-5.275,-8.419,1.584,-1.963,8.076,5.032,-4.771,-8.25,303.0,295.8,-8.308,290.6,301.5,291.8,293.2,306.9,36,294.5,2,5,probe,5,0,81,norm,36,-5.27,down,norm,299.101560844,303.7,301.6,1.9,289.1,0,302.2,305.9,,10,3,8.129,4.728,1.465,-1.104,-4.947,-8.153,308.5,2,218.1,-8.152,-7.904,60,-7.9,-8.128,-4.788,-4.419,-4.974,-4.453,4.982,7.808,12,-1.301,1.172,4.994,7.564,-7.89,-7.604,-1.584,1.909,296.2,295.4,291.3,304.2,299.3,304.0,301.7,296.7,304.5,292.1,1,norm,1.633,1.615,-1.714,-1.992,-4.961,-4.529,-1.701,-1.724,-1.17,-1.543,1.115,-1.558,303.9,297.0,-4.563,-7.821,309.1,-1.197,8.402,4.349,-5.235,-7.79,29,4.497,4.362,4.343,4.325,1.856,1.145,1.937,1.932,29,5.27,5.24,60,153.685536319,norm,0,91,91,91,689.559,689.567,689.569043475,689.57,689.574,689.578,down,1,1.19758647274,8.80241352726,001,011,800_600,Intel(R) Core(TM) i7-2670QM CPU @ 2.20GHz,orientation_search,GRVLAPTOP3,Intel(R) HD Graphics Family,2018_jun_07_1337,testMonitor,
45.3,65.3,51.7,39.8,36,-60,38.3,45.0,47.1,37.4,7.809,7.589,8.354,7.784,7.68,7.562,8.164,4.602,-5.164,-8.032,1.646,-1.189,8.032,5.039,-4.727,-7.685,33.0,,-7.591,34.4,36.6,31.3,35.7,47.6,36,51.6,5,5,prime,10,0,63,norm,36,-4.505,up,norm,45.3320875237,54.4,47.2,1.879,42.3,4,41.2,40.7,38.9,10,3,7.581,4.37,1.572,-1.194,-4.521,-8.247,62.5,3,108.3,-8.443,-7.829,-60,-8.081,-8.451,-4.988,-4.941,-4.833,-5.111,5.172,7.683,34,-1.828,1.958,5.088,7.731,-7.913,-7.657,-1.62,1.242,36.9,45.9,29.8,46.8,48.3,34.9,59.2,35.6,48.4,25.3,0,norm,1.935,1.768,-1.31,-1.257,-4.907,-4.649,-1.681,-1.819,-1.906,-1.186,1.754,-1.627,49.4,45.9,-4.402,-7.508,46.0,-1.791,8.148,4.332,-4.975,-8.059,30,4.891,5.226,4.435,4.832,1.215,1.502,1.671,1.93,30,4.718,5.269,10,153.685536319,norm,0,92,92,92,690.788,690.796,690.798184274,690.799,690.803,690.807,up,1,3.55074239568,6.44925760432,001,011,800_600,Intel(R) Core(TM) i7-2670QM CPU @ 2.20GHz,orientation_search,GRVLAPTOP3,Intel(R) HD Graphics Family,2018_jun_07_1337,testMonitor,
25.9,40.3,47.5,48.9,36,-60,49.9,45.1,,55.6,7.834,8.204,8.36,8.457,8.248,8.298,8.269,4.85,-5.258,-7.851,1.115,-1.342,7.699,4.516,-5.069,-7.865,30.9,33.5,-8.185,41.5,47.6,43.8,58.6,44.8,36,47.4,4,5,prime,10,0,91,norm,36,-4.887,up,norm,45.3320875237,43.4,55.5,1.456,49.2,4,47.4,46.9,49.3,10,3,8.456,5.156,1.948,-1.772,-4.539,-7.843,36.3,3,136.3,-8.07,-7.854,-60,-8.206,-8.189,-5.011,-5.075,-5.237,-4.99,4.321,8.179,28,-1.314,1.694,4.356,8.415,-7.605,-7.717,-1.933,1.647,55.4,52.2,45.0,65.3,39.8,61.6,33.7,57.8,27.2,49.1,1,norm,1.612,2.04,-1.318,-1.981,-5.297,-4.402,-1.377,-1.562,-1.16,-1.18,1.989,-1.488,48.3,43.2,-4.782,-7.986,52.7,-1.351,8.133,4.518,-4.62,-7.943,30,5.042,4.674,4.671,4.613,1.944,1.787,2.094,1.32,30,5.106,4.375,10,153.685536319,norm,0,93,93,93,694.369,694.377,694.3788924,694.379,694.383,694.388,up,1,3.29727627149,6.70272372851,001,011,800_600,Intel(R) Core(TM) i7-2670QM CPU @ 2.20GHz,orientation_search,GRVLAPTOP3,Intel(R) HD Graphics Family,2018_jun_07_1337,testMonitor,
25.3,42.5,53.0,43.3,36,-60,43.0,25.7,45.1,29.7,7.709,7.702,8.465,8.153,8.04,7.924,8.039,4.53,-5.077,-8.231,2.048,-1.357,7.558,4.677,-5.024,-7.677,33.8,49.4,-8.288,49.9,51.6,44.0,54.0,54.6,36,51.3,0,5,prime,10,0,63,norm,36,-4.872,down,norm,45.3320875237,42.6,36.8,1.384,37.9,1,48.6,53.5,43.9,10,3,7.751,4.363,1.341,-1.312,-5.063,-7.725,37.0,3,108.3,-7.768,-8.483,-60,-8.367,-8.271,-4.504,-5.06,-4.727,-4.443,5.218,7.795,1,-1.218,2.037,4.431,8.464,-8.058,-8.23,-1.958,1.951,47.4,61.0,40.2,53.8,,65.3,53.9,44.1,44.9,50.4,2,norm,1.929,2.009,-1.234,-1.411,-4.405,-4.778,-1.991,-1.333,-1.971,-1.818,1.934,-1.723,31.9,61.8,-5.236,-8.198,48.2,-2.081,7.974,4.706,-4.903,-8.267,30,4.47,4.404,5.01,4.899,2.057,1.471,1.397,1.267,30,4.96,5.054,10,153.685536319,norm,0,94,94,94,697.697,697.705,697.707918187,697.709,697.712,697.717,down,1,1.65265212025,8.34734787975,001,011,800_600,Intel(R) Core(TM) i7-2670QM CPU @ 2.20GHz,orientation_search,GRVLAPTOP3,Intel(R) HD Graphics Family,2018_jun_07_1337,testMonitor,
65.7,59.2,56.3,60.6,36,80,60.2,60.6,62.8,57.0,8.009,8.005,7.575,7.965,8.18,7.921,8.341,4.547,-5.176,-8.063,1.965,-1.984,7.603,4.508,-5.06,-8.214,65.0,53.3,-8.398,55.0,59.0,53.6,49.4,54.7,36,55.0,1,5,probe,5,0,66,norm,36,-4.417,up,norm,58.8756466859,68.0,61.0,1.977,48.9,5,,55.3,59.3,10,3,8.197,4.717,1.19,-1.12,-4.877,-7.691,51.1,1,-7.1,-8.121,-8.136,-60,-8.028,-8.181,-4.426,-4.367,-4.852,-4.898,4.391,7.813,11,-1.297,1.767,5.034,7.826,-8.231,-8.261,-2.091,2.007,68.9,63.6,58.5,62.4,59.7,58.6,68.1,51.1,63.5,53.0,0,norm,1.216,1.168,-1.655,-1.146,-4.982,-4.856,-1.584,-2.066,-2.051,-1.956,1.957,-1.49,57.6,63.7,-4.696,-7.795,53.9,-1.819,7.67,4.517,-4.346,-7.714,31,5.291,4.697,4.505,4.432,1.141,1.703,2.096,1.473,31,4.553,4.414,-60,45.3320875237,norm,0,95,95,95,699.382,699.389,699.391897691,699.392,699.396,699.401,up,1,1.10890758076,8.89109241924,001,011,800_600,Intel(R) Core(TM) i7-2670QM CPU @ 2.20GHz,orientation_search,GRVLAPTOP3,Intel(R) HD Graphics Family,2018_jun_07_1337,testMonitor,
