d_ori_22,d_ori_23,d_ori_20,d_ori_21,set_size,ctpd,d_ori_24,d_ori_25,d_ori_28,d_ori_29,stim_pos_x_30,stim_pos_x_31,stim_pos_x_32,stim_pos_x_33,stim_pos_x_34,stim_pos_x_35,stim_pos_y_11,stim_pos_y_10,stim_pos_y_13,stim_pos_y_12,stim_pos_y_15,stim_pos_y_14,stim_pos_y_17,stim_pos_y_16,stim_pos_y_19,stim_pos_y_18,d_ori_35,d_ori_34,stim_pos_x_3,d_ori_31,d_ori_30,d_ori_33,d_ori_32,d_ori_26,test_set_size,d_ori_27,targetCol,dsd_test,seq_type,dsd,blockRepN,targetDist,dtype_test,prime_set_size,stim_pos_y_25,correctResponse,dtype,distrMean,d_ori_17,d_ori_16,stim_pos_y_3,d_ori_14,targetRow,d_ori_11,d_ori_13,d_ori_12,dsd_prime,streak_length_prime,stim_pos_y_35,stim_pos_y_34,stim_pos_y_33,stim_pos_y_32,stim_pos_y_31,stim_pos_y_30,d_ori_10,nextProbe,targetOri,stim_pos_x_1,stim_pos_x_2,ctpd_prime,stim_pos_x_4,stim_pos_x_5,stim_pos_x_6,stim_pos_x_7,stim_pos_x_8,stim_pos_x_9,stim_pos_y_28,stim_pos_y_29,targetPos,stim_pos_y_20,stim_pos_y_21,stim_pos_y_22,stim_pos_y_23,stim_pos_y_24,stim_pos_x_0,stim_pos_y_26,stim_pos_y_27,d_ori_9,d_ori_8,d_ori_3,d_ori_2,d_ori_1,d_ori_0,d_ori_7,d_ori_6,d_ori_5,d_ori_4,trialN,dtype_prime,stim_pos_x_18,stim_pos_x_19,stim_pos_x_12,stim_pos_x_13,stim_pos_x_10,stim_pos_x_11,stim_pos_x_16,stim_pos_x_17,stim_pos_x_14,stim_pos_x_15,stim_pos_y_9,stim_pos_y_8,d_ori_19,d_ori_18,stim_pos_y_1,stim_pos_y_0,d_ori_15,stim_pos_y_2,stim_pos_y_5,stim_pos_y_4,stim_pos_y_7,stim_pos_y_6,totBlockN,stim_pos_x_27,stim_pos_x_26,stim_pos_x_25,stim_pos_x_24,stim_pos_x_23,stim_pos_x_22,stim_pos_x_21,stim_pos_x_20,blockN,stim_pos_x_29,stim_pos_x_28,prevDistrCTPD,prevDistrMean,prevDistrType,trials.thisRepN,trials.thisTrialN,trials.thisN,trials.thisIndex,timeStart,timeBeforeDraw,timeDraw,timeAfterSaving,timeAfterWritingToTemp,timeAfterPreparingNext,answer,correct,rt,trialScore,session,participant,resolution,cpu_info,expName,pc_name,graphic_card,date,monitorName,
187.0,179.9,204.9,214.1,36,80,209.3,187.7,184.1,195.0,7.878,7.962,8.358,8.109,8.395,8.341,8.034,4.875,-5.182,-7.9,1.544,-1.364,8.329,4.96,-5.274,-7.931,216.4,188.3,-8.39,199.3,192.1,184.0,204.1,214.3,36,202.0,0,5,prime,10,0,99,norm,36,-4.711,up,norm,196.357468091,191.3,187.2,1.783,178.3,4,191.4,176.4,186.9,10,3,8.032,5.297,1.504,-1.267,-4.971,-8.117,196.1,3,295.4,-7.909,-7.774,80,-7.556,-8.119,-5.178,-4.748,-4.917,-4.531,4.589,7.923,4,-1.709,1.418,4.784,8.427,-8.406,-7.762,-1.173,1.569,193.2,186.6,196.8,185.4,198.2,204.3,209.3,199.3,182.3,,0,norm,1.955,1.378,-1.535,-1.247,-4.959,-4.344,-1.967,-1.687,-1.959,-1.81,1.703,-1.644,196.0,202.9,-4.691,-8.089,197.1,-1.603,7.865,4.873,-4.374,-8.263,0,4.7,5.061,4.351,5.082,1.41,1.286,1.309,1.34,0,4.504,4.538,,,,0,0,0,0,304.636,304.648,304.655509446,304.656,304.656,304.66,up,1,1.02729752283,8.97270247717,001,004,800_600,Intel(R) Core(TM) i7-2670QM CPU @ 2.20GHz,orientation_search,GRVLAPTOP3,Intel(R) HD Graphics Family,2018_jun_07_0917,testMonitor,
201.4,182.2,189.9,188.4,36,80,,205.5,211.6,189.8,8.188,7.651,7.751,8.135,7.513,7.524,8.119,4.516,-4.698,-8.324,1.85,-1.894,8.408,4.794,-4.917,-7.762,196.6,191.1,-7.655,215.0,192.5,189.7,203.6,194.0,36,211.0,4,5,prime,10,0,107,norm,36,-5.272,down,norm,196.357468091,214.4,189.3,1.904,189.0,0,205.8,201.6,176.4,10,3,8.222,4.34,1.918,-1.769,-4.752,-7.525,194.9,3,303.4,-8.452,-8.181,80,-7.566,-7.839,-4.828,-4.411,-4.732,-4.907,4.396,7.704,24,-1.359,1.206,4.688,8.292,-7.926,-8.418,-1.927,1.976,184.3,192.1,204.7,189.7,195.2,204.1,216.4,208.0,194.8,191.8,1,norm,1.682,2.064,-1.773,-1.424,-4.49,-5.271,-1.438,-1.676,-2.072,-1.551,1.106,-1.516,201.5,209.4,-5.119,-7.819,193.0,-1.416,8.043,5.219,-5.016,-8.107,0,4.392,5.243,4.951,4.457,1.582,1.454,1.86,1.912,0,5.041,4.399,,,,0,1,1,1,305.698,305.704,305.705794922,305.706,305.708,305.712,down,1,0.840382010289,9.15961798971,001,004,800_600,Intel(R) Core(TM) i7-2670QM CPU @ 2.20GHz,orientation_search,GRVLAPTOP3,Intel(R) HD Graphics Family,2018_jun_07_0917,testMonitor,
202.3,185.2,187.9,191.7,36,80,187.9,198.3,206.8,194.7,7.891,7.516,7.662,8.313,7.811,8.174,8.27,4.552,-5.196,-7.848,1.807,-1.595,7.944,4.845,-4.905,-7.647,196.2,216.4,-7.946,202.0,199.7,191.3,205.4,178.9,36,,4,5,prime,10,0,60,norm,36,-5.292,up,norm,196.357468091,186.5,189.0,1.185,203.9,3,189.4,197.2,195.2,10,3,8.3,4.418,1.428,-1.245,-4.69,-8.065,192.8,3,256.4,-7.937,-7.84,80,-7.849,-8.257,-4.519,-5.074,-4.612,-4.983,4.941,8.198,27,-2.091,1.938,4.47,8.475,-7.56,-7.528,-1.641,1.442,176.4,191.7,195.7,196.0,214.8,209.8,187.1,194.2,201.9,191.0,2,norm,1.57,1.193,-1.809,-1.769,-4.655,-4.499,-1.1,-1.68,-1.832,-1.389,1.644,-2.091,206.5,178.8,-4.851,-7.538,188.5,-1.673,7.921,4.992,-5.231,-7.807,0,5.257,4.815,5.16,5.25,1.92,1.842,1.533,1.752,0,4.352,4.872,,,,0,2,2,2,306.561,306.567,306.568191274,306.569,306.572,306.575,up,1,3.52549949498,6.47450050502,001,004,800_600,Intel(R) Core(TM) i7-2670QM CPU @ 2.20GHz,orientation_search,GRVLAPTOP3,Intel(R) HD Graphics Family,2018_jun_07_0917,testMonitor,
370.1,384.2,379.6,375.3,36,-40,374.3,375.1,372.0,376.4,7.538,7.9,8.163,7.833,7.515,8.433,7.708,5.243,-4.35,-8.254,1.869,-1.512,8.336,5.079,-4.714,-7.614,364.2,373.7,-8.104,375.4,381.3,365.6,371.1,379.5,36,370.6,1,5,probe,5,0,105,norm,36,-4.475,up,norm,374.191795377,372.4,374.4,1.195,375.3,4,383.3,366.7,379.4,10,3,8.213,4.784,2.072,-1.751,-4.339,-7.576,,1,269.2,-7.998,-7.73,80,-8.253,-8.218,-4.401,-4.382,-4.547,-4.92,4.797,7.531,10,-1.538,1.952,4.661,8.214,-8.119,-8.082,-1.714,1.74,380.6,378.8,375.5,376.4,377.5,371.1,382.3,376.2,372.2,374.9,0,norm,1.571,1.271,-1.737,-1.168,-5.18,-4.933,-1.258,-1.761,-2.004,-1.386,2.076,-1.413,378.4,373.5,-4.859,-8.338,380.8,-1.345,8.222,4.382,-4.485,-8.393,1,4.412,4.462,4.585,5.177,1.793,1.389,1.204,2.037,1,5.061,4.994,80,196.357468091,norm,0,3,3,3,310.108,310.114,310.116193551,310.117,310.12,310.123,up,1,0.761379454619,9.23862054538,001,004,800_600,Intel(R) Core(TM) i7-2670QM CPU @ 2.20GHz,orientation_search,GRVLAPTOP3,Intel(R) HD Graphics Family,2018_jun_07_0917,testMonitor,
179.9,196.3,186.7,193.1,36,-80,203.7,184.5,179.0,179.0,8.299,7.934,8.395,7.603,8.328,8.223,7.51,5.17,-4.3,-8.191,1.958,-2.079,8.384,5.211,-4.463,-8.33,200.7,187.5,-8.21,189.4,180.1,184.9,200.1,180.6,36,183.4,1,5,prime,10,0,77,norm,36,-4.431,up,norm,184.608899925,192.2,188.8,1.251,185.4,4,164.6,192.7,178.8,10,5,7.899,5.072,1.389,-1.297,-4.386,-8.248,,5,261.6,-8.431,-8.156,-80,-7.606,-7.993,-4.317,-4.916,-4.566,-4.305,5.223,7.69,10,-1.472,1.245,4.586,8.237,-8.283,-7.792,-1.816,1.336,186.4,185.5,184.9,185.2,204.6,193.2,185.9,172.5,204.6,181.8,0,norm,2.091,1.638,-1.454,-1.823,-4.324,-5.147,-1.883,-1.682,-2.069,-1.697,1.309,-1.263,188.5,188.7,-4.883,-8.18,178.0,-1.982,7.802,4.327,-5.034,-8.11,2,5.161,4.378,4.66,4.624,1.493,1.553,1.658,1.262,2,4.714,4.641,-40,196.357468091,norm,0,4,4,4,310.893,310.897,310.899126459,310.9,310.903,310.906,up,1,1.56603859047,8.43396140953,001,004,800_600,Intel(R) Core(TM) i7-2670QM CPU @ 2.20GHz,orientation_search,GRVLAPTOP3,Intel(R) HD Graphics Family,2018_jun_07_0917,testMonitor,
188.4,186.4,194.6,193.7,36,-80,190.5,174.4,176.1,202.8,7.843,7.834,8.289,8.117,7.835,7.896,8.242,4.579,-4.487,-8.061,1.947,-1.973,7.696,5.046,-5.299,-7.898,181.7,201.2,-7.647,203.9,181.6,186.6,179.4,195.5,36,186.3,1,5,prime,10,0,94,norm,36,-4.79,up,norm,184.608899925,194.6,177.0,1.215,184.7,3,170.7,186.2,193.3,10,5,8.189,4.797,2.021,-1.478,-4.551,-7.717,180.5,5,278.6,-7.712,-8.269,-80,-7.882,-7.692,-4.977,-4.66,-5.07,-4.935,4.477,7.502,9,-2.089,1.69,5.219,7.689,-8.444,-8.375,-1.981,1.332,,179.0,198.3,204.6,186.0,195.4,192.2,198.2,173.0,190.0,1,norm,1.711,2.059,-1.551,-1.644,-4.418,-4.531,-1.352,-1.182,-1.486,-1.98,1.179,-1.392,189.1,170.7,-4.457,-8.274,187.7,-1.573,7.808,4.605,-5.168,-7.959,2,4.771,4.759,5.002,5.174,1.107,1.239,2.013,1.244,2,4.994,5.256,-40,196.357468091,norm,0,5,5,5,312.48,312.487,312.488655918,312.489,312.492,312.495,down,0,1.02352262162,-10,001,004,800_600,Intel(R) Core(TM) i7-2670QM CPU @ 2.20GHz,orientation_search,GRVLAPTOP3,Intel(R) HD Graphics Family,2018_jun_07_0917,testMonitor,
186.3,173.6,189.3,177.7,36,-80,176.1,180.6,197.7,173.4,8.256,8.387,7.935,8.264,7.698,7.807,7.932,4.65,-5.221,-7.627,1.659,-1.603,7.925,4.877,-5.223,-8.163,184.2,188.2,-7.879,181.7,186.1,178.9,173.0,179.5,36,200.7,2,5,prime,10,0,101,norm,36,-4.866,down,norm,184.608899925,185.1,185.8,1.46,176.2,1,175.5,,174.3,10,5,8.157,4.51,1.429,-1.736,-4.861,-8.005,194.6,5,285.6,-8.362,-8.474,-80,-7.954,-8.437,-4.348,-4.632,-5.068,-5.01,5.023,8.414,13,-1.557,1.796,5.284,7.92,-8.487,-8.114,-1.954,1.694,204.6,188.2,164.6,190.4,173.2,188.5,195.2,175.4,188.3,172.8,2,norm,1.229,2.028,-1.55,-2.003,-4.661,-4.39,-2.075,-1.724,-1.847,-1.636,1.527,-1.524,185.5,190.5,-4.712,-8.355,177.8,-1.276,7.73,4.915,-5.276,-7.638,2,4.433,4.555,4.4,4.653,1.115,1.456,1.626,1.564,2,5.039,4.416,-40,196.357468091,norm,0,6,6,6,314.538,314.544,314.545961197,314.547,314.549,314.553,up,0,0.401339146669,-10,001,004,800_600,Intel(R) Core(TM) i7-2670QM CPU @ 2.20GHz,orientation_search,GRVLAPTOP3,Intel(R) HD Graphics Family,2018_jun_07_0917,testMonitor,
176.7,191.5,175.8,191.7,36,-80,180.2,185.3,186.2,173.1,8.173,8.34,7.989,8.363,8.445,7.645,8.336,5.093,-4.675,-8.42,1.298,-1.136,8.211,5.099,-4.6,-7.886,185.0,194.9,-7.677,178.7,175.0,168.7,191.3,182.9,36,168.3,2,5,prime,10,0,96,norm,36,-4.45,down,norm,184.608899925,174.7,188.5,1.755,190.6,0,174.7,204.6,,10,5,8.125,4.454,1.845,-1.747,-5.154,-8.176,174.1,5,280.6,-7.784,-7.813,-80,-7.697,-8.322,-5.077,-5.11,-5.205,-4.324,4.825,8.125,12,-1.863,1.954,4.645,7.645,-7.557,-8.261,-1.118,1.79,178.1,164.6,194.8,180.3,195.8,190.7,184.5,186.9,180.3,182.2,3,norm,1.472,1.377,-2.052,-1.499,-4.426,-4.654,-1.168,-1.682,-1.81,-1.436,1.343,-1.628,187.6,179.9,-4.687,-8.431,173.3,-1.715,8.36,4.924,-5.292,-8.151,2,5.149,4.729,4.975,4.348,1.214,1.247,1.526,1.975,2,5.067,4.985,-40,196.357468091,norm,0,7,7,7,315.973,315.978,315.980124333,315.981,315.983,315.987,down,1,9.34707797711,0.652922022888,001,004,800_600,Intel(R) Core(TM) i7-2670QM CPU @ 2.20GHz,orientation_search,GRVLAPTOP3,Intel(R) HD Graphics Family,2018_jun_07_0917,testMonitor,
174.8,187.2,189.2,173.7,36,-80,195.3,192.8,203.5,192.9,8.037,7.813,8.064,7.787,8.44,7.544,7.582,5.194,-5.016,-8.197,1.702,-1.275,8.388,4.672,-5.019,-8.138,,179.1,-7.896,192.6,181.3,181.9,175.0,191.4,36,188.0,5,5,prime,10,0,67,norm,36,-5.262,up,norm,184.608899925,173.6,185.8,2.059,166.7,5,188.0,195.2,189.1,10,5,7.808,4.369,1.314,-1.477,-5.003,-7.778,194.5,5,251.6,-8.029,-7.869,-80,-7.882,-7.829,-4.863,-4.643,-4.843,-4.922,5.07,8.211,35,-1.978,1.652,4.359,8.332,-7.697,-7.739,-1.591,1.268,204.6,187.7,168.9,195.1,178.4,175.4,184.5,179.5,174.8,164.6,4,norm,1.287,1.691,-1.54,-1.318,-4.966,-4.765,-1.17,-1.657,-1.417,-1.818,1.493,-1.775,192.5,172.1,-4.779,-7.933,203.9,-2.054,8.448,5.01,-5.214,-8.45,2,4.333,4.861,5.174,4.865,1.814,1.818,1.776,1.423,2,5.087,4.449,-40,196.357468091,norm,0,8,8,8,325.337,325.343,325.34494584,325.345,325.348,325.352,up,1,2.91466500554,7.08533499446,001,004,800_600,Intel(R) Core(TM) i7-2670QM CPU @ 2.20GHz,orientation_search,GRVLAPTOP3,Intel(R) HD Graphics Family,2018_jun_07_0917,testMonitor,
216.4,219.9,212.6,216.1,36,-40,212.4,214.0,218.7,225.1,7.909,8.338,8.198,7.951,7.838,8.169,8.005,5.132,-4.881,-8.378,1.571,-1.534,8.043,4.522,-4.683,-8.241,211.7,221.8,-7.987,,212.6,220.5,209.4,216.9,36,214.2,5,5,probe,5,0,109,norm,36,-4.683,down,norm,215.69817843,218.9,219.5,1.799,225.7,1,211.9,211.7,210.5,10,5,7.636,4.593,1.938,-1.565,-4.703,-7.697,210.9,2,106.7,-8.196,-8.247,-80,-7.906,-7.846,-4.563,-4.887,-5.083,-4.408,5.152,7.8,31,-1.922,2.004,4.584,8.023,-8.354,-7.594,-1.459,1.853,205.7,225.0,221.3,225.1,213.2,215.0,217.1,220.2,210.1,209.0,0,norm,1.862,1.428,-1.398,-1.465,-4.874,-4.785,-1.638,-1.982,-2.036,-1.596,2.074,-1.499,212.4,217.8,-5.287,-7.524,220.3,-1.632,7.814,4.82,-4.481,-7.576,3,5.15,4.87,4.561,4.358,1.911,1.606,1.148,1.564,3,5.196,4.851,-80,184.608899925,norm,0,9,9,9,328.274,328.28,328.282215424,328.283,328.286,328.289,down,1,1.1122500774,8.8877499226,001,004,800_600,Intel(R) Core(TM) i7-2670QM CPU @ 2.20GHz,orientation_search,GRVLAPTOP3,Intel(R) HD Graphics Family,2018_jun_07_0917,testMonitor,
186.9,,186.9,193.8,36,-40,190.8,181.2,179.7,191.2,8.478,8.271,7.69,8.451,8.146,8.46,8.488,4.869,-4.777,-7.617,1.832,-1.637,7.611,4.817,-4.866,-8.264,189.7,195.0,-8.203,189.7,190.8,195.4,196.6,191.2,36,197.8,3,5,probe,5,0,83,norm,36,-4.38,up,norm,189.69817843,186.2,191.9,1.474,193.1,5,196.7,199.7,190.5,10,5,7.885,4.342,1.879,-1.243,-4.852,-8.031,182.5,2,106.7,-7.944,-8.477,-80,-8.368,-7.862,-5.243,-5.06,-4.666,-5.259,5.074,7.76,23,-2.012,2.063,5.296,7.806,-7.945,-8.014,-1.776,1.289,190.9,187.9,193.3,186.3,191.9,187.5,189.3,190.4,191.8,187.6,1,norm,1.497,1.521,-1.793,-1.789,-4.748,-5.118,-1.775,-1.733,-1.626,-1.822,1.425,-1.982,187.1,183.8,-4.311,-7.855,181.4,-1.651,7.972,4.584,-4.468,-7.904,3,4.517,4.365,4.842,4.886,1.911,1.584,1.878,1.313,3,4.593,5.275,-80,184.608899925,norm,0,10,10,10,329.41,329.416,329.417439446,329.418,329.421,329.424,up,1,1.12670574496,8.87329425504,001,004,800_600,Intel(R) Core(TM) i7-2670QM CPU @ 2.20GHz,orientation_search,GRVLAPTOP3,Intel(R) HD Graphics Family,2018_jun_07_0917,testMonitor,
19.6,23.3,24.7,22.9,36,60,18.9,27.6,29.3,24.2,7.552,8.45,8.013,8.128,7.8,8.337,8.373,5.05,-4.506,-7.886,1.129,-2.093,8.024,4.655,-4.768,-8.116,31.0,37.5,-8.485,18.9,37.4,6.4,46.4,44.4,36,18.0,2,5,prime,10,0,81,norm,36,-4.667,up,norm,26.4298957563,18.0,13.8,1.374,10.4,3,34.6,39.5,27.3,10,2,7.663,4.732,1.796,-1.763,-4.611,-8.355,26.6,2,107.4,-7.766,-8.012,60,-7.781,-8.451,-4.706,-5.254,-4.829,-4.82,5.024,7.709,15,-1.479,2.058,4.703,8.235,-7.797,-7.981,-1.71,1.961,36.7,16.7,15.4,16.6,27.0,33.7,18.4,16.8,17.1,37.9,0,norm,1.587,1.889,-1.8,-1.263,-4.426,-4.783,-1.589,-1.972,-2.091,-1.269,2.035,-1.307,22.6,38.4,-4.725,-7.691,,-1.688,7.786,4.843,-4.943,-8.045,4,4.883,4.59,4.842,4.865,1.67,2.09,1.174,1.117,4,4.326,4.929,-40,184.608899925,norm,0,11,11,11,330.559,330.565,330.566565788,330.567,330.57,330.573,down,0,2.41825849294,-10,001,004,800_600,Intel(R) Core(TM) i7-2670QM CPU @ 2.20GHz,orientation_search,GRVLAPTOP3,Intel(R) HD Graphics Family,2018_jun_07_0917,testMonitor,
6.4,39.5,39.5,26.6,36,60,22.4,15.1,21.8,,7.907,7.84,7.883,7.917,7.598,8.047,8.264,4.635,-4.965,-8.066,1.189,-2.065,7.991,5.095,-4.836,-7.775,18.7,24.4,-8.222,25.7,23.4,40.0,18.3,33.0,36,20.4,4,5,prime,10,0,97,norm,36,-4.848,up,norm,26.4298957563,20.8,27.5,1.58,14.4,5,10.9,26.3,17.3,10,2,8.196,5.078,1.594,-1.102,-4.995,-8.079,46.4,2,123.4,-7.573,-8.033,60,-8.469,-7.905,-5.266,-4.951,-4.414,-4.334,4.841,8.034,29,-1.503,1.131,4.349,7.535,-7.611,-8.433,-1.994,1.702,15.6,13.2,8.8,20.7,24.5,36.4,30.3,16.5,19.4,33.6,1,norm,1.915,1.92,-2.019,-1.877,-4.762,-4.9,-1.573,-1.15,-1.484,-1.956,1.774,-1.168,35.8,16.6,-5.221,-8.188,23.2,-1.656,8.269,4.789,-5.153,-7.775,4,5.241,4.412,4.325,4.741,1.669,1.465,1.407,1.795,4,4.538,5.089,-40,184.608899925,norm,0,12,12,12,334.007,334.012,334.013972364,334.014,334.017,334.02,up,1,2.59082994126,7.40917005874,001,004,800_600,Intel(R) Core(TM) i7-2670QM CPU @ 2.20GHz,orientation_search,GRVLAPTOP3,Intel(R) HD Graphics Family,2018_jun_07_0917,testMonitor,
149.4,151.7,142.5,,36,-30,151.2,155.7,155.1,146.3,8.104,7.607,8.404,8.137,8.324,8.47,7.585,5.051,-4.735,-8.252,1.608,-1.961,8.153,5.219,-4.502,-7.967,153.6,153.4,-8.152,160.5,151.8,161.3,154.6,148.6,36,154.4,3,5,probe,5,0,64,norm,36,-4.447,up,norm,151.555194511,157.2,148.0,1.472,155.1,3,147.9,143.2,148.3,10,2,8.433,4.59,1.221,-2.0,-4.482,-8.123,151.3,1,87.6,-7.851,-7.513,60,-8.44,-7.524,-5.106,-4.8,-4.937,-5.035,4.824,8.058,21,-1.602,1.774,4.512,8.222,-7.816,-7.919,-1.337,1.287,155.9,145.0,153.9,158.5,146.0,149.3,157.6,158.1,144.4,153.7,0,norm,1.559,1.373,-1.874,-1.872,-4.496,-4.691,-1.372,-1.301,-1.224,-1.4,1.995,-1.522,161.6,141.6,-4.96,-7.896,153.7,-1.879,7.53,5.189,-4.5,-8.209,5,5.014,4.426,5.294,4.521,2.065,1.322,1.292,1.507,5,5.204,4.645,60,26.4298957563,norm,0,13,13,13,336.62,336.625,336.626614454,336.627,336.63,336.633,down,0,0.800462570155,-10,001,004,800_600,Intel(R) Core(TM) i7-2670QM CPU @ 2.20GHz,orientation_search,GRVLAPTOP3,Intel(R) HD Graphics Family,2018_jun_07_0917,testMonitor,
24.1,15.5,29.6,,36,-60,43.5,39.1,47.6,44.3,8.086,7.654,8.015,8.062,7.984,7.788,8.437,5.252,-5.288,-7.55,1.492,-1.106,7.739,4.379,-5.022,-7.993,36.4,29.6,-8.095,27.3,25.2,31.5,46.3,37.9,36,33.4,3,5,prime,10,0,86,norm,36,-4.379,up,norm,34.9144358434,32.1,22.0,1.54,30.9,3,31.8,54.9,26.7,10,5,7.882,4.796,1.916,-1.398,-4.392,-7.634,40.2,5,120.9,-7.93,-8.482,-60,-8.018,-7.649,-5.2,-4.678,-5.046,-4.949,5.181,7.572,21,-1.782,1.184,5.11,8.321,-7.688,-8.351,-1.231,1.697,30.0,18.9,14.9,25.4,22.5,15.0,41.1,31.2,30.2,19.9,0,norm,1.651,1.497,-1.909,-2.065,-4.903,-5.297,-1.917,-1.321,-1.149,-1.415,1.959,-1.66,41.5,42.4,-5.029,-7.775,38.9,-1.214,8.41,4.495,-5.233,-7.726,6,4.643,4.673,4.475,5.234,1.633,1.484,1.846,1.278,6,4.85,5.13,-30,26.4298957563,norm,0,14,14,14,338.453,338.459,338.460300731,338.461,338.464,338.467,up,1,0.54336163264,9.45663836736,001,004,800_600,Intel(R) Core(TM) i7-2670QM CPU @ 2.20GHz,orientation_search,GRVLAPTOP3,Intel(R) HD Graphics Family,2018_jun_07_0917,testMonitor,
37.6,26.6,43.3,28.4,36,-60,19.7,31.6,38.2,26.4,7.535,8.151,7.517,7.784,8.112,8.071,7.846,4.445,-4.531,-7.999,1.337,-1.466,7.82,4.754,-5.099,-8.149,47.3,23.4,-7.795,33.0,25.3,25.0,36.6,36.4,36,37.4,0,5,prime,10,0,80,norm,36,-4.947,up,norm,34.9144358434,46.9,41.6,1.969,27.0,5,14.9,26.0,54.9,10,5,8.103,4.61,2.08,-1.54,-5.109,-7.754,41.6,5,114.9,-8.331,-7.589,-60,-8.159,-7.727,-5.248,-4.648,-4.694,-4.827,5.179,8.288,5,-2.078,1.428,5.041,8.294,-7.995,-8.302,-1.763,1.87,30.3,36.7,37.0,26.4,34.5,24.1,24.3,39.2,,54.6,1,norm,1.351,1.725,-1.926,-1.78,-4.638,-4.779,-1.74,-1.505,-2.085,-2.1,1.953,-1.252,43.7,29.9,-5.158,-7.985,25.9,-1.977,7.608,4.943,-4.522,-7.837,6,4.716,4.882,5.229,5.125,1.952,1.294,1.467,2.096,6,5.123,4.943,-30,26.4298957563,norm,0,15,15,15,339.019,339.025,339.026687674,339.027,339.03,339.033,up,1,1.46930044319,8.53069955681,001,004,800_600,Intel(R) Core(TM) i7-2670QM CPU @ 2.20GHz,orientation_search,GRVLAPTOP3,Intel(R) HD Graphics Family,2018_jun_07_0917,testMonitor,
36.2,32.0,38.0,34.0,36,-60,48.5,51.1,34.9,35.1,8.334,8.492,7.909,8.428,7.541,8.28,8.228,5.2,-4.942,-8.308,1.483,-1.479,7.722,4.363,-5.025,-8.346,23.8,54.9,-7.508,14.9,41.6,29.0,30.8,38.5,36,42.4,3,5,prime,10,0,84,norm,36,-5.022,down,norm,34.9144358434,23.4,45.5,1.58,44.6,1,26.2,37.9,24.7,10,5,8.129,5.107,1.419,-1.943,-4.606,-8.159,25.2,5,118.9,-8.229,-8.082,-60,-7.794,-8.394,-4.392,-5.128,-4.678,-5.013,4.532,8.443,19,-1.854,1.419,5.007,8.146,-7.872,-7.814,-2.002,2.091,44.1,37.7,27.1,28.5,39.9,45.4,44.5,41.1,28.7,35.2,2,norm,1.734,1.848,-1.583,-1.251,-4.386,-4.302,-1.936,-1.722,-1.876,-1.907,2.018,-1.558,,36.2,-4.972,-8.288,30.2,-1.953,7.622,4.33,-4.913,-7.632,6,4.803,4.412,4.602,4.997,1.244,1.616,1.779,1.832,6,5.155,4.874,-30,26.4298957563,norm,0,16,16,16,340.511,340.516,340.517968838,340.519,340.522,340.526,down,1,1.35241859377,8.64758140623,001,004,800_600,Intel(R) Core(TM) i7-2670QM CPU @ 2.20GHz,orientation_search,GRVLAPTOP3,Intel(R) HD Graphics Family,2018_jun_07_0917,testMonitor,
14.9,35.0,22.2,30.3,36,-60,30.0,40.5,35.4,27.4,7.911,8.168,8.068,8.318,8.224,7.966,7.567,5.236,-4.989,-8.434,1.951,-1.386,7.652,5.089,-5.229,-8.45,21.4,,-7.941,34.4,43.1,32.0,40.6,33.7,36,35.7,5,5,prime,10,0,73,norm,36,-4.778,up,norm,34.9144358434,29.9,41.5,1.192,38.0,4,19.1,42.5,29.4,10,5,7.987,4.9,1.248,-1.417,-5.143,-8.048,37.2,5,107.9,-8.499,-7.513,-60,-8.085,-7.928,-4.397,-5.261,-5.111,-5.279,5.119,7.771,34,-1.583,1.328,4.902,8.357,-8.041,-8.405,-1.585,1.51,33.7,41.5,24.3,46.5,17.1,30.2,48.0,41.4,27.7,30.4,3,norm,1.849,1.135,-1.372,-1.593,-4.741,-4.677,-1.544,-1.126,-1.188,-1.841,1.389,-1.278,48.5,44.4,-4.782,-7.5,54.9,-1.612,8.168,4.69,-5.029,-8.101,6,4.395,4.586,5.237,5.103,1.921,1.462,1.488,1.495,6,4.793,5.204,-30,26.4298957563,norm,0,17,17,17,341.887,341.893,341.894450326,341.895,341.898,341.901,up,1,1.64636637742,8.35363362258,001,004,800_600,Intel(R) Core(TM) i7-2670QM CPU @ 2.20GHz,orientation_search,GRVLAPTOP3,Intel(R) HD Graphics Family,2018_jun_07_0917,testMonitor,
30.5,54.2,49.9,42.0,36,-60,54.9,38.8,37.7,34.1,8.212,8.183,7.971,7.773,7.743,8.012,7.882,4.785,-4.662,-8.417,1.828,-2.015,7.815,4.347,-4.57,-7.82,25.4,,-7.894,31.5,40.1,16.5,34.3,30.2,36,39.5,5,5,prime,10,0,93,norm,36,-5.214,up,norm,34.9144358434,23.9,17.1,1.924,45.0,4,21.8,37.3,16.8,10,5,7.693,4.708,1.847,-1.118,-5.15,-7.967,45.7,5,127.9,-8.23,-7.558,-60,-7.604,-7.511,-5.096,-4.818,-4.502,-5.225,4.512,7.84,34,-1.828,1.933,4.896,8.343,-7.844,-8.016,-1.276,1.393,34.8,38.5,24.7,14.9,28.9,34.2,21.5,52.7,30.0,29.8,4,norm,1.416,1.795,-1.1,-1.39,-4.778,-4.669,-1.246,-1.37,-1.448,-1.519,1.771,-1.231,25.9,30.4,-4.628,-7.704,42.7,-1.672,8.242,5.109,-4.496,-8.123,6,4.778,5.023,5.006,5.237,1.978,1.796,1.198,1.326,6,5.173,4.598,-30,26.4298957563,norm,0,18,18,18,343.556,343.562,343.563457705,343.564,343.567,343.57,up,1,1.2231394346,8.7768605654,001,004,800_600,Intel(R) Core(TM) i7-2670QM CPU @ 2.20GHz,orientation_search,GRVLAPTOP3,Intel(R) HD Graphics Family,2018_jun_07_0917,testMonitor,
70.6,77.5,75.4,77.7,36,0,78.7,80.9,88.6,90.6,8.009,8.191,7.96,8.131,8.433,8.153,7.762,4.599,-5.151,-8.019,2.03,-1.801,8.442,4.512,-4.595,-7.818,84.5,79.7,-7.83,82.6,80.0,78.8,76.0,77.7,36,79.4,0,5,probe,5,0,105,norm,36,-4.737,up,norm,80.5849245558,75.3,74.4,1.649,80.4,3,79.5,79.4,85.8,10,5,7.77,5.286,1.835,-1.539,-4.529,-7.518,78.2,2,-24.4,-8.278,-7.603,-60,-7.816,-8.021,-4.489,-4.319,-4.684,-5.209,4.617,7.825,3,-1.51,1.819,4.366,8.253,-8.265,-7.883,-1.877,1.983,80.4,80.6,,88.9,77.8,87.3,74.2,84.9,86.8,83.9,0,norm,1.77,1.778,-1.999,-2.024,-4.313,-5.151,-1.955,-1.175,-1.563,-1.782,1.584,-1.384,84.3,84.2,-4.964,-8.319,86.8,-1.553,7.658,5.185,-4.794,-7.728,7,5.197,4.391,5.228,4.872,1.937,1.623,1.183,1.318,7,4.678,4.8,-60,34.9144358434,norm,0,19,19,19,344.802,344.807,344.809030811,344.81,344.812,344.816,down,0,2.26485853693,-10,001,004,800_600,Intel(R) Core(TM) i7-2670QM CPU @ 2.20GHz,orientation_search,GRVLAPTOP3,Intel(R) HD Graphics Family,2018_jun_07_0917,testMonitor,
60.0,55.7,53.5,60.3,36,0,59.4,52.6,59.9,54.3,7.871,8.25,8.187,8.462,7.91,8.265,7.901,4.47,-4.449,-7.896,1.342,-1.515,7.735,4.735,-5.295,-7.917,57.0,56.9,-7.911,58.2,57.8,59.8,64.7,56.0,36,58.5,1,5,probe,5,0,83,norm,36,-5.046,up,norm,58.5849245558,58.5,60.5,1.634,63.6,3,63.7,68.6,65.5,10,5,7.977,4.443,1.213,-1.412,-5.25,-7.641,54.6,2,-24.4,-8.309,-8.105,-60,-7.57,-7.738,-4.422,-4.743,-4.683,-4.533,5.195,8.408,9,-1.693,1.514,4.702,8.357,-7.867,-7.629,-1.134,1.993,,59.7,63.6,56.5,63.1,54.9,48.6,55.6,57.0,58.7,1,norm,1.78,1.13,-1.813,-1.386,-4.716,-4.759,-1.502,-1.255,-1.144,-1.572,2.013,-1.162,55.1,49.6,-4.894,-8.34,68.6,-1.26,8.362,4.993,-4.513,-8.22,7,4.995,4.674,4.674,5.052,1.829,1.308,1.783,2.048,7,4.603,4.506,-60,34.9144358434,norm,0,20,20,20,348.093,348.099,348.101018299,348.101,348.104,348.108,up,1,1.0169548352,8.9830451648,001,004,800_600,Intel(R) Core(TM) i7-2670QM CPU @ 2.20GHz,orientation_search,GRVLAPTOP3,Intel(R) HD Graphics Family,2018_jun_07_0917,testMonitor,
304.5,312.1,284.9,295.2,36,-30,288.2,286.3,277.3,279.8,8.362,8.123,7.685,8.497,7.55,8.386,8.285,4.687,-4.955,-8.115,1.124,-1.137,8.009,4.828,-4.682,-8.401,292.2,298.5,-8.111,281.7,309.5,288.7,300.6,291.4,36,,4,5,prime,10,0,101,norm,36,-4.988,up,norm,292.115458699,291.0,283.4,1.257,291.0,3,300.1,274.8,294.0,10,3,8.241,5.099,1.342,-1.776,-4.534,-7.647,286.7,3,393.1,-8.292,-7.937,-30,-7.871,-8.011,-5.008,-4.642,-4.377,-4.749,5.242,7.593,27,-1.66,1.663,5.029,7.8,-8.335,-7.796,-1.51,1.218,289.9,286.3,306.4,296.2,297.6,272.1,303.0,289.1,281.0,297.3,0,norm,1.267,1.742,-1.287,-1.195,-4.563,-4.55,-1.596,-1.827,-1.984,-1.253,1.5,-1.776,291.7,294.8,-4.475,-8.053,287.7,-1.539,7.538,5.237,-5.098,-7.521,8,5.165,4.6,4.409,4.963,1.767,1.135,1.595,1.142,8,4.739,4.381,0,34.9144358434,norm,0,21,21,21,349.134,349.141,349.142387648,349.143,349.146,349.149,up,1,2.78447480823,7.21552519177,001,004,800_600,Intel(R) Core(TM) i7-2670QM CPU @ 2.20GHz,orientation_search,GRVLAPTOP3,Intel(R) HD Graphics Family,2018_jun_07_0917,testMonitor,
284.6,312.1,285.0,297.1,36,-30,298.1,299.1,293.6,280.0,8.158,8.199,7.988,8.473,7.69,7.708,8.138,4.627,-4.884,-7.868,1.832,-1.276,7.529,5.062,-5.121,-8.352,311.6,282.0,-7.648,294.0,279.7,304.9,299.7,272.1,36,286.6,2,5,prime,10,0,118,norm,36,-4.97,down,norm,292.115458699,284.6,293.2,1.218,,2,295.5,309.5,297.4,10,3,7.675,4.86,1.644,-1.218,-5.216,-8.363,301.9,3,410.1,-8.035,-7.581,-30,-7.569,-8.053,-4.736,-5.235,-4.662,-5.107,4.579,7.923,14,-2.097,1.754,4.651,7.71,-8.019,-8.397,-1.958,1.824,287.2,294.0,281.0,280.2,289.9,292.3,300.2,307.7,288.4,306.5,1,norm,1.16,1.713,-2.061,-1.438,-4.799,-4.472,-1.411,-1.958,-1.149,-1.282,1.712,-1.653,280.9,292.1,-5.147,-7.536,287.5,-1.996,7.72,4.88,-4.47,-7.682,8,4.337,4.815,5.28,4.353,1.364,1.449,1.408,1.432,8,4.422,4.719,0,34.9144358434,norm,0,22,22,22,351.942,351.947,351.948362676,351.949,351.952,351.955,down,1,1.23211439762,8.76788560238,001,004,800_600,Intel(R) Core(TM) i7-2670QM CPU @ 2.20GHz,orientation_search,GRVLAPTOP3,Intel(R) HD Graphics Family,2018_jun_07_0917,testMonitor,
296.1,279.4,285.9,296.5,36,-30,290.9,285.3,291.2,292.6,7.823,8.387,7.756,8.302,7.874,8.493,7.546,4.685,-5.023,-8.456,1.839,-1.99,7.883,4.381,-4.645,-8.109,299.0,296.6,-8.318,293.2,297.1,303.4,311.0,292.2,36,292.9,3,5,prime,10,0,69,norm,36,-4.598,down,norm,292.115458699,272.1,302.4,1.972,289.6,0,283.7,294.1,292.8,10,3,7.916,5.245,1.41,-1.801,-4.306,-7.925,296.9,3,361.1,-8.452,-8.266,-30,-8.471,-8.371,-4.706,-4.658,-5.07,-5.109,4.735,7.874,18,-1.941,1.397,5.024,8.344,-8.347,-7.571,-2.054,1.797,294.8,288.5,287.1,282.6,296.0,302.1,280.1,299.5,312.1,299.1,2,norm,2.035,1.864,-1.657,-1.444,-4.99,-4.971,-1.345,-1.102,-1.648,-1.213,1.929,-1.492,279.0,,-5.161,-8.14,300.0,-2.083,7.879,4.436,-4.303,-7.785,8,4.443,5.033,5.102,4.569,1.594,1.567,1.176,1.495,8,4.782,4.798,0,34.9144358434,norm,0,23,23,23,353.196,353.201,353.202830429,353.203,353.207,353.21,down,1,1.19774757379,8.80225242621,001,004,800_600,Intel(R) Core(TM) i7-2670QM CPU @ 2.20GHz,orientation_search,GRVLAPTOP3,Intel(R) HD Graphics Family,2018_jun_07_0917,testMonitor,
340.0,341.8,333.7,334.9,36,0,326.1,333.4,338.9,334.1,8.331,8.056,8.257,7.613,8.287,8.493,7.977,5.192,-4.48,-7.799,1.816,-1.281,7.617,4.415,-5.126,-8.345,337.3,329.0,-7.617,332.9,344.2,330.9,330.3,328.2,36,340.0,3,5,probe,5,0,76,norm,36,-4.69,down,norm,334.228115268,335.1,341.8,1.222,333.8,1,340.3,327.9,336.8,10,3,8.332,4.543,1.713,-1.863,-5.135,-7.683,332.5,1,258.2,-7.977,-8.452,-30,-7.642,-7.727,-4.397,-5.252,-5.209,-4.841,4.746,7.628,19,-1.356,2.032,5.108,7.72,-7.546,-7.905,-1.826,1.925,334.3,329.5,337.2,328.6,324.2,336.0,332.5,335.0,330.2,335.7,0,norm,1.754,1.327,-2.048,-1.951,-4.72,-4.97,-1.716,-1.141,-1.589,-1.415,1.963,-1.16,,332.6,-4.93,-8.393,327.9,-1.881,7.921,4.986,-4.65,-7.714,9,5.196,4.383,5.185,5.18,1.147,1.296,2.069,1.866,9,5.112,4.413,-30,292.115458699,norm,0,24,24,24,354.417,354.422,354.424008633,354.425,354.428,354.431,down,1,1.37923654911,8.62076345089,001,004,800_600,Intel(R) Core(TM) i7-2670QM CPU @ 2.20GHz,orientation_search,GRVLAPTOP3,Intel(R) HD Graphics Family,2018_jun_07_0917,testMonitor,
369.2,352.6,355.5,356.8,36,80,351.4,357.6,357.8,359.9,8.321,8.228,8.102,8.319,7.956,7.708,8.335,4.776,-4.402,-7.612,1.226,-1.487,7.708,5.008,-4.746,-7.579,346.5,357.8,-7.639,356.7,367.6,375.5,353.3,364.7,36,343.1,3,5,prime,10,0,74,norm,36,-5.117,down,norm,355.474442281,360.3,352.5,1.186,356.7,1,351.1,352.9,354.0,10,5,7.686,5.103,2.006,-1.223,-5.077,-7.658,352.6,5,429.5,-7.861,-8.296,80,-8.449,-7.844,-4.382,-4.922,-4.76,-4.535,4.413,7.606,19,-1.962,1.186,4.383,7.815,-7.984,-8.119,-1.594,1.317,343.3,353.8,353.0,347.6,357.1,338.1,359.0,360.3,361.8,335.5,0,norm,1.647,1.103,-1.493,-1.235,-4.441,-5.139,-1.883,-1.111,-1.765,-1.783,2.079,-1.757,,344.1,-5.175,-7.769,363.6,-1.315,7.513,4.922,-4.962,-7.747,10,4.817,4.322,5.184,4.305,1.67,1.949,1.541,2.034,10,4.777,4.637,0,292.115458699,norm,0,25,25,25,355.819,355.824,355.825175005,355.826,355.829,355.832,down,1,1.03985686755,8.96014313245,001,004,800_600,Intel(R) Core(TM) i7-2670QM CPU @ 2.20GHz,orientation_search,GRVLAPTOP3,Intel(R) HD Graphics Family,2018_jun_07_0917,testMonitor,
366.0,357.9,345.1,353.8,36,80,373.9,369.2,357.4,363.7,8.276,7.722,7.761,7.548,8.24,7.686,7.883,5.084,-4.509,-7.619,1.709,-2.079,8.168,5.038,-4.901,-7.994,366.9,362.5,-7.843,363.7,335.5,364.9,360.2,356.6,36,358.8,0,5,prime,10,0,76,norm,36,-4.91,up,norm,355.474442281,372.1,375.5,1.4,341.6,3,348.5,352.3,340.7,10,5,8.067,4.933,1.964,-1.667,-5.124,-8.056,355.2,5,431.5,-8.077,-7.629,80,-8.428,-8.065,-5.015,-4.77,-4.682,-4.761,4.421,7.749,3,-1.922,1.132,4.384,8.055,-7.641,-8.232,-1.484,1.349,366.7,351.2,,343.5,351.9,359.9,342.2,344.3,353.4,354.0,1,norm,1.824,2.059,-1.523,-1.395,-5.264,-4.417,-1.704,-1.665,-1.568,-1.77,1.474,-2.048,354.2,348.5,-5.052,-8.303,349.4,-1.62,7.938,4.932,-4.619,-7.608,10,4.382,4.54,5.109,4.321,1.669,2.006,1.666,1.509,10,4.574,4.663,0,292.115458699,norm,0,26,26,26,356.881,356.886,356.888134697,356.889,356.891,356.895,up,1,1.53426292532,8.46573707468,001,004,800_600,Intel(R) Core(TM) i7-2670QM CPU @ 2.20GHz,orientation_search,GRVLAPTOP3,Intel(R) HD Graphics Family,2018_jun_07_0917,testMonitor,
368.9,363.4,354.6,361.1,36,80,337.6,358.5,362.3,363.7,8.337,8.187,7.844,8.126,8.232,8.346,8.023,4.455,-4.972,-7.835,1.224,-1.906,7.857,4.695,-4.387,-8.477,370.8,362.1,-7.728,356.1,375.5,365.5,361.2,335.5,36,358.1,1,5,prime,10,0,85,norm,36,-4.644,up,norm,355.474442281,352.0,362.8,2.014,372.2,5,,347.4,363.9,10,5,7.648,4.504,1.927,-1.396,-4.662,-8.075,347.3,5,440.5,-7.596,-7.587,80,-7.764,-8.411,-4.429,-4.522,-5.017,-4.955,4.339,7.803,11,-1.528,1.89,4.861,8.422,-7.995,-7.56,-1.404,1.637,339.7,355.7,340.1,356.8,354.9,358.8,348.2,367.6,364.1,360.9,2,norm,2.074,1.449,-1.475,-1.232,-4.524,-4.603,-2.097,-1.63,-1.444,-1.83,1.408,-1.29,344.6,369.4,-4.778,-7.591,363.9,-1.41,7.745,4.558,-5.124,-8.493,10,5.135,4.82,4.611,4.431,1.895,1.93,1.567,2.004,10,4.721,4.589,0,292.115458699,norm,0,27,27,27,358.438,358.444,358.445384175,358.446,358.449,358.452,up,1,1.46434133251,8.53565866749,001,004,800_600,Intel(R) Core(TM) i7-2670QM CPU @ 2.20GHz,orientation_search,GRVLAPTOP3,Intel(R) HD Graphics Family,2018_jun_07_0917,testMonitor,
346.9,338.8,349.2,365.6,36,80,351.0,354.3,365.6,352.0,8.092,7.56,8.045,8.023,7.629,7.694,8.432,5.003,-4.428,-7.631,1.227,-1.473,8.259,4.63,-4.838,-7.9,353.1,346.0,-8.309,353.4,335.5,355.9,366.7,,36,354.6,4,5,prime,10,0,70,norm,36,-5.047,down,norm,355.474442281,345.8,336.1,1.563,353.0,2,354.8,360.3,350.8,10,5,7.613,4.52,2.051,-1.59,-4.42,-7.89,361.8,5,425.5,-7.979,-7.914,80,-8.151,-8.088,-4.712,-4.927,-4.791,-4.677,4.628,7.97,26,-1.198,1.54,4.599,7.6,-7.901,-7.656,-1.638,1.647,366.9,348.1,355.0,362.3,336.7,355.4,345.3,352.9,375.5,353.7,3,norm,2.071,1.67,-1.799,-1.651,-5.153,-4.74,-1.8,-1.506,-1.785,-1.969,1.395,-2.061,359.1,360.2,-4.762,-7.52,341.4,-1.707,8.347,5.261,-4.579,-8.057,10,5.087,4.387,4.729,5.25,1.889,1.77,1.603,1.568,10,4.759,4.701,0,292.115458699,norm,0,28,28,28,359.925,359.931,359.932342694,359.933,359.936,359.939,down,1,1.63961227413,8.36038772587,001,004,800_600,Intel(R) Core(TM) i7-2670QM CPU @ 2.20GHz,orientation_search,GRVLAPTOP3,Intel(R) HD Graphics Family,2018_jun_07_0917,testMonitor,
,352.8,338.4,352.4,36,80,350.6,343.9,335.5,375.5,7.668,8.466,7.77,7.527,8.432,8.136,8.463,4.515,-4.403,-7.616,1.612,-1.847,8.21,4.852,-4.474,-7.946,355.4,335.9,-7.941,363.5,367.0,349.7,346.6,359.9,36,346.0,3,5,prime,10,0,93,norm,36,-5.237,up,norm,355.474442281,353.3,336.7,1.172,369.1,4,360.7,348.6,368.8,10,5,7.871,4.967,1.111,-1.477,-5.109,-8.342,360.6,5,448.5,-8.258,-8.357,80,-7.987,-8.181,-4.762,-4.914,-4.624,-4.746,5.283,7.757,22,-2.047,1.229,4.624,7.866,-8.095,-7.617,-1.768,1.819,370.4,367.4,361.5,346.8,371.8,358.2,364.7,361.9,354.1,362.2,4,norm,2.009,1.367,-1.126,-1.935,-4.376,-4.551,-1.686,-1.897,-1.628,-1.3,1.222,-1.685,354.5,353.9,-4.683,-8.147,352.9,-1.735,8.449,4.739,-5.258,-7.856,10,4.968,5.2,4.937,4.337,2.096,1.579,1.736,2.035,10,4.56,5.099,0,292.115458699,norm,0,29,29,29,361.586,361.593,361.59428264,361.595,361.598,361.601,up,1,0.861191129823,9.13880887018,001,004,800_600,Intel(R) Core(TM) i7-2670QM CPU @ 2.20GHz,orientation_search,GRVLAPTOP3,Intel(R) HD Graphics Family,2018_jun_07_0917,testMonitor,
494.6,488.0,505.7,501.1,36,80,508.0,499.1,491.9,495.2,8.041,7.524,7.626,8.224,8.139,7.668,8.465,5.101,-4.693,-8.208,1.926,-1.709,8.186,5.056,-4.736,-7.877,499.3,503.9,-7.647,489.2,499.6,499.9,504.3,500.2,36,497.2,2,5,probe,5,0,66,norm,36,-4.679,down,norm,497.980666576,508.0,501.6,1.28,500.2,0,491.4,497.7,,10,5,7.772,4.935,2.084,-1.826,-4.746,-8.099,493.2,1,432.0,-8.468,-7.614,80,-7.991,-8.387,-5.231,-4.656,-4.335,-5.074,5.205,7.875,12,-1.847,1.731,4.717,8.105,-7.798,-7.898,-1.366,1.149,504.1,496.3,499.2,491.9,491.0,497.4,493.9,495.0,497.6,493.6,0,norm,1.457,1.582,-1.482,-1.163,-5.214,-5.238,-2.06,-2.044,-1.638,-1.821,1.479,-1.177,493.7,502.5,-4.543,-7.804,491.8,-1.233,8.073,4.667,-4.362,-8.187,11,5.076,4.686,5.272,4.644,2.043,1.602,1.244,1.286,11,5.058,4.848,80,355.474442281,norm,0,30,30,30,362.47,362.477,362.478465459,362.479,362.482,362.485,down,1,1.59921093171,8.40078906829,001,004,800_600,Intel(R) Core(TM) i7-2670QM CPU @ 2.20GHz,orientation_search,GRVLAPTOP3,Intel(R) HD Graphics Family,2018_jun_07_0917,testMonitor,
109.1,103.4,109.7,107.3,36,60,116.0,109.7,90.5,113.7,7.674,7.801,8.0,7.912,8.451,8.204,8.011,4.549,-5.172,-8.211,1.845,-1.693,8.39,4.522,-4.811,-8.391,116.4,103.7,-8.364,,98.3,94.4,109.0,113.9,36,118.5,5,5,prime,10,0,61,norm,36,-4.635,down,norm,106.152630511,101.6,109.0,1.578,98.8,1,105.5,87.5,93.6,10,6,7.718,4.723,1.836,-1.23,-4.52,-8.081,110.1,6,167.2,-8.369,-7.612,60,-7.821,-7.551,-5.083,-5.081,-4.481,-4.691,4.482,8.418,31,-1.549,1.998,5.074,7.684,-8.499,-8.041,-1.758,1.802,117.6,105.3,126.2,112.4,122.3,103.9,123.2,86.2,106.2,108.2,0,norm,1.266,1.132,-1.348,-1.303,-4.769,-4.556,-1.599,-1.434,-1.206,-1.308,1.724,-1.765,98.4,116.5,-5.174,-8.391,103.6,-1.781,7.847,4.336,-4.656,-8.191,12,4.894,4.606,4.616,4.715,1.946,1.634,1.51,1.235,12,4.631,4.566,80,355.474442281,norm,0,31,31,31,364.093,364.098,364.100228203,364.101,364.104,364.107,down,1,1.06607151112,8.93392848888,001,004,800_600,Intel(R) Core(TM) i7-2670QM CPU @ 2.20GHz,orientation_search,GRVLAPTOP3,Intel(R) HD Graphics Family,2018_jun_07_0917,testMonitor,
91.4,99.2,119.0,98.3,36,60,100.3,89.5,95.0,112.2,7.998,7.759,8.417,7.51,7.756,7.544,8.385,4.998,-5.018,-7.526,1.353,-1.465,7.537,4.665,-4.969,-7.918,116.2,116.0,-8.151,121.3,116.1,112.9,101.4,103.5,36,92.0,2,5,prime,10,0,74,norm,36,-4.78,up,norm,106.152630511,96.4,,1.472,97.1,4,116.3,112.5,110.7,10,6,7.592,4.816,1.721,-1.672,-4.439,-8.117,102.0,6,180.2,-8.066,-7.869,60,-7.806,-7.775,-4.466,-4.306,-4.42,-4.63,4.511,7.757,16,-1.419,1.905,5.119,8.15,-7.605,-7.769,-1.466,2.008,103.9,116.1,126.2,115.2,103.6,100.1,101.1,91.3,125.3,86.2,1,norm,1.33,1.414,-2.058,-1.882,-5.216,-4.965,-1.344,-1.245,-1.584,-1.324,1.587,-1.343,95.6,93.9,-5.231,-7.724,112.5,-1.259,8.404,4.746,-4.954,-7.809,12,4.925,4.674,5.101,4.953,1.346,1.404,1.716,1.864,12,4.676,4.307,80,355.474442281,norm,0,32,32,32,365.182,365.187,365.188776346,365.189,365.193,365.196,up,1,0.959656560572,9.04034343943,001,004,800_600,Intel(R) Core(TM) i7-2670QM CPU @ 2.20GHz,orientation_search,GRVLAPTOP3,Intel(R) HD Graphics Family,2018_jun_07_0917,testMonitor,
104.4,94.0,114.9,108.7,36,60,113.0,113.4,100.0,86.2,7.952,8.224,7.587,8.462,8.137,8.437,8.066,4.894,-4.754,-8.023,1.759,-1.919,8.39,5.255,-4.923,-8.193,104.2,101.5,-8.336,106.8,126.2,,97.6,93.6,36,100.5,5,5,prime,10,0,62,norm,36,-4.749,up,norm,106.152630511,103.4,117.8,1.368,100.7,3,114.2,107.2,122.3,10,6,7.599,5.269,1.584,-1.346,-5.22,-7.731,88.1,6,168.2,-7.784,-8.016,60,-7.513,-8.493,-4.312,-5.197,-4.513,-4.514,4.32,7.986,33,-1.936,1.701,4.323,7.912,-8.093,-7.877,-1.987,1.967,100.8,93.2,104.4,110.5,119.1,121.6,119.0,116.5,107.5,110.1,2,norm,1.352,1.479,-1.955,-1.783,-5.164,-5.206,-1.849,-2.085,-1.708,-1.496,1.485,-1.833,105.3,108.8,-4.776,-8.484,109.4,-1.44,7.535,4.544,-4.978,-8.049,12,4.888,5.129,5.129,4.894,1.856,2.098,1.525,1.776,12,4.536,5.3,80,355.474442281,norm,0,33,33,33,366.165,366.172,366.173544125,366.174,366.177,366.181,down,0,1.07919307518,-10,001,004,800_600,Intel(R) Core(TM) i7-2670QM CPU @ 2.20GHz,orientation_search,GRVLAPTOP3,Intel(R) HD Graphics Family,2018_jun_07_0917,testMonitor,
126.2,116.3,,101.5,36,60,112.0,92.8,102.2,106.8,7.681,8.208,7.929,8.497,7.901,7.75,7.585,4.397,-5.267,-7.711,1.621,-1.893,8.42,4.328,-4.913,-8.206,92.5,112.3,-7.763,110.0,112.7,114.7,103.7,116.0,36,110.8,3,5,prime,10,0,93,norm,36,-4.619,down,norm,106.152630511,111.8,105.9,1.215,106.6,2,106.6,92.1,91.4,10,6,8.362,4.791,1.968,-1.623,-4.695,-7.58,103.3,6,199.2,-8.124,-8.051,60,-7.678,-7.961,-5.158,-4.465,-5.131,-5.204,4.607,7.954,20,-1.625,1.581,5.044,8.106,-7.769,-7.509,-1.152,1.471,118.0,113.3,99.2,108.7,115.3,102.8,105.1,104.3,103.3,86.2,3,norm,1.323,1.134,-1.106,-1.201,-4.448,-4.425,-1.392,-1.357,-1.776,-1.677,2.051,-1.932,116.2,119.5,-4.865,-8.08,91.6,-1.306,8.129,4.581,-5.212,-7.848,12,4.536,4.504,4.371,5.082,1.876,1.42,1.603,1.802,12,4.837,4.749,80,355.474442281,norm,0,34,34,34,368.279,368.284,368.286264898,368.287,368.289,368.293,up,0,0.732511079783,-10,001,004,800_600,Intel(R) Core(TM) i7-2670QM CPU @ 2.20GHz,orientation_search,GRVLAPTOP3,Intel(R) HD Graphics Family,2018_jun_07_0917,testMonitor,
100.7,126.2,96.3,,36,60,110.0,99.3,121.9,90.9,7.893,7.74,8.44,7.706,8.289,8.162,8.159,4.881,-4.902,-8.032,1.225,-1.124,7.831,4.513,-4.585,-7.64,103.4,117.2,-7.562,106.8,101.2,95.3,111.8,117.3,36,112.7,3,5,prime,10,0,95,norm,36,-4.932,up,norm,106.152630511,108.3,103.1,1.919,103.7,3,104.4,98.1,86.2,10,6,8.417,5.169,1.934,-1.697,-4.554,-7.507,97.6,6,201.2,-8.472,-7.667,60,-7.592,-8.475,-5.096,-4.541,-4.849,-4.521,4.958,8.212,21,-1.386,2.017,4.83,7.704,-8.179,-8.272,-1.537,1.667,100.4,116.1,111.2,101.9,112.8,117.2,96.8,109.4,103.9,116.8,4,norm,2.042,1.238,-1.952,-1.486,-4.685,-5.299,-1.325,-1.515,-1.222,-1.164,1.739,-1.282,108.0,104.7,-4.347,-8.085,121.8,-1.611,7.501,5.189,-4.815,-7.969,12,4.978,4.531,4.578,4.632,1.994,1.507,1.56,2.02,12,5.094,5.182,80,355.474442281,norm,0,35,35,35,370.042,370.048,370.049313733,370.05,370.053,370.056,down,0,0.571816748252,-10,001,004,800_600,Intel(R) Core(TM) i7-2670QM CPU @ 2.20GHz,orientation_search,GRVLAPTOP3,Intel(R) HD Graphics Family,2018_jun_07_0917,testMonitor,
118.1,90.8,86.2,111.5,36,60,100.7,105.4,114.8,105.1,8.465,8.4,8.367,7.987,7.877,7.545,7.801,4.425,-4.911,-7.878,1.78,-1.519,8.139,4.714,-4.669,-7.679,105.4,126.2,-8.067,101.4,100.8,107.9,104.5,107.5,36,108.7,2,5,prime,10,0,102,norm,36,-4.633,up,norm,106.152630511,102.3,114.8,1.376,108.2,3,123.8,96.2,104.7,10,6,7.855,4.732,1.822,-1.902,-5.145,-8.096,96.4,6,208.2,-7.572,-8.135,60,-8.43,-8.082,-5.051,-4.541,-4.715,-5.045,4.414,7.9,15,-1.202,1.218,4.683,7.592,-8.009,-7.969,-1.313,1.697,121.6,106.4,96.5,100.4,107.6,109.9,120.3,98.6,122.6,102.0,5,norm,1.931,2.061,-1.126,-1.333,-5.133,-4.857,-1.189,-1.891,-1.272,-1.99,2.089,-1.736,110.6,110.1,-4.504,-7.722,,-1.682,8.26,5.078,-4.735,-7.615,12,4.901,5.195,5.019,4.496,1.128,1.668,1.989,1.577,12,4.485,4.376,80,355.474442281,norm,0,36,36,36,371.649,371.654,371.656059057,371.657,371.659,371.663,down,0,1.5130055246,-10,001,004,800_600,Intel(R) Core(TM) i7-2670QM CPU @ 2.20GHz,orientation_search,GRVLAPTOP3,Intel(R) HD Graphics Family,2018_jun_07_0917,testMonitor,
258.0,253.9,249.3,254.6,36,20,248.5,254.3,258.9,249.6,8.334,7.856,8.383,8.008,7.588,7.539,7.684,4.885,-4.571,-8.011,1.239,-1.381,8.383,5.051,-4.686,-8.425,243.8,258.1,-8.426,259.1,257.6,247.3,251.7,249.4,36,,4,5,probe,5,0,93,norm,36,-5.286,up,norm,252.539011294,255.1,251.7,1.218,251.7,3,250.6,248.8,250.1,10,6,8.299,4.655,1.783,-2.032,-4.39,-8.28,256.8,1,159.5,-8.002,-7.854,60,-7.786,-8.405,-5.273,-5.189,-4.622,-4.328,4.971,8.064,27,-1.196,1.363,5.131,8.264,-8.104,-7.961,-2.078,2.041,251.6,256.2,258.1,245.4,250.3,253.4,247.8,249.7,243.9,242.5,0,norm,1.15,1.526,-1.228,-1.954,-4.888,-5.22,-1.428,-1.96,-1.988,-1.265,1.232,-1.419,262.5,258.2,-4.35,-7.582,250.6,-1.464,7.961,5.199,-5.277,-8.395,13,4.432,4.956,4.777,4.755,1.868,2.096,1.301,1.155,13,4.925,4.92,60,106.152630511,norm,0,37,37,37,374.191,374.197,374.199198417,374.2,374.202,374.206,up,1,0.366544587869,9.63345541213,001,004,800_600,Intel(R) Core(TM) i7-2670QM CPU @ 2.20GHz,orientation_search,GRVLAPTOP3,Intel(R) HD Graphics Family,2018_jun_07_0917,testMonitor,
261.6,257.7,249.5,253.8,36,-20,272.5,259.3,256.6,269.2,7.604,7.787,8.011,8.114,8.1,7.745,7.893,4.962,-5.119,-8.431,1.19,-1.298,8.483,4.948,-4.351,-8.32,273.2,286.7,-7.942,264.0,257.5,248.6,275.5,280.2,36,266.0,0,5,prime,10,0,118,norm,36,-4.431,down,norm,268.552310321,254.7,274.3,1.995,272.3,2,254.7,275.7,268.1,10,2,7.509,5.101,1.943,-1.723,-4.588,-8.338,288.6,2,386.6,-7.771,-8.169,-20,-7.933,-7.577,-5.292,-4.986,-4.568,-4.525,4.482,7.539,2,-1.915,1.479,5.121,7.638,-7.968,-8.015,-1.104,1.663,259.0,274.6,271.0,,251.2,270.4,271.6,279.1,272.4,263.8,0,norm,1.149,1.317,-2.051,-1.352,-5.224,-4.6,-1.771,-1.597,-1.984,-1.879,1.249,-2.098,266.6,286.9,-4.916,-7.842,275.7,-1.503,7.915,4.38,-4.94,-8.256,14,5.154,4.97,4.407,5.256,1.67,1.681,1.931,1.101,14,4.59,4.459,20,106.152630511,norm,0,38,38,38,374.581,374.586,374.588324703,374.589,374.592,374.595,down,1,4.6112855724,5.3887144276,001,004,800_600,Intel(R) Core(TM) i7-2670QM CPU @ 2.20GHz,orientation_search,GRVLAPTOP3,Intel(R) HD Graphics Family,2018_jun_07_0917,testMonitor,
270.8,267.3,266.4,277.1,36,-20,248.7,273.6,272.4,249.6,8.051,7.527,7.877,8.295,7.685,8.068,8.364,5.209,-4.553,-7.947,1.936,-1.956,7.583,5.036,-4.798,-7.91,,281.6,-7.822,278.1,282.8,262.9,270.7,262.7,36,263.6,5,5,prime,10,0,65,norm,36,-5.3,up,norm,268.552310321,266.9,282.3,1.231,275.6,5,270.3,267.4,255.5,10,2,7.962,4.332,1.478,-1.259,-5.173,-8.053,272.8,2,333.6,-8.417,-8.313,-20,-7.628,-8.044,-4.976,-5.146,-4.765,-4.926,4.773,7.786,35,-1.742,1.662,4.454,7.689,-7.962,-8.355,-1.831,1.921,248.6,265.0,263.7,254.6,280.3,279.9,261.6,282.0,262.7,267.7,1,norm,1.242,2.051,-1.279,-1.648,-4.482,-4.615,-1.961,-1.704,-1.513,-1.91,1.437,-2.081,288.6,269.1,-4.426,-8.305,253.2,-1.734,7.741,5.054,-5.21,-7.744,14,4.816,4.305,4.818,4.377,1.879,1.539,2.077,1.897,14,4.432,5.202,20,106.152630511,norm,0,39,39,39,379.215,379.221,379.222638387,379.223,379.226,379.229,up,1,1.5496170231,8.4503829769,001,004,800_600,Intel(R) Core(TM) i7-2670QM CPU @ 2.20GHz,orientation_search,GRVLAPTOP3,Intel(R) HD Graphics Family,2018_jun_07_0917,testMonitor,
340.1,350.7,337.3,346.6,36,-40,333.8,351.0,333.6,343.9,8.019,8.463,7.954,7.651,7.698,7.652,7.733,4.464,-4.94,-7.835,1.869,-1.594,8.199,5.126,-4.827,-8.18,342.5,338.8,-8.193,339.8,336.1,340.6,341.6,336.3,36,338.6,1,5,probe,5,0,93,norm,36,-4.362,up,norm,341.31358578,345.5,342.8,1.79,348.2,3,331.3,338.1,339.6,10,2,7.882,4.76,1.135,-1.828,-5.01,-7.912,343.8,1,248.3,-8.315,-7.88,-20,-8.226,-8.429,-4.741,-4.876,-4.344,-5.093,5.213,8.135,9,-1.756,1.71,4.643,8.111,-8.464,-7.521,-1.663,1.532,,336.5,340.2,333.7,340.3,335.5,351.3,342.2,338.8,339.8,0,norm,1.744,1.485,-1.427,-1.371,-4.764,-4.344,-1.848,-1.832,-1.369,-1.485,1.603,-1.306,333.4,346.8,-4.861,-7.98,340.6,-1.852,8.477,4.318,-4.451,-7.603,15,4.665,4.689,4.847,4.764,1.211,1.575,1.595,1.785,15,5.127,5.269,-20,268.552310321,norm,0,40,40,40,380.788,380.793,380.795154174,380.796,380.798,380.802,up,1,2.63506455483,7.36493544517,001,004,800_600,Intel(R) Core(TM) i7-2670QM CPU @ 2.20GHz,orientation_search,GRVLAPTOP3,Intel(R) HD Graphics Family,2018_jun_07_0917,testMonitor,
20.0,35.6,31.3,20.0,36,20,23.4,45.8,16.6,38.6,8.395,8.41,7.812,7.905,8.055,8.341,8.221,5.121,-4.952,-7.688,1.925,-1.494,8.444,4.644,-4.889,-8.437,,7.5,-8.455,41.0,44.9,23.5,31.3,35.9,36,24.5,5,5,prime,10,0,95,norm,36,-4.343,up,norm,27.5214048552,15.2,13.3,1.172,42.3,5,24.5,32.8,19.4,10,6,8.185,4.923,1.309,-1.808,-5.102,-7.67,47.5,6,122.5,-7.524,-7.854,20,-7.978,-7.539,-4.415,-4.689,-4.521,-4.51,4.614,7.527,35,-2.044,1.5,4.603,8.308,-7.909,-7.893,-1.169,1.105,30.1,12.1,11.3,22.8,34.6,23.4,37.4,33.9,9.7,27.3,0,norm,1.561,1.693,-1.743,-2.049,-5.055,-4.314,-1.916,-1.107,-1.968,-1.267,1.104,-1.475,30.4,9.1,-4.637,-7.801,14.5,-1.269,8.394,4.838,-4.547,-8.228,16,4.839,4.912,5.163,4.951,2.015,1.959,1.62,1.2,16,4.669,4.741,-40,268.552310321,norm,0,41,41,41,383.445,383.45,383.451740428,383.452,383.455,383.458,up,1,2.15101332563,7.84898667437,001,004,800_600,Intel(R) Core(TM) i7-2670QM CPU @ 2.20GHz,orientation_search,GRVLAPTOP3,Intel(R) HD Graphics Family,2018_jun_07_0917,testMonitor,
33.0,31.1,47.5,28.8,36,20,37.9,29.8,23.4,38.6,8.06,8.185,7.983,7.69,7.575,7.559,8.101,5.032,-4.775,-7.967,1.332,-1.107,7.862,4.564,-4.785,-7.877,13.7,24.3,-8.169,37.9,27.4,27.7,21.3,31.8,36,35.8,1,5,prime,10,0,65,norm,36,-4.481,up,norm,27.5214048552,36.9,31.1,1.985,25.9,5,,9.0,27.1,10,6,7.509,4.841,1.911,-1.431,-4.533,-7.607,29.9,6,92.5,-8.137,-8.282,20,-8.294,-7.611,-4.531,-4.608,-5.251,-5.032,4.682,7.891,11,-1.847,1.362,4.641,7.642,-8.178,-8.181,-1.877,1.228,38.5,12.7,7.5,37.2,35.7,44.9,25.9,40.2,17.9,38.8,1,norm,1.371,1.363,-1.198,-1.397,-5.268,-5.163,-2.086,-1.888,-1.506,-1.123,1.953,-1.756,25.8,12.2,-5.138,-7.986,30.1,-1.45,8.099,4.978,-4.886,-8.337,16,5.126,4.541,4.626,4.828,1.717,1.642,1.527,1.74,16,4.917,5.031,-40,268.552310321,norm,0,42,42,42,385.618,385.624,385.625139796,385.626,385.629,385.632,up,1,1.95221415887,8.04778584113,001,004,800_600,Intel(R) Core(TM) i7-2670QM CPU @ 2.20GHz,orientation_search,GRVLAPTOP3,Intel(R) HD Graphics Family,2018_jun_07_0917,testMonitor,
8.6,20.9,32.4,47.5,36,20,23.2,39.1,,36.7,8.02,7.607,7.858,7.961,7.669,7.542,7.871,4.396,-4.9,-8.413,1.792,-1.799,7.527,4.304,-4.305,-8.238,16.2,25.9,-7.648,17.0,12.5,20.5,34.6,38.4,36,36.5,4,5,prime,10,0,86,norm,36,-4.438,up,norm,27.5214048552,37.4,33.0,1.71,34.4,4,29.6,46.5,33.0,10,6,8.132,4.554,1.201,-1.18,-5.18,-7.642,11.5,6,113.5,-8.048,-7.504,20,-8.043,-8.004,-4.657,-4.979,-4.572,-5.091,4.665,7.604,28,-2.069,1.661,5.299,7.7,-7.552,-8.107,-1.37,1.917,30.8,22.6,29.9,7.5,21.5,25.2,40.0,18.7,24.2,19.2,2,norm,1.291,1.521,-1.376,-1.272,-4.498,-5.165,-1.596,-1.204,-1.956,-1.881,1.502,-1.554,32.1,27.5,-4.469,-7.954,35.9,-1.503,8.259,4.529,-4.659,-8.077,16,4.762,4.589,5.171,4.68,1.641,1.633,1.316,1.808,16,4.487,5.263,-40,268.552310321,norm,0,43,43,43,387.593,387.598,387.60015419,387.601,387.604,387.607,up,1,0.899098441149,9.10090155885,001,004,800_600,Intel(R) Core(TM) i7-2670QM CPU @ 2.20GHz,orientation_search,GRVLAPTOP3,Intel(R) HD Graphics Family,2018_jun_07_0917,testMonitor,
19.4,15.9,34.1,29.9,36,20,34.2,38.3,7.5,23.9,7.833,8.494,7.938,8.413,7.614,7.549,7.718,5.053,-4.306,-8.28,1.609,-1.338,8.311,4.945,-4.82,-8.236,10.2,23.1,-8.078,44.1,27.7,36.1,41.8,44.1,36,13.9,0,5,prime,10,0,79,norm,36,-5.104,up,norm,27.5214048552,42.9,22.9,1.388,12.0,5,15.3,20.6,23.6,10,6,7.553,5.263,1.252,-1.49,-5.213,-7.581,47.5,6,106.5,-8.226,-7.623,20,-7.923,-7.889,-4.352,-4.974,-4.884,-4.595,5.204,8.176,5,-1.787,1.945,4.606,8.088,-7.892,-8.411,-1.761,1.831,26.0,36.8,25.6,29.1,41.7,40.2,13.4,34.4,,36.4,3,norm,1.433,2.061,-1.362,-1.23,-4.808,-4.893,-1.913,-1.631,-1.569,-1.776,2.1,-2.092,11.6,27.4,-5.031,-7.963,24.9,-2.012,7.574,5.036,-4.578,-7.766,16,4.485,4.677,4.329,4.381,1.517,1.94,1.165,1.789,16,4.796,4.961,-40,268.552310321,norm,0,44,44,44,388.515,388.52,388.522125712,388.522,388.525,388.529,up,1,1.32281662544,8.67718337456,001,004,800_600,Intel(R) Core(TM) i7-2670QM CPU @ 2.20GHz,orientation_search,GRVLAPTOP3,Intel(R) HD Graphics Family,2018_jun_07_0917,testMonitor,
14.0,36.0,26.9,25.3,36,20,,38.6,27.2,9.9,7.991,7.853,8.1,8.487,8.282,8.364,7.59,4.574,-5.201,-7.564,1.152,-1.628,8.025,4.816,-5.268,-7.79,44.2,34.2,-8.328,29.2,28.8,34.3,28.3,25.1,36,29.8,4,5,prime,10,0,87,norm,36,-4.377,down,norm,27.5214048552,30.2,9.6,1.696,20.7,0,31.9,33.8,28.2,10,6,7.697,4.666,1.604,-1.865,-5.014,-8.404,7.5,6,114.5,-8.106,-7.581,20,-7.658,-8.392,-4.669,-4.547,-4.517,-5.189,4.766,8.343,24,-1.809,1.227,4.498,8.275,-8.115,-8.395,-1.582,1.106,29.5,28.4,30.4,47.5,31.9,32.2,10.7,23.5,17.1,28.4,4,norm,1.613,1.651,-1.18,-1.164,-5.164,-4.535,-1.157,-1.477,-1.167,-1.732,1.56,-1.203,34.5,26.9,-5.296,-8.056,33.5,-1.877,8.0,4.836,-4.574,-8.017,16,4.53,5.254,4.441,5.26,1.632,1.464,1.351,1.259,16,4.592,5.216,-40,268.552310321,norm,0,45,45,45,389.86,389.866,389.8674666,389.868,389.871,389.875,down,1,1.27821171293,8.72178828707,001,004,800_600,Intel(R) Core(TM) i7-2670QM CPU @ 2.20GHz,orientation_search,GRVLAPTOP3,Intel(R) HD Graphics Family,2018_jun_07_0917,testMonitor,
47.5,21.0,29.2,37.2,36,20,36.0,34.0,11.0,27.7,8.092,7.73,7.529,8.317,8.333,8.076,7.921,5.161,-4.364,-7.828,1.113,-1.7,7.813,4.83,-4.985,-8.245,17.8,32.7,-7.794,18.0,27.9,20.6,22.7,24.8,36,30.2,0,5,prime,10,0,62,norm,36,-4.444,up,norm,27.5214048552,38.4,12.2,1.51,27.0,3,30.0,38.4,40.0,10,6,7.672,4.764,2.004,-1.607,-4.337,-8.164,7.5,6,89.5,-7.883,-8.253,20,-8.451,-8.377,-4.383,-5.239,-4.642,-5.063,4.941,8.332,3,-1.212,1.995,5.154,8.19,-7.826,-7.501,-2.099,1.29,28.8,19.7,,27.6,29.4,25.3,26.8,24.1,41.3,36.0,5,norm,1.354,1.668,-1.308,-1.552,-4.661,-5.051,-1.269,-2.078,-1.57,-1.858,1.385,-2.015,40.6,25.2,-4.916,-8.291,35.1,-1.892,7.918,4.46,-5.284,-8.224,16,4.971,4.518,4.949,5.274,1.391,1.975,1.499,1.171,16,4.547,4.428,-40,268.552310321,norm,0,46,46,46,391.161,391.166,391.168227323,391.169,391.172,391.175,up,1,0.849243035181,9.15075696482,001,004,800_600,Intel(R) Core(TM) i7-2670QM CPU @ 2.20GHz,orientation_search,GRVLAPTOP3,Intel(R) HD Graphics Family,2018_jun_07_0917,testMonitor,
133.0,138.4,133.6,134.2,36,-80,132.1,129.6,141.1,130.4,7.863,8.152,8.42,8.046,7.905,7.799,7.699,4.426,-4.396,-8.095,1.762,-1.442,8.27,5.24,-5.01,-8.166,135.2,128.8,-7.501,140.3,130.9,124.2,121.1,129.2,36,140.8,2,5,probe,5,0,84,norm,36,-4.302,down,norm,131.081025293,133.2,122.2,1.702,134.2,1,132.6,,128.0,10,6,8.249,4.326,2.066,-1.966,-4.592,-8.144,136.9,1,47.1,-7.636,-8.495,20,-8.068,-8.11,-4.677,-4.93,-5.172,-4.561,4.998,7.601,13,-2.064,1.217,4.381,8.488,-7.877,-7.844,-1.992,1.39,130.2,132.9,134.7,132.1,132.7,128.7,136.2,133.4,136.9,133.5,0,norm,1.46,1.335,-2.093,-1.775,-4.753,-5.28,-1.306,-1.833,-1.485,-1.462,1.934,-1.384,134.0,133.3,-4.303,-8.42,132.2,-1.909,7.576,4.324,-4.525,-8.058,17,4.327,4.717,4.807,4.963,1.944,1.733,1.152,1.428,17,5.238,5.152,20,27.5214048552,norm,0,47,47,47,392.033,392.038,392.040056259,392.041,392.043,392.047,down,1,1.40670451218,8.59329548782,001,004,800_600,Intel(R) Core(TM) i7-2670QM CPU @ 2.20GHz,orientation_search,GRVLAPTOP3,Intel(R) HD Graphics Family,2018_jun_07_0917,testMonitor,
,261.1,281.6,252.9,36,40,252.4,256.9,252.4,262.8,7.996,7.566,8.162,8.028,7.562,8.061,8.047,4.799,-5.008,-8.41,2.073,-1.493,7.807,5.127,-4.833,-8.117,269.9,261.2,-7.601,271.0,253.3,262.1,267.4,281.8,36,269.9,3,5,prime,10,0,103,norm,36,-4.669,up,norm,261.79540798,267.8,253.6,1.676,243.2,4,258.1,252.0,265.8,10,2,7.796,4.927,1.219,-1.39,-4.416,-7.795,258.0,2,364.8,-8.318,-8.348,40,-8.432,-8.245,-4.876,-4.756,-5.17,-5.182,4.997,8.214,22,-1.128,1.77,4.926,7.842,-8.429,-8.299,-1.531,1.834,268.6,271.8,261.2,247.9,270.3,263.3,253.0,269.4,254.0,267.1,0,norm,1.305,1.302,-1.763,-1.445,-5.124,-4.81,-1.432,-1.661,-2.051,-1.432,1.7,-1.362,241.8,275.3,-4.527,-7.855,275.7,-1.883,8.415,5.0,-4.735,-8.069,18,5.101,4.34,4.935,5.11,1.194,1.366,1.352,1.713,18,5.001,4.338,-80,27.5214048552,norm,0,48,48,48,393.462,393.468,393.469590892,393.47,393.473,393.477,up,1,3.19839057713,6.80160942287,001,004,800_600,Intel(R) Core(TM) i7-2670QM CPU @ 2.20GHz,orientation_search,GRVLAPTOP3,Intel(R) HD Graphics Family,2018_jun_07_0917,testMonitor,
276.0,255.4,248.6,281.8,36,40,244.9,252.2,259.9,261.4,7.77,8.148,8.063,8.292,8.066,7.81,8.461,4.424,-4.459,-7.554,1.32,-1.931,7.618,4.707,-4.614,-7.904,264.7,,-8.372,273.5,256.8,261.6,271.1,263.1,36,261.3,5,5,prime,10,0,110,norm,36,-4.629,up,norm,261.79540798,258.6,269.2,1.323,248.1,4,268.5,265.9,250.5,10,2,7.93,5.297,1.38,-1.801,-5.208,-7.81,241.8,2,371.8,-8.313,-8.495,40,-8.388,-8.083,-4.386,-4.747,-4.533,-4.47,5.157,8.378,34,-1.788,1.994,5.185,8.456,-8.126,-8.176,-1.379,1.453,258.1,246.7,259.9,247.3,266.4,257.8,261.8,250.9,247.3,265.0,1,norm,1.359,1.658,-1.26,-1.202,-4.436,-4.393,-1.684,-1.727,-1.284,-1.338,1.134,-1.52,264.2,242.7,-4.939,-8.327,263.7,-1.863,8.215,4.336,-5.26,-7.991,18,4.95,4.481,4.679,5.138,1.612,1.605,1.997,1.297,18,5.078,4.848,-80,27.5214048552,norm,0,49,49,49,396.683,396.689,396.690596788,396.691,396.694,396.697,down,0,2.38554704081,-10,001,004,800_600,Intel(R) Core(TM) i7-2670QM CPU @ 2.20GHz,orientation_search,GRVLAPTOP3,Intel(R) HD Graphics Family,2018_jun_07_0917,testMonitor,
404.8,407.4,411.9,397.1,36,-40,401.6,396.5,399.9,401.8,8.042,7.737,8.327,8.251,7.925,8.242,8.224,4.398,-4.98,-8.001,1.441,-1.901,7.632,5.163,-4.598,-7.88,406.9,403.4,-8.449,409.3,402.2,407.1,395.2,,36,397.9,4,5,probe,5,0,106,norm,36,-4.823,down,norm,403.272081519,405.3,401.8,1.574,399.5,2,399.2,397.5,409.2,10,2,8.113,4.975,1.954,-1.403,-5.281,-8.115,401.8,2,297.3,-8.2,-8.06,40,-8.108,-7.851,-4.963,-4.656,-4.647,-4.765,4.501,8.087,26,-1.41,1.651,4.878,8.151,-7.94,-7.94,-1.599,1.606,399.6,406.2,403.3,399.4,407.9,411.7,393.3,403.1,413.3,400.1,0,norm,1.143,1.148,-1.704,-1.689,-4.968,-4.873,-1.19,-1.372,-1.624,-1.96,1.713,-1.77,400.4,401.5,-5.207,-8.34,393.8,-1.72,8.178,5.175,-5.05,-7.786,19,5.112,4.562,4.499,4.894,1.934,1.732,1.849,1.645,19,5.22,5.124,40,261.79540798,norm,0,50,50,50,400.103,400.109,400.11022394,400.111,400.113,400.117,down,1,1.51451380403,8.48548619597,001,004,800_600,Intel(R) Core(TM) i7-2670QM CPU @ 2.20GHz,orientation_search,GRVLAPTOP3,Intel(R) HD Graphics Family,2018_jun_07_0917,testMonitor,
404.9,393.1,395.1,390.9,36,-40,394.7,408.3,,404.0,7.592,7.645,8.245,7.668,8.486,7.827,8.295,5.152,-4.35,-7.773,1.392,-2.067,7.704,4.986,-4.949,-8.015,398.8,403.5,-7.514,391.3,393.0,403.6,394.6,393.4,36,401.0,4,5,probe,5,0,101,norm,36,-5.065,up,norm,398.272081519,397.3,406.9,2.082,404.7,4,397.7,407.2,399.6,10,2,7.687,4.308,1.798,-1.821,-4.439,-7.834,399.4,2,297.3,-7.887,-7.561,40,-8.252,-8.411,-4.971,-5.019,-5.171,-4.471,4.512,8.333,28,-1.601,1.511,4.712,8.006,-8.004,-8.263,-1.374,1.982,401.8,402.8,401.7,398.6,404.1,401.0,398.0,406.2,397.4,388.3,1,norm,2.043,1.122,-2.079,-1.83,-4.645,-4.714,-1.307,-1.519,-1.361,-1.436,1.495,-1.47,392.9,404.5,-4.676,-7.676,395.1,-1.872,7.958,4.89,-4.663,-7.645,19,4.712,5.094,4.822,4.977,1.223,1.309,1.677,1.304,19,4.861,5.015,40,261.79540798,norm,0,51,51,51,401.64,401.645,401.646908517,401.647,401.65,401.653,up,1,0.644944485511,9.35505551449,001,004,800_600,Intel(R) Core(TM) i7-2670QM CPU @ 2.20GHz,orientation_search,GRVLAPTOP3,Intel(R) HD Graphics Family,2018_jun_07_0917,testMonitor,
262.4,248.6,247.8,262.6,36,10,235.3,250.0,258.3,233.6,8.105,7.866,7.925,7.667,8.236,7.636,7.996,4.786,-4.399,-7.521,1.332,-1.717,8.175,4.553,-5.058,-8.066,243.2,230.9,-8.287,236.5,,239.5,227.6,246.4,36,238.3,5,5,prime,10,0,111,norm,36,-4.683,down,norm,247.590866133,243.2,241.4,1.774,251.3,0,238.1,267.6,258.7,10,5,7.548,5.273,1.318,-1.139,-4.845,-7.676,250.0,5,358.6,-8.063,-7.947,10,-7.624,-7.849,-4.356,-4.527,-5.018,-5.246,4.921,8.014,30,-1.87,1.16,5.223,8.478,-7.967,-8.173,-1.327,2.067,252.4,243.1,250.0,262.6,239.7,263.8,248.6,243.8,245.5,246.8,0,norm,1.869,1.25,-1.986,-1.591,-5.281,-4.637,-1.73,-1.206,-1.928,-2.03,1.526,-1.702,233.8,244.8,-4.441,-8.374,259.4,-1.22,8.208,5.01,-4.933,-8.425,20,4.418,5.282,5.153,4.828,2.009,2.095,1.495,1.341,20,4.683,5.168,-40,261.79540798,norm,0,52,52,52,402.306,420.665,420.666830414,420.667,420.67,420.674,down,1,0.935027244756,9.06497275524,001,004,800_600,Intel(R) Core(TM) i7-2670QM CPU @ 2.20GHz,orientation_search,GRVLAPTOP3,Intel(R) HD Graphics Family,2018_jun_07_0917,testMonitor,
243.7,247.5,256.2,246.0,36,10,253.1,251.2,240.0,247.8,8.11,7.864,8.021,8.216,8.272,7.982,8.239,4.429,-5.2,-8.464,2.037,-1.746,8.422,4.361,-4.754,-7.644,247.2,246.6,-7.872,247.0,239.3,255.6,252.3,230.2,36,248.0,0,5,prime,10,0,71,norm,36,-4.312,down,norm,247.590866133,255.4,254.0,1.19,244.3,0,251.2,261.9,227.6,10,5,7.864,4.955,1.859,-1.146,-4.786,-8.393,237.7,5,318.6,-8.156,-8.258,10,-7.614,-7.923,-4.577,-4.795,-4.429,-4.357,4.793,7.642,0,-1.82,1.807,5.036,7.737,-8.459,-8.241,-1.866,1.977,258.7,267.6,246.3,235.2,243.9,,244.4,249.2,265.1,234.4,1,norm,1.482,1.459,-1.405,-1.311,-5.294,-4.5,-1.309,-2.091,-1.466,-1.186,1.592,-1.43,243.8,252.1,-5.174,-8.324,256.5,-1.531,7.893,5.077,-4.995,-8.438,20,4.875,4.32,4.944,4.488,1.433,1.699,1.543,1.776,20,4.906,5.197,-40,261.79540798,norm,0,53,53,53,421.618,421.623,421.624719065,421.625,421.628,421.631,down,1,1.09077460655,8.90922539345,001,004,800_600,Intel(R) Core(TM) i7-2670QM CPU @ 2.20GHz,orientation_search,GRVLAPTOP3,Intel(R) HD Graphics Family,2018_jun_07_0917,testMonitor,
245.6,267.6,240.6,256.5,36,10,238.1,246.9,256.6,256.0,8.038,8.047,8.01,7.922,7.619,8.123,7.986,5.245,-4.411,-7.981,1.26,-1.164,8.137,4.301,-4.76,-7.596,245.5,249.9,-7.675,238.1,235.5,248.0,249.1,257.0,36,258.8,1,5,prime,10,0,70,norm,36,-4.604,down,norm,247.590866133,260.1,245.6,1.627,249.0,1,250.9,254.8,262.5,10,5,8.146,5.065,1.233,-1.659,-4.735,-8.472,236.0,5,317.6,-8.35,-8.236,10,-7.736,-7.956,-4.632,-5.01,-5.201,-4.326,4.923,8.499,7,-1.665,1.973,5.044,8.055,-8.285,-7.561,-1.482,1.113,251.9,255.8,258.6,256.5,234.8,255.3,,262.4,252.7,257.5,2,norm,1.845,1.403,-1.686,-1.75,-4.819,-4.437,-1.397,-1.188,-1.272,-2.005,1.892,-1.868,230.9,227.6,-4.56,-7.618,242.4,-1.366,7.863,4.749,-4.336,-8.092,20,4.51,4.561,5.066,5.239,1.779,1.546,1.763,1.94,20,4.377,4.367,-40,261.79540798,norm,0,54,54,54,422.73,422.736,422.738018401,422.739,422.742,422.745,down,1,0.966421403933,9.03357859607,001,004,800_600,Intel(R) Core(TM) i7-2670QM CPU @ 2.20GHz,orientation_search,GRVLAPTOP3,Intel(R) HD Graphics Family,2018_jun_07_0917,testMonitor,
245.4,239.2,257.8,239.2,36,10,258.9,245.5,238.7,264.5,7.807,8.407,7.695,7.718,7.86,7.675,8.446,5.257,-4.49,-8.15,1.432,-2.093,7.745,4.799,-4.623,-8.132,254.1,233.1,-7.879,239.3,236.5,255.8,248.0,259.2,36,244.3,0,5,prime,10,0,90,norm,36,-4.467,up,norm,247.590866133,247.6,233.5,1.976,237.6,5,232.2,241.6,261.5,10,5,7.818,5.21,1.906,-1.698,-4.501,-7.769,227.6,5,337.6,-7.666,-8.048,10,-8.375,-8.065,-5.101,-4.475,-4.785,-4.955,5.162,8.363,5,-1.483,1.385,5.253,7.684,-7.786,-8.144,-1.733,1.218,259.1,252.3,267.6,237.8,254.2,251.2,243.2,236.4,,243.7,3,norm,1.554,1.967,-1.127,-1.929,-5.173,-4.741,-1.855,-2.039,-1.963,-1.844,1.181,-2.092,247.0,246.9,-5.26,-8.228,255.6,-1.662,7.75,4.494,-4.853,-8.14,20,5.003,5.232,4.465,5.274,1.216,2.041,1.225,1.599,20,4.754,4.467,-40,261.79540798,norm,0,55,55,55,423.72,423.725,423.727185873,423.728,423.73,423.734,up,1,1.27584516181,8.72415483819,001,004,800_600,Intel(R) Core(TM) i7-2670QM CPU @ 2.20GHz,orientation_search,GRVLAPTOP3,Intel(R) HD Graphics Family,2018_jun_07_0917,testMonitor,
253.9,237.5,239.9,245.0,36,10,258.3,247.1,236.1,235.4,7.613,7.615,7.804,7.633,8.115,7.917,7.972,4.882,-4.926,-7.685,1.846,-1.663,7.76,4.958,-4.547,-8.41,240.3,236.5,-8.43,254.2,262.9,254.0,241.0,250.4,36,245.3,2,5,prime,10,0,76,norm,36,-4.429,down,norm,247.590866133,239.5,252.2,1.433,,2,233.1,251.8,237.6,10,5,8.014,4.367,1.3,-1.187,-4.953,-7.745,234.9,5,323.6,-7.72,-7.748,10,-8.434,-7.653,-5.287,-4.759,-4.532,-4.504,4.774,8.039,14,-1.254,1.132,5.101,8.401,-8.341,-7.925,-1.486,1.147,267.6,266.6,262.3,229.3,235.7,264.4,253.3,248.7,227.6,244.3,4,norm,1.812,1.984,-1.98,-1.958,-4.999,-5.181,-2.075,-1.451,-1.333,-1.904,1.357,-1.375,257.0,251.6,-5.271,-8.439,254.7,-1.516,7.691,4.856,-4.365,-7.574,20,4.748,5.031,5.272,4.699,1.627,1.556,2.026,1.153,20,4.761,4.407,-40,261.79540798,norm,0,56,56,56,425.018,425.024,425.025529147,425.026,425.029,425.032,down,1,0.581515031662,9.41848496834,001,004,800_600,Intel(R) Core(TM) i7-2670QM CPU @ 2.20GHz,orientation_search,GRVLAPTOP3,Intel(R) HD Graphics Family,2018_jun_07_0917,testMonitor,
342.5,339.0,332.2,338.0,36,-10,341.4,342.1,338.6,335.9,7.907,8.174,7.956,8.038,7.605,7.587,7.753,4.702,-5.225,-8.19,1.149,-1.78,7.926,4.476,-4.925,-7.737,342.7,336.4,-7.678,340.2,351.5,337.5,345.1,340.3,36,338.4,0,5,probe,5,0,86,norm,36,-4.34,down,norm,341.49294634,341.8,338.9,1.258,348.5,0,342.6,346.6,337.5,10,5,7.929,4.721,2.081,-1.57,-4.523,-7.602,339.0,1,255.5,-7.73,-7.811,10,-8.434,-7.924,-4.762,-5.007,-5.285,-4.57,5.092,7.967,0,-1.785,1.989,5.114,8.263,-7.648,-8.095,-1.42,1.332,336.5,335.8,343.7,350.1,340.6,,346.4,347.7,336.4,342.3,0,norm,1.419,1.693,-1.232,-1.628,-5.293,-4.984,-1.849,-1.291,-1.94,-1.723,1.753,-1.497,331.5,344.7,-4.655,-8.163,340.9,-2.023,8.333,4.791,-4.399,-8.381,21,4.675,4.723,4.369,4.552,1.164,2.072,1.401,1.423,21,5.172,4.702,10,247.590866133,norm,0,57,57,57,425.623,425.629,425.630521972,425.631,425.634,425.637,down,1,1.47871201342,8.52128798658,001,004,800_600,Intel(R) Core(TM) i7-2670QM CPU @ 2.20GHz,orientation_search,GRVLAPTOP3,Intel(R) HD Graphics Family,2018_jun_07_0917,testMonitor,
109.4,129.4,117.9,129.7,36,40,115.4,131.3,133.3,134.2,7.615,8.284,8.011,8.293,8.134,7.613,7.82,4.674,-5.105,-7.589,1.627,-1.951,8.282,4.904,-4.82,-7.9,124.0,122.5,-8.431,124.2,127.2,127.8,113.2,130.9,36,112.6,1,5,prime,10,0,101,norm,36,-4.59,up,norm,129.363395505,120.6,126.4,1.162,111.5,5,,130.2,123.9,10,6,8.087,4.653,1.662,-1.39,-4.655,-8.247,132.1,6,230.4,-7.517,-7.927,40,-7.956,-8.191,-5.243,-4.747,-5.287,-4.392,4.646,7.834,11,-1.432,1.464,4.956,8.132,-7.642,-8.025,-1.429,1.956,123.4,147.8,127.7,123.9,115.6,125.7,137.7,125.1,149.4,118.2,0,norm,1.865,1.201,-1.639,-1.746,-4.664,-4.453,-1.313,-1.165,-2.08,-1.127,1.2,-1.387,128.0,139.6,-4.835,-8.094,116.7,-2.048,8.203,4.779,-4.982,-8.489,22,4.594,4.938,4.765,5.294,1.866,1.944,1.761,1.181,22,4.396,4.459,-10,247.590866133,norm,0,58,58,58,427.124,427.13,427.131287552,427.132,427.135,427.138,up,1,0.867341454383,9.13265854562,001,004,800_600,Intel(R) Core(TM) i7-2670QM CPU @ 2.20GHz,orientation_search,GRVLAPTOP3,Intel(R) HD Graphics Family,2018_jun_07_0917,testMonitor,
132.9,109.4,134.3,148.5,36,40,143.1,122.8,112.3,120.7,7.728,7.823,7.798,8.17,8.402,7.886,8.252,4.321,-5.045,-8.241,1.613,-1.5,8.389,4.373,-4.722,-7.813,132.2,125.5,-7.982,149.4,124.1,132.7,123.8,,36,127.4,4,5,prime,10,0,91,norm,36,-5.277,down,norm,129.363395505,148.5,125.5,1.453,131.1,2,129.5,128.1,130.8,10,6,8.353,4.483,1.975,-1.406,-4.584,-7.788,127.1,6,220.4,-7.789,-8.049,40,-7.512,-8.219,-5.143,-4.901,-5.103,-4.99,4.705,7.804,26,-1.48,1.491,4.522,7.761,-7.667,-7.898,-1.119,1.138,129.4,134.7,126.0,146.7,120.3,121.9,118.4,111.6,143.6,135.4,1,norm,1.843,1.841,-1.145,-1.576,-4.62,-4.559,-1.529,-2.062,-2.018,-1.188,1.71,-1.409,119.5,121.9,-4.877,-7.918,133.8,-1.729,7.962,4.86,-5.109,-8.227,22,4.735,5.299,4.922,4.342,1.233,1.8,1.225,1.918,22,4.402,5.146,-10,247.590866133,norm,0,59,59,59,428.014,428.019,428.020912318,428.022,428.024,428.028,down,1,0.745532714487,9.25446728551,001,004,800_600,Intel(R) Core(TM) i7-2670QM CPU @ 2.20GHz,orientation_search,GRVLAPTOP3,Intel(R) HD Graphics Family,2018_jun_07_0917,testMonitor,
122.9,110.3,,125.2,36,40,122.1,128.1,122.1,110.5,8.051,7.601,7.659,8.321,7.627,7.562,8.48,4.331,-4.336,-7.63,2.017,-1.591,7.708,4.886,-5.082,-8.21,133.5,137.4,-8.208,138.0,139.9,121.8,121.1,134.7,36,146.2,3,5,prime,10,0,74,norm,36,-4.772,down,norm,129.363395505,109.4,130.2,1.116,138.2,2,140.1,121.7,116.7,10,6,7.678,4.493,1.791,-1.968,-4.981,-8.308,125.5,6,203.4,-8.175,-7.813,40,-7.606,-7.853,-4.926,-5.213,-4.405,-5.293,4.38,8.017,20,-1.12,1.111,4.759,7.719,-7.744,-7.694,-1.254,2.034,145.8,134.1,122.8,112.1,130.4,128.8,138.9,130.9,127.8,142.9,2,norm,1.329,1.473,-1.581,-1.81,-5.1,-5.052,-1.47,-1.757,-1.941,-1.251,1.825,-1.842,149.4,133.6,-5.056,-8.289,124.9,-1.87,8.378,5.185,-4.305,-8.293,22,4.561,5.099,5.274,5.234,1.398,1.573,1.941,1.682,22,4.369,4.994,-10,247.590866133,norm,0,60,60,60,428.783,428.788,428.790335618,428.791,428.794,428.797,up,0,1.65156830708,-10,001,004,800_600,Intel(R) Core(TM) i7-2670QM CPU @ 2.20GHz,orientation_search,GRVLAPTOP3,Intel(R) HD Graphics Family,2018_jun_07_0917,testMonitor,
140.4,132.5,109.4,127.5,36,40,140.3,126.2,149.4,148.9,8.08,7.838,7.744,7.509,7.786,7.894,8.055,4.568,-4.896,-8.482,1.452,-1.136,7.517,4.54,-4.353,-8.038,130.0,,-8.116,132.8,128.7,117.5,129.8,125.0,36,123.9,5,5,prime,10,0,97,norm,36,-5.186,up,norm,129.363395505,113.7,137.4,1.138,135.8,4,134.6,125.7,118.0,10,6,8.471,4.436,1.657,-1.537,-4.784,-7.599,127.5,6,226.4,-7.654,-8.306,40,-7.601,-7.831,-4.923,-4.392,-4.878,-4.56,5.08,7.873,34,-1.233,1.126,5.078,7.765,-8.219,-7.636,-1.662,1.25,125.0,121.6,120.9,123.6,131.3,134.7,116.2,130.4,121.1,129.7,3,norm,1.452,1.995,-1.811,-1.726,-4.441,-4.469,-1.462,-1.963,-1.612,-1.696,1.305,-1.956,118.8,134.1,-4.392,-8.337,131.4,-1.44,7.502,4.406,-4.733,-8.432,22,4.826,5.115,4.738,4.76,1.781,1.497,2.098,1.734,22,5.163,4.443,-10,247.590866133,norm,0,61,61,61,431.459,431.464,431.465466238,431.466,431.469,431.472,down,0,0.47404615335,-10,001,004,800_600,Intel(R) Core(TM) i7-2670QM CPU @ 2.20GHz,orientation_search,GRVLAPTOP3,Intel(R) HD Graphics Family,2018_jun_07_0917,testMonitor,
128.7,133.3,109.4,128.2,36,40,128.9,122.0,121.4,132.4,8.079,8.199,7.856,7.966,8.496,8.05,8.441,4.922,-5.134,-8.244,1.789,-2.069,8.482,5.081,-4.854,-7.948,118.6,116.3,-8.437,121.0,149.4,124.4,125.9,123.1,36,122.4,2,5,prime,10,0,74,norm,36,-5.007,down,norm,129.363395505,133.4,129.8,1.683,117.9,1,145.6,,142.2,10,6,8.498,5.086,1.424,-1.825,-5.275,-8.187,139.4,6,203.4,-8.236,-7.962,40,-8.056,-7.84,-4.667,-5.083,-4.872,-5.068,4.813,8.103,13,-1.884,1.675,4.548,8.462,-7.931,-7.712,-1.895,2.005,135.8,141.7,135.7,142.0,134.7,131.2,125.2,129.8,128.4,135.1,4,norm,2.031,2.016,-2.089,-1.156,-4.44,-4.674,-1.965,-1.973,-1.774,-1.395,1.884,-1.409,119.1,134.0,-4.502,-7.515,124.6,-1.504,8.311,5.179,-4.763,-7.535,22,4.766,4.814,5.131,4.547,1.348,1.6,1.613,1.968,22,4.958,5.083,-10,247.590866133,norm,0,62,62,62,432.956,432.962,432.963289973,432.964,432.967,432.97,down,1,0.980808895393,9.01919110461,001,004,800_600,Intel(R) Core(TM) i7-2670QM CPU @ 2.20GHz,orientation_search,GRVLAPTOP3,Intel(R) HD Graphics Family,2018_jun_07_0917,testMonitor,
129.7,141.4,143.5,,36,40,129.8,114.6,145.6,136.3,7.724,7.838,8.058,8.226,8.33,8.018,8.303,4.705,-5.056,-7.872,1.784,-1.379,7.534,4.605,-4.379,-7.681,149.4,123.8,-7.781,111.2,132.7,137.9,120.0,138.9,36,124.2,3,5,prime,10,0,107,norm,36,-5.064,up,norm,129.363395505,133.6,141.3,1.676,117.9,3,123.7,124.4,134.8,10,6,7.631,4.739,2.003,-2.048,-5.111,-8.061,129.7,6,236.4,-8.292,-8.187,40,-8.117,-8.029,-5.196,-5.081,-4.724,-5.244,5.274,7.697,21,-1.448,1.318,5.248,7.766,-7.528,-8.405,-1.62,1.951,143.7,123.8,114.3,132.6,134.1,116.2,127.4,139.3,119.9,140.1,5,norm,1.24,1.218,-1.19,-2.09,-4.678,-4.386,-2.083,-1.529,-1.426,-1.748,2.081,-1.404,130.0,130.2,-4.838,-7.766,134.5,-1.304,7.597,4.561,-4.628,-8.307,22,5.118,4.431,5.209,4.794,1.66,1.207,1.246,1.123,22,4.873,5.083,-10,247.590866133,norm,0,63,63,63,433.96,433.966,433.967345517,433.968,433.971,433.974,up,1,1.18302947496,8.81697052504,001,004,800_600,Intel(R) Core(TM) i7-2670QM CPU @ 2.20GHz,orientation_search,GRVLAPTOP3,Intel(R) HD Graphics Family,2018_jun_07_0917,testMonitor,
264.9,258.2,257.9,260.8,36,-10,271.9,267.1,255.5,265.1,8.302,7.589,8.415,8.101,8.212,7.835,7.571,4.705,-4.935,-8.022,2.07,-2.026,8.387,4.563,-4.832,-7.574,255.9,264.1,-8.428,265.4,266.2,269.7,253.8,252.7,36,262.6,0,5,probe,5,0,92,norm,36,-4.539,down,norm,262.392695722,257.3,272.4,1.636,252.4,2,260.0,260.6,264.8,10,6,8.071,4.88,1.201,-1.215,-4.474,-7.536,266.7,2,170.4,-7.534,-7.675,40,-7.986,-7.891,-4.785,-4.811,-4.45,-4.618,4.435,7.91,2,-1.421,1.282,4.741,7.72,-8.079,-7.667,-1.744,1.589,268.7,263.7,253.9,,269.4,263.2,263.0,260.8,261.0,260.2,0,norm,1.188,1.312,-1.631,-1.164,-4.605,-4.721,-1.92,-1.958,-1.628,-1.591,1.102,-1.666,261.8,260.0,-4.567,-7.552,270.1,-1.921,8.092,5.225,-4.513,-7.751,23,4.353,5.267,4.851,4.88,2.045,2.055,1.344,1.413,23,5.115,5.028,40,129.363395505,norm,0,64,64,64,435.165,435.171,435.172943148,435.173,435.176,435.179,up,0,1.36496766538,-10,001,004,800_600,Intel(R) Core(TM) i7-2670QM CPU @ 2.20GHz,orientation_search,GRVLAPTOP3,Intel(R) HD Graphics Family,2018_jun_07_0917,testMonitor,
237.4,246.6,238.5,241.4,36,-10,230.8,234.1,242.1,247.3,7.691,8.353,7.875,8.277,7.868,8.238,8.394,4.815,-4.534,-7.955,1.676,-2.011,7.96,4.748,-4.377,-7.664,240.2,238.1,-7.587,242.6,238.5,238.4,231.5,233.6,36,241.8,3,5,probe,5,0,69,norm,36,-5.052,down,norm,239.392695722,236.2,229.4,1.859,245.7,0,243.0,249.4,236.6,10,6,7.915,4.686,1.328,-1.405,-4.876,-8.233,239.2,2,170.4,-7.889,-8.313,40,-7.991,-7.541,-5.051,-5.225,-4.79,-4.565,4.417,8.487,18,-1.247,1.946,4.34,7.639,-8.123,-7.705,-1.507,1.367,235.5,237.9,240.7,239.3,239.9,236.9,244.2,246.9,242.3,239.7,1,norm,1.679,1.704,-1.659,-1.969,-5.237,-4.562,-1.179,-1.989,-1.435,-1.659,1.685,-1.162,238.5,,-5.164,-7.985,244.2,-1.494,7.849,4.812,-4.85,-7.943,23,5.023,4.723,4.302,4.772,1.79,1.711,1.807,1.359,23,4.932,5.155,40,129.363395505,norm,0,65,65,65,437.558,437.564,437.565587041,437.566,437.569,437.572,down,1,0.887854054587,9.11214594541,001,004,800_600,Intel(R) Core(TM) i7-2670QM CPU @ 2.20GHz,orientation_search,GRVLAPTOP3,Intel(R) HD Graphics Family,2018_jun_07_0917,testMonitor,
35.6,39.5,49.2,30.6,36,20,47.9,50.8,31.0,37.8,7.66,8.16,7.643,7.58,8.216,8.321,7.88,4.719,-5.244,-8.476,1.696,-1.358,7.759,4.613,-4.448,-7.876,40.6,56.6,-8.452,47.3,46.6,28.9,50.5,49.4,36,39.0,2,5,prime,10,0,71,norm,36,-5.154,up,norm,41.9147466065,31.4,38.1,2.038,38.5,3,42.3,21.9,31.5,10,2,8.458,4.97,2.037,-2.087,-4.487,-7.55,28.4,2,112.9,-8.481,-7.783,20,-8.033,-7.934,-5.248,-4.309,-4.902,-4.896,4.877,8.429,15,-2.074,2.035,4.952,8.043,-8.195,-8.399,-1.23,1.856,53.9,42.8,30.6,48.6,36.3,48.4,37.3,39.8,54.3,61.9,0,norm,2.026,1.759,-1.671,-1.443,-4.447,-4.941,-1.88,-1.696,-1.58,-1.256,1.705,-1.956,41.1,48.7,-5.279,-7.761,,-1.81,8.222,5.072,-5.267,-7.658,24,5.219,4.944,4.493,4.449,1.882,1.392,1.943,1.196,24,4.474,4.511,-10,129.363395505,norm,0,66,66,66,438.469,438.475,438.477173849,438.478,438.481,438.484,up,1,1.01328359903,8.98671640097,001,004,800_600,Intel(R) Core(TM) i7-2670QM CPU @ 2.20GHz,orientation_search,GRVLAPTOP3,Intel(R) HD Graphics Family,2018_jun_07_0917,testMonitor,
,30.7,49.2,53.1,36,20,27.1,33.7,61.7,50.8,7.722,7.772,8.008,8.44,8.174,8.051,7.695,5.184,-4.856,-8.468,1.429,-1.298,8.472,5.02,-4.578,-7.82,45.3,37.5,-7.592,38.2,44.2,30.8,38.7,38.9,36,35.2,3,5,prime,10,0,77,norm,36,-4.75,up,norm,41.9147466065,43.6,34.8,1.97,33.2,4,45.9,52.7,61.9,10,2,8.471,5.089,1.728,-1.696,-5.147,-8.099,60.7,2,118.9,-7.977,-7.575,20,-7.559,-8.187,-4.583,-5.095,-5.141,-4.741,4.753,8.393,22,-1.921,1.75,4.359,7.777,-7.913,-7.798,-1.987,2.035,21.9,50.1,51.0,48.3,34.9,40.7,39.1,35.6,37.5,53.6,1,norm,1.893,1.754,-1.55,-1.981,-4.559,-4.533,-1.678,-1.16,-1.663,-1.264,1.34,-1.972,44.8,40.1,-4.999,-7.98,38.1,-1.451,8.049,5.033,-4.605,-8.057,24,4.942,5.147,4.602,4.484,1.577,1.196,1.503,1.624,24,4.428,4.486,-10,129.363395505,norm,0,67,67,67,439.505,439.511,439.513018599,439.514,439.516,439.52,up,1,0.83529541964,9.16470458036,001,004,800_600,Intel(R) Core(TM) i7-2670QM CPU @ 2.20GHz,orientation_search,GRVLAPTOP3,Intel(R) HD Graphics Family,2018_jun_07_0917,testMonitor,
149.4,154.9,151.4,146.2,36,-80,148.6,159.1,143.0,148.1,8.325,8.201,7.945,7.828,8.417,7.51,8.391,5.229,-4.786,-8.014,1.287,-1.166,7.561,4.534,-5.037,-7.559,150.4,147.3,-8.493,149.8,144.8,149.1,150.3,147.6,36,148.8,0,5,probe,5,0,83,norm,36,-5.058,down,norm,149.090293504,148.5,156.3,1.635,145.2,0,143.2,139.1,148.0,10,2,7.968,5.108,1.99,-1.269,-5.058,-8.175,154.1,1,66.1,-7.541,-7.882,20,-7.831,-8.186,-5.154,-4.32,-4.869,-4.803,5.129,8.38,0,-1.513,1.173,4.727,8.157,-7.773,-8.064,-1.223,1.323,144.4,155.4,155.4,139.5,147.0,,139.4,142.3,143.3,150.3,0,norm,2.095,1.134,-1.97,-1.765,-4.853,-4.475,-1.575,-1.255,-1.728,-1.315,1.381,-1.273,151.4,147.0,-4.831,-7.807,151.5,-1.922,7.688,4.536,-4.814,-8.223,25,4.477,5.214,4.653,4.495,1.279,1.104,1.984,1.334,25,4.428,4.907,20,41.9147466065,norm,0,68,68,68,440.365,440.371,440.372682305,440.373,440.376,440.379,down,1,1.07982066884,8.92017933116,001,004,800_600,Intel(R) Core(TM) i7-2670QM CPU @ 2.20GHz,orientation_search,GRVLAPTOP3,Intel(R) HD Graphics Family,2018_jun_07_0917,testMonitor,
74.8,73.9,81.1,88.3,36,-10,53.5,93.5,80.3,74.9,8.378,7.796,7.757,7.708,8.392,7.664,8.407,4.397,-4.483,-8.087,1.283,-1.988,7.728,4.572,-4.791,-8.486,78.7,61.4,-8.081,74.0,75.2,69.5,93.4,74.8,36,72.0,0,5,prime,10,0,106,norm,36,-5.175,up,norm,73.5313201669,84.2,66.0,1.163,83.9,4,69.5,64.3,56.9,10,3,7.586,5.024,1.433,-1.736,-5.117,-8.218,75.0,3,179.5,-7.671,-8.294,-10,-7.853,-8.404,-4.563,-4.551,-4.339,-5.229,4.949,7.895,4,-1.604,1.32,4.827,8.322,-8.017,-7.678,-1.554,1.981,71.3,72.6,75.7,83.4,82.2,63.1,65.8,62.7,83.1,,0,norm,1.202,1.46,-2.016,-2.017,-4.625,-4.798,-1.732,-1.246,-1.929,-1.22,1.506,-1.657,79.9,74.2,-5.27,-7.542,72.9,-1.777,7.855,5.052,-5.047,-8.266,26,5.084,5.193,4.9,4.707,1.641,1.62,1.719,1.139,26,5.18,5.062,-80,41.9147466065,norm,0,69,69,69,441.468,441.475,441.477090263,441.477,441.48,441.484,down,0,1.22511981015,-10,001,004,800_600,Intel(R) Core(TM) i7-2670QM CPU @ 2.20GHz,orientation_search,GRVLAPTOP3,Intel(R) HD Graphics Family,2018_jun_07_0917,testMonitor,
83.1,63.7,73.6,,36,-10,93.5,61.9,89.6,56.2,7.851,8.065,8.082,8.332,8.22,7.548,8.02,4.774,-5.257,-8.185,1.428,-1.633,7.749,4.913,-5.146,-8.417,71.9,64.7,-7.765,81.2,78.5,75.0,59.4,74.0,36,85.6,3,5,prime,10,0,83,norm,36,-5.089,up,norm,73.5313201669,83.7,77.6,1.932,81.4,3,84.3,73.1,78.0,10,3,8.144,5.109,1.503,-1.448,-4.731,-8.006,79.6,3,156.5,-8.259,-7.537,-10,-7.663,-8.439,-4.657,-4.95,-5.198,-4.483,4.452,8.5,21,-1.52,2.0,4.328,8.077,-7.749,-7.582,-1.309,1.562,82.3,57.4,83.3,81.4,71.9,53.5,62.7,69.4,77.4,64.3,1,norm,1.778,1.329,-1.409,-2.002,-5.026,-4.999,-1.834,-1.876,-1.405,-1.35,1.589,-1.431,68.3,67.6,-4.382,-7.549,72.9,-1.14,7.912,5.125,-5.098,-8.115,26,4.642,4.845,5.038,4.682,1.45,1.72,2.035,1.387,26,4.349,5.296,-80,41.9147466065,norm,0,70,70,70,443.72,443.726,443.727743889,443.728,443.731,443.734,down,0,1.75879063074,-10,001,004,800_600,Intel(R) Core(TM) i7-2670QM CPU @ 2.20GHz,orientation_search,GRVLAPTOP3,Intel(R) HD Graphics Family,2018_jun_07_0917,testMonitor,
71.6,62.2,93.5,74.9,36,-10,66.6,87.2,90.7,84.0,8.374,7.63,7.51,7.58,7.948,8.215,8.25,4.907,-4.776,-8.058,1.982,-1.173,7.546,4.672,-5.108,-8.006,58.9,80.6,-7.896,65.1,78.4,73.2,53.5,,36,84.3,4,5,prime,10,0,64,norm,36,-4.549,down,norm,73.5313201669,66.3,75.5,2.021,80.0,2,61.4,80.9,89.9,10,3,8.064,4.455,1.287,-1.546,-5.073,-7.604,71.7,3,137.5,-7.573,-7.897,-10,-7.6,-7.542,-4.758,-4.659,-4.927,-5.147,4.895,7.507,26,-1.485,1.667,4.497,7.746,-7.701,-8.486,-1.641,1.678,67.2,61.0,67.0,74.9,59.9,78.5,75.3,87.8,69.8,71.5,2,norm,1.743,1.365,-1.819,-1.557,-5.215,-5.198,-1.417,-1.383,-1.303,-1.187,1.112,-1.93,73.3,66.6,-4.393,-7.879,66.4,-1.985,8.052,5.24,-5.165,-8.36,26,4.546,4.766,5.011,5.146,1.314,1.328,1.221,1.517,26,4.971,5.028,-80,41.9147466065,norm,0,71,71,71,446.512,446.518,446.51983761,446.52,446.523,446.526,down,1,2.48180888932,7.51819111068,001,004,800_600,Intel(R) Core(TM) i7-2670QM CPU @ 2.20GHz,orientation_search,GRVLAPTOP3,Intel(R) HD Graphics Family,2018_jun_07_0917,testMonitor,
149.1,156.7,,144.3,36,60,151.1,155.2,154.7,155.7,8.28,8.093,8.232,7.901,7.638,7.724,8.245,4.831,-4.419,-7.593,1.982,-1.976,8.142,4.317,-4.592,-8.373,152.1,154.5,-7.683,146.7,154.6,150.5,150.0,153.5,36,152.9,3,5,probe,5,0,88,norm,36,-5.279,down,norm,152.130995741,146.4,155.8,1.936,154.2,2,151.2,157.6,156.9,10,3,7.675,4.652,1.548,-1.867,-4.78,-8.308,154.6,1,64.1,-7.906,-7.791,-10,-8.247,-7.971,-4.776,-5.149,-4.369,-4.367,5.055,7.709,20,-2.072,1.747,5.026,7.712,-7.971,-7.57,-1.228,1.659,152.5,145.5,161.8,153.5,155.6,142.1,150.9,162.1,152.1,150.7,0,norm,1.871,1.893,-1.896,-1.732,-4.535,-4.535,-1.752,-1.641,-2.087,-1.766,1.436,-1.53,151.5,150.1,-5.293,-8.01,154.3,-1.314,8.085,4.457,-4.878,-7.625,27,4.378,4.776,5.006,5.004,1.946,1.601,1.485,1.145,27,5.03,4.398,-10,73.5313201669,norm,0,72,72,72,449.017,449.022,449.02379159,449.024,449.027,449.03,down,1,2.16001443839,7.83998556161,001,004,800_600,Intel(R) Core(TM) i7-2670QM CPU @ 2.20GHz,orientation_search,GRVLAPTOP3,Intel(R) HD Graphics Family,2018_jun_07_0917,testMonitor,
92.6,94.0,96.8,102.5,36,-10,,95.7,90.9,78.5,7.634,8.284,7.689,7.707,7.808,7.501,8.349,4.603,-4.657,-8.01,1.369,-1.326,7.946,5.095,-5.155,-7.814,91.9,109.0,-8.15,96.6,91.9,89.1,99.6,88.8,36,100.4,4,5,prime,10,0,67,norm,36,-4.884,down,norm,89.9946165985,90.1,94.1,1.991,91.8,0,81.7,94.1,99.8,10,5,7.644,4.681,1.838,-1.235,-4.638,-8.369,110.0,5,157.0,-8.314,-7.751,-10,-8.363,-8.3,-4.481,-4.448,-5.105,-5.003,4.634,7.723,24,-1.209,1.84,4.733,8.115,-8.047,-7.837,-1.643,1.275,90.4,97.6,98.2,78.8,93.1,82.0,108.8,70.0,96.0,73.0,0,norm,1.438,2.095,-2.048,-1.594,-4.994,-4.517,-1.13,-1.163,-1.195,-1.785,1.286,-1.855,72.8,93.9,-4.473,-7.607,95.1,-1.667,8.069,5.034,-4.988,-7.996,28,4.475,5.228,4.605,4.766,1.571,1.929,1.471,1.564,28,5.287,4.336,60,73.5313201669,norm,0,73,73,73,451.199,451.204,451.205828309,451.207,451.21,451.213,down,1,0.737465053913,9.26253494609,001,004,800_600,Intel(R) Core(TM) i7-2670QM CPU @ 2.20GHz,orientation_search,GRVLAPTOP3,Intel(R) HD Graphics Family,2018_jun_07_0917,testMonitor,
75.6,92.8,91.9,85.9,36,-10,88.7,90.4,89.1,87.5,8.344,7.523,7.909,8.253,8.24,8.193,7.931,4.849,-5.083,-7.608,1.877,-1.259,7.804,4.666,-5.067,-8.007,102.8,81.2,-7.991,101.3,97.4,93.2,70.0,98.9,36,110.0,1,5,prime,10,0,88,norm,36,-5.294,down,norm,89.9946165985,83.1,90.4,1.413,90.2,2,101.4,84.1,99.3,10,5,7.541,4.516,1.484,-1.174,-4.826,-8.322,93.5,5,178.0,-8.087,-8.145,-10,-7.753,-7.727,-5.17,-5.115,-4.813,-5.294,4.816,7.612,8,-2.015,2.075,5.093,7.919,-8.419,-7.521,-1.977,2.04,90.5,,93.0,100.2,87.1,77.9,87.5,90.6,93.8,95.8,1,norm,1.715,2.018,-1.652,-1.854,-4.605,-4.522,-1.47,-1.763,-1.775,-1.992,1.885,-1.273,81.9,74.7,-4.414,-8.12,78.8,-1.627,7.996,5.154,-4.989,-7.629,28,4.532,4.824,4.863,5.232,1.68,1.713,1.617,1.3,28,4.809,4.661,60,73.5313201669,norm,0,74,74,74,451.959,451.965,451.966485844,451.967,451.97,451.973,down,1,1.25091465707,8.74908534293,001,004,800_600,Intel(R) Core(TM) i7-2670QM CPU @ 2.20GHz,orientation_search,GRVLAPTOP3,Intel(R) HD Graphics Family,2018_jun_07_0917,testMonitor,
80.0,86.8,87.9,86.1,36,-10,81.5,77.1,100.9,96.4,7.697,8.325,8.225,8.116,8.22,7.534,7.647,4.752,-5.166,-7.992,1.877,-1.496,7.852,4.392,-4.785,-7.586,82.4,105.5,-7.821,85.5,70.0,80.0,76.4,74.4,36,79.3,0,5,prime,10,0,94,norm,36,-4.694,up,norm,89.9946165985,72.7,82.4,1.661,94.3,3,97.0,82.9,99.8,10,5,8.028,5.034,1.524,-1.661,-5.085,-8.011,108.4,5,184.0,-8.098,-7.57,-10,-7.627,-7.956,-4.331,-5.081,-4.665,-5.231,4.589,7.983,3,-1.839,1.117,4.395,7.742,-7.703,-7.685,-1.197,1.223,90.7,96.4,,74.6,85.6,86.5,107.9,77.2,89.2,89.2,2,norm,1.734,1.861,-1.151,-1.968,-5.242,-5.138,-1.892,-1.613,-1.157,-1.187,1.344,-1.141,101.8,80.8,-4.699,-8.117,74.2,-1.812,8.037,5.198,-5.006,-8.175,28,5.116,4.653,5.241,5.011,1.988,2.072,2.029,1.205,28,5.009,4.509,60,73.5313201669,norm,0,75,75,75,453.232,453.238,453.239527381,453.24,453.243,453.247,down,0,1.21726134747,-10,001,004,800_600,Intel(R) Core(TM) i7-2670QM CPU @ 2.20GHz,orientation_search,GRVLAPTOP3,Intel(R) HD Graphics Family,2018_jun_07_0917,testMonitor,
,75.7,101.7,70.0,36,-10,79.0,79.6,107.9,83.8,8.428,8.041,8.165,7.577,8.377,8.472,8.039,4.952,-4.706,-7.653,1.124,-1.694,8.164,4.361,-5.218,-7.501,82.9,101.1,-8.474,91.2,110.0,86.4,87.3,100.3,36,78.3,3,5,prime,10,0,64,norm,36,-4.375,up,norm,89.9946165985,78.4,83.3,1.633,84.6,4,79.7,79.6,82.9,10,5,7.928,4.472,1.671,-1.444,-4.868,-8.387,77.4,5,154.0,-7.615,-8.326,-10,-8.479,-8.413,-4.614,-4.774,-4.528,-4.457,4.691,8.484,22,-1.696,1.714,4.927,8.44,-8.219,-7.784,-1.936,1.403,89.0,78.0,89.1,82.6,94.3,80.9,91.7,89.7,82.9,97.7,3,norm,1.388,1.936,-1.419,-1.725,-5.231,-5.228,-1.403,-1.839,-1.668,-1.578,1.922,-1.976,86.8,89.0,-4.667,-7.739,79.5,-1.567,8.053,5.086,-4.346,-8.335,28,4.8,5.187,4.808,4.409,1.734,1.394,1.175,1.923,28,4.921,4.411,60,73.5313201669,norm,0,76,76,76,455.482,455.487,455.489017344,455.49,455.492,455.496,up,1,1.26705931741,8.73294068259,001,004,800_600,Intel(R) Core(TM) i7-2670QM CPU @ 2.20GHz,orientation_search,GRVLAPTOP3,Intel(R) HD Graphics Family,2018_jun_07_0917,testMonitor,
99.9,79.2,101.3,78.7,36,-10,92.4,79.9,110.0,100.7,7.857,8.102,8.125,7.899,7.61,7.777,7.714,5.145,-5.299,-8.316,1.916,-1.375,8.349,5.105,-4.616,-8.329,98.6,79.3,-7.888,89.1,72.6,92.6,,108.1,36,100.3,5,5,prime,10,0,108,norm,36,-4.888,down,norm,89.9946165985,97.7,106.9,1.291,89.8,2,93.3,78.3,84.0,10,5,7.795,5.037,2.096,-1.972,-4.568,-7.969,95.5,5,198.0,-7.558,-7.906,-10,-7.825,-7.506,-5.224,-4.306,-4.861,-4.541,4.808,8.175,32,-1.835,2.02,4.84,7.663,-7.919,-8.3,-1.257,1.197,97.2,70.0,102.3,89.5,99.2,93.4,82.7,86.1,95.2,95.4,4,norm,2.062,1.66,-1.695,-1.36,-4.968,-5.108,-1.522,-1.526,-1.37,-1.894,1.813,-1.241,80.8,91.9,-4.593,-8.496,79.4,-1.506,7.606,5.234,-4.814,-7.56,28,5.042,4.682,4.988,5.245,1.885,1.121,1.958,2.09,28,4.956,4.536,60,73.5313201669,norm,0,77,77,77,456.771,456.777,456.778628474,456.779,456.782,456.786,up,0,2.54747788129,-10,001,004,800_600,Intel(R) Core(TM) i7-2670QM CPU @ 2.20GHz,orientation_search,GRVLAPTOP3,Intel(R) HD Graphics Family,2018_jun_07_0917,testMonitor,
133.3,138.2,142.9,133.0,36,40,140.2,139.6,143.3,132.8,8.477,7.886,8.199,8.257,7.647,7.721,7.706,4.663,-4.938,-8.3,1.403,-1.501,8.347,4.671,-4.339,-8.196,139.6,135.7,-8.069,148.4,135.7,134.3,144.2,142.3,36,134.2,1,5,probe,5,0,65,norm,36,-4.706,down,norm,142.817666164,144.1,146.6,2.073,139.9,2,139.8,152.8,152.7,10,5,8.433,4.733,1.643,-1.37,-5.252,-7.844,145.3,2,77.8,-8.467,-7.85,-10,-7.627,-8.056,-5.273,-5.036,-4.64,-4.313,4.403,8.475,8,-1.5,1.296,4.738,7.55,-8.224,-7.951,-1.267,1.354,139.8,,142.7,140.5,138.6,145.4,139.1,146.3,140.1,145.9,0,norm,1.762,1.3,-1.276,-1.132,-4.447,-4.898,-1.325,-1.365,-1.254,-1.474,1.988,-1.384,140.1,149.3,-4.452,-8.022,147.8,-1.983,8.357,4.643,-4.364,-7.964,29,5.004,4.455,4.497,4.734,1.208,1.59,1.222,1.721,29,5.023,4.648,-10,89.9946165985,norm,0,78,78,78,460.349,460.355,460.35686545,460.357,460.36,460.363,down,1,0.832510939695,9.1674890603,001,004,800_600,Intel(R) Core(TM) i7-2670QM CPU @ 2.20GHz,orientation_search,GRVLAPTOP3,Intel(R) HD Graphics Family,2018_jun_07_0917,testMonitor,
150.8,158.7,157.6,158.6,36,40,163.8,165.2,168.5,152.3,8.497,8.084,7.571,8.098,7.51,7.756,8.193,4.582,-4.368,-8.265,1.813,-1.299,7.69,5.224,-4.33,-7.8,168.8,170.8,-8.146,164.3,161.6,164.7,165.4,162.9,36,162.8,1,5,probe,5,0,83,norm,36,-4.87,down,norm,160.817666164,154.5,159.9,1.914,158.9,1,159.7,167.3,165.0,10,5,8.318,4.482,1.716,-1.999,-5.149,-8.269,166.6,2,77.8,-7.734,-8.441,-10,-8.07,-7.764,-4.913,-4.365,-4.561,-5.093,4.862,8.018,7,-1.302,1.601,4.806,7.822,-7.983,-8.312,-1.682,1.554,159.9,158.5,162.0,167.1,166.0,164.1,,168.1,159.7,157.2,1,norm,1.306,1.69,-1.538,-1.103,-5.028,-4.794,-1.214,-1.56,-1.824,-1.965,1.993,-1.925,162.4,167.9,-4.965,-7.569,157.8,-1.539,8.458,4.935,-4.85,-7.615,29,5.187,4.917,5.091,4.968,1.856,1.576,1.425,1.34,29,5.242,4.914,-10,89.9946165985,norm,0,79,79,79,461.204,461.21,461.211631683,461.212,461.215,461.218,down,1,1.01130509131,8.98869490869,001,004,800_600,Intel(R) Core(TM) i7-2670QM CPU @ 2.20GHz,orientation_search,GRVLAPTOP3,Intel(R) HD Graphics Family,2018_jun_07_0917,testMonitor,
28.1,19.9,,34.4,36,-60,22.0,28.2,13.8,26.2,7.901,7.89,8.284,7.656,7.762,8.104,8.136,4.315,-4.724,-8.014,1.732,-1.223,8.179,4.542,-5.183,-8.476,6.3,7.6,-7.94,-0.6,36.4,24.5,20.4,17.7,36,18.9,3,5,prime,10,0,87,norm,36,-4.923,down,norm,18.6433819217,22.9,11.0,1.86,33.4,2,20.9,1.2,24.1,10,6,7.572,5.088,1.373,-1.524,-4.508,-7.862,13.1,6,105.6,-8.456,-7.563,-60,-8.418,-8.168,-4.624,-5.055,-4.512,-5.252,4.765,7.944,20,-1.12,1.943,4.444,8.417,-7.78,-8.495,-1.883,1.359,6.8,17.2,14.5,-1.4,16.9,15.1,23.4,24.3,20.6,22.5,0,norm,1.241,1.384,-1.235,-1.272,-4.608,-4.465,-1.467,-1.57,-1.755,-1.682,1.87,-1.155,21.1,38.6,-5.096,-7.903,1.4,-2.006,7.52,5.114,-4.367,-7.773,30,4.922,4.627,5.18,4.792,1.144,1.429,1.446,1.842,30,4.578,5.295,40,89.9946165985,norm,0,80,80,80,462.238,462.243,462.245063654,462.246,462.248,462.252,down,1,1.37989963171,8.62010036829,001,004,800_600,Intel(R) Core(TM) i7-2670QM CPU @ 2.20GHz,orientation_search,GRVLAPTOP3,Intel(R) HD Graphics Family,2018_jun_07_0917,testMonitor,
17.1,6.4,23.2,32.8,36,-60,16.1,-1.4,1.9,18.4,7.596,7.552,7.709,8.452,8.431,7.708,8.376,5.277,-4.961,-8.315,1.12,-1.329,7.669,5.049,-4.339,-8.135,30.8,16.8,-7.619,16.7,20.9,37.9,2.4,18.7,36,18.6,2,5,prime,10,0,111,norm,36,-5.201,down,norm,18.6433819217,1.5,18.0,1.866,,2,25.5,19.8,22.9,10,6,8.489,5.008,1.55,-1.216,-4.472,-8.13,38.2,6,129.6,-7.975,-7.733,-60,-7.892,-7.653,-4.613,-4.453,-4.387,-5.239,4.314,7.665,14,-1.961,1.487,5.296,7.733,-8.136,-8.301,-1.759,2.033,7.6,35.5,-0.4,38.6,19.2,18.5,21.2,24.9,33.1,13.4,1,norm,2.009,1.219,-1.377,-1.198,-4.711,-4.936,-1.706,-1.679,-1.769,-1.144,1.472,-2.08,18.5,23.5,-4.3,-8.271,25.5,-1.779,8.228,4.441,-5.242,-8.38,30,4.772,4.496,5.284,4.596,1.318,1.694,1.235,1.302,30,4.79,4.798,40,89.9946165985,norm,0,81,81,81,463.64,463.646,463.647335785,463.648,463.651,463.654,down,1,0.975145609669,9.02485439033,001,004,800_600,Intel(R) Core(TM) i7-2670QM CPU @ 2.20GHz,orientation_search,GRVLAPTOP3,Intel(R) HD Graphics Family,2018_jun_07_0917,testMonitor,
11.2,1.5,10.9,6.0,36,-60,14.9,5.6,,33.7,8.184,7.977,7.612,7.775,8.011,8.02,7.643,4.755,-4.443,-7.956,1.966,-2.042,8.064,5.049,-4.715,-8.284,18.9,37.5,-7.504,25.1,27.3,8.4,18.0,16.6,36,24.1,4,5,prime,10,0,74,norm,36,-4.829,up,norm,18.6433819217,11.6,26.8,1.118,31.3,4,4.7,10.2,22.9,10,6,8.439,4.861,1.735,-1.194,-5.104,-8.483,-1.4,6,92.6,-8.399,-7.916,-60,-7.975,-8.333,-4.481,-5.288,-4.498,-4.485,5.05,7.672,28,-1.623,2.01,4.434,8.008,-8.167,-8.076,-1.581,1.534,9.0,25.1,12.0,27.7,17.7,27.6,12.7,9.1,10.4,38.6,2,norm,1.418,1.998,-1.79,-1.188,-5.141,-4.781,-1.801,-1.72,-2.076,-1.558,1.247,-1.349,25.4,27.5,-4.668,-8.081,15.9,-1.609,8.034,5.107,-4.408,-7.828,30,4.876,4.32,4.389,4.476,1.301,1.119,1.609,1.297,30,5.026,4.314,40,89.9946165985,norm,0,82,82,82,464.637,464.642,464.643728056,464.644,464.647,464.65,up,1,1.43163595084,8.56836404916,001,004,800_600,Intel(R) Core(TM) i7-2670QM CPU @ 2.20GHz,orientation_search,GRVLAPTOP3,Intel(R) HD Graphics Family,2018_jun_07_0917,testMonitor,
34.9,31.5,5.1,20.6,36,-60,21.9,19.7,16.5,33.3,8.137,8.269,7.526,8.133,7.507,8.193,8.448,4.743,-5.166,-8.345,1.419,-1.443,7.956,4.352,-5.045,-8.35,19.8,38.6,-8.487,30.0,16.7,19.1,18.6,11.8,36,25.7,1,5,prime,10,0,89,norm,36,-5.288,down,norm,18.6433819217,15.8,6.9,1.248,35.2,1,15.5,-1.4,8.9,10,6,7.986,5.283,1.305,-1.924,-4.926,-7.506,37.1,6,107.6,-8.222,-7.722,-60,-7.91,-7.827,-5.036,-4.937,-4.964,-5.035,4.61,7.954,7,-1.111,1.932,5.257,7.96,-7.985,-7.597,-1.101,1.164,15.5,23.5,-0.1,6.2,9.2,28.2,,14.4,21.1,16.0,3,norm,1.831,1.307,-1.591,-1.669,-4.461,-4.667,-1.3,-1.403,-1.383,-1.841,1.42,-1.337,28.2,8.4,-4.873,-7.542,14.5,-2.038,7.577,4.764,-5.005,-7.921,30,4.394,4.602,5.234,5.027,1.567,1.807,1.16,1.469,30,4.547,4.606,40,89.9946165985,norm,0,83,83,83,466.091,466.097,466.09898002,466.1,466.103,466.106,up,0,2.64494962207,-10,001,004,800_600,Intel(R) Core(TM) i7-2670QM CPU @ 2.20GHz,orientation_search,GRVLAPTOP3,Intel(R) HD Graphics Family,2018_jun_07_0917,testMonitor,
22.2,21.7,34.1,34.6,36,-60,22.5,8.9,7.5,28.5,8.151,7.804,8.433,7.75,7.649,8.424,7.907,4.992,-4.895,-7.84,1.712,-1.361,8.325,5.132,-5.057,-7.741,18.4,8.4,-7.826,21.5,,19.1,10.2,38.6,36,24.7,5,5,prime,10,0,75,norm,36,-4.607,down,norm,18.6433819217,25.8,22.5,1.394,-1.4,0,16.6,12.4,14.8,10,6,8.381,4.402,2.036,-1.905,-4.598,-7.72,18.1,6,93.6,-8.158,-7.553,-60,-8.499,-7.796,-4.35,-4.599,-4.418,-4.694,5.265,7.665,30,-1.446,1.347,4.407,7.648,-7.876,-8.304,-1.493,1.533,7.8,31.1,20.4,22.0,15.7,12.9,31.1,16.5,10.2,8.7,4,norm,1.354,1.338,-1.805,-1.32,-4.481,-4.562,-1.141,-2.065,-1.331,-1.367,1.655,-1.913,7.0,14.8,-4.945,-7.999,16.0,-1.179,7.637,4.344,-5.106,-8.152,30,5.084,4.589,4.418,4.32,1.277,1.55,1.429,1.644,30,4.862,5.169,40,89.9946165985,norm,0,84,84,84,469.772,469.777,469.779104773,469.78,469.783,469.786,down,1,2.78761230961,7.21238769039,001,004,800_600,Intel(R) Core(TM) i7-2670QM CPU @ 2.20GHz,orientation_search,GRVLAPTOP3,Intel(R) HD Graphics Family,2018_jun_07_0917,testMonitor,
10.0,,6.1,20.9,36,-60,26.0,14.4,14.0,19.6,7.862,8.046,7.664,8.004,8.158,7.858,8.499,4.485,-4.312,-8.074,1.994,-1.405,8.45,4.588,-4.508,-7.666,25.2,27.7,-8.423,18.4,22.1,32.8,38.0,6.5,36,24.9,3,5,prime,10,0,119,norm,36,-4.747,up,norm,18.6433819217,22.2,29.3,1.936,21.5,5,-1.4,18.9,35.5,10,6,7.842,5.206,1.559,-1.892,-4.775,-8.047,27.3,6,137.6,-7.971,-7.906,-60,-8.369,-7.584,-4.862,-4.652,-4.981,-4.342,5.172,7.857,23,-1.328,1.51,4.713,8.316,-8.246,-7.967,-1.871,1.134,22.4,38.6,38.6,10.9,22.7,7.1,3.8,15.5,19.5,-0.1,5,norm,1.577,1.152,-1.494,-1.588,-5.078,-4.994,-1.331,-2.062,-1.901,-1.812,1.248,-1.493,18.6,10.2,-4.933,-7.649,8.0,-1.908,7.76,4.56,-4.684,-7.981,30,4.705,4.458,4.565,4.396,1.17,2.06,1.518,1.821,30,4.458,4.425,40,89.9946165985,norm,0,85,85,85,472.582,472.587,472.58867539,472.589,472.592,472.595,up,1,0.982615095029,9.01738490497,001,004,800_600,Intel(R) Core(TM) i7-2670QM CPU @ 2.20GHz,orientation_search,GRVLAPTOP3,Intel(R) HD Graphics Family,2018_jun_07_0917,testMonitor,
44.5,56.1,46.5,58.1,36,-30,48.4,53.3,55.6,44.8,7.526,7.862,7.862,8.428,8.094,8.432,7.85,5.277,-4.604,-8.102,2.022,-2.031,8.196,5.289,-5.186,-7.773,45.0,46.7,-8.299,52.4,51.9,46.1,46.8,47.9,36,54.1,2,5,probe,5,0,100,norm,36,-5.213,up,norm,50.6742917387,51.1,50.4,1.161,46.4,3,52.3,51.9,49.9,10,6,8.487,5.143,1.173,-1.239,-4.814,-7.936,53.6,2,-49.3,-7.625,-8.485,-60,-8.173,-7.664,-4.946,-5.212,-4.847,-5.166,5.075,7.771,15,-1.896,1.939,4.492,7.555,-8.039,-7.922,-1.517,1.678,49.2,57.4,41.6,40.7,47.6,57.1,50.3,58.1,50.5,57.6,0,norm,1.341,1.585,-2.076,-1.51,-5.011,-4.641,-1.832,-1.524,-1.54,-1.88,1.671,-1.229,56.4,60.7,-4.555,-8.196,,-1.917,8.427,4.643,-4.508,-7.642,31,4.319,4.509,4.916,4.494,1.546,2.1,1.713,1.134,31,5.254,4.335,-60,18.6433819217,norm,0,86,86,86,473.586,473.592,473.593575664,473.594,473.597,473.6,up,1,1.5295041403,8.4704958597,001,004,800_600,Intel(R) Core(TM) i7-2670QM CPU @ 2.20GHz,orientation_search,GRVLAPTOP3,Intel(R) HD Graphics Family,2018_jun_07_0917,testMonitor,
52.7,66.1,65.4,69.1,36,-30,65.8,61.5,62.0,,7.968,7.801,7.883,8.214,7.651,8.264,7.551,4.321,-5.057,-7.773,1.451,-1.353,8.401,4.777,-5.255,-7.598,61.2,67.7,-8.191,54.0,60.3,66.9,55.3,67.4,36,69.7,4,5,probe,5,0,112,norm,36,-5.012,up,norm,62.6742917387,63.5,63.1,1.533,61.2,5,68.3,58.5,57.8,10,6,7.928,5.132,1.726,-1.732,-5.249,-8.228,57.6,2,-49.3,-7.86,-8.422,-60,-7.694,-7.675,-4.93,-4.941,-4.667,-5.042,5.128,7.778,29,-1.904,1.607,4.848,8.159,-7.889,-7.914,-1.483,1.252,58.1,67.6,67.2,59.2,62.5,57.9,55.2,64.5,63.5,72.7,1,norm,1.737,2.006,-2.042,-1.11,-4.746,-4.937,-1.689,-1.671,-1.529,-1.447,1.594,-1.626,61.8,69.7,-4.688,-7.802,55.8,-1.764,8.35,4.925,-4.802,-7.679,31,4.883,4.925,4.423,5.216,1.452,1.506,2.024,1.802,31,4.414,4.583,-60,18.6433819217,norm,0,87,87,87,475.138,475.144,475.145612004,475.146,475.149,475.152,up,1,0.717464241403,9.2825357586,001,004,800_600,Intel(R) Core(TM) i7-2670QM CPU @ 2.20GHz,orientation_search,GRVLAPTOP3,Intel(R) HD Graphics Family,2018_jun_07_0917,testMonitor,
312.7,305.0,309.7,307.8,36,-60,300.1,301.9,318.0,308.7,7.778,8.078,7.801,7.903,8.237,8.311,7.626,4.348,-5.152,-7.835,1.161,-1.66,8.103,4.383,-4.533,-8.358,308.4,312.7,-8.407,317.6,304.0,,312.5,315.5,36,300.5,5,5,prime,10,0,76,norm,36,-4.946,up,norm,310.219736798,330.2,299.9,2.065,310.6,3,327.8,306.2,310.8,10,2,7.74,4.69,2.016,-1.966,-5.025,-7.582,310.0,2,386.2,-7.505,-8.0,-60,-7.65,-7.735,-4.71,-4.366,-5.259,-5.148,4.317,7.563,33,-1.699,1.832,5.069,7.668,-8.471,-7.961,-1.654,1.199,324.0,314.3,290.2,318.3,306.2,297.3,312.9,308.5,304.2,320.9,0,norm,1.922,1.921,-1.336,-1.71,-4.811,-5.168,-1.935,-1.355,-1.482,-1.114,1.37,-1.376,292.7,311.5,-5.131,-8.081,323.6,-1.736,8.429,5.188,-4.539,-8.353,32,5.028,4.474,4.796,5.069,1.296,1.747,1.702,1.431,32,4.82,4.914,-30,18.6433819217,norm,0,88,88,88,475.878,475.883,475.88498739,475.886,475.888,475.892,down,0,1.33757348193,-10,001,004,800_600,Intel(R) Core(TM) i7-2670QM CPU @ 2.20GHz,orientation_search,GRVLAPTOP3,Intel(R) HD Graphics Family,2018_jun_07_0917,testMonitor,
295.3,313.5,314.2,316.2,36,-60,318.6,290.2,291.0,304.3,8.454,7.503,7.512,8.405,7.851,8.283,7.589,4.479,-4.877,-8.407,2.044,-1.981,8.329,4.818,-4.321,-8.144,326.8,306.2,-8.288,310.3,293.8,318.1,308.6,297.0,36,326.8,2,5,prime,10,0,67,norm,36,-4.888,up,norm,310.219736798,320.7,305.5,1.903,316.5,3,302.1,307.8,313.7,10,2,7.564,5.235,1.195,-1.914,-4.315,-7.575,311.0,2,377.2,-8.099,-7.604,-60,-7.961,-8.117,-4.544,-4.928,-4.428,-5.009,4.804,7.683,15,-1.219,1.212,4.744,8.278,-7.928,-8.046,-1.198,1.965,320.7,299.0,315.7,330.2,306.0,308.8,321.3,302.9,311.4,315.5,1,norm,1.351,1.1,-1.113,-1.609,-4.777,-4.855,-1.987,-1.245,-1.553,-1.164,1.798,-1.688,315.3,321.4,-4.435,-8.287,,-1.612,7.767,4.862,-4.581,-8.347,32,4.424,5.259,4.939,4.458,1.458,2.092,1.312,1.965,32,4.502,5.234,-30,18.6433819217,norm,0,89,89,89,478.242,478.248,478.249719708,478.25,478.253,478.256,up,1,1.93227218326,8.06772781674,001,004,800_600,Intel(R) Core(TM) i7-2670QM CPU @ 2.20GHz,orientation_search,GRVLAPTOP3,Intel(R) HD Graphics Family,2018_jun_07_0917,testMonitor,
,318.4,322.3,329.8,36,-20,327.0,321.9,323.6,329.9,8.287,7.501,7.679,7.506,7.52,7.52,8.205,4.367,-4.757,-8.322,1.604,-1.236,7.726,5.022,-5.17,-8.058,320.4,322.8,-8.083,325.6,322.7,313.8,323.1,325.2,36,314.4,3,5,probe,5,0,65,norm,36,-5.105,up,norm,323.808851784,332.3,323.2,1.401,325.7,4,320.7,323.9,320.0,10,2,7.529,5.178,1.596,-1.308,-4.684,-7.78,328.8,2,258.8,-7.615,-7.899,-60,-7.862,-8.002,-4.312,-4.609,-4.326,-4.784,5.147,8.051,22,-1.928,2.021,5.254,7.692,-8.092,-7.577,-1.74,1.859,333.8,329.8,330.9,317.8,325.7,325.6,320.9,324.2,324.4,314.2,0,norm,1.784,1.23,-1.883,-1.287,-4.584,-4.586,-1.932,-1.123,-1.601,-1.473,1.258,-1.329,316.7,332.1,-4.43,-7.835,326.6,-2.066,7.83,5.298,-4.946,-8.406,33,4.35,4.398,4.468,4.731,1.571,2.066,1.382,1.748,33,4.487,5.218,-60,310.219736798,norm,0,90,90,90,480.197,480.203,480.205334733,480.206,480.209,480.212,up,1,0.905651751822,9.09434824818,001,004,800_600,Intel(R) Core(TM) i7-2670QM CPU @ 2.20GHz,orientation_search,GRVLAPTOP3,Intel(R) HD Graphics Family,2018_jun_07_0917,testMonitor,
363.2,350.8,370.8,356.3,36,-20,359.0,361.9,362.6,358.2,7.508,8.02,7.535,7.622,7.961,8.114,7.935,5.28,-4.866,-8.452,1.261,-1.505,8.367,4.693,-4.735,-7.626,360.7,366.6,-7.888,360.5,355.8,353.3,,359.9,36,365.9,5,5,probe,5,0,102,norm,36,-4.551,down,norm,360.808851784,352.8,362.7,1.336,353.7,2,353.8,351.3,367.0,10,2,8.266,4.445,1.121,-1.868,-5.011,-8.486,360.6,2,258.8,-7.84,-8.449,-60,-8.007,-8.135,-4.845,-5.282,-4.318,-5.198,5.094,8.062,32,-1.517,1.469,4.895,7.938,-7.949,-7.716,-1.755,1.128,364.7,362.4,366.0,361.5,357.1,362.3,360.6,356.7,365.1,355.9,1,norm,1.708,1.242,-1.186,-1.428,-4.771,-4.469,-1.223,-1.906,-1.239,-1.27,1.938,-1.506,359.5,365.9,-4.533,-8.487,356.6,-1.955,8.455,5.21,-4.791,-8.05,33,5.103,5.194,4.827,5.002,2.1,1.771,2.016,1.846,33,4.593,5.03,-60,310.219736798,norm,0,91,91,91,481.127,481.132,481.13389272,481.134,481.137,481.14,down,1,0.999610088755,9.00038991125,001,004,800_600,Intel(R) Core(TM) i7-2670QM CPU @ 2.20GHz,orientation_search,GRVLAPTOP3,Intel(R) HD Graphics Family,2018_jun_07_0917,testMonitor,
20.2,25.9,15.4,9.9,36,10,46.3,46.6,29.1,21.2,8.365,7.548,7.555,8.11,7.573,7.639,8.214,4.717,-4.679,-7.806,1.47,-1.47,8.268,4.835,-4.83,-7.716,35.0,26.3,-7.728,34.8,11.3,27.0,26.9,19.9,36,31.5,2,5,prime,10,0,107,norm,36,-4.832,up,norm,29.8129288924,,32.2,1.816,49.8,5,25.6,26.3,9.8,10,3,7.985,4.419,1.145,-1.202,-4.709,-7.567,28.7,3,136.8,-8.477,-8.068,10,-7.541,-7.953,-4.883,-4.892,-4.382,-4.992,4.522,7.533,17,-1.719,1.184,4.756,8.271,-7.583,-7.619,-1.513,1.546,44.1,31.2,39.4,28.3,35.6,43.9,21.5,28.3,24.2,42.5,0,norm,1.578,1.479,-1.305,-2.047,-4.43,-4.481,-1.819,-1.236,-2.081,-2.038,1.836,-1.34,36.3,32.8,-5.263,-7.912,36.5,-1.356,8.136,4.703,-4.484,-8.406,34,5.092,4.582,5.231,4.36,1.736,1.465,1.907,1.37,34,4.475,4.643,-20,310.219736798,norm,0,92,92,92,482.148,482.154,482.155732886,482.156,482.159,482.162,up,1,0.760347006999,9.239652993,001,004,800_600,Intel(R) Core(TM) i7-2670QM CPU @ 2.20GHz,orientation_search,GRVLAPTOP3,Intel(R) HD Graphics Family,2018_jun_07_0917,testMonitor,
34.4,23.7,49.8,33.3,36,10,24.7,27.0,47.0,39.0,7.901,8.373,7.624,7.708,7.613,8.05,8.459,5.057,-5.152,-7.648,1.936,-1.336,7.67,5.168,-4.746,-8.227,25.9,23.6,-8.104,29.2,22.4,49.4,26.6,9.8,36,26.8,2,5,prime,10,0,95,norm,36,-4.408,up,norm,29.8129288924,,41.4,1.399,38.1,5,23.0,14.8,31.2,10,3,7.954,4.556,1.748,-1.507,-4.699,-7.732,19.0,3,124.8,-7.683,-8.014,10,-8.222,-7.596,-5.101,-4.551,-4.545,-4.606,5.125,7.553,17,-1.813,1.223,4.676,8.297,-7.995,-8.297,-1.783,1.649,46.9,35.9,19.8,30.1,32.0,20.7,28.0,31.1,28.9,45.3,1,norm,1.597,1.912,-1.254,-1.265,-4.861,-4.438,-1.541,-1.198,-1.267,-1.452,1.767,-2.046,45.7,15.5,-4.469,-8.287,13.8,-1.974,7.671,4.925,-4.649,-7.807,34,4.727,4.955,5.005,5.012,1.359,1.469,1.506,1.906,34,4.429,4.552,-20,310.219736798,norm,0,93,93,93,482.931,482.937,482.938436517,482.939,482.942,482.946,up,1,0.605444842035,9.39455515797,001,004,800_600,Intel(R) Core(TM) i7-2670QM CPU @ 2.20GHz,orientation_search,GRVLAPTOP3,Intel(R) HD Graphics Family,2018_jun_07_0917,testMonitor,
29.3,20.9,21.4,28.9,36,10,35.5,42.0,49.8,34.6,7.57,8.236,7.901,8.334,8.07,8.387,8.434,4.873,-5.274,-8.169,1.639,-1.246,7.709,4.42,-4.638,-7.752,28.4,9.8,-7.801,36.6,39.5,35.3,,24.9,36,17.7,5,5,prime,10,0,88,norm,36,-5.297,down,norm,29.8129288924,26.9,38.7,1.92,25.7,2,39.3,42.4,17.0,10,3,7.878,4.723,1.658,-1.736,-4.314,-8.293,29.1,3,117.8,-7.623,-7.92,10,-8.142,-8.34,-5.011,-4.843,-4.952,-4.955,4.738,7.778,32,-1.467,1.965,4.634,7.674,-7.961,-7.881,-1.264,1.702,33.0,13.5,38.9,18.2,24.1,29.8,33.8,21.4,35.7,43.6,2,norm,2.049,1.313,-1.203,-1.25,-4.612,-4.709,-1.202,-1.696,-1.601,-1.372,2.043,-1.701,26.5,32.6,-5.128,-8.458,41.5,-1.411,8.177,4.42,-4.623,-8.262,34,4.863,5.228,5.042,5.29,1.918,1.182,2.0,1.411,34,4.964,4.582,-20,310.219736798,norm,0,94,94,94,483.559,483.564,483.566042793,483.567,483.57,483.573,up,0,0.608200370486,-10,001,004,800_600,Intel(R) Core(TM) i7-2670QM CPU @ 2.20GHz,orientation_search,GRVLAPTOP3,Intel(R) HD Graphics Family,2018_jun_07_0917,testMonitor,
146.8,149.1,157.5,142.3,36,0,154.5,142.4,143.2,145.6,8.039,8.067,7.837,8.381,8.074,7.917,8.416,4.732,-4.526,-8.355,2.015,-1.863,8.346,4.682,-4.813,-8.094,140.7,148.2,-7.948,148.7,141.8,150.9,140.7,153.9,36,137.5,1,5,probe,5,0,108,norm,36,-4.414,up,norm,147.50759425,153.2,149.0,1.617,147.6,3,152.9,147.5,142.8,10,3,8.265,4.754,1.535,-1.442,-4.526,-7.937,141.0,1,39.5,-7.884,-8.171,10,-7.608,-8.442,-4.712,-4.442,-5.173,-5.156,4.927,7.761,9,-2.057,1.766,4.721,7.969,-7.593,-7.569,-1.72,1.74,,142.3,146.9,152.5,152.4,142.6,150.1,139.7,146.3,147.5,0,norm,1.408,1.133,-1.193,-1.764,-4.5,-4.591,-1.961,-1.505,-1.417,-1.685,1.345,-1.1,142.9,150.1,-4.623,-7.541,149.8,-1.35,7.985,4.484,-5.029,-8.106,35,5.123,5.086,5.024,5.182,1.965,1.484,1.771,1.669,35,4.982,4.783,10,29.8129288924,norm,0,95,95,95,485.2,485.205,485.207038668,485.207,485.21,485.214,up,1,0.89373774523,9.10626225477,001,004,800_600,Intel(R) Core(TM) i7-2670QM CPU @ 2.20GHz,orientation_search,GRVLAPTOP3,Intel(R) HD Graphics Family,2018_jun_07_0917,testMonitor,
