d_ori_22,d_ori_23,d_ori_20,d_ori_21,set_size,ctpd,d_ori_24,d_ori_25,d_ori_28,d_ori_29,stim_pos_x_30,stim_pos_x_31,stim_pos_x_32,stim_pos_x_33,stim_pos_x_34,stim_pos_x_35,stim_pos_y_11,stim_pos_y_10,stim_pos_y_13,stim_pos_y_12,stim_pos_y_15,stim_pos_y_14,stim_pos_y_17,stim_pos_y_16,stim_pos_y_19,stim_pos_y_18,d_ori_35,d_ori_34,stim_pos_x_3,d_ori_31,d_ori_30,d_ori_33,d_ori_32,d_ori_26,test_set_size,d_ori_27,targetCol,dsd_test,seq_type,dsd,blockRepN,targetDist,dtype_test,prime_set_size,stim_pos_y_25,correctResponse,dtype,distrMean,d_ori_17,d_ori_16,stim_pos_y_3,d_ori_14,targetRow,d_ori_11,d_ori_13,d_ori_12,dsd_prime,streak_length_prime,stim_pos_y_35,stim_pos_y_34,stim_pos_y_33,stim_pos_y_32,stim_pos_y_31,stim_pos_y_30,d_ori_10,nextProbe,targetOri,stim_pos_x_1,stim_pos_x_2,ctpd_prime,stim_pos_x_4,stim_pos_x_5,stim_pos_x_6,stim_pos_x_7,stim_pos_x_8,stim_pos_x_9,stim_pos_y_28,stim_pos_y_29,targetPos,stim_pos_y_20,stim_pos_y_21,stim_pos_y_22,stim_pos_y_23,stim_pos_y_24,stim_pos_x_0,stim_pos_y_26,stim_pos_y_27,d_ori_9,d_ori_8,d_ori_3,d_ori_2,d_ori_1,d_ori_0,d_ori_7,d_ori_6,d_ori_5,d_ori_4,trialN,dtype_prime,stim_pos_x_18,stim_pos_x_19,stim_pos_x_12,stim_pos_x_13,stim_pos_x_10,stim_pos_x_11,stim_pos_x_16,stim_pos_x_17,stim_pos_x_14,stim_pos_x_15,stim_pos_y_9,stim_pos_y_8,d_ori_19,d_ori_18,stim_pos_y_1,stim_pos_y_0,d_ori_15,stim_pos_y_2,stim_pos_y_5,stim_pos_y_4,stim_pos_y_7,stim_pos_y_6,totBlockN,stim_pos_x_27,stim_pos_x_26,stim_pos_x_25,stim_pos_x_24,stim_pos_x_23,stim_pos_x_22,stim_pos_x_21,stim_pos_x_20,blockN,stim_pos_x_29,stim_pos_x_28,prevDistrCTPD,prevDistrMean,prevDistrType,trials.thisRepN,trials.thisTrialN,trials.thisN,trials.thisIndex,timeStart,timeBeforeDraw,timeDraw,timeAfterSaving,timeAfterWritingToTemp,timeAfterPreparingNext,answer,correct,rt,trialScore,session,participant,resolution,cpu_info,expName,pc_name,graphic_card,date,monitorName,
294.1,303.3,304.6,301.0,36,80,307.5,301.5,,285.6,8.001,7.54,8.405,7.553,8.175,8.426,8.16,4.649,-4.351,-7.762,1.334,-2.058,7.688,4.584,-4.695,-8.215,279.4,304.4,-8.24,299.5,294.5,300.7,291.7,301.9,36,306.1,4,5,prime,10,0,82,norm,36,-4.426,up,norm,293.13540425,311.5,287.3,1.742,293.4,4,299.9,281.6,288.0,10,2,8.279,4.566,1.597,-1.946,-4.443,-7.936,292.7,2,375.1,-8.291,-8.277,80,-7.516,-8.299,-4.802,-4.98,-5.266,-5.291,4.362,7.72,28,-1.865,1.855,4.959,8.312,-7.537,-8.16,-1.658,1.25,313.1,273.1,294.1,288.5,280.2,293.4,274.8,294.0,307.1,309.8,0,norm,1.388,1.989,-1.404,-1.128,-4.662,-4.975,-1.566,-1.339,-1.741,-2.016,1.791,-1.421,295.9,277.3,-5.015,-8.364,311.5,-1.95,7.921,4.54,-5.067,-8.123,0,4.768,5.192,4.91,4.977,1.786,1.173,1.208,1.233,0,4.725,5.165,,,,0,0,0,0,432.297,432.308,432.3150707,432.315,432.316,432.319,up,1,1.80267922726,8.19732077274,001,009,800_600,Intel(R) Core(TM) i7-2670QM CPU @ 2.20GHz,orientation_search,GRVLAPTOP3,Intel(R) HD Graphics Family,2018_jun_07_1225,testMonitor,
297.2,285.6,313.1,288.5,36,80,274.7,283.2,287.5,292.7,7.683,7.613,7.638,8.162,7.719,8.491,8.042,4.831,-4.912,-8.187,1.366,-1.659,8.421,4.455,-5.152,-7.776,302.0,286.5,-8.189,286.0,302.5,298.9,281.9,284.5,36,273.1,2,5,prime,10,0,82,norm,36,-5.026,down,norm,293.13540425,299.1,299.2,1.346,306.7,0,285.3,295.9,,10,2,7.554,4.686,1.614,-1.44,-4.311,-8.404,278.2,2,375.1,-8.113,-8.491,80,-7.707,-8.42,-4.331,-4.387,-4.314,-5.087,5.219,7.669,12,-1.682,1.732,4.478,8.387,-7.592,-7.634,-1.23,2.033,306.7,282.5,282.0,298.1,289.3,281.7,289.9,292.8,303.2,308.0,1,norm,1.213,1.894,-1.136,-1.214,-4.961,-4.398,-1.67,-1.781,-1.79,-1.864,1.347,-1.348,286.5,302.6,-4.535,-8.323,293.3,-1.602,8.177,4.612,-4.733,-7.997,0,4.757,4.849,4.647,4.319,2.017,1.365,1.5,1.721,0,4.911,4.309,,,,0,1,1,1,434.133,434.139,434.141771729,434.142,434.144,434.148,down,1,3.6420764198,6.3579235802,001,009,800_600,Intel(R) Core(TM) i7-2670QM CPU @ 2.20GHz,orientation_search,GRVLAPTOP3,Intel(R) HD Graphics Family,2018_jun_07_1225,testMonitor,
469.0,473.8,478.6,472.5,36,30,474.8,477.8,481.7,480.1,8.271,8.428,7.788,7.746,8.325,8.303,8.059,4.897,-4.372,-7.94,1.603,-1.639,7.701,4.708,-4.828,-8.194,478.6,475.2,-8.273,468.8,476.4,,473.7,481.4,36,476.3,5,5,probe,5,0,108,norm,36,-4.979,up,norm,478.243257733,483.8,477.5,1.364,477.7,3,480.8,474.9,485.3,10,2,8.212,4.905,1.973,-1.989,-4.471,-7.771,483.2,1,370.2,-8.211,-8.138,80,-7.648,-7.604,-5.018,-5.096,-4.323,-4.478,4.317,7.755,33,-1.808,1.766,5.291,8.4,-8.398,-8.268,-1.425,1.907,469.5,480.6,478.4,472.6,477.4,472.6,475.4,477.7,475.5,475.2,0,norm,2.08,1.617,-1.592,-1.399,-4.849,-4.721,-1.731,-1.619,-1.653,-1.97,1.909,-2.063,488.2,468.2,-5.175,-8.356,482.6,-1.908,7.62,4.684,-4.496,-8.365,1,4.61,4.333,5.085,4.339,2.056,1.694,1.917,1.735,1,4.571,4.318,80,293.13540425,norm,0,2,2,2,437.8,437.806,437.807862479,437.808,437.811,437.815,up,1,1.02902060366,8.97097939634,001,009,800_600,Intel(R) Core(TM) i7-2670QM CPU @ 2.20GHz,orientation_search,GRVLAPTOP3,Intel(R) HD Graphics Family,2018_jun_07_1225,testMonitor,
325.7,324.7,328.9,318.6,36,-60,336.1,337.5,311.0,307.2,7.657,7.91,8.151,7.615,8.216,7.536,7.846,5.117,-5.205,-7.764,2.073,-1.103,7.579,4.343,-4.497,-7.788,317.5,320.1,-8.469,,325.0,322.2,319.4,320.8,36,332.5,5,5,prime,10,0,100,norm,36,-5.091,down,norm,321.206209955,310.4,329.1,1.827,312.7,1,314.6,325.9,317.3,10,2,8.167,5.108,1.131,-1.268,-4.909,-8.209,301.2,2,421.2,-8.407,-7.877,-60,-8.367,-8.255,-4.605,-4.894,-4.313,-4.737,4.984,8.028,31,-2.051,1.281,5.128,7.9,-7.968,-7.542,-1.574,1.889,321.6,322.5,307.1,314.5,341.2,320.7,324.1,313.2,330.5,306.5,0,norm,1.523,1.702,-1.778,-1.125,-5.117,-4.781,-1.236,-1.915,-1.167,-1.923,1.899,-1.852,309.5,315.2,-5.264,-7.837,312.2,-1.973,8.014,4.883,-4.985,-7.921,2,4.534,4.721,4.486,4.655,1.224,1.976,1.155,1.205,2,5.098,5.126,30,293.13540425,norm,0,3,3,3,438.852,438.857,438.859066464,438.86,438.862,438.866,down,1,2.57049338482,7.42950661518,001,009,800_600,Intel(R) Core(TM) i7-2670QM CPU @ 2.20GHz,orientation_search,GRVLAPTOP3,Intel(R) HD Graphics Family,2018_jun_07_1225,testMonitor,
320.7,318.2,309.4,326.5,36,-60,322.5,319.2,341.2,312.7,7.954,7.914,7.586,7.528,7.705,8.477,7.865,5.183,-4.684,-8.037,1.238,-1.48,8.158,5.251,-4.586,-8.057,339.3,302.4,-8.018,310.9,329.9,315.2,323.8,318.0,36,337.6,0,5,prime,10,0,108,norm,36,-4.787,down,norm,321.206209955,333.2,302.8,1.165,333.3,2,301.2,305.1,317.2,10,2,8.45,4.629,1.889,-1.412,-4.622,-7.938,314.7,2,429.2,-7.577,-7.776,-60,-8.128,-8.192,-4.473,-5.258,-5.123,-4.498,5.211,7.638,2,-1.991,1.304,4.732,8.435,-7.741,-8.441,-1.508,1.169,302.4,317.9,317.3,,313.7,322.6,333.1,327.6,333.5,332.5,1,norm,1.329,1.441,-1.474,-1.268,-4.543,-4.421,-1.562,-1.581,-1.21,-1.678,2.008,-1.425,332.9,319.4,-4.502,-8.304,308.1,-1.995,8.302,4.465,-4.46,-7.636,2,4.982,4.714,4.796,4.731,1.227,1.887,1.604,1.723,2,4.384,4.833,30,293.13540425,norm,0,4,4,4,441.445,441.451,441.45314551,441.454,441.457,441.46,up,0,2.25171969537,-10,001,009,800_600,Intel(R) Core(TM) i7-2670QM CPU @ 2.20GHz,orientation_search,GRVLAPTOP3,Intel(R) HD Graphics Family,2018_jun_07_1225,testMonitor,
366.6,360.3,364.4,363.6,36,20,373.5,362.3,367.7,366.8,7.957,8.181,7.966,7.599,7.611,8.325,8.076,4.595,-4.619,-7.791,1.679,-1.37,7.625,4.867,-4.589,-7.51,366.1,372.7,-7.942,354.6,363.4,366.9,369.1,362.1,36,365.7,2,5,probe,5,0,104,norm,36,-4.337,up,norm,364.552025958,366.6,,1.663,369.6,4,364.3,361.5,365.9,10,2,8.272,4.433,1.697,-1.426,-4.98,-8.091,362.7,1,260.6,-7.679,-7.729,-60,-8.092,-8.081,-5.124,-4.7,-4.497,-5.193,4.874,8.222,16,-1.198,2.042,5.242,7.829,-8.251,-7.594,-1.269,1.77,367.8,362.6,374.6,361.2,358.3,361.3,363.8,371.6,358.8,368.0,0,norm,1.499,1.57,-1.27,-1.12,-4.588,-4.939,-2.063,-1.641,-1.554,-1.516,1.442,-1.899,368.0,365.6,-4.955,-7.561,363.6,-1.975,8.459,5.009,-5.011,-7.596,3,4.788,4.6,4.44,4.975,1.345,1.262,1.696,1.733,3,4.331,4.736,-60,321.206209955,norm,0,5,5,5,444.728,444.734,444.735371207,444.736,444.739,444.742,up,1,2.77661774642,7.22338225358,001,009,800_600,Intel(R) Core(TM) i7-2670QM CPU @ 2.20GHz,orientation_search,GRVLAPTOP3,Intel(R) HD Graphics Family,2018_jun_07_1225,testMonitor,
331.4,335.8,332.4,340.1,36,-30,332.1,325.2,312.1,325.5,7.54,8.389,7.93,7.705,7.813,8.193,8.304,4.759,-4.391,-8.185,1.926,-1.8,8.41,4.602,-5.074,-7.774,327.6,323.8,-7.944,316.6,333.5,,321.9,336.8,36,320.4,5,5,prime,10,0,79,norm,36,-4.644,up,norm,328.086576612,330.0,332.7,2.089,334.5,3,347.0,348.1,330.0,10,2,8.206,4.382,1.85,-1.432,-4.454,-7.694,325.7,2,407.1,-7.9,-8.449,-30,-8.422,-7.761,-5.027,-5.224,-4.564,-4.475,4.307,8.135,33,-1.211,1.816,5.25,7.929,-7.533,-7.991,-1.296,1.989,335.4,315.5,324.9,332.0,341.7,325.2,325.2,328.2,336.7,337.7,0,norm,1.969,1.725,-1.321,-1.674,-5.23,-4.367,-2.036,-1.967,-1.245,-2.072,1.292,-1.108,321.7,337.9,-4.917,-7.914,308.1,-1.836,7.929,4.832,-5.117,-8.076,4,4.453,5.159,4.892,4.692,1.907,1.65,1.424,1.785,4,5.248,4.55,20,321.206209955,norm,0,6,6,6,447.528,447.534,447.535814165,447.536,447.539,447.543,up,1,2.26818375606,7.73181624394,001,009,800_600,Intel(R) Core(TM) i7-2670QM CPU @ 2.20GHz,orientation_search,GRVLAPTOP3,Intel(R) HD Graphics Family,2018_jun_07_1225,testMonitor,
336.0,339.0,323.0,342.5,36,-30,331.9,334.9,326.6,330.2,8.455,7.845,7.63,7.903,7.894,8.139,7.83,4.912,-4.327,-8.27,2.0,-1.818,8.152,5.228,-4.359,-7.874,339.7,320.5,-7.617,327.8,338.4,324.1,334.0,322.1,36,330.5,3,5,prime,10,0,73,norm,36,-5.037,down,norm,328.086576612,322.7,311.7,1.151,337.8,1,334.8,330.2,319.7,10,2,8.032,5.058,1.838,-1.816,-4.679,-8.189,324.8,2,401.1,-8.012,-8.119,-30,-7.553,-7.643,-5.236,-4.519,-4.971,-4.561,4.372,8.185,19,-1.723,1.619,5.258,7.643,-7.743,-7.626,-1.191,1.855,329.2,310.6,348.1,325.6,329.8,321.0,343.9,340.7,338.7,308.1,1,norm,1.594,1.957,-1.966,-1.595,-5.253,-4.806,-1.667,-1.619,-1.457,-1.442,1.589,-1.843,,310.1,-4.868,-8.108,317.4,-1.889,7.971,4.661,-4.643,-8.225,4,4.9,5.024,5.042,4.538,1.391,1.939,2.068,1.215,4,4.983,4.723,20,321.206209955,norm,0,7,7,7,449.82,449.825,449.826871002,449.827,449.83,449.834,down,1,2.01673162853,7.98326837147,001,009,800_600,Intel(R) Core(TM) i7-2670QM CPU @ 2.20GHz,orientation_search,GRVLAPTOP3,Intel(R) HD Graphics Family,2018_jun_07_1225,testMonitor,
363.9,351.8,355.3,356.0,36,30,364.4,363.3,363.6,358.0,7.544,8.052,8.193,8.106,8.061,8.153,8.494,4.862,-4.317,-7.749,1.462,-1.483,8.438,5.215,-4.533,-7.73,363.1,362.0,-8.434,361.5,371.3,366.2,366.3,358.0,36,357.8,2,5,probe,5,0,65,norm,36,-5.2,up,norm,361.796080788,366.3,361.7,1.968,353.5,3,365.8,368.2,364.1,10,2,8.36,4.706,1.121,-1.673,-4.912,-8.292,357.4,2,296.8,-7.708,-7.548,-30,-8.219,-7.949,-5.224,-4.934,-4.851,-4.726,5.014,7.649,15,-1.207,1.218,4.532,7.988,-8.23,-8.34,-1.78,1.348,360.6,362.7,362.9,368.2,363.1,361.5,371.8,362.3,366.7,360.1,0,norm,1.377,1.199,-1.979,-1.184,-4.633,-4.776,-1.633,-1.16,-1.73,-1.203,1.591,-1.974,361.3,362.9,-4.753,-7.902,,-1.552,7.762,4.734,-5.083,-7.692,5,4.358,4.546,4.71,5.007,1.47,1.855,1.7,1.934,5,4.399,4.54,-30,328.086576612,norm,0,8,8,8,451.859,451.866,451.868072713,451.869,451.872,451.875,up,1,1.47435434667,8.52564565333,001,009,800_600,Intel(R) Core(TM) i7-2670QM CPU @ 2.20GHz,orientation_search,GRVLAPTOP3,Intel(R) HD Graphics Family,2018_jun_07_1225,testMonitor,
369.6,366.8,376.1,367.8,36,30,369.9,379.8,367.3,373.4,7.972,7.68,8.127,8.08,7.514,8.221,8.081,5.056,-4.807,-7.905,1.412,-1.484,7.974,4.521,-5.191,-7.91,365.7,372.3,-8.402,360.3,369.1,371.1,377.4,367.1,36,372.9,3,5,probe,5,0,73,norm,36,-4.879,down,norm,369.796080788,370.2,363.3,1.498,374.0,0,374.5,359.8,377.4,10,2,7.982,4.812,1.248,-1.23,-4.589,-8.203,368.8,2,296.8,-7.557,-7.791,-30,-7.725,-8.077,-5.235,-4.681,-5.013,-4.96,4.356,7.977,18,-1.181,1.665,4.301,8.379,-7.956,-8.25,-1.34,1.445,372.7,376.1,366.4,368.2,368.7,367.6,379.8,376.9,369.7,368.3,1,norm,1.487,1.535,-1.803,-1.405,-4.638,-4.899,-1.397,-1.61,-2.018,-1.341,1.199,-1.271,371.0,,-5.259,-7.657,373.1,-1.103,8.146,4.891,-4.544,-8.365,5,5.232,4.331,4.917,5.077,1.308,1.962,1.504,1.981,5,5.044,4.965,-30,328.086576612,norm,0,9,9,9,453.358,453.364,453.365785312,453.366,453.369,453.373,down,1,1.35672629585,8.64327370415,001,009,800_600,Intel(R) Core(TM) i7-2670QM CPU @ 2.20GHz,orientation_search,GRVLAPTOP3,Intel(R) HD Graphics Family,2018_jun_07_1225,testMonitor,
336.7,358.1,345.1,354.1,36,10,359.1,330.1,357.1,339.2,7.62,8.095,7.649,8.026,8.351,8.064,8.048,5.139,-4.345,-8.135,1.362,-1.748,7.991,4.398,-4.607,-7.679,369.8,359.8,-8.039,349.3,360.5,345.4,337.5,345.7,36,351.4,1,5,prime,10,0,84,norm,36,-5.074,down,norm,349.760068735,345.7,362.8,2.015,344.3,0,344.4,348.7,351.7,10,3,7.533,4.597,2.009,-1.151,-5.226,-7.709,354.6,3,433.8,-8.495,-8.054,10,-7.902,-8.299,-4.969,-4.61,-4.813,-5.262,4.601,8.049,6,-1.733,1.118,4.709,8.47,-7.519,-7.705,-1.624,1.983,355.5,361.2,353.7,329.8,364.0,345.8,346.6,,355.6,329.8,0,norm,1.318,1.133,-1.154,-2.019,-4.615,-4.577,-1.104,-1.275,-1.216,-1.423,1.73,-1.783,341.6,359.2,-4.969,-8.137,343.5,-1.757,7.824,5.137,-5.027,-7.502,6,5.006,5.051,5.207,4.799,1.137,1.688,1.307,1.917,6,4.777,4.92,30,328.086576612,norm,0,10,10,10,454.738,454.745,454.746617462,454.747,454.75,454.754,down,1,1.38249265823,8.61750734177,001,009,800_600,Intel(R) Core(TM) i7-2670QM CPU @ 2.20GHz,orientation_search,GRVLAPTOP3,Intel(R) HD Graphics Family,2018_jun_07_1225,testMonitor,
368.4,354.5,357.1,347.2,36,10,362.7,348.5,357.2,335.1,7.676,7.677,8.351,8.047,7.846,7.859,8.209,5.094,-4.496,-8.102,1.505,-1.416,8.164,4.685,-5.293,-7.68,361.5,369.8,-8.022,341.2,352.0,343.3,352.8,354.6,36,339.8,0,5,prime,10,0,88,norm,36,-5.269,up,norm,349.760068735,347.2,329.8,1.665,361.9,3,355.3,347.4,354.6,10,3,8.386,4.962,1.136,-2.089,-4.638,-7.641,345.3,3,437.8,-8.43,-8.409,10,-8.035,-7.971,-4.572,-5.247,-4.364,-4.722,4.481,7.678,3,-1.297,1.64,5.17,8.212,-8.445,-8.247,-1.965,1.468,369.0,356.1,,349.4,348.6,331.3,339.4,350.6,358.1,354.1,1,norm,1.521,1.749,-1.518,-1.803,-4.963,-4.664,-2.094,-1.631,-1.101,-1.988,1.1,-1.227,342.8,340.4,-4.328,-7.552,354.2,-1.276,7.7,4.568,-4.691,-7.736,6,5.089,4.413,4.358,4.509,1.746,1.547,1.766,1.884,6,5.027,4.798,30,328.086576612,norm,0,11,11,11,456.145,456.15,456.151512972,456.152,456.155,456.158,up,1,1.42585312347,8.57414687653,001,009,800_600,Intel(R) Core(TM) i7-2670QM CPU @ 2.20GHz,orientation_search,GRVLAPTOP3,Intel(R) HD Graphics Family,2018_jun_07_1225,testMonitor,
,358.4,366.7,350.6,36,10,351.7,354.3,343.8,347.8,8.082,7.907,7.953,7.907,7.636,8.485,7.743,4.626,-4.705,-8.14,1.375,-1.85,7.805,4.535,-4.603,-7.574,338.9,349.8,-7.991,358.8,329.8,352.0,359.9,356.7,36,350.5,3,5,prime,10,0,69,norm,36,-5.104,up,norm,349.760068735,336.0,339.2,1.998,347.4,4,359.7,343.9,357.2,10,3,7.987,5.28,1.862,-1.337,-5.004,-7.548,353.4,3,418.8,-7.965,-8.455,10,-7.675,-8.143,-4.313,-4.806,-4.869,-4.962,4.834,7.83,22,-1.415,1.313,4.858,8.432,-8.245,-7.93,-1.716,2.089,346.0,360.7,337.4,345.7,345.6,338.2,355.4,344.4,369.8,351.7,2,norm,1.672,1.59,-1.927,-1.359,-5.224,-4.751,-1.398,-1.501,-2.009,-1.919,1.986,-1.287,332.5,339.4,-5.217,-8.118,359.3,-1.845,8.474,4.553,-5.204,-7.707,6,4.895,5.051,4.462,4.316,1.329,1.236,1.172,1.165,6,4.971,5.095,30,328.086576612,norm,0,12,12,12,457.593,457.598,457.599419663,457.6,457.603,457.606,up,1,2.49355432351,7.50644567649,001,009,800_600,Intel(R) Core(TM) i7-2670QM CPU @ 2.20GHz,orientation_search,GRVLAPTOP3,Intel(R) HD Graphics Family,2018_jun_07_1225,testMonitor,
421.7,427.9,431.2,439.4,36,40,430.6,430.4,419.4,425.9,8.053,8.048,8.169,8.224,7.546,8.09,7.982,5.167,-4.36,-8.017,1.755,-1.406,7.832,4.712,-4.463,-8.4,431.4,423.9,-7.829,436.4,426.4,431.5,432.2,429.4,36,433.8,2,5,probe,5,0,70,norm,36,-4.776,down,norm,429.396849797,429.4,437.3,1.712,,2,422.3,436.6,431.2,10,3,8.005,4.446,2.097,-1.459,-5.017,-7.508,430.7,2,359.4,-7.951,-7.707,10,-8.413,-8.124,-4.864,-4.631,-5.186,-5.224,4.304,7.642,14,-1.52,1.925,5.053,7.861,-7.829,-8.19,-1.152,1.309,434.4,423.7,425.3,426.1,427.7,423.3,428.3,430.4,432.8,433.8,0,norm,1.263,1.832,-2.026,-1.923,-4.828,-4.802,-1.381,-1.35,-2.058,-1.227,1.287,-1.496,429.2,435.3,-4.631,-8.229,427.3,-1.374,7.637,5.032,-4.752,-7.542,7,4.447,4.74,4.549,4.842,1.765,1.114,1.52,1.898,7,5.008,5.129,10,349.760068735,norm,0,13,13,13,460.108,460.114,460.115861543,460.117,460.119,460.123,down,1,2.93750866794,7.06249133206,001,009,800_600,Intel(R) Core(TM) i7-2670QM CPU @ 2.20GHz,orientation_search,GRVLAPTOP3,Intel(R) HD Graphics Family,2018_jun_07_1225,testMonitor,
443.4,433.8,436.7,427.4,36,40,439.5,434.0,,432.1,7.801,8.155,8.443,7.836,8.306,8.254,8.275,4.768,-5.265,-8.122,1.578,-1.664,7.791,4.622,-4.991,-7.626,427.0,432.1,-8.056,438.3,431.2,435.1,431.1,432.2,36,444.3,4,5,probe,5,0,75,norm,36,-4.841,up,norm,434.396849797,440.3,428.2,1.773,426.6,4,440.5,431.7,437.4,10,3,8.152,4.8,1.812,-1.515,-4.614,-8.411,438.4,2,359.4,-7.979,-8.154,10,-8.419,-7.922,-4.907,-4.735,-5.131,-4.698,5.298,8.023,28,-1.408,1.575,5.258,7.919,-8.184,-8.081,-2.026,1.518,434.2,436.5,434.8,444.2,431.2,439.9,424.4,435.3,440.6,440.5,1,norm,1.948,1.28,-1.414,-1.99,-4.577,-5.099,-1.951,-1.865,-1.546,-1.358,1.595,-1.192,430.0,437.8,-4.845,-8.389,432.3,-1.231,7.857,4.591,-4.367,-7.872,7,4.825,4.421,4.486,4.671,1.952,1.768,1.293,1.308,7,4.574,4.804,10,349.760068735,norm,0,14,14,14,463.069,463.075,463.076625731,463.077,463.081,463.084,up,1,1.00769549379,8.99230450621,001,009,800_600,Intel(R) Core(TM) i7-2670QM CPU @ 2.20GHz,orientation_search,GRVLAPTOP3,Intel(R) HD Graphics Family,2018_jun_07_1225,testMonitor,
234.5,240.9,236.8,238.4,36,0,265.9,257.8,248.7,247.7,8.153,8.455,7.711,7.909,7.599,7.87,8.485,4.671,-4.657,-8.049,1.869,-2.032,7.949,4.873,-5.203,-8.039,237.9,243.5,-7.918,247.9,244.7,251.4,231.8,247.6,36,251.6,1,5,prime,10,0,99,norm,36,-5.056,down,norm,245.87926622,248.3,239.5,1.739,236.0,1,226.7,235.5,264.5,10,6,8.366,4.823,1.139,-1.19,-4.677,-8.452,249.0,6,344.9,-8.135,-8.233,0,-8.422,-8.072,-4.336,-4.813,-5.128,-4.536,4.709,8.031,7,-1.269,1.299,4.984,7.586,-8.378,-8.468,-1.272,1.233,225.9,252.0,256.7,258.6,245.0,246.3,,238.2,246.1,240.5,0,norm,1.441,1.343,-1.829,-1.456,-4.887,-4.816,-1.331,-1.91,-1.444,-1.385,1.286,-1.578,246.2,261.1,-5.248,-8.038,231.8,-1.601,7.891,5.107,-5.07,-8.135,8,5.069,5.196,5.007,4.651,1.294,1.479,1.58,1.804,8,4.902,4.647,40,349.760068735,norm,0,15,15,15,464.101,464.106,464.108291661,464.109,464.112,464.115,down,1,1.18422535843,8.81577464157,001,009,800_600,Intel(R) Core(TM) i7-2670QM CPU @ 2.20GHz,orientation_search,GRVLAPTOP3,Intel(R) HD Graphics Family,2018_jun_07_1225,testMonitor,
250.0,238.5,250.6,240.8,36,0,247.1,258.2,246.6,237.9,8.194,7.763,8.264,7.587,7.763,7.783,8.356,4.368,-4.642,-7.901,2.026,-1.271,7.666,4.572,-4.726,-8.169,244.3,239.9,-7.567,236.2,238.0,264.1,254.8,240.6,36,237.4,3,5,prime,10,0,91,norm,36,-5.111,down,norm,245.87926622,247.8,228.0,1.41,240.1,0,259.0,265.9,251.8,10,6,7.952,4.367,1.45,-1.465,-4.98,-8.402,250.1,6,336.9,-7.96,-8.264,0,-7.942,-8.165,-4.371,-4.856,-5.038,-4.339,5.018,7.566,18,-2.051,1.724,4.563,7.81,-8.188,-7.664,-1.496,1.141,225.9,254.5,252.1,251.9,250.9,252.5,246.2,241.2,250.9,258.6,1,norm,2.042,1.319,-1.853,-1.144,-4.569,-5.278,-2.041,-1.789,-1.16,-1.902,1.552,-1.247,244.4,,-5.129,-8.059,247.6,-1.994,7.707,4.873,-5.051,-8.142,8,4.957,4.609,5.17,4.84,1.462,1.707,1.356,1.131,8,5.233,4.33,40,349.760068735,norm,0,16,16,16,465.308,465.313,465.314664445,465.315,465.318,465.321,down,1,1.18222910624,8.81777089376,001,009,800_600,Intel(R) Core(TM) i7-2670QM CPU @ 2.20GHz,orientation_search,GRVLAPTOP3,Intel(R) HD Graphics Family,2018_jun_07_1225,testMonitor,
246.4,236.7,250.3,245.5,36,0,234.2,244.7,,248.0,7.514,8.373,8.378,8.342,8.272,8.254,7.803,4.517,-4.733,-7.633,1.474,-1.705,8.162,4.609,-4.337,-8.351,250.3,247.6,-8.235,225.9,265.9,254.9,242.5,237.4,36,265.6,4,5,prime,10,0,100,norm,36,-5.188,up,norm,245.87926622,244.5,237.3,1.24,242.3,4,256.3,262.0,241.0,10,6,8.166,4.354,1.171,-1.861,-4.762,-7.665,251.8,6,345.9,-7.541,-7.753,0,-7.835,-8.226,-4.59,-4.478,-5.028,-5.115,4.829,7.569,28,-1.894,1.876,4.8,7.895,-8.073,-8.227,-1.111,1.656,255.5,250.8,242.4,227.6,237.7,253.8,256.8,237.7,245.8,249.0,2,norm,1.313,1.105,-1.251,-1.728,-5.125,-4.711,-1.443,-1.301,-1.264,-1.379,1.148,-2.02,228.8,235.7,-4.899,-8.162,236.9,-1.1,8.421,4.471,-4.831,-8.148,8,4.316,4.831,5.207,5.297,1.235,1.671,1.555,1.859,8,4.61,5.059,40,349.760068735,norm,0,17,17,17,466.512,466.518,466.520175222,466.521,466.524,466.527,up,1,1.00856310468,8.99143689532,001,009,800_600,Intel(R) Core(TM) i7-2670QM CPU @ 2.20GHz,orientation_search,GRVLAPTOP3,Intel(R) HD Graphics Family,2018_jun_07_1225,testMonitor,
242.6,238.9,237.1,242.1,36,0,244.6,262.3,245.1,245.8,7.605,7.999,8.2,7.864,8.458,7.974,8.09,4.826,-5.015,-8.338,2.008,-1.688,8.023,5.149,-4.501,-7.983,246.3,250.9,-7.603,265.9,252.5,257.4,237.4,245.4,36,251.4,2,5,prime,10,0,88,norm,36,-4.443,down,norm,245.87926622,242.1,225.9,1.256,245.7,0,255.6,236.0,,10,6,7.6,4.762,1.742,-1.652,-5.251,-8.267,241.2,6,333.9,-8.062,-8.387,0,-7.634,-8.146,-4.677,-4.805,-5.093,-5.103,4.365,8.15,12,-1.326,1.415,4.815,7.826,-8.226,-8.028,-1.801,1.817,256.5,250.7,242.4,260.1,246.8,236.8,245.0,258.9,260.1,253.4,3,norm,2.05,1.218,-1.562,-1.421,-4.896,-5.199,-1.793,-1.127,-1.252,-1.84,1.428,-2.042,255.8,242.3,-4.383,-8.066,243.0,-1.202,7.984,5.262,-5.167,-8.255,8,4.859,4.983,4.615,4.764,1.612,1.334,1.161,1.439,8,4.785,4.385,40,349.760068735,norm,0,18,18,18,467.545,467.549,467.551200483,467.552,467.555,467.559,down,1,0.818914944715,9.18108505528,001,009,800_600,Intel(R) Core(TM) i7-2670QM CPU @ 2.20GHz,orientation_search,GRVLAPTOP3,Intel(R) HD Graphics Family,2018_jun_07_1225,testMonitor,
238.2,234.8,236.7,249.2,36,0,248.0,265.9,244.5,238.3,8.12,8.414,7.613,8.065,8.437,8.356,7.691,4.673,-4.322,-7.552,1.761,-1.819,7.893,5.024,-4.508,-7.798,249.3,225.9,-7.959,240.2,232.0,254.7,228.9,250.2,36,237.0,2,5,prime,10,0,75,norm,36,-4.77,up,norm,245.87926622,,246.9,1.929,258.3,5,245.4,241.7,262.2,10,6,7.676,4.796,1.257,-1.252,-4.305,-8.256,245.1,6,320.9,-7.739,-8.15,0,-8.222,-8.212,-4.597,-4.57,-5.011,-4.378,4.331,7.613,17,-1.622,1.11,4.717,8.404,-8.219,-8.076,-1.314,1.105,250.8,239.5,238.2,260.7,246.3,247.3,256.8,242.9,242.5,253.0,4,norm,1.146,1.45,-1.233,-1.812,-5.197,-4.555,-1.952,-2.051,-1.272,-1.4,1.582,-1.665,246.1,257.4,-4.911,-7.624,243.4,-1.467,7.549,4.31,-4.48,-7.933,8,4.506,4.739,4.832,4.823,2.067,1.828,2.095,2.016,8,5.236,4.806,40,349.760068735,norm,0,19,19,19,468.386,468.391,468.392866165,468.393,468.396,468.4,up,1,0.757416368708,9.24258363129,001,009,800_600,Intel(R) Core(TM) i7-2670QM CPU @ 2.20GHz,orientation_search,GRVLAPTOP3,Intel(R) HD Graphics Family,2018_jun_07_1225,testMonitor,
259.0,226.8,243.1,243.0,36,0,,240.0,243.4,238.9,7.993,8.285,7.505,8.362,8.239,7.67,8.356,4.316,-4.535,-7.802,1.425,-1.211,7.529,4.448,-5.235,-8.223,230.7,244.4,-7.885,241.0,236.3,246.1,237.5,245.0,36,253.3,4,5,prime,10,0,97,norm,36,-5.256,down,norm,245.87926622,246.5,255.8,1.609,237.1,0,235.2,251.5,255.1,10,6,7.999,4.745,1.386,-1.954,-4.519,-8.004,241.4,6,342.9,-8.026,-7.561,0,-8.275,-7.513,-4.522,-4.784,-4.987,-4.354,4.344,7.608,24,-1.644,1.572,4.5,8.383,-8.035,-7.992,-2.008,1.823,254.2,250.9,243.3,246.0,243.8,225.9,251.6,255.7,262.1,249.7,5,norm,1.873,1.535,-1.794,-1.667,-5.275,-4.333,-1.852,-1.122,-1.416,-1.62,1.99,-1.275,237.4,242.5,-4.846,-8.033,265.9,-1.403,8.163,4.35,-4.657,-8.126,8,4.749,4.655,4.761,5.199,1.939,1.334,1.622,1.755,8,5.181,5.089,40,349.760068735,norm,0,20,20,20,469.166,469.171,469.173123861,469.174,469.176,469.18,down,1,1.13730526034,8.86269473966,001,009,800_600,Intel(R) Core(TM) i7-2670QM CPU @ 2.20GHz,orientation_search,GRVLAPTOP3,Intel(R) HD Graphics Family,2018_jun_07_1225,testMonitor,
355.8,345.9,352.8,353.1,36,0,353.5,358.3,344.3,356.0,8.453,8.356,8.308,7.836,8.354,7.807,8.417,4.867,-5.118,-7.706,1.609,-1.846,8.118,4.301,-4.486,-8.077,350.7,360.0,-8.14,346.9,346.1,355.9,349.2,356.3,36,347.3,1,5,probe,5,0,106,norm,36,-4.68,down,norm,350.570485558,340.6,348.5,1.961,343.6,2,353.0,352.2,352.3,10,6,7.631,5.153,1.148,-1.807,-5.057,-8.002,351.5,2,244.6,-7.68,-8.431,0,-8.342,-7.951,-4.936,-4.646,-5.207,-5.149,4.429,7.537,8,-1.584,1.892,5.077,7.538,-7.956,-7.812,-1.193,1.671,352.5,,350.3,357.5,341.3,350.1,351.6,351.1,360.6,351.9,0,norm,2.022,1.281,-1.26,-1.105,-5.052,-4.697,-1.422,-1.418,-1.744,-1.418,1.887,-2.009,356.5,349.2,-4.453,-8.377,350.2,-1.908,8.291,4.307,-5.012,-8.05,9,4.612,4.332,4.381,4.469,1.536,1.749,1.576,1.759,9,4.584,4.899,0,245.87926622,norm,0,21,21,21,470.326,470.331,470.332461209,470.333,470.336,470.339,down,1,2.59434474598,7.40565525402,001,009,800_600,Intel(R) Core(TM) i7-2670QM CPU @ 2.20GHz,orientation_search,GRVLAPTOP3,Intel(R) HD Graphics Family,2018_jun_07_1225,testMonitor,
308.6,300.2,,309.1,36,0,307.8,314.0,306.5,313.6,8.398,7.741,8.122,7.898,7.883,7.831,7.652,4.453,-4.539,-8.084,2.019,-1.468,7.77,5.111,-4.982,-7.524,304.8,303.3,-8.205,305.5,311.8,310.7,303.8,298.6,36,310.1,3,5,probe,5,0,64,norm,36,-5.008,down,norm,308.570485558,308.6,308.0,2.099,311.1,2,304.8,311.6,316.6,10,6,8.229,4.583,1.766,-1.547,-4.322,-8.139,309.3,2,244.6,-8.103,-8.284,0,-7.698,-8.389,-4.517,-4.428,-4.338,-5.101,4.735,7.592,20,-1.547,1.636,5.002,8.339,-8.38,-8.265,-1.819,1.962,315.7,307.9,314.4,312.4,302.3,314.3,308.0,302.9,310.0,310.6,1,norm,1.938,1.347,-1.776,-1.966,-5.09,-4.726,-1.249,-1.996,-1.915,-2.08,1.274,-2.041,318.6,307.9,-4.402,-8.245,309.1,-1.183,8.291,5.101,-5.046,-8.302,9,4.648,5.261,4.608,4.319,1.338,1.46,1.68,1.136,9,5.235,4.334,0,245.87926622,norm,0,22,22,22,472.942,472.948,472.949239626,472.95,472.953,472.956,down,1,1.6580749218,8.3419250782,001,009,800_600,Intel(R) Core(TM) i7-2670QM CPU @ 2.20GHz,orientation_search,GRVLAPTOP3,Intel(R) HD Graphics Family,2018_jun_07_1225,testMonitor,
29.9,24.4,24.7,7.1,36,-20,23.8,18.2,19.1,23.8,8.213,8.279,7.614,7.742,7.723,8.045,8.02,4.449,-4.564,-8.211,1.876,-1.38,8.069,4.827,-5.056,-8.079,0.7,25.0,-7.873,31.8,33.8,21.3,20.7,31.3,36,19.9,2,5,prime,10,0,71,norm,36,-5.236,up,norm,20.6645690117,,24.4,1.272,22.3,5,30.5,12.7,13.9,10,5,8.42,5.096,2.043,-1.163,-4.984,-7.53,34.2,5,91.7,-8.471,-8.33,-20,-8.312,-8.121,-5.071,-4.607,-4.592,-4.33,4.802,7.95,17,-1.641,2.015,4.865,8.188,-7.698,-8.286,-1.873,1.179,17.4,16.5,5.5,10.8,13.2,16.2,28.9,40.7,29.5,1.4,0,norm,2.094,1.832,-1.426,-1.112,-4.682,-4.845,-1.127,-1.764,-1.837,-1.714,1.411,-1.201,26.3,18.3,-4.367,-8.403,31.1,-1.257,7.685,4.623,-5.061,-8.36,10,4.318,4.998,4.77,4.619,1.886,1.397,1.673,1.958,10,5.153,4.317,0,245.87926622,norm,0,23,23,23,474.623,474.629,474.630621434,474.631,474.634,474.637,up,1,2.96184706794,7.03815293206,001,009,800_600,Intel(R) Core(TM) i7-2670QM CPU @ 2.20GHz,orientation_search,GRVLAPTOP3,Intel(R) HD Graphics Family,2018_jun_07_1225,testMonitor,
10.1,,21.7,0.7,36,-20,18.7,5.0,21.9,40.7,7.533,7.563,7.835,7.526,7.837,8.025,8.234,5.199,-5.29,-7.798,1.878,-1.572,8.281,5.061,-5.01,-8.146,7.4,2.9,-8.033,30.5,30.4,10.4,28.0,9.8,36,11.6,3,5,prime,10,0,112,norm,36,-5.259,up,norm,20.6645690117,7.6,17.5,1.112,27.8,5,32.9,12.1,13.8,10,5,8.084,5.243,1.984,-1.559,-4.826,-8.14,19.7,5,132.7,-8.247,-8.309,-20,-7.741,-7.898,-5.257,-4.59,-4.397,-4.983,4.502,8.411,23,-1.816,1.343,5.053,8.361,-7.817,-7.536,-1.565,1.563,31.2,34.5,16.8,30.8,23.6,24.9,20.8,3.6,30.2,13.5,1,norm,1.181,1.106,-1.186,-1.654,-4.426,-4.67,-1.506,-1.592,-1.881,-2.031,1.168,-1.569,19.5,36.3,-5.187,-8.104,28.4,-1.972,7.873,5.068,-4.857,-7.964,10,4.355,5.069,4.475,4.462,1.918,1.788,1.437,1.349,10,4.602,4.769,0,245.87926622,norm,0,24,24,24,477.608,477.613,477.615227645,477.616,477.619,477.622,up,1,3.29629238767,6.70370761233,001,009,800_600,Intel(R) Core(TM) i7-2670QM CPU @ 2.20GHz,orientation_search,GRVLAPTOP3,Intel(R) HD Graphics Family,2018_jun_07_1225,testMonitor,
7.0,31.9,37.0,39.6,36,-20,35.4,23.0,10.2,23.9,7.877,7.531,8.459,7.914,7.691,8.169,7.565,4.921,-4.97,-8.466,1.748,-1.93,7.655,5.135,-4.562,-8.198,39.0,10.9,-7.52,28.0,21.6,,27.9,29.5,36,18.6,5,5,prime,10,0,79,norm,36,-4.419,up,norm,20.6645690117,26.5,1.7,1.141,2.4,3,21.0,0.7,6.6,10,5,7.976,5.223,1.483,-1.352,-4.463,-7.773,32.7,5,99.7,-7.676,-7.726,-20,-8.17,-8.298,-4.752,-4.7,-4.743,-4.79,4.949,7.657,33,-2.033,2.087,4.71,8.386,-8.235,-8.448,-1.664,1.576,6.4,28.3,27.6,14.6,18.7,20.2,20.7,23.0,18.2,40.7,2,norm,1.102,2.009,-1.286,-1.757,-5.037,-5.161,-1.478,-1.677,-1.874,-1.984,1.671,-2.037,9.6,5.5,-4.607,-7.978,27.5,-1.753,7.758,4.41,-4.587,-8.273,10,4.799,5.246,4.45,4.831,1.153,1.321,1.441,1.386,10,5.14,5.073,0,245.87926622,norm,0,25,25,25,480.927,480.932,480.933738903,480.934,480.937,480.941,up,1,3.14006592535,6.85993407465,001,009,800_600,Intel(R) Core(TM) i7-2670QM CPU @ 2.20GHz,orientation_search,GRVLAPTOP3,Intel(R) HD Graphics Family,2018_jun_07_1225,testMonitor,
0.7,14.2,,38.1,36,-20,13.7,30.6,29.3,23.2,7.554,8.34,8.035,7.549,8.473,8.476,7.601,4.73,-4.466,-7.521,1.595,-1.384,7.627,4.779,-4.868,-8.461,5.9,19.8,-8.007,12.3,14.3,26.5,2.6,14.2,36,26.5,3,5,prime,10,0,71,norm,36,-4.899,down,norm,20.6645690117,23.1,13.9,1.147,13.9,2,17.1,22.8,23.1,10,5,7.658,4.303,1.637,-1.365,-5.1,-8.288,17.5,5,91.7,-7.837,-8.267,-20,-7.784,-7.984,-4.357,-4.777,-5.28,-5.046,4.359,8.095,20,-1.393,1.91,4.643,8.385,-8.344,-8.031,-1.138,1.239,40.7,30.5,32.8,29.7,33.1,22.3,19.4,17.0,19.5,17.0,3,norm,1.425,1.392,-1.607,-1.733,-4.554,-5.248,-1.901,-1.772,-1.242,-1.644,1.241,-1.844,31.3,32.7,-5.089,-8.135,27.9,-1.817,8.264,4.541,-4.588,-7.8,10,4.587,4.72,5.128,4.957,1.75,1.268,2.078,1.618,10,4.756,4.801,0,245.87926622,norm,0,26,26,26,484.089,484.094,484.096067126,484.097,484.1,484.103,down,1,4.8474615844,5.1525384156,001,009,800_600,Intel(R) Core(TM) i7-2670QM CPU @ 2.20GHz,orientation_search,GRVLAPTOP3,Intel(R) HD Graphics Family,2018_jun_07_1225,testMonitor,
21.8,21.3,23.0,27.4,36,-20,21.8,23.3,7.4,32.5,7.736,8.17,7.551,7.931,7.667,8.239,8.098,4.535,-4.725,-7.787,2.034,-1.286,8.145,4.45,-4.699,-7.633,,6.4,-7.695,25.5,0.7,20.4,26.1,23.2,36,20.1,5,5,prime,10,0,118,norm,36,-4.312,up,norm,20.6645690117,40.7,27.7,1.608,15.9,5,23.3,10.1,34.0,10,5,8.37,4.667,1.626,-1.927,-5.282,-7.854,30.2,5,138.7,-7.865,-8.278,-20,-7.856,-7.639,-4.806,-5.289,-4.35,-5.006,5.238,8.04,35,-1.926,1.334,5.28,8.361,-8.479,-7.72,-1.919,1.275,35.1,23.7,23.4,15.1,6.5,39.3,22.1,36.9,23.2,11.8,4,norm,1.675,1.872,-1.482,-1.575,-4.373,-4.356,-1.474,-2.048,-1.709,-1.731,1.631,-1.104,27.2,27.1,-4.79,-8.128,23.8,-1.611,8.002,5.136,-4.553,-7.845,10,5.27,4.605,4.489,5.061,1.335,1.132,1.569,1.798,10,5.159,4.902,0,245.87926622,norm,0,27,27,27,488.959,488.965,488.966655351,488.967,488.97,488.973,up,1,1.43206088406,8.56793911594,001,009,800_600,Intel(R) Core(TM) i7-2670QM CPU @ 2.20GHz,orientation_search,GRVLAPTOP3,Intel(R) HD Graphics Family,2018_jun_07_1225,testMonitor,
97.9,102.4,96.4,93.6,36,-30,91.3,89.9,96.1,106.8,7.827,7.566,8.359,8.013,8.166,8.056,7.989,4.853,-4.945,-8.253,1.707,-1.776,7.954,4.444,-5.225,-7.679,102.7,100.3,-7.546,92.5,,98.6,97.4,101.4,36,89.4,5,5,probe,5,0,100,norm,36,-4.495,down,norm,97.491281032,94.3,98.0,1.743,92.2,0,97.8,98.9,92.7,10,5,7.933,4.826,1.25,-1.85,-4.63,-7.774,88.3,1,-2.5,-8.172,-7.786,-20,-8.234,-8.392,-4.707,-4.355,-5.29,-4.313,4.879,7.574,30,-1.702,1.36,4.932,8.082,-7.999,-8.22,-1.554,1.523,97.2,101.0,87.5,99.0,102.6,100.0,96.0,94.3,107.5,88.6,0,norm,1.955,1.365,-1.446,-1.132,-4.591,-4.352,-1.343,-1.509,-1.272,-1.96,1.888,-1.375,104.9,97.7,-4.902,-8.103,100.0,-1.425,7.787,4.807,-4.557,-8.273,11,4.997,5.042,5.014,4.822,1.784,1.808,1.903,1.408,11,5.011,5.081,-20,20.6645690117,norm,0,28,28,28,490.414,490.419,490.421035968,490.422,490.424,490.428,down,1,1.98237227605,8.01762772395,001,009,800_600,Intel(R) Core(TM) i7-2670QM CPU @ 2.20GHz,orientation_search,GRVLAPTOP3,Intel(R) HD Graphics Family,2018_jun_07_1225,testMonitor,
343.0,343.3,359.1,332.7,36,-10,,346.1,358.9,340.1,8.464,7.742,8.142,7.83,8.301,7.729,7.821,5.253,-4.944,-8.388,1.478,-2.036,7.592,4.383,-4.852,-7.977,339.6,353.8,-7.975,349.3,355.8,333.8,346.8,347.4,36,365.3,4,5,prime,10,0,87,norm,36,-5.241,down,norm,352.489776505,350.5,372.5,1.152,366.8,0,364.7,332.5,363.3,10,3,7.676,4.816,1.771,-1.612,-5.021,-8.08,354.0,3,439.5,-7.665,-7.782,-10,-8.18,-7.882,-4.376,-4.403,-4.706,-4.64,5.195,8.191,24,-1.74,1.335,4.57,8.15,-7.735,-7.582,-1.807,1.775,357.9,351.3,352.1,340.0,335.3,360.1,349.2,366.8,368.6,335.6,0,norm,1.978,1.181,-1.621,-1.559,-4.918,-5.139,-1.677,-1.752,-1.236,-1.589,1.101,-1.465,366.5,350.3,-4.739,-7.935,337.8,-1.536,8.106,4.722,-4.964,-7.717,12,4.487,5.222,4.732,4.763,1.413,1.2,1.757,1.337,12,4.571,4.935,-30,20.6645690117,norm,0,29,29,29,492.421,492.429,492.431126031,492.432,492.436,492.441,down,1,1.97781755236,8.02218244764,001,009,800_600,Intel(R) Core(TM) i7-2670QM CPU @ 2.20GHz,orientation_search,GRVLAPTOP3,Intel(R) HD Graphics Family,2018_jun_07_1225,testMonitor,
332.5,372.4,,352.3,36,-10,355.5,366.6,362.2,355.0,7.766,7.742,7.74,8.187,7.96,8.352,8.269,4.404,-4.979,-7.95,1.883,-1.202,7.693,4.508,-5.053,-8.484,355.6,338.0,-7.996,356.9,352.6,362.7,366.2,354.3,36,345.2,3,5,prime,10,0,102,norm,36,-4.728,down,norm,352.489776505,341.4,346.8,1.888,352.3,2,372.5,344.2,343.2,10,3,8.485,5.111,1.222,-2.091,-4.419,-8.019,353.0,3,454.5,-7.545,-8.369,-10,-7.807,-7.791,-5.076,-5.287,-4.509,-4.79,4.552,8.358,20,-1.334,1.514,5.05,8.449,-8.433,-7.708,-1.582,1.295,350.2,361.0,353.0,339.4,369.8,352.9,363.5,344.0,353.1,337.9,1,norm,1.5,1.956,-1.237,-1.523,-4.878,-5.205,-1.335,-1.765,-1.497,-1.146,1.724,-1.685,363.1,338.5,-4.783,-7.56,353.0,-1.454,8.308,5.288,-5.092,-7.8,12,4.386,5.072,5.054,4.302,1.522,1.233,1.671,1.405,12,5.285,4.584,-30,20.6645690117,norm,0,30,30,30,494.43,494.437,494.439555585,494.44,494.444,494.449,down,1,2.58403381161,7.41596618839,001,009,800_600,Intel(R) Core(TM) i7-2670QM CPU @ 2.20GHz,orientation_search,GRVLAPTOP3,Intel(R) HD Graphics Family,2018_jun_07_1225,testMonitor,
348.9,362.6,358.9,358.8,36,-10,343.7,365.7,,341.0,7.824,8.316,7.734,8.105,7.712,8.156,7.545,4.475,-4.625,-8.369,1.754,-1.847,8.092,4.738,-4.403,-8.159,372.5,354.1,-7.706,352.5,353.5,350.3,351.5,346.5,36,359.0,4,5,prime,10,0,98,norm,36,-5.128,up,norm,352.489776505,342.5,332.5,1.372,346.1,4,354.3,358.3,362.2,10,3,8.361,5.289,1.132,-1.541,-5.254,-8.241,356.6,3,450.5,-7.621,-8.485,-10,-8.038,-7.885,-4.738,-5.269,-4.991,-5.204,4.679,7.569,28,-1.213,1.648,4.72,8.255,-8.134,-7.922,-1.703,1.18,359.6,352.5,358.8,352.8,361.1,359.3,346.5,354.6,356.2,357.7,2,norm,1.693,2.004,-1.995,-1.512,-5.261,-4.536,-2.099,-1.529,-2.014,-1.353,1.859,-1.802,345.3,342.2,-5.298,-8.479,360.8,-1.324,7.798,5.019,-4.761,-7.91,12,4.668,5.109,4.772,4.726,1.439,1.111,1.473,1.404,12,4.721,4.93,-30,20.6645690117,norm,0,31,31,31,497.045,497.052,497.054190192,497.055,497.059,497.064,up,1,2.11745107314,7.88254892686,001,009,800_600,Intel(R) Core(TM) i7-2670QM CPU @ 2.20GHz,orientation_search,GRVLAPTOP3,Intel(R) HD Graphics Family,2018_jun_07_1225,testMonitor,
436.0,425.8,424.0,429.8,36,40,431.7,433.3,430.1,430.3,7.691,8.281,7.888,7.71,7.612,8.224,8.036,5.195,-4.9,-7.529,1.555,-1.536,8.396,4.894,-4.931,-8.225,430.5,423.2,-8.186,437.7,432.8,436.0,437.0,436.4,36,443.1,1,5,probe,5,0,88,norm,36,-4.383,down,norm,433.129992623,434.1,438.8,2.005,429.1,2,426.5,423.1,434.3,10,3,7.646,4.389,1.975,-1.485,-5.007,-7.627,428.6,2,345.1,-8.147,-7.988,-10,-7.855,-8.24,-4.344,-5.085,-4.85,-4.732,4.833,7.501,8,-1.461,1.695,4.306,8.383,-7.955,-8.324,-1.191,1.124,440.6,,433.8,425.5,428.0,426.0,433.7,436.3,433.8,431.3,0,norm,1.615,1.946,-1.22,-1.273,-4.465,-4.338,-1.994,-1.333,-1.531,-1.543,1.428,-1.666,427.1,426.1,-4.345,-8.132,438.9,-1.288,8.092,4.525,-4.951,-8.447,13,5.272,4.499,4.781,4.689,1.701,1.267,1.967,2.056,13,4.384,4.643,-10,352.489776505,norm,0,32,32,32,499.192,499.2,499.202384015,499.203,499.207,499.212,down,1,2.3976805184,7.6023194816,001,009,800_600,Intel(R) Core(TM) i7-2670QM CPU @ 2.20GHz,orientation_search,GRVLAPTOP3,Intel(R) HD Graphics Family,2018_jun_07_1225,testMonitor,
411.1,424.9,421.6,417.2,36,40,416.3,420.8,427.2,424.7,8.06,7.605,7.849,7.998,7.933,8.121,8.158,4.93,-5.167,-7.71,1.852,-1.349,8.489,4.815,-5.253,-8.348,417.5,414.3,-7.896,431.1,419.1,428.8,422.6,424.4,36,418.1,3,5,probe,5,0,76,norm,36,-4.808,down,norm,421.129992623,412.6,425.7,1.301,413.7,1,417.6,412.4,425.7,10,3,7.551,5.12,1.356,-1.746,-4.757,-7.838,424.8,2,345.1,-8.309,-7.844,-10,-7.813,-7.972,-4.929,-4.844,-4.3,-5.265,4.467,7.572,19,-1.97,2.019,4.981,8.404,-7.769,-8.473,-1.574,1.867,416.6,418.0,428.2,428.3,428.0,423.7,416.8,418.0,430.9,427.4,1,norm,1.7,1.957,-1.189,-1.538,-5.276,-4.899,-2.01,-1.347,-1.795,-1.912,1.773,-1.666,,427.2,-4.631,-8.382,413.7,-1.247,7.662,4.914,-4.926,-7.744,13,4.512,5.114,4.55,4.887,1.136,1.653,1.229,2.052,13,4.822,4.578,-10,352.489776505,norm,0,33,33,33,501.624,501.631,501.633858398,501.635,501.638,501.643,up,0,1.00365068996,-10,001,009,800_600,Intel(R) Core(TM) i7-2670QM CPU @ 2.20GHz,orientation_search,GRVLAPTOP3,Intel(R) HD Graphics Family,2018_jun_07_1225,testMonitor,
41.8,30.4,20.8,23.5,36,-80,27.5,37.8,16.2,17.3,8.378,8.293,7.998,8.17,7.601,7.854,8.295,4.885,-5.097,-8.305,1.807,-1.464,7.52,5.067,-4.76,-8.271,26.7,27.7,-8.041,49.0,30.8,15.8,40.2,26.0,36,24.4,2,5,prime,10,0,102,norm,36,-4.6,down,norm,29.0381984927,27.6,48.0,1.187,36.2,0,26.0,32.9,,10,3,8.206,4.543,1.957,-1.832,-4.404,-8.314,25.5,3,131.0,-7.519,-8.212,-80,-7.849,-8.438,-4.664,-4.849,-5.225,-4.615,4.385,7.608,12,-1.385,1.433,5.248,8.254,-7.555,-8.442,-1.683,1.917,27.9,30.1,25.2,9.0,33.6,22.5,22.5,24.7,30.9,28.2,0,norm,1.541,1.715,-1.257,-1.149,-4.633,-4.616,-1.891,-1.213,-1.198,-2.07,2.016,-1.77,27.2,26.2,-4.321,-8.341,25.7,-1.732,7.668,5.266,-4.443,-8.121,14,4.614,5.077,4.391,4.429,1.716,1.388,1.12,1.368,14,4.556,4.721,40,352.489776505,norm,0,34,34,34,503.665,503.672,503.674194366,503.675,503.679,503.683,down,1,2.65725680862,7.34274319138,001,009,800_600,Intel(R) Core(TM) i7-2670QM CPU @ 2.20GHz,orientation_search,GRVLAPTOP3,Intel(R) HD Graphics Family,2018_jun_07_1225,testMonitor,
31.5,20.9,27.1,25.4,36,-80,31.1,35.2,13.7,38.3,8.197,8.033,7.72,8.004,8.445,8.04,7.604,4.399,-4.754,-8.327,2.078,-1.514,8.316,4.569,-4.918,-8.052,18.7,21.5,-8.428,31.8,30.0,46.1,35.2,21.9,36,17.6,2,5,prime,10,0,85,norm,36,-4.401,down,norm,29.0381984927,41.2,32.8,1.431,39.3,0,38.2,24.4,,10,3,8.059,4.579,1.193,-1.173,-5.007,-8.493,11.8,3,114.0,-7.883,-8.047,-80,-7.588,-7.696,-5.174,-4.725,-5.16,-5.081,4.813,8.031,12,-2.068,1.938,4.428,8.349,-7.558,-8.092,-1.408,2.072,18.6,9.3,43.2,31.3,20.4,27.4,27.8,33.9,23.3,43.9,1,norm,1.765,1.792,-2.062,-1.7,-4.907,-4.386,-2.004,-1.624,-1.248,-1.935,1.965,-1.463,49.0,23.8,-5.106,-7.984,9.0,-1.238,8.11,4.375,-4.386,-8.349,14,4.639,4.555,4.347,4.674,1.515,2.058,1.816,1.704,14,4.623,4.379,40,352.489776505,norm,0,35,35,35,506.352,506.359,506.361697081,506.362,506.366,506.371,down,1,1.59436949484,8.40563050516,001,009,800_600,Intel(R) Core(TM) i7-2670QM CPU @ 2.20GHz,orientation_search,GRVLAPTOP3,Intel(R) HD Graphics Family,2018_jun_07_1225,testMonitor,
23.1,19.6,29.0,35.7,36,-80,31.4,19.2,31.0,31.9,7.528,7.68,8.038,8.232,8.116,7.589,8.137,5.055,-5.144,-7.518,1.558,-1.968,7.909,4.565,-4.702,-7.571,23.7,49.0,-8.175,42.3,17.6,36.2,33.0,23.8,36,26.1,0,5,prime,10,0,64,norm,36,-4.718,up,norm,29.0381984927,9.0,21.5,1.611,23.5,4,32.6,28.6,32.1,10,3,7.973,4.634,1.479,-1.735,-4.589,-7.771,14.7,3,93.0,-8.177,-7.76,-80,-7.853,-8.412,-5.016,-5.027,-4.638,-5.154,4.413,7.897,4,-1.625,1.314,4.592,7.613,-8.141,-8.266,-1.626,1.702,24.0,30.8,21.7,30.6,32.4,47.7,47.9,23.9,22.6,,2,norm,1.862,1.418,-1.813,-1.103,-4.885,-4.577,-1.919,-1.905,-1.585,-2.062,2.01,-1.385,43.1,22.9,-5.143,-8.416,26.8,-1.621,7.792,4.893,-5.191,-7.56,14,5.04,4.885,4.676,5.039,1.124,1.203,1.873,1.143,14,4.949,4.492,40,352.489776505,norm,0,36,36,36,507.976,507.984,507.98669819,507.987,507.991,507.996,down,0,3.5819824582,-10,001,009,800_600,Intel(R) Core(TM) i7-2670QM CPU @ 2.20GHz,orientation_search,GRVLAPTOP3,Intel(R) HD Graphics Family,2018_jun_07_1225,testMonitor,
25.3,30.2,29.0,26.3,36,60,21.7,26.5,27.6,27.9,8.279,8.073,7.826,8.094,8.225,7.777,8.438,4.558,-4.458,-7.614,1.122,-1.561,7.543,4.304,-4.966,-7.73,20.2,27.5,-8.328,13.8,17.0,20.9,17.1,23.0,36,22.5,1,5,probe,5,0,70,norm,36,-4.773,up,norm,23.7892459184,27.5,29.6,1.724,29.1,3,32.9,20.8,21.5,10,3,8.385,4.669,1.243,-1.769,-4.405,-7.762,26.8,2,-46.2,-8.244,-7.924,-80,-7.53,-7.977,-4.407,-5.192,-5.109,-5.114,5.014,8.082,9,-1.881,2.041,5.207,7.774,-7.648,-7.747,-1.352,2.029,,23.2,23.5,29.3,20.0,16.7,22.7,22.6,23.8,33.8,0,norm,1.303,1.556,-2.02,-1.51,-4.824,-4.59,-1.317,-1.59,-1.695,-1.408,1.952,-1.428,25.1,26.4,-5.159,-8.237,28.6,-1.836,7.589,5.131,-4.384,-8.021,15,4.709,4.588,4.368,5.28,1.831,1.315,1.294,1.945,15,4.459,4.53,-80,29.0381984927,norm,0,37,37,37,512.603,512.611,512.613094107,512.613,512.618,512.622,up,1,3.88786386074,6.11213613926,001,009,800_600,Intel(R) Core(TM) i7-2670QM CPU @ 2.20GHz,orientation_search,GRVLAPTOP3,Intel(R) HD Graphics Family,2018_jun_07_1225,testMonitor,
50.4,42.8,46.3,54.3,36,60,37.8,51.6,52.8,,7.916,7.515,8.176,8.418,7.751,8.244,7.885,4.976,-5.116,-8.026,1.631,-1.706,8.056,5.297,-4.944,-7.8,47.2,52.0,-8.434,50.7,49.9,42.7,47.7,47.6,36,45.2,4,5,probe,5,0,94,norm,36,-5.268,up,norm,47.7892459184,57.8,55.7,1.793,50.4,5,44.9,53.5,47.3,10,3,7.987,5.13,1.404,-1.944,-4.704,-7.791,51.2,2,-46.2,-8.32,-7.71,-80,-8.385,-8.499,-4.498,-4.528,-5.18,-5.113,4.656,7.984,29,-2.092,1.753,4.985,8.355,-8.393,-8.372,-1.245,1.997,42.5,51.5,50.4,54.3,50.8,45.2,48.4,45.5,55.0,49.5,1,norm,1.281,2.083,-1.607,-1.458,-5.097,-4.991,-1.756,-1.689,-1.289,-1.374,1.456,-1.638,49.6,47.6,-4.955,-7.742,45.0,-2.033,8.402,4.342,-4.848,-8.026,15,5.268,5.212,4.605,4.876,1.377,1.922,1.912,1.877,15,4.465,5.092,-80,29.0381984927,norm,0,38,38,38,516.521,516.529,516.530945645,516.532,516.535,516.54,up,1,1.32670079519,8.67329920481,001,009,800_600,Intel(R) Core(TM) i7-2670QM CPU @ 2.20GHz,orientation_search,GRVLAPTOP3,Intel(R) HD Graphics Family,2018_jun_07_1225,testMonitor,
251.6,248.9,241.9,237.2,36,40,236.6,231.5,252.8,239.8,7.67,7.564,7.87,8.425,8.187,8.004,7.859,4.444,-5.253,-8.243,1.892,-1.78,8.304,5.292,-4.464,-8.103,249.5,262.2,-7.785,245.8,,254.3,239.6,269.9,36,249.7,5,5,prime,10,0,101,norm,36,-4.568,down,norm,249.945198228,244.9,253.6,1.243,248.8,0,261.1,247.8,229.9,10,5,7.777,5.082,1.294,-1.414,-4.435,-8.267,252.3,5,350.9,-8.344,-7.715,40,-8.277,-7.646,-4.951,-4.684,-4.739,-5.245,5.056,7.968,30,-1.318,1.754,5.294,8.058,-8.233,-8.392,-1.712,1.327,245.4,235.5,239.7,245.9,240.8,247.1,269.6,253.0,253.2,256.2,0,norm,1.301,2.07,-1.348,-2.041,-4.932,-4.445,-1.358,-1.68,-1.88,-1.748,1.497,-1.235,260.6,254.8,-4.798,-8.114,267.5,-1.282,7.771,4.797,-4.744,-7.986,16,4.792,5.287,4.879,4.622,1.555,1.291,1.893,1.94,16,4.722,4.869,60,29.0381984927,norm,0,39,39,39,517.878,517.886,517.887914292,517.889,517.892,517.897,down,1,3.74919367755,6.25080632245,001,009,800_600,Intel(R) Core(TM) i7-2670QM CPU @ 2.20GHz,orientation_search,GRVLAPTOP3,Intel(R) HD Graphics Family,2018_jun_07_1225,testMonitor,
252.2,248.5,269.9,249.2,36,40,239.6,249.4,252.1,257.6,7.85,7.757,7.856,7.987,8.333,7.549,7.666,4.382,-4.525,-7.799,1.637,-1.534,8.292,4.568,-4.35,-8.456,242.8,243.6,-8.335,237.3,247.1,257.1,255.7,237.6,36,245.7,3,5,prime,10,0,106,norm,36,-4.983,down,norm,249.945198228,258.0,263.6,1.516,245.4,1,252.1,238.9,239.3,10,5,8.46,4.324,1.57,-1.921,-4.993,-8.416,242.7,5,355.9,-7.538,-8.411,40,-8.209,-8.051,-4.784,-5.256,-5.267,-5.056,5.084,7.918,19,-1.909,1.624,4.856,7.971,-7.734,-8.057,-1.542,1.245,236.6,240.3,239.9,252.7,259.6,247.4,258.0,247.3,267.5,247.8,1,norm,1.938,1.799,-1.798,-1.334,-4.77,-4.696,-1.151,-1.877,-2.059,-1.444,1.106,-1.428,,252.1,-4.678,-8.06,229.9,-1.756,7.923,4.951,-5.086,-8.348,16,4.408,4.948,5.244,5.009,1.86,1.276,1.919,1.388,16,4.581,4.863,60,29.0381984927,norm,0,40,40,40,521.657,521.665,521.66688318,521.668,521.671,521.676,down,1,5.46372447891,4.53627552109,001,009,800_600,Intel(R) Core(TM) i7-2670QM CPU @ 2.20GHz,orientation_search,GRVLAPTOP3,Intel(R) HD Graphics Family,2018_jun_07_1225,testMonitor,
250.9,236.6,251.6,236.9,36,40,235.3,249.5,238.8,248.8,7.758,7.801,8.141,7.924,8.456,8.234,8.456,4.495,-4.572,-8.229,1.524,-1.918,7.816,4.824,-4.86,-7.908,253.6,259.0,-8.404,258.2,248.9,267.2,237.6,,36,242.8,4,5,prime,10,0,105,norm,36,-4.825,down,norm,249.945198228,255.9,257.4,1.276,260.2,2,263.4,254.6,256.8,10,5,7.525,4.341,1.714,-1.812,-4.489,-7.568,248.6,5,354.9,-8.442,-7.504,40,-8.04,-7.507,-4.701,-4.542,-4.925,-4.466,4.508,7.641,26,-2.038,1.619,5.154,8.455,-8.369,-7.587,-1.386,1.767,269.9,254.1,250.5,241.6,251.7,243.0,250.3,260.0,253.4,240.5,2,norm,1.941,2.022,-1.344,-1.978,-4.725,-4.476,-1.392,-1.485,-1.732,-2.027,1.627,-1.155,242.9,261.8,-5.287,-7.745,244.7,-1.646,8.42,5.287,-4.416,-7.862,16,4.356,4.682,4.503,4.728,1.758,1.257,1.722,2.059,16,4.516,4.876,60,29.0381984927,norm,0,41,41,41,527.151,527.159,527.1608573,527.161,527.166,527.171,up,0,1.10038416764,-10,001,009,800_600,Intel(R) Core(TM) i7-2670QM CPU @ 2.20GHz,orientation_search,GRVLAPTOP3,Intel(R) HD Graphics Family,2018_jun_07_1225,testMonitor,
257.4,259.9,257.0,261.1,36,40,265.7,259.8,242.8,246.8,8.084,7.668,8.318,7.968,8.099,7.632,7.578,4.438,-5.238,-7.929,1.26,-1.414,7.981,5.277,-5.152,-7.619,246.4,255.6,-7.916,256.0,269.9,255.9,247.2,261.8,36,245.9,3,5,prime,10,0,102,norm,36,-4.899,down,norm,249.945198228,258.4,229.9,1.84,241.7,1,263.1,252.0,252.6,10,5,8.111,4.306,1.4,-1.588,-4.602,-7.871,248.1,5,351.9,-7.959,-8.129,40,-8.421,-8.358,-4.895,-4.464,-4.717,-4.315,4.322,7.785,19,-1.137,1.617,4.607,7.974,-7.645,-7.751,-1.359,1.257,247.1,233.2,243.1,259.9,265.3,244.6,236.3,242.6,254.3,247.1,3,norm,1.775,1.892,-1.468,-1.716,-5.274,-4.82,-1.361,-1.594,-1.177,-1.745,1.967,-1.358,,252.8,-4.704,-8.073,256.6,-1.252,8.14,5.268,-4.831,-8.089,16,5.226,4.843,4.667,5.154,1.868,2.045,1.84,1.365,16,5.212,5.01,60,29.0381984927,norm,0,42,42,42,529.295,529.303,529.305751121,529.306,529.31,529.315,down,1,1.44354201912,8.55645798088,001,009,800_600,Intel(R) Core(TM) i7-2670QM CPU @ 2.20GHz,orientation_search,GRVLAPTOP3,Intel(R) HD Graphics Family,2018_jun_07_1225,testMonitor,
230.2,240.4,229.9,258.1,36,40,265.0,244.1,244.0,263.2,8.052,8.41,8.083,7.891,7.873,7.749,8.085,4.73,-5.15,-8.16,1.207,-1.455,7.61,4.968,-4.718,-7.541,269.9,,-8.319,237.1,253.3,261.3,261.5,237.0,36,245.1,5,5,prime,10,0,101,norm,36,-4.721,up,norm,249.945198228,267.8,251.3,1.465,266.9,4,244.7,261.4,253.0,10,5,7.986,4.907,1.882,-1.299,-4.927,-7.843,245.9,5,350.9,-7.749,-7.501,40,-7.62,-8.205,-4.369,-4.323,-4.53,-4.882,4.44,7.786,34,-1.35,1.675,4.408,7.591,-8.082,-7.994,-1.397,1.696,252.8,253.2,236.8,247.8,244.6,246.8,245.7,261.6,264.8,235.1,4,norm,1.959,1.645,-1.268,-1.102,-5.054,-4.947,-1.695,-1.593,-1.389,-1.998,1.453,-1.153,244.0,236.5,-4.656,-7.882,247.6,-1.795,8.379,4.667,-5.275,-7.813,16,4.699,5.146,4.445,4.392,1.816,1.727,2.0,1.323,16,4.412,4.328,60,29.0381984927,norm,0,43,43,43,530.769,530.777,530.779156606,530.78,530.784,530.789,up,1,1.23585661166,8.76414338834,001,009,800_600,Intel(R) Core(TM) i7-2670QM CPU @ 2.20GHz,orientation_search,GRVLAPTOP3,Intel(R) HD Graphics Family,2018_jun_07_1225,testMonitor,
391.0,385.1,386.4,393.3,36,-80,,388.9,385.7,392.6,8.328,7.952,7.858,8.266,8.1,8.346,8.468,4.903,-4.499,-7.72,1.852,-2.074,7.69,5.07,-5.103,-7.72,389.8,391.8,-8.383,386.2,395.5,380.5,388.0,387.2,36,389.8,4,5,probe,5,0,96,norm,36,-5.068,down,norm,390.536151881,394.8,393.2,1.465,382.4,0,392.3,396.3,386.7,10,5,8.43,4.508,1.929,-1.379,-5.059,-7.864,386.2,2,294.5,-8.167,-8.202,40,-7.776,-8.296,-5.204,-5.281,-4.735,-4.634,4.888,8.221,24,-2.001,1.193,4.411,7.873,-8.085,-7.78,-1.202,1.134,387.2,384.7,383.1,385.0,387.7,392.4,390.9,390.0,387.8,400.5,0,norm,1.121,1.92,-1.435,-1.226,-4.561,-4.384,-1.326,-1.13,-1.763,-2.076,1.529,-1.733,392.5,394.6,-4.934,-7.842,385.4,-1.817,7.822,4.92,-4.528,-7.57,17,4.344,4.451,5.162,4.864,1.42,1.438,1.802,1.227,17,4.594,4.305,40,249.945198228,norm,0,44,44,44,532.036,532.043,532.045088216,532.046,532.049,532.054,down,1,1.05304287203,8.94695712797,001,009,800_600,Intel(R) Core(TM) i7-2670QM CPU @ 2.20GHz,orientation_search,GRVLAPTOP3,Intel(R) HD Graphics Family,2018_jun_07_1225,testMonitor,
349.7,356.9,365.1,355.1,36,-80,361.3,358.8,355.2,361.3,8.072,8.225,8.438,7.672,7.99,8.166,7.829,5.082,-5.246,-7.835,1.9,-1.598,8.135,5.029,-5.079,-8.172,363.6,354.8,-7.556,363.3,352.6,356.2,352.2,352.6,36,357.6,1,5,probe,5,0,61,norm,36,-4.526,down,norm,355.536151881,347.3,357.8,1.123,354.4,1,365.5,351.4,356.1,10,5,8.009,4.953,1.724,-1.937,-4.49,-8.317,345.5,2,294.5,-7.738,-8.068,40,-7.705,-7.559,-5.131,-4.421,-4.506,-5.21,5.02,7.852,7,-1.391,1.399,4.829,8.415,-8.021,-7.79,-2.003,1.938,358.3,348.6,362.3,358.5,352.5,357.7,,351.8,354.8,358.6,1,norm,1.492,1.68,-1.498,-1.134,-4.988,-4.411,-1.327,-1.861,-2.027,-1.182,1.745,-2.087,359.3,354.7,-4.481,-7.99,355.3,-1.533,8.0,4.821,-4.412,-8.389,17,4.465,4.999,4.608,4.851,1.597,1.601,1.789,1.539,17,4.384,5.036,40,249.945198228,norm,0,45,45,45,533.118,533.126,533.128499804,533.129,533.133,533.138,down,1,2.35699526456,7.64300473544,001,009,800_600,Intel(R) Core(TM) i7-2670QM CPU @ 2.20GHz,orientation_search,GRVLAPTOP3,Intel(R) HD Graphics Family,2018_jun_07_1225,testMonitor,
238.4,237.9,228.3,252.6,36,-80,252.3,242.8,241.9,233.1,7.857,7.976,8.479,7.938,8.327,7.926,7.586,4.898,-4.909,-8.437,1.209,-1.152,7.998,4.683,-4.626,-7.673,253.3,250.3,-8.44,222.8,248.6,237.8,247.4,248.2,36,237.6,1,5,prime,10,0,98,norm,36,-4.592,up,norm,242.765724126,245.8,244.5,1.378,248.7,3,242.2,229.9,241.4,10,5,7.798,4.47,1.596,-1.956,-5.133,-7.814,245.7,5,340.8,-7.86,-8.453,-80,-7.641,-7.778,-4.863,-4.504,-4.53,-5.086,5.007,7.573,9,-1.853,1.361,4.702,7.929,-7.968,-8.234,-1.691,2.044,,243.7,251.0,244.4,243.3,248.9,262.8,247.6,240.3,239.8,0,norm,1.728,1.629,-1.921,-1.255,-4.431,-5.168,-1.545,-1.769,-1.807,-1.161,1.911,-2.022,232.9,233.6,-5.002,-8.164,247.2,-1.254,7.866,4.905,-4.702,-8.441,18,4.9,5.257,5.14,5.051,1.474,1.506,2.031,1.346,18,4.875,4.92,-80,249.945198228,norm,0,46,46,46,535.507,535.515,535.517113835,535.518,535.522,535.527,up,1,1.55114491483,8.44885508517,001,009,800_600,Intel(R) Core(TM) i7-2670QM CPU @ 2.20GHz,orientation_search,GRVLAPTOP3,Intel(R) HD Graphics Family,2018_jun_07_1225,testMonitor,
242.7,238.7,258.2,248.3,36,-80,248.4,238.1,247.2,229.5,7.705,8.117,7.694,8.245,7.829,7.723,7.942,4.642,-4.741,-7.888,2.006,-1.242,7.936,5.125,-4.849,-7.84,256.9,243.0,-7.651,232.4,245.4,242.1,242.6,233.7,36,245.0,0,5,prime,10,0,99,norm,36,-4.866,down,norm,242.765724126,247.5,250.1,1.913,241.1,1,238.2,248.6,237.8,10,5,7.624,5.131,1.702,-1.309,-4.736,-7.832,222.8,5,341.8,-8.126,-8.228,-80,-8.234,-7.751,-4.999,-4.86,-5.187,-4.737,5.23,8.031,1,-1.96,2.024,4.548,7.763,-8.112,-8.156,-1.998,1.348,239.3,247.7,235.3,229.3,,237.3,234.8,262.8,242.0,241.9,1,norm,2.031,1.289,-1.754,-1.147,-4.431,-5.085,-1.774,-1.649,-1.961,-1.827,1.483,-1.66,261.2,252.1,-4.508,-7.536,233.9,-1.176,7.642,4.4,-4.584,-8.475,18,5.104,5.064,5.169,4.524,1.873,1.474,1.385,1.373,18,4.844,4.483,-80,249.945198228,norm,0,47,47,47,537.089,537.097,537.098811915,537.099,537.103,537.108,down,1,1.8464520178,8.1535479822,001,009,800_600,Intel(R) Core(TM) i7-2670QM CPU @ 2.20GHz,orientation_search,GRVLAPTOP3,Intel(R) HD Graphics Family,2018_jun_07_1225,testMonitor,
232.2,,227.3,222.8,36,-80,241.2,232.6,241.5,244.4,7.508,7.529,8.197,7.688,8.128,8.006,7.788,4.335,-4.571,-8.138,1.451,-1.161,7.901,4.625,-4.513,-7.604,250.4,237.6,-8.21,233.1,248.5,241.0,243.9,248.9,36,234.5,3,5,prime,10,0,65,norm,36,-5.005,up,norm,242.765724126,241.4,227.3,1.526,228.1,5,260.6,258.1,231.9,10,5,7.722,4.802,1.117,-1.735,-4.956,-8.416,234.4,5,307.8,-7.57,-8.338,-80,-8.308,-8.209,-4.793,-4.79,-4.92,-4.809,4.713,7.698,23,-1.776,1.852,5.161,8.101,-7.795,-7.638,-1.67,1.231,234.4,244.9,253.2,249.3,236.9,262.8,237.2,253.3,248.0,225.5,2,norm,1.678,1.179,-1.177,-1.222,-4.953,-5.181,-1.854,-1.329,-1.17,-1.249,1.18,-1.863,240.9,243.4,-4.995,-8.427,255.5,-1.332,8.096,4.351,-4.774,-7.813,18,4.802,4.344,4.855,4.674,1.433,1.102,1.233,1.888,18,5.289,5.198,-80,249.945198228,norm,0,48,48,48,538.966,538.974,538.975969326,538.977,538.98,538.985,up,1,0.970668868225,9.02933113177,001,009,800_600,Intel(R) Core(TM) i7-2670QM CPU @ 2.20GHz,orientation_search,GRVLAPTOP3,Intel(R) HD Graphics Family,2018_jun_07_1225,testMonitor,
247.9,248.7,243.8,229.7,36,-80,244.1,260.7,247.9,241.2,7.989,7.793,7.567,7.567,7.783,8.294,8.477,4.733,-5.026,-8.1,1.361,-1.598,7.82,4.454,-4.87,-7.563,251.8,225.5,-7.765,241.4,,253.9,236.3,244.9,36,238.6,5,5,prime,10,0,115,norm,36,-4.922,down,norm,242.765724126,246.9,241.6,2.075,239.8,0,232.0,236.3,262.8,10,5,7.511,4.701,1.925,-2.007,-4.73,-8.321,231.2,5,357.8,-7.815,-8.415,-80,-8.145,-8.289,-4.819,-4.929,-4.64,-4.577,4.774,8.229,30,-1.375,1.536,4.969,7.699,-7.738,-8.063,-1.293,1.359,242.9,243.4,240.5,243.1,243.9,226.4,245.4,236.0,242.6,233.4,3,norm,1.706,1.524,-1.618,-2.025,-4.905,-4.729,-1.819,-1.501,-1.283,-2.058,1.302,-1.162,239.7,238.2,-4.853,-8.083,232.6,-1.379,8.217,4.348,-5.191,-7.566,18,4.429,5.27,4.963,5.236,1.424,1.97,1.198,1.216,18,4.571,5.276,-80,249.945198228,norm,0,49,49,49,539.967,539.974,539.976592717,539.977,539.981,539.986,down,1,2.25372668763,7.74627331237,001,009,800_600,Intel(R) Core(TM) i7-2670QM CPU @ 2.20GHz,orientation_search,GRVLAPTOP3,Intel(R) HD Graphics Family,2018_jun_07_1225,testMonitor,
237.8,247.5,248.2,250.8,36,-80,251.3,233.9,241.6,250.5,8.295,7.9,7.988,7.574,8.329,7.549,8.255,4.311,-4.983,-7.922,1.429,-1.621,7.899,4.582,-4.736,-7.892,229.5,243.0,-8.47,249.0,222.8,255.4,247.6,241.4,36,244.0,3,5,prime,10,0,117,norm,36,-4.93,down,norm,242.765724126,255.7,241.2,1.896,241.0,1,233.8,247.6,239.7,10,5,8.036,4.588,1.941,-1.652,-4.431,-7.887,262.8,5,359.8,-8.48,-7.524,-80,-8.214,-7.851,-4.303,-4.649,-4.683,-4.801,4.675,8.076,19,-1.575,1.996,4.946,7.961,-8.011,-7.651,-1.2,1.983,241.0,245.2,242.2,225.5,249.6,230.9,240.1,248.7,242.1,243.6,4,norm,1.554,1.253,-1.102,-1.235,-4.753,-4.502,-1.349,-1.454,-1.34,-1.103,1.386,-1.271,,243.2,-4.823,-8.385,246.7,-1.581,7.521,5.244,-4.528,-7.817,18,4.933,5.02,4.415,4.865,2.089,1.221,1.282,1.656,18,4.936,4.776,-80,249.945198228,norm,0,50,50,50,542.251,542.259,542.260910861,542.261,542.265,542.27,down,1,2.86594150958,7.13405849042,001,009,800_600,Intel(R) Core(TM) i7-2670QM CPU @ 2.20GHz,orientation_search,GRVLAPTOP3,Intel(R) HD Graphics Family,2018_jun_07_1225,testMonitor,
240.6,239.4,251.9,252.2,36,0,244.9,255.2,257.7,249.4,7.506,8.033,7.601,7.782,7.633,8.199,8.173,4.458,-4.327,-7.984,1.855,-1.992,8.332,5.251,-4.719,-8.146,249.9,252.7,-7.882,247.5,251.9,248.3,244.9,243.0,36,255.0,0,5,probe,5,0,84,norm,36,-4.708,down,norm,247.657515263,243.3,244.2,2.083,246.1,1,253.1,247.7,255.1,10,5,7.991,4.844,1.881,-1.581,-5.251,-7.87,248.0,1,163.7,-7.953,-8.302,-80,-7.64,-8.181,-5.267,-4.863,-5.208,-4.871,4.829,8.192,1,-1.765,1.507,4.752,7.579,-8.216,-8.427,-1.395,1.662,249.4,246.8,243.5,243.6,,237.7,253.2,251.4,244.0,251.1,0,norm,1.232,1.32,-1.891,-1.615,-5.069,-5.001,-1.726,-1.305,-1.825,-1.498,1.785,-1.787,238.4,247.7,-5.07,-8.131,250.3,-1.359,7.657,4.878,-4.915,-8.053,19,4.38,4.98,4.789,5.176,1.565,1.794,1.752,1.302,19,4.871,5.244,-80,242.765724126,norm,0,51,51,51,545.147,545.155,545.156806893,545.157,545.161,545.166,down,1,0.964378455794,9.03562154421,001,009,800_600,Intel(R) Core(TM) i7-2670QM CPU @ 2.20GHz,orientation_search,GRVLAPTOP3,Intel(R) HD Graphics Family,2018_jun_07_1225,testMonitor,
76.0,92.1,80.4,72.7,36,-60,81.0,76.7,81.8,74.5,8.366,8.412,7.708,7.918,8.204,8.294,7.69,4.513,-4.728,-8.043,2.068,-1.397,7.735,4.893,-4.971,-8.195,96.0,80.6,-7.696,85.7,81.0,76.5,100.8,102.9,36,71.7,1,5,prime,10,0,106,norm,36,-4.85,up,norm,82.9281611012,70.3,81.8,1.294,77.6,4,82.1,92.8,79.2,10,6,8.019,5.143,1.554,-1.447,-4.823,-8.269,,6,188.9,-8.234,-7.732,-60,-7.908,-7.523,-4.776,-4.89,-4.591,-5.249,5.218,7.638,10,-2.08,1.59,4.703,7.871,-8.395,-8.406,-1.46,1.111,74.3,98.2,91.5,88.9,66.5,75.7,81.9,86.1,95.2,62.9,0,norm,1.335,1.801,-1.822,-1.199,-4.906,-4.486,-1.52,-1.513,-2.02,-2.023,1.485,-1.969,91.5,74.5,-5.019,-8.137,77.7,-1.928,7.621,4.787,-5.299,-7.895,20,5.126,4.932,5.059,4.359,1.669,1.19,1.63,1.613,20,4.5,4.864,0,242.765724126,norm,0,52,52,52,546.141,584.127,584.129098446,584.13,584.134,584.138,up,1,1.55862840898,8.44137159102,001,009,800_600,Intel(R) Core(TM) i7-2670QM CPU @ 2.20GHz,orientation_search,GRVLAPTOP3,Intel(R) HD Graphics Family,2018_jun_07_1225,testMonitor,
65.3,88.6,96.9,97.6,36,-60,91.6,78.3,96.8,82.7,8.347,8.359,8.287,7.911,8.223,8.089,8.332,5.261,-4.48,-8.234,1.919,-1.469,8.128,4.43,-4.747,-8.379,85.0,88.0,-8.007,102.9,96.6,79.9,79.2,91.0,36,86.7,1,5,prime,10,0,118,norm,36,-4.582,down,norm,82.9281611012,75.0,77.6,1.326,89.7,0,91.7,94.0,83.6,10,6,7.503,5.061,2.093,-1.502,-5.251,-8.083,75.9,6,200.9,-7.836,-8.279,-60,-7.526,-8.032,-5.167,-4.79,-5.056,-5.25,4.436,8.087,6,-1.591,1.34,4.968,7.994,-7.921,-8.329,-1.298,1.973,67.4,95.9,75.8,85.2,92.4,91.1,80.1,,91.1,82.7,1,norm,1.962,1.553,-1.898,-1.361,-4.704,-4.429,-1.556,-1.863,-1.951,-1.292,1.47,-1.7,82.6,82.9,-4.966,-7.906,88.5,-1.142,7.873,5.281,-4.365,-7.568,20,4.769,5.12,4.89,4.495,1.375,1.721,1.518,1.503,20,4.797,4.95,0,242.765724126,norm,0,53,53,53,585.708,585.716,585.718416372,585.719,585.723,585.728,down,1,2.32381124934,7.67618875066,001,009,800_600,Intel(R) Core(TM) i7-2670QM CPU @ 2.20GHz,orientation_search,GRVLAPTOP3,Intel(R) HD Graphics Family,2018_jun_07_1225,testMonitor,
73.7,,98.4,92.4,36,-60,85.5,83.6,80.1,77.7,8.47,8.21,7.736,8.179,8.081,7.855,8.427,4.853,-4.75,-8.096,1.713,-1.778,8.313,4.623,-5.253,-7.621,62.9,78.8,-7.616,97.1,79.1,81.0,84.2,74.7,36,82.5,3,5,prime,10,0,68,norm,36,-4.368,up,norm,82.9281611012,89.3,79.9,1.49,102.9,5,80.1,71.7,88.5,10,6,7.631,5.153,1.797,-1.876,-4.589,-7.861,92.5,6,150.9,-8.294,-8.492,-60,-7.529,-8.116,-5.238,-4.817,-4.38,-5.035,4.783,8.041,23,-1.593,1.214,4.589,8.499,-7.92,-8.132,-1.791,1.787,73.0,76.2,73.8,76.7,79.3,94.3,83.6,89.3,75.0,79.4,2,norm,1.152,1.347,-1.446,-1.233,-4.336,-4.874,-1.575,-1.839,-1.278,-2.062,1.273,-1.887,79.6,78.9,-4.593,-7.81,90.7,-1.34,8.265,5.123,-4.494,-7.914,20,5.012,4.783,4.743,4.369,1.217,1.84,2.073,1.211,20,4.527,5.088,0,242.765724126,norm,0,54,54,54,588.063,588.071,588.07273409,588.073,588.078,588.083,up,1,0.907441607873,9.09255839213,001,009,800_600,Intel(R) Core(TM) i7-2670QM CPU @ 2.20GHz,orientation_search,GRVLAPTOP3,Intel(R) HD Graphics Family,2018_jun_07_1225,testMonitor,
75.5,92.0,91.3,90.8,36,-60,83.5,71.9,96.7,78.6,7.818,7.815,7.663,7.891,7.895,8.495,8.369,4.626,-4.998,-8.022,1.976,-1.896,8.118,4.51,-4.353,-7.767,90.5,91.6,-7.545,87.9,77.3,81.5,102.9,79.5,36,72.5,2,5,prime,10,0,88,norm,36,-5.194,down,norm,82.9281611012,77.5,65.2,1.153,75.3,1,95.9,,100.0,10,6,8.026,4.883,1.569,-1.303,-5.29,-8.482,80.6,6,170.9,-7.814,-7.918,-60,-7.604,-8.114,-5.263,-5.197,-5.067,-4.435,5.087,7.544,13,-1.345,1.513,4.879,8.285,-7.555,-7.975,-1.188,2.003,85.6,96.2,62.9,102.6,88.9,93.6,91.2,70.6,83.5,77.8,3,norm,1.912,1.249,-1.459,-1.3,-5.117,-5.078,-2.1,-1.458,-1.428,-2.09,1.711,-1.947,99.3,89.5,-4.328,-8.271,84.1,-1.541,8.329,4.424,-4.727,-7.945,20,5.242,4.364,5.007,4.497,1.558,1.697,1.819,1.816,20,4.917,4.939,0,242.765724126,norm,0,55,55,55,589.001,589.009,589.010895101,589.011,589.015,589.021,down,1,2.27047932933,7.72952067067,001,009,800_600,Intel(R) Core(TM) i7-2670QM CPU @ 2.20GHz,orientation_search,GRVLAPTOP3,Intel(R) HD Graphics Family,2018_jun_07_1225,testMonitor,
76.4,74.9,99.0,62.9,36,-60,93.0,74.8,81.3,90.7,8.246,7.91,7.83,7.989,7.86,8.003,8.204,5.274,-4.33,-8.213,1.107,-1.446,8.139,5.042,-4.328,-7.629,67.3,73.4,-8.301,69.1,85.9,87.3,88.8,84.8,36,81.4,0,5,prime,10,0,89,norm,36,-4.799,up,norm,82.9281611012,87.2,90.0,1.934,91.1,5,76.7,80.2,84.5,10,6,7.602,5.002,1.374,-2.071,-4.312,-7.759,80.1,6,171.9,-7.607,-7.746,-60,-8.258,-8.156,-4.799,-4.4,-5.288,-4.758,5.233,8.154,5,-1.919,1.197,5.022,8.45,-8.33,-8.343,-1.377,1.545,102.9,85.3,72.3,93.9,76.1,76.8,82.0,77.3,,78.3,4,norm,1.466,1.295,-1.823,-1.771,-4.675,-4.432,-1.174,-1.139,-1.984,-1.726,2.052,-1.678,95.2,68.8,-4.628,-8.436,91.7,-1.211,8.177,5.194,-5.061,-8.029,20,4.746,4.34,4.799,4.669,1.582,2.022,2.093,1.101,20,5.175,5.209,0,242.765724126,norm,0,56,56,56,591.302,591.309,591.312043401,591.313,591.316,591.321,up,1,1.70614420739,8.29385579261,001,009,800_600,Intel(R) Core(TM) i7-2670QM CPU @ 2.20GHz,orientation_search,GRVLAPTOP3,Intel(R) HD Graphics Family,2018_jun_07_1225,testMonitor,
92.9,88.8,83.9,75.9,36,-60,85.1,88.0,62.9,81.0,7.826,8.174,7.842,7.806,7.851,8.086,7.78,4.585,-5.165,-7.975,1.538,-1.924,7.848,5.082,-4.844,-7.764,77.4,95.0,-8.093,84.4,78.4,78.4,,94.9,36,79.0,5,5,prime,10,0,110,norm,36,-4.471,down,norm,82.9281611012,102.9,95.5,1.567,87.5,2,84.8,76.6,94.7,10,6,7.552,4.626,1.483,-1.309,-5.263,-8.096,74.7,6,192.9,-8.173,-8.496,-60,-7.946,-8.056,-4.882,-4.79,-4.787,-4.476,5.177,8.022,32,-1.884,1.432,4.496,7.845,-7.556,-7.76,-1.57,1.361,72.5,82.9,77.4,82.5,67.5,73.2,81.8,83.4,83.7,73.2,5,norm,1.639,1.937,-1.424,-1.498,-4.386,-4.679,-1.531,-1.721,-1.993,-1.503,2.013,-1.42,97.3,81.9,-4.807,-8.494,79.1,-1.466,7.824,4.313,-5.07,-7.806,20,4.783,4.346,4.534,5.266,1.466,1.14,1.651,1.297,20,4.704,4.831,0,242.765724126,norm,0,57,57,57,593.039,593.047,593.048703884,593.049,593.053,593.059,down,1,3.75187589335,6.24812410665,001,009,800_600,Intel(R) Core(TM) i7-2670QM CPU @ 2.20GHz,orientation_search,GRVLAPTOP3,Intel(R) HD Graphics Family,2018_jun_07_1225,testMonitor,
101.7,102.9,111.2,115.8,36,-40,109.2,110.7,109.5,117.2,8.264,7.771,7.829,7.581,7.733,7.82,7.862,5.109,-4.726,-8.197,1.215,-2.052,8.005,4.809,-5.187,-7.936,99.8,103.6,-8.365,100.2,109.8,,103.6,118.1,36,104.5,5,5,probe,5,0,93,norm,36,-4.495,up,norm,109.017769702,99.0,107.6,2.045,112.8,3,118.1,115.4,113.5,10,6,8.07,4.481,1.955,-1.281,-4.709,-8.137,105.7,2,16.0,-7.647,-7.861,-60,-8.456,-8.011,-5.002,-4.679,-4.382,-4.795,4.992,7.501,33,-2.083,1.739,4.661,7.824,-8.398,-7.852,-2.035,1.191,114.4,103.9,114.0,109.8,107.6,111.8,100.8,113.0,107.8,112.6,0,norm,1.422,1.831,-1.206,-1.812,-5.231,-4.565,-1.771,-1.734,-1.941,-2.06,2.073,-1.754,112.8,99.6,-4.67,-8.217,117.7,-1.578,7.947,5.264,-4.318,-7.805,21,4.787,4.523,5.019,4.741,1.379,1.614,1.362,1.273,21,4.933,4.458,-60,82.9281611012,norm,0,58,58,58,596.822,596.829,596.831363153,596.832,596.836,596.841,up,1,1.40533818847,8.59466181153,001,009,800_600,Intel(R) Core(TM) i7-2670QM CPU @ 2.20GHz,orientation_search,GRVLAPTOP3,Intel(R) HD Graphics Family,2018_jun_07_1225,testMonitor,
,94.2,93.9,83.0,36,-40,82.1,84.9,86.8,91.8,7.788,8.174,8.074,8.315,7.973,8.188,8.445,4.824,-5.116,-7.815,1.857,-1.65,8.485,4.656,-4.746,-7.766,86.0,95.2,-7.618,88.3,99.0,92.4,86.5,79.0,36,82.1,3,5,probe,5,0,73,norm,36,-4.88,up,norm,89.0177697022,89.7,90.7,2.018,82.9,4,87.0,87.9,94.5,10,6,7.602,4.443,1.495,-1.188,-4.372,-8.385,90.4,2,16.0,-8.417,-8.228,-60,-7.849,-8.341,-5.139,-5.034,-4.971,-4.376,5.173,8.415,22,-1.581,2.08,4.941,8.063,-8.205,-8.283,-1.173,1.287,80.2,93.6,85.2,87.5,94.4,94.2,94.6,87.9,94.5,88.7,1,norm,1.838,1.485,-1.655,-1.436,-4.326,-4.706,-1.277,-2.005,-1.463,-1.492,1.368,-1.32,85.9,86.6,-4.559,-8.364,90.3,-1.992,7.911,5.024,-4.522,-7.593,21,4.622,4.481,4.684,5.216,1.624,1.867,1.805,1.846,21,4.39,4.543,-60,82.9281611012,norm,0,59,59,59,598.257,598.266,598.268002109,598.269,598.272,598.277,down,0,1.35405201836,-10,001,009,800_600,Intel(R) Core(TM) i7-2670QM CPU @ 2.20GHz,orientation_search,GRVLAPTOP3,Intel(R) HD Graphics Family,2018_jun_07_1225,testMonitor,
125.2,165.2,139.2,160.6,36,60,148.8,134.7,141.8,140.2,8.312,8.194,8.213,8.034,7.568,7.695,7.875,4.88,-4.897,-8.33,2.097,-1.86,8.45,4.576,-4.828,-7.708,145.2,137.9,-8.359,143.6,155.7,,128.7,151.8,36,133.5,5,5,prime,10,0,113,norm,36,-4.473,up,norm,145.152771969,131.6,154.5,1.555,141.4,3,132.2,138.0,153.8,10,3,8.377,4.567,1.345,-1.509,-4.396,-8.44,156.2,3,258.2,-8.475,-8.028,60,-8.399,-7.76,-5.076,-5.011,-4.462,-4.305,5.277,8.016,33,-1.964,1.467,4.548,7.62,-8.015,-8.402,-1.834,1.922,146.1,148.6,150.5,146.1,149.7,136.9,153.5,152.6,152.7,158.5,0,norm,1.751,1.356,-1.241,-1.744,-5.215,-4.9,-1.877,-1.296,-1.609,-1.873,1.511,-1.59,155.3,146.7,-4.314,-7.838,150.3,-1.297,7.711,4.317,-4.458,-8.268,22,4.695,5.241,4.961,4.802,1.977,1.772,1.252,1.395,22,5.095,5.158,-40,82.9281611012,norm,0,60,60,60,600.649,600.658,600.660446143,600.661,600.665,600.67,up,1,2.27040788452,7.72959211548,001,009,800_600,Intel(R) Core(TM) i7-2670QM CPU @ 2.20GHz,orientation_search,GRVLAPTOP3,Intel(R) HD Graphics Family,2018_jun_07_1225,testMonitor,
137.8,149.9,154.1,154.1,36,60,133.4,138.9,151.5,141.8,7.878,8.36,7.636,7.789,8.499,7.921,8.123,4.311,-4.934,-8.121,2.003,-1.884,7.723,5.183,-4.89,-8.409,136.1,142.2,-8.48,130.3,153.1,153.6,151.3,133.8,36,151.7,3,5,prime,10,0,92,norm,36,-5.176,down,norm,145.152771969,135.7,141.7,1.567,125.2,0,133.6,138.1,151.5,10,3,8.301,5.032,1.155,-1.348,-5.268,-8.066,156.2,3,237.2,-7.988,-7.651,60,-7.577,-7.505,-5.19,-4.939,-4.675,-5.247,4.597,8.087,18,-1.438,1.903,4.325,8.184,-8.271,-8.143,-1.792,1.336,146.7,152.4,149.8,141.8,129.4,141.5,165.2,151.6,155.5,135.5,1,norm,1.342,1.165,-1.671,-1.743,-5.202,-4.574,-2.006,-1.25,-1.15,-2.097,1.293,-2.035,153.6,,-5.19,-7.728,138.9,-1.756,7.688,4.563,-4.935,-7.955,22,4.737,5.053,5.298,4.515,1.244,1.108,1.222,1.593,22,4.735,4.542,-40,82.9281611012,norm,0,61,61,61,602.951,602.959,602.960970118,602.962,602.966,602.971,down,1,1.33023848092,8.66976151908,001,009,800_600,Intel(R) Core(TM) i7-2670QM CPU @ 2.20GHz,orientation_search,GRVLAPTOP3,Intel(R) HD Graphics Family,2018_jun_07_1225,testMonitor,
153.2,,144.8,149.6,36,60,136.5,141.0,160.0,125.2,8.301,7.611,8.202,7.856,7.679,7.624,7.852,5.24,-4.384,-7.791,1.871,-1.537,7.656,4.967,-4.357,-8.463,165.2,151.5,-7.797,143.3,145.1,162.0,162.2,129.9,36,141.4,3,5,prime,10,0,119,norm,36,-4.552,up,norm,145.152771969,157.7,151.7,1.874,141.8,5,154.6,147.6,130.9,10,3,8.046,4.642,1.493,-1.641,-4.374,-8.21,155.0,3,264.2,-7.728,-7.658,60,-8.48,-8.151,-4.908,-5.133,-4.916,-4.348,4.435,8.44,23,-1.151,1.838,4.831,7.972,-8.257,-7.714,-1.391,1.811,139.1,159.8,145.9,139.5,138.6,141.9,139.7,140.5,141.9,136.1,2,norm,1.607,1.333,-1.643,-1.492,-4.818,-5.071,-1.146,-1.426,-1.284,-1.97,1.553,-1.664,153.1,151.1,-5.133,-7.605,132.3,-1.573,8.026,5.114,-4.642,-7.798,22,4.724,4.624,4.642,5.17,1.347,2.09,1.433,1.608,22,5.274,4.666,-40,82.9281611012,norm,0,62,62,62,604.312,604.32,604.321822935,604.322,604.326,604.331,up,1,1.94148156,8.05851844,001,009,800_600,Intel(R) Core(TM) i7-2670QM CPU @ 2.20GHz,orientation_search,GRVLAPTOP3,Intel(R) HD Graphics Family,2018_jun_07_1225,testMonitor,
283.7,279.1,278.2,276.6,36,-40,283.8,279.2,281.8,286.8,8.217,8.123,7.554,8.157,7.852,7.77,8.01,4.731,-4.651,-7.851,2.064,-2.059,7.883,4.3,-5.239,-8.138,282.8,289.9,-8.45,285.9,288.8,277.7,286.5,,36,277.8,4,5,probe,5,0,67,norm,36,-5.214,down,norm,279.898135801,275.7,284.0,1.742,284.2,2,283.6,285.2,281.4,10,3,7.541,4.601,2.037,-1.466,-5.238,-8.29,277.7,2,212.9,-8.248,-8.477,60,-8.163,-7.508,-4.669,-4.347,-4.519,-4.887,4.347,8.165,26,-1.837,1.582,4.372,8.12,-7.819,-8.296,-1.386,1.332,284.2,275.6,279.1,269.9,272.4,283.4,275.1,279.8,277.8,278.8,0,norm,1.605,1.269,-1.671,-1.482,-4.924,-4.528,-1.957,-1.814,-1.715,-1.443,1.577,-1.976,282.1,279.6,-4.751,-8.309,280.7,-1.611,8.452,4.774,-4.72,-7.686,23,4.4,4.538,4.432,5.291,1.534,2.086,1.842,1.235,23,4.565,4.909,60,145.152771969,norm,0,63,63,63,606.284,606.292,606.293885678,606.294,606.298,606.303,down,1,1.93196165515,8.06803834485,001,009,800_600,Intel(R) Core(TM) i7-2670QM CPU @ 2.20GHz,orientation_search,GRVLAPTOP3,Intel(R) HD Graphics Family,2018_jun_07_1225,testMonitor,
307.7,315.6,309.6,308.7,36,-40,311.9,311.8,316.0,,8.051,8.342,7.741,7.914,7.635,8.469,7.643,4.489,-4.437,-8.106,1.933,-1.205,7.501,4.706,-5.122,-8.43,316.2,314.0,-8.008,320.3,309.3,307.7,310.5,316.7,36,300.9,4,5,probe,5,0,98,norm,36,-4.537,up,norm,310.898135801,313.9,318.6,1.203,314.4,5,316.1,308.4,308.4,10,3,7.699,4.776,1.89,-1.714,-4.62,-8.492,314.8,2,212.9,-8.457,-7.783,60,-7.748,-8.271,-5.048,-4.426,-5.169,-4.8,4.321,7.547,29,-1.217,1.631,5.066,8.123,-8.435,-8.344,-1.567,1.652,315.4,315.8,304.1,314.0,309.0,311.7,310.2,306.2,308.1,310.0,1,norm,1.281,1.655,-1.59,-1.14,-4.905,-4.738,-1.674,-1.841,-1.752,-2.045,1.11,-1.314,313.5,304.4,-4.675,-7.896,320.9,-1.84,8.467,4.775,-4.565,-8.23,23,4.793,4.736,4.981,4.922,1.221,1.335,1.158,1.642,23,4.798,5.103,60,145.152771969,norm,0,64,64,64,608.246,608.253,608.25532509,608.256,608.26,608.265,up,1,0.896649705139,9.10335029486,001,009,800_600,Intel(R) Core(TM) i7-2670QM CPU @ 2.20GHz,orientation_search,GRVLAPTOP3,Intel(R) HD Graphics Family,2018_jun_07_1225,testMonitor,
94.4,98.1,106.8,91.7,36,10,85.7,99.2,101.5,105.3,8.172,7.716,8.143,7.779,7.89,7.787,8.061,4.866,-5.216,-7.869,1.484,-1.894,7.654,4.428,-4.822,-7.555,112.6,99.6,-7.558,81.9,107.7,108.2,94.7,99.4,36,90.2,3,5,prime,10,0,99,norm,36,-5.214,down,norm,95.8942015366,92.3,87.9,1.616,106.9,0,91.1,95.0,110.5,10,5,8.081,4.391,1.289,-1.817,-4.505,-7.635,108.0,5,194.9,-8.372,-8.028,10,-7.948,-8.035,-4.395,-5.002,-4.974,-4.53,4.709,7.655,18,-1.836,1.76,4.758,7.76,-7.877,-7.557,-1.614,1.76,96.8,106.4,110.1,101.1,75.9,101.8,87.5,101.4,115.9,96.9,0,norm,1.791,1.83,-1.539,-1.198,-5.04,-4.659,-2.064,-1.34,-1.737,-1.553,1.162,-1.282,101.3,,-4.623,-8.497,95.6,-1.419,7.731,4.745,-5.154,-7.503,24,4.91,5.126,4.804,4.659,1.946,1.484,1.657,1.907,24,4.358,4.529,-40,145.152771969,norm,0,65,65,65,609.172,609.18,609.181858807,609.182,609.187,609.192,down,1,1.15922854543,8.84077145457,001,009,800_600,Intel(R) Core(TM) i7-2670QM CPU @ 2.20GHz,orientation_search,GRVLAPTOP3,Intel(R) HD Graphics Family,2018_jun_07_1225,testMonitor,
98.5,97.1,78.4,101.1,36,10,75.9,96.2,94.8,91.6,8.425,7.944,7.668,7.703,8.202,8.235,8.097,4.978,-4.497,-8.264,1.726,-1.906,8.042,4.538,-4.881,-8.11,98.9,112.4,-7.773,106.4,95.2,115.9,111.5,104.6,36,97.7,1,5,prime,10,0,92,norm,36,-4.964,up,norm,95.8942015366,79.7,97.8,1.304,84.0,3,88.5,94.6,78.4,10,5,8.085,4.571,1.604,-1.452,-4.947,-8.484,109.0,5,187.9,-7.743,-8.348,10,-8.087,-8.45,-4.942,-5.203,-4.584,-5.09,4.413,7.564,9,-1.22,1.55,4.553,8.148,-7.525,-8.135,-1.379,1.149,,79.8,89.4,97.4,85.7,84.7,102.6,78.9,97.5,92.6,1,norm,1.913,1.204,-1.182,-1.986,-4.395,-4.832,-1.883,-1.608,-1.988,-1.938,1.3,-1.934,97.3,95.6,-4.584,-8.211,87.9,-1.414,8.397,5.083,-4.777,-7.945,24,5.018,4.661,5.218,4.78,1.153,1.729,1.992,1.803,24,5.189,4.517,-40,145.152771969,norm,0,66,66,66,610.362,610.371,610.372654287,610.373,610.377,610.382,up,1,2.98128192544,7.01871807456,001,009,800_600,Intel(R) Core(TM) i7-2670QM CPU @ 2.20GHz,orientation_search,GRVLAPTOP3,Intel(R) HD Graphics Family,2018_jun_07_1225,testMonitor,
87.0,108.1,,76.1,36,10,88.0,96.0,95.9,94.9,7.734,7.891,8.181,8.183,7.519,7.521,7.708,5.177,-4.867,-7.941,1.234,-1.479,7.914,5.182,-5.118,-7.945,82.1,89.8,-7.51,91.1,98.0,114.6,115.9,75.9,36,104.3,3,5,prime,10,0,108,norm,36,-4.767,down,norm,95.8942015366,91.4,104.4,1.823,89.8,2,95.4,104.6,93.6,10,5,8.343,4.721,1.329,-1.217,-5.205,-7.897,88.0,5,203.9,-7.928,-8.002,10,-8.269,-7.555,-4.809,-4.432,-4.852,-4.965,4.755,8.421,20,-1.182,1.178,4.569,8.404,-7.571,-8.084,-1.886,1.722,94.2,95.9,88.8,105.0,99.1,84.2,106.1,97.2,94.9,100.3,2,norm,1.97,1.464,-1.597,-1.721,-5.29,-5.109,-2.035,-1.347,-2.048,-1.64,1.997,-2.014,97.8,100.9,-4.725,-7.826,87.0,-1.553,8.359,4.539,-4.745,-7.713,24,4.999,4.593,5.206,4.333,1.702,1.363,1.379,1.274,24,4.5,4.791,-40,145.152771969,norm,0,67,67,67,613.374,613.382,613.383899607,613.384,613.388,613.393,down,1,2.5394555158,7.4605444842,001,009,800_600,Intel(R) Core(TM) i7-2670QM CPU @ 2.20GHz,orientation_search,GRVLAPTOP3,Intel(R) HD Graphics Family,2018_jun_07_1225,testMonitor,
92.1,77.4,99.1,92.9,36,10,92.1,102.3,97.3,104.2,8.187,7.8,7.739,8.349,7.84,7.672,8.431,4.306,-4.766,-8.475,1.879,-1.383,8.121,4.567,-4.448,-7.524,98.5,109.4,-8.334,100.0,,98.3,95.2,99.0,36,108.1,5,5,prime,10,0,66,norm,36,-4.676,down,norm,95.8942015366,113.0,83.5,2.085,75.9,0,99.1,108.6,83.8,10,5,7.564,4.944,1.89,-2.002,-5.037,-7.829,84.4,5,161.9,-8.034,-7.867,10,-7.893,-7.557,-4.851,-4.338,-4.524,-5.188,4.695,7.959,30,-1.885,1.206,5.009,8.033,-8.256,-7.597,-1.935,1.551,86.1,101.1,96.2,84.9,80.8,81.6,95.2,86.6,96.1,82.4,3,norm,1.345,1.178,-1.55,-1.889,-4.945,-5.118,-1.991,-1.274,-2.046,-2.013,1.422,-1.464,93.1,89.3,-4.929,-7.557,115.9,-1.927,8.446,4.375,-4.976,-8.168,24,5.248,4.509,4.81,4.308,2.046,1.198,1.431,1.7,24,4.576,5.168,-40,145.152771969,norm,0,68,68,68,615.943,615.951,615.953297505,615.954,615.958,615.963,up,0,3.98509044774,-10,001,009,800_600,Intel(R) Core(TM) i7-2670QM CPU @ 2.20GHz,orientation_search,GRVLAPTOP3,Intel(R) HD Graphics Family,2018_jun_07_1225,testMonitor,
97.1,92.1,87.3,94.4,36,10,87.8,89.6,114.1,85.7,8.081,7.572,7.843,7.727,8.083,8.447,8.015,4.711,-4.747,-8.493,1.341,-1.623,7.589,5.176,-4.884,-7.86,90.3,105.2,-8.426,75.9,96.9,92.3,90.1,104.2,36,97.7,0,5,prime,10,0,116,norm,36,-4.885,up,norm,95.8942015366,76.8,112.2,1.29,87.9,4,93.1,105.5,99.0,10,5,8.163,4.584,1.914,-1.765,-4.361,-7.843,92.2,5,211.9,-7.605,-8.074,10,-7.582,-7.555,-4.759,-5.056,-4.742,-4.309,4.31,8.154,4,-1.787,1.849,4.392,7.709,-8.268,-8.399,-1.183,1.331,96.3,85.0,86.6,90.0,103.1,102.1,91.5,115.9,83.5,,4,norm,1.842,1.614,-1.138,-1.477,-4.412,-4.606,-1.647,-2.076,-1.87,-1.579,1.452,-2.06,108.9,109.6,-5.228,-8.083,78.2,-1.713,8.373,5.009,-5.091,-8.129,24,4.362,5.138,4.658,4.65,1.911,1.8,1.287,1.102,24,4.48,4.96,-40,145.152771969,norm,0,69,69,69,620.959,620.97,620.971827395,620.972,620.976,620.981,up,1,3.04523810969,6.95476189031,001,009,800_600,Intel(R) Core(TM) i7-2670QM CPU @ 2.20GHz,orientation_search,GRVLAPTOP3,Intel(R) HD Graphics Family,2018_jun_07_1225,testMonitor,
208.7,210.4,209.0,210.5,36,-20,201.5,200.3,208.2,199.7,7.816,8.199,7.684,7.87,8.415,7.676,8.007,4.619,-4.774,-8.5,2.092,-1.16,8.11,5.185,-4.512,-7.681,213.3,,-8.148,198.0,211.8,216.4,208.7,206.8,36,208.0,5,5,probe,5,0,100,norm,36,-4.64,up,norm,208.026662934,210.6,211.2,1.681,210.0,4,207.5,204.1,210.1,10,5,8.146,4.402,1.747,-1.734,-4.937,-8.425,206.8,1,108.0,-8.125,-7.776,10,-7.889,-7.791,-5.286,-4.639,-5.028,-4.726,4.489,7.882,34,-1.841,1.388,4.909,7.964,-7.511,-7.597,-1.903,1.959,216.1,216.2,206.7,210.9,211.6,204.8,207.3,215.1,211.5,210.7,0,norm,1.365,1.664,-1.6,-1.738,-4.891,-4.865,-1.553,-1.893,-1.729,-1.925,1.793,-2.016,204.5,218.0,-4.391,-7.52,210.6,-2.055,8.077,4.803,-4.865,-7.631,25,4.873,5.129,4.622,4.893,1.303,1.6,1.285,1.81,25,4.977,4.586,10,95.8942015366,norm,0,70,70,70,624.038,624.045,624.047335225,624.048,624.052,624.056,up,1,1.35026544317,8.64973455683,001,009,800_600,Intel(R) Core(TM) i7-2670QM CPU @ 2.20GHz,orientation_search,GRVLAPTOP3,Intel(R) HD Graphics Family,2018_jun_07_1225,testMonitor,
19.7,25.5,2.2,9.1,36,80,12.2,20.5,9.0,28.9,7.661,8.035,8.338,7.533,8.432,7.587,7.697,4.667,-4.408,-8.436,2.019,-1.812,7.516,5.14,-4.604,-7.764,18.8,1.1,-8.378,10.7,0.4,28.0,11.7,18.4,36,6.9,0,5,prime,10,0,83,norm,36,-4.61,down,norm,8.90450803232,8.7,20.7,1.239,18.4,2,-5.0,14.6,0.8,10,3,7.642,4.523,1.887,-2.021,-4.311,-8.251,13.1,3,91.9,-8.335,-8.03,80,-8.376,-7.925,-5.118,-4.88,-5.052,-5.297,4.522,8.277,2,-1.398,1.6,5.199,8.079,-7.589,-7.777,-1.615,1.1,14.2,7.4,-11.1,,5.6,-1.2,22.7,-3.7,0.1,-0.6,0,norm,1.109,2.059,-1.861,-1.491,-5.177,-4.578,-1.629,-1.484,-1.855,-1.28,1.111,-1.916,6.8,-1.5,-4.584,-8.349,18.6,-1.231,7.804,5.085,-4.65,-7.977,26,5.229,4.32,4.765,4.323,2.081,1.954,1.242,1.104,26,4.356,4.49,-20,95.8942015366,norm,0,71,71,71,625.418,625.425,625.427883464,625.429,625.432,625.437,up,0,2.34028184746,-10,001,009,800_600,Intel(R) Core(TM) i7-2670QM CPU @ 2.20GHz,orientation_search,GRVLAPTOP3,Intel(R) HD Graphics Family,2018_jun_07_1225,testMonitor,
-2.1,11.7,6.7,9.0,36,80,-1.6,10.1,28.9,2.0,8.249,8.457,8.404,7.664,7.855,7.548,8.309,4.786,-4.695,-8.31,1.988,-2.076,7.701,5.299,-5.194,-7.985,7.9,26.9,-8.041,13.9,24.6,13.8,-4.7,11.3,36,7.6,1,5,prime,10,0,114,norm,36,-5.241,up,norm,8.90450803232,4.4,18.8,1.587,10.2,4,1.8,4.7,10.5,10,3,7.539,4.45,1.792,-1.447,-4.888,-8.363,,3,122.9,-8.117,-8.276,80,-8.218,-7.666,-5.035,-4.825,-4.617,-4.386,4.612,8.442,10,-2.063,1.699,4.469,7.851,-7.857,-8.162,-1.925,1.814,-0.9,10.5,9.9,13.5,8.5,-11.1,2.6,12.8,20.3,12.5,1,norm,1.729,1.952,-1.445,-1.86,-4.76,-4.913,-1.395,-1.701,-1.703,-1.455,1.52,-1.388,4.3,1.8,-5.216,-7.872,14.0,-1.275,8.209,4.866,-5.069,-8.094,26,5.21,5.056,4.732,4.755,1.568,1.18,1.484,1.925,26,4.446,4.879,-20,95.8942015366,norm,0,72,72,72,628.791,628.798,628.800227223,628.801,628.805,628.81,up,1,2.61798924405,7.38201075595,001,009,800_600,Intel(R) Core(TM) i7-2670QM CPU @ 2.20GHz,orientation_search,GRVLAPTOP3,Intel(R) HD Graphics Family,2018_jun_07_1225,testMonitor,
8.1,1.3,8.9,16.8,36,80,16.5,2.4,4.3,-1.6,7.694,7.967,8.086,7.699,7.842,7.94,8.3,4.896,-5.111,-7.751,1.575,-1.406,7.946,4.963,-5.042,-8.138,1.3,19.7,-7.935,-2.1,28.9,10.3,-11.1,22.0,36,-10.4,0,5,prime,10,0,109,norm,36,-5.137,down,norm,8.90450803232,7.9,19.6,1.409,0.2,2,22.8,10.6,18.0,10,3,7.747,4.743,2.044,-1.971,-5.283,-7.966,5.9,3,117.9,-7.777,-7.566,80,-8.096,-8.2,-4.507,-4.807,-4.637,-4.978,4.476,8.234,2,-1.83,1.916,4.408,7.73,-8.154,-7.758,-1.185,1.307,7.3,10.4,16.2,,-9.3,10.0,13.8,5.0,18.6,26.1,2,norm,1.716,1.425,-1.631,-1.932,-4.476,-4.568,-1.681,-1.775,-1.474,-1.717,1.751,-2.026,13.0,11.6,-5.0,-7.908,25.0,-1.434,8.487,4.783,-4.391,-8.135,26,5.218,5.216,4.695,5.134,1.535,1.616,1.904,1.478,26,5.281,4.412,-20,95.8942015366,norm,0,73,73,73,631.438,631.446,631.447897351,631.448,631.452,631.457,down,1,2.97934777888,7.02065222112,001,009,800_600,Intel(R) Core(TM) i7-2670QM CPU @ 2.20GHz,orientation_search,GRVLAPTOP3,Intel(R) HD Graphics Family,2018_jun_07_1225,testMonitor,
167.8,164.8,160.0,167.8,36,10,155.4,163.7,164.2,156.1,7.605,8.276,8.326,8.122,8.39,8.154,8.326,5.015,-4.984,-7.797,1.552,-1.677,7.844,5.068,-4.903,-7.937,166.5,166.3,-7.668,168.9,167.5,161.7,164.9,161.0,36,160.2,2,5,probe,5,0,69,norm,36,-4.558,up,norm,163.320269877,155.9,,1.575,161.9,4,153.3,173.3,164.2,10,3,7.596,4.359,1.314,-2.056,-5.06,-7.815,160.2,1,94.3,-7.935,-8.453,80,-8.113,-7.844,-4.306,-4.986,-4.429,-4.447,4.456,7.687,16,-1.984,1.161,5.097,8.458,-8.349,-8.215,-1.194,1.168,162.2,159.2,164.9,164.1,166.8,163.2,159.3,166.8,161.0,157.9,0,norm,1.835,1.488,-2.088,-1.139,-5.104,-5.24,-1.21,-1.455,-1.424,-1.158,1.644,-1.531,161.4,157.6,-4.953,-7.916,158.3,-1.851,7.64,5.234,-4.952,-8.479,27,5.256,4.637,4.334,4.893,1.916,1.52,1.468,1.403,27,4.482,4.91,80,8.90450803232,norm,0,74,74,74,634.448,634.455,634.457511582,634.458,634.462,634.467,up,1,2.35492383189,7.64507616811,001,009,800_600,Intel(R) Core(TM) i7-2670QM CPU @ 2.20GHz,orientation_search,GRVLAPTOP3,Intel(R) HD Graphics Family,2018_jun_07_1225,testMonitor,
294.4,308.9,287.2,300.5,36,-40,302.0,301.3,303.8,296.4,7.853,7.613,8.183,7.621,7.836,7.93,7.549,4.878,-5.007,-8.039,1.528,-2.059,7.815,4.369,-5.004,-8.235,303.9,305.8,-8.197,310.3,292.3,294.3,297.7,289.2,36,,4,5,prime,10,0,118,norm,36,-4.347,up,norm,301.614124445,291.5,296.1,1.293,293.4,3,299.3,310.2,300.7,10,2,7.815,5.032,1.208,-1.312,-4.476,-7.894,284.6,2,419.6,-8.379,-7.504,-40,-7.63,-8.493,-4.563,-4.379,-5.011,-4.37,5.099,8.253,27,-2.09,1.343,4.622,7.992,-7.675,-7.879,-1.329,1.137,306.2,310.8,305.2,309.8,287.0,321.6,293.7,290.7,314.1,298.4,0,norm,2.072,1.718,-1.975,-1.311,-4.694,-4.756,-1.636,-1.344,-1.977,-1.889,1.423,-1.357,281.6,284.4,-5.055,-7.779,294.6,-1.188,8.395,4.733,-5.217,-7.61,28,5.182,4.372,4.395,5.232,1.501,1.514,1.617,1.484,28,4.306,5.141,10,8.90450803232,norm,0,75,75,75,636.832,636.84,636.842514148,636.843,636.847,636.852,up,1,2.79162162452,7.20837837548,001,009,800_600,Intel(R) Core(TM) i7-2670QM CPU @ 2.20GHz,orientation_search,GRVLAPTOP3,Intel(R) HD Graphics Family,2018_jun_07_1225,testMonitor,
301.6,296.7,309.4,292.3,36,-40,299.0,304.6,296.6,307.2,7.872,7.544,7.807,8.107,7.953,7.656,7.985,4.335,-5.0,-7.917,1.427,-1.724,8.48,4.82,-5.121,-7.963,306.0,306.5,-7.783,318.3,294.7,310.6,293.4,319.1,36,321.6,0,5,prime,10,0,71,norm,36,-4.802,down,norm,301.614124445,298.1,293.3,1.325,281.6,0,291.3,303.8,303.4,10,2,7.857,4.824,1.467,-1.172,-5.067,-7.93,301.8,2,372.6,-8.111,-7.652,-40,-7.687,-8.425,-4.587,-4.899,-4.349,-4.331,4.675,7.674,0,-1.328,1.481,4.858,7.959,-8.473,-7.615,-1.623,1.362,296.0,313.2,302.6,312.8,307.7,,299.1,296.9,283.4,301.6,1,norm,1.722,1.429,-1.418,-1.693,-4.53,-4.737,-1.602,-1.34,-1.98,-1.393,1.196,-2.039,310.5,302.4,-4.497,-8.411,301.5,-1.746,7.501,4.864,-4.467,-7.904,28,5.006,5.133,4.397,4.817,1.456,1.394,1.786,1.437,28,5.134,4.744,10,8.90450803232,norm,0,76,76,76,639.655,639.662,639.664691272,639.665,639.669,639.674,down,1,3.22486391631,6.77513608369,001,009,800_600,Intel(R) Core(TM) i7-2670QM CPU @ 2.20GHz,orientation_search,GRVLAPTOP3,Intel(R) HD Graphics Family,2018_jun_07_1225,testMonitor,
330.7,326.3,337.8,338.8,36,30,327.4,334.2,324.0,328.7,8.462,8.474,7.595,7.727,8.025,7.925,7.571,4.702,-4.414,-8.019,1.215,-1.668,8.35,5.176,-5.247,-7.73,330.9,326.8,-8.433,334.1,335.7,339.3,330.0,,36,337.1,4,5,probe,5,0,69,norm,36,-5.249,down,norm,334.048751169,328.7,327.4,1.811,330.2,2,325.0,329.5,327.1,10,2,8.186,5.218,2.064,-1.472,-4.52,-7.825,332.7,2,265.0,-7.993,-8.353,-40,-7.722,-7.64,-4.366,-4.731,-4.821,-4.525,4.804,8.02,26,-1.554,1.105,5.087,8.445,-7.971,-7.766,-1.589,1.631,340.8,333.6,337.3,335.3,331.3,324.9,344.0,328.2,333.7,332.0,0,norm,1.934,2.011,-1.574,-1.399,-4.503,-4.453,-1.789,-1.883,-1.48,-1.163,1.245,-1.375,331.4,340.4,-4.956,-8.129,341.0,-1.235,7.756,4.898,-4.608,-8.418,29,5.133,4.622,4.718,4.518,1.482,1.638,1.449,1.22,29,4.708,4.501,-40,301.614124445,norm,0,77,77,77,642.91,642.918,642.919700698,642.92,642.924,642.929,up,0,1.04396097526,-10,001,009,800_600,Intel(R) Core(TM) i7-2670QM CPU @ 2.20GHz,orientation_search,GRVLAPTOP3,Intel(R) HD Graphics Family,2018_jun_07_1225,testMonitor,
364.1,356.0,368.5,366.2,36,30,368.0,367.0,367.6,362.7,8.005,8.333,7.578,7.842,8.12,7.849,8.256,5.035,-4.642,-7.843,1.685,-1.675,8.322,4.36,-5.008,-7.806,362.4,363.6,-8.356,369.1,358.7,367.9,364.3,371.0,36,368.6,3,5,probe,5,0,101,norm,36,-4.617,down,norm,366.048751169,365.7,365.5,1.739,364.6,0,376.0,362.2,372.8,10,2,7.913,4.503,1.891,-1.857,-5.255,-7.766,359.5,2,265.0,-8.33,-8.325,-40,-7.795,-8.264,-4.926,-4.646,-4.905,-4.948,5.175,8.197,18,-1.995,1.96,4.605,7.966,-8.251,-8.442,-1.345,2.035,372.5,371.1,365.3,364.8,375.3,358.1,365.7,363.1,360.5,365.6,1,norm,1.283,1.662,-1.337,-1.604,-4.518,-4.408,-1.717,-1.465,-1.846,-1.174,1.495,-1.384,370.2,,-5.166,-7.605,370.3,-1.439,7.842,4.853,-5.085,-7.843,29,4.473,5.026,4.724,5.077,1.786,1.425,1.365,1.411,29,4.824,4.906,-40,301.614124445,norm,0,78,78,78,644.983,644.991,644.993080593,644.993,644.997,645.002,up,0,4.52628165227,-10,001,009,800_600,Intel(R) Core(TM) i7-2670QM CPU @ 2.20GHz,orientation_search,GRVLAPTOP3,Intel(R) HD Graphics Family,2018_jun_07_1225,testMonitor,
220.2,213.0,214.0,220.2,36,20,216.4,211.4,205.8,212.9,7.777,7.585,7.812,8.322,8.055,7.715,8.125,4.719,-4.445,-7.925,1.646,-2.012,8.369,4.988,-4.963,-8.302,231.3,227.0,-8.374,222.8,215.9,197.9,230.5,219.5,36,222.2,2,5,prime,10,0,97,norm,36,-4.898,up,norm,213.699556461,,202.8,1.656,206.4,5,221.4,197.5,200.7,10,5,7.64,4.933,1.264,-2.004,-5.24,-8.12,218.2,5,310.7,-7.699,-8.085,20,-8.365,-7.63,-4.643,-4.556,-4.983,-4.733,4.744,8.046,17,-1.367,1.95,5.211,7.936,-7.898,-7.514,-2.022,1.249,217.9,226.0,201.2,209.4,209.5,206.2,195.3,211.9,193.7,222.0,0,norm,1.3,1.711,-1.182,-1.991,-4.318,-4.986,-1.771,-1.2,-1.191,-2.069,2.004,-1.912,233.7,228.9,-4.332,-7.655,202.8,-1.576,8.149,5.12,-4.551,-7.794,30,4.836,4.711,4.874,4.537,1.713,1.243,1.648,1.584,30,4.881,4.893,30,301.614124445,norm,0,79,79,79,650.552,650.559,650.561576792,650.562,650.566,650.571,up,1,1.68006825081,8.31993174919,001,009,800_600,Intel(R) Core(TM) i7-2670QM CPU @ 2.20GHz,orientation_search,GRVLAPTOP3,Intel(R) HD Graphics Family,2018_jun_07_1225,testMonitor,
219.7,210.7,202.3,195.6,36,20,221.1,224.7,217.8,222.4,8.201,7.694,8.107,8.209,7.501,8.498,7.533,4.49,-4.664,-8.028,1.573,-1.199,7.786,4.313,-5.038,-7.654,202.8,225.0,-8.124,213.2,215.6,,218.2,225.5,36,205.9,5,5,prime,10,0,109,norm,36,-4.421,up,norm,213.699556461,229.2,226.3,1.721,211.5,3,233.7,216.4,210.7,10,5,8.257,5.098,1.316,-1.128,-4.968,-7.645,213.2,5,322.7,-7.781,-8.464,20,-7.88,-8.461,-5.176,-5.082,-4.873,-5.297,4.694,8.364,33,-1.122,1.426,4.501,7.689,-7.517,-7.938,-1.722,2.096,232.3,215.4,198.9,208.2,223.2,194.8,218.3,232.1,219.3,193.7,1,norm,2.07,1.33,-1.801,-1.844,-4.304,-5.27,-1.417,-1.678,-1.467,-1.561,1.763,-1.334,226.5,221.9,-4.923,-7.575,211.4,-1.991,8.119,5.242,-4.491,-8.285,30,4.89,4.969,4.429,4.846,1.542,1.806,2.044,1.821,30,4.797,4.868,30,301.614124445,norm,0,80,80,80,652.263,652.27,652.272538154,652.273,652.277,652.282,up,1,2.71065130121,7.28934869879,001,009,800_600,Intel(R) Core(TM) i7-2670QM CPU @ 2.20GHz,orientation_search,GRVLAPTOP3,Intel(R) HD Graphics Family,2018_jun_07_1225,testMonitor,
203.7,214.4,205.5,213.0,36,20,205.6,203.6,205.4,226.3,7.769,7.682,8.351,7.966,7.753,8.413,8.251,5.291,-5.144,-7.755,1.559,-1.921,8.424,5.283,-5.292,-8.126,202.3,204.5,-7.919,195.4,194.1,214.9,203.8,219.0,36,193.7,0,5,prime,10,0,76,norm,36,-4.618,down,norm,213.699556461,197.3,204.0,1.58,205.5,1,219.7,233.7,215.7,10,5,8.484,4.383,1.41,-1.797,-4.632,-8.179,216.0,5,289.7,-8.312,-7.587,20,-8.49,-8.042,-4.569,-5.122,-4.336,-4.937,4.313,8.255,1,-1.994,1.989,4.329,7.69,-7.856,-8.036,-1.601,1.65,233.6,203.0,205.8,209.3,,223.8,225.6,216.0,214.6,218.1,2,norm,1.765,1.783,-1.476,-1.183,-4.744,-4.646,-1.794,-1.48,-1.717,-1.649,1.487,-1.725,225.4,214.6,-4.706,-7.719,221.6,-1.993,7.707,4.857,-4.684,-7.559,30,4.581,5.223,4.361,4.359,1.606,1.635,1.965,1.857,30,5.127,5.109,30,301.614124445,norm,0,81,81,81,655.003,655.011,655.013512876,655.014,655.018,655.023,up,0,4.56431877836,-10,001,009,800_600,Intel(R) Core(TM) i7-2670QM CPU @ 2.20GHz,orientation_search,GRVLAPTOP3,Intel(R) HD Graphics Family,2018_jun_07_1225,testMonitor,
203.4,207.7,212.8,231.6,36,20,210.0,201.4,218.1,226.8,7.626,8.342,7.938,8.337,7.711,7.929,7.837,4.568,-5.011,-7.834,1.377,-1.84,7.54,4.497,-5.137,-8.459,206.7,205.1,-8.017,204.2,233.7,203.4,203.3,212.2,36,202.1,1,5,prime,10,0,117,norm,36,-5.203,down,norm,213.699556461,225.8,203.6,2.042,216.7,0,228.7,224.9,213.7,10,5,7.666,4.691,1.718,-1.131,-4.643,-8.012,230.2,5,330.7,-8.25,-7.871,20,-8.107,-7.76,-5.155,-5.083,-4.586,-4.769,4.877,7.99,6,-2.093,1.847,5.184,7.995,-7.89,-7.597,-1.116,2.039,203.4,211.6,231.6,215.3,201.8,212.4,230.0,,220.4,193.7,3,norm,1.186,1.707,-2.055,-1.4,-4.414,-5.258,-1.625,-1.697,-1.237,-1.518,1.699,-1.909,226.6,220.8,-4.726,-8.01,205.1,-1.223,8.473,4.401,-4.701,-7.967,30,5.168,5.203,4.817,4.468,1.452,1.906,1.945,1.469,30,4.501,4.422,30,301.614124445,norm,0,82,82,82,660.598,660.606,660.608302635,660.609,660.613,660.618,down,1,2.7966605853,7.2033394147,001,009,800_600,Intel(R) Core(TM) i7-2670QM CPU @ 2.20GHz,orientation_search,GRVLAPTOP3,Intel(R) HD Graphics Family,2018_jun_07_1225,testMonitor,
202.8,206.2,211.8,215.7,36,20,205.5,213.2,224.4,226.0,7.58,8.214,7.579,8.276,8.461,8.138,8.214,4.845,-5.238,-8.391,2.049,-2.085,7.548,4.761,-5.084,-7.683,200.4,209.3,-7.55,210.8,218.0,199.8,197.1,219.0,36,214.2,0,5,prime,10,0,74,norm,36,-4.498,up,norm,213.699556461,208.2,202.5,1.508,218.3,4,198.1,224.7,207.8,10,5,8.215,4.54,1.977,-1.195,-4.512,-8.329,223.0,5,287.7,-7.723,-7.993,20,-8.434,-8.445,-4.31,-4.605,-4.593,-4.367,4.921,8.075,4,-1.292,1.986,5.152,7.934,-8.019,-7.689,-1.621,1.328,209.4,231.3,212.4,193.7,206.9,220.1,213.5,200.7,233.7,,4,norm,1.828,1.81,-2.056,-1.644,-4.416,-4.546,-1.864,-1.282,-1.676,-2.089,1.355,-1.446,209.9,212.8,-4.635,-7.562,218.7,-1.51,7.655,4.632,-4.451,-8.462,30,4.436,4.765,4.69,4.574,1.448,1.527,1.581,1.232,30,4.996,4.902,30,301.614124445,norm,0,83,83,83,663.425,663.433,663.43521146,663.436,663.44,663.444,up,1,3.98089528291,6.01910471709,001,009,800_600,Intel(R) Core(TM) i7-2670QM CPU @ 2.20GHz,orientation_search,GRVLAPTOP3,Intel(R) HD Graphics Family,2018_jun_07_1225,testMonitor,
314.6,314.7,309.4,309.4,36,-20,315.4,301.6,304.1,303.3,8.449,7.53,8.039,7.581,8.054,7.965,7.588,5.204,-4.847,-8.14,1.1,-1.643,8.206,4.494,-5.23,-7.837,308.6,317.0,-7.901,311.6,308.7,301.8,299.7,303.0,36,307.7,2,5,probe,5,0,69,norm,36,-4.917,up,norm,307.015742652,310.2,310.5,1.262,314.3,3,305.5,297.2,301.1,10,5,8.415,5.005,2.072,-1.269,-4.523,-7.537,298.8,2,238.0,-8.223,-8.235,20,-7.519,-7.873,-5.139,-5.064,-4.526,-5.018,4.724,8.204,15,-1.92,1.208,4.812,8.184,-8.448,-7.988,-1.399,1.642,308.3,313.3,299.4,309.7,312.0,305.6,302.0,300.2,299.8,297.0,0,norm,2.035,1.962,-1.929,-2.021,-4.573,-4.43,-1.944,-2.001,-1.179,-1.553,1.602,-1.367,309.3,304.6,-5.11,-8.11,,-1.446,8.191,5.09,-4.329,-8.184,31,4.373,4.879,4.591,4.694,1.574,1.825,1.253,1.487,31,4.95,4.944,20,213.699556461,norm,0,84,84,84,667.436,667.444,667.446097222,667.447,667.45,667.455,up,1,2.82669449123,7.17330550877,001,009,800_600,Intel(R) Core(TM) i7-2670QM CPU @ 2.20GHz,orientation_search,GRVLAPTOP3,Intel(R) HD Graphics Family,2018_jun_07_1225,testMonitor,
323.4,316.4,321.0,315.5,36,-20,314.3,316.0,316.1,322.8,8.308,7.662,8.165,8.328,8.441,8.065,8.199,4.702,-4.558,-7.544,2.093,-1.834,7.859,4.612,-4.732,-7.619,312.0,321.7,-8.27,318.1,325.7,315.9,320.6,322.6,36,320.2,2,5,probe,5,0,80,norm,36,-4.857,down,norm,318.015742652,314.1,322.8,1.153,,2,319.8,320.7,314.4,10,5,8.176,5.243,1.238,-1.871,-4.532,-8.305,317.9,2,238.0,-7.726,-8.13,20,-8.238,-7.564,-4.622,-4.608,-5.113,-4.359,4.588,7.996,14,-2.003,1.503,4.305,8.217,-8.453,-7.949,-1.141,1.287,320.2,320.8,314.1,308.0,326.6,328.0,316.0,319.1,318.6,319.6,1,norm,1.38,1.605,-2.067,-1.458,-4.481,-4.583,-1.533,-1.162,-1.677,-1.436,1.72,-1.755,324.5,323.7,-4.368,-8.36,327.8,-1.635,8.273,4.491,-4.891,-8.34,31,5.187,5.038,4.583,5.089,1.509,1.965,1.449,1.745,31,4.635,4.731,20,213.699556461,norm,0,85,85,85,670.293,670.3,670.302618289,670.303,670.307,670.312,down,1,1.6197375407,8.3802624593,001,009,800_600,Intel(R) Core(TM) i7-2670QM CPU @ 2.20GHz,orientation_search,GRVLAPTOP3,Intel(R) HD Graphics Family,2018_jun_07_1225,testMonitor,
119.6,133.7,96.8,95.6,36,10,132.3,111.5,117.9,120.5,7.66,7.582,8.254,7.981,7.845,7.808,8.18,5.055,-5.181,-7.87,1.559,-1.262,7.903,5.282,-5.181,-7.866,104.7,122.9,-8.058,109.5,103.8,128.4,132.0,124.6,36,125.4,2,5,prime,10,0,62,norm,36,-4.421,down,norm,115.596508953,122.6,111.8,1.802,122.2,1,112.5,,125.3,10,2,7.633,4.963,1.709,-1.274,-4.508,-8.164,117.6,2,177.6,-8.149,-8.371,10,-8.316,-7.995,-5.06,-4.783,-4.351,-4.855,5.248,7.697,13,-1.331,1.576,4.991,7.845,-7.551,-7.679,-1.971,1.839,107.3,128.9,116.0,120.1,135.6,115.4,103.8,107.1,119.6,128.7,0,norm,1.419,1.821,-2.024,-1.468,-4.758,-5.28,-2.051,-1.678,-1.923,-1.773,1.858,-1.579,117.9,119.2,-4.89,-8.163,112.8,-2.079,8.152,4.367,-4.844,-8.194,32,5.296,4.567,5.129,5.066,1.748,1.427,1.477,1.226,32,4.368,4.965,-20,213.699556461,norm,0,86,86,86,671.943,671.951,671.952968766,671.953,671.957,671.962,down,1,2.27439805409,7.72560194591,001,009,800_600,Intel(R) Core(TM) i7-2670QM CPU @ 2.20GHz,orientation_search,GRVLAPTOP3,Intel(R) HD Graphics Family,2018_jun_07_1225,testMonitor,
104.1,125.6,135.6,123.8,36,10,100.2,105.5,120.3,112.8,7.794,7.687,8.395,7.727,8.465,8.318,8.069,4.372,-4.836,-7.839,1.267,-1.224,8.079,4.494,-4.588,-8.481,109.5,122.3,-8.168,110.3,130.0,117.9,124.1,114.8,36,130.0,0,5,prime,10,0,112,norm,36,-4.875,down,norm,115.596508953,119.4,128.4,1.567,110.9,2,112.1,117.0,95.6,10,2,8.427,4.657,1.967,-1.124,-4.563,-8.465,109.7,2,227.6,-8.357,-8.211,10,-7.895,-8.257,-4.606,-4.763,-4.464,-5.152,4.974,8.115,2,-1.831,1.739,5.126,8.433,-8.441,-7.785,-1.833,1.868,117.8,121.5,122.9,,120.5,121.9,111.0,116.8,119.0,109.4,1,norm,2.043,1.833,-1.504,-1.154,-4.321,-4.697,-1.113,-1.767,-1.316,-1.417,1.239,-1.421,114.3,114.7,-5.166,-8.073,111.9,-1.638,7.642,4.934,-4.795,-8.291,32,4.326,4.391,4.839,5.128,1.295,1.984,1.931,1.288,32,4.879,4.966,-20,213.699556461,norm,0,87,87,87,674.247,674.255,674.257339554,674.258,674.262,674.267,up,0,1.85529156256,-10,001,009,800_600,Intel(R) Core(TM) i7-2670QM CPU @ 2.20GHz,orientation_search,GRVLAPTOP3,Intel(R) HD Graphics Family,2018_jun_07_1225,testMonitor,
211.5,216.5,205.2,204.9,36,-30,216.1,219.1,212.3,210.6,7.91,7.834,7.631,8.255,8.176,7.964,7.996,4.604,-4.864,-8.298,1.614,-1.691,8.094,4.76,-4.607,-8.417,204.8,215.8,-7.817,207.6,217.7,214.0,211.5,220.7,36,211.9,0,5,probe,5,0,81,norm,36,-4.325,up,norm,211.035738118,201.0,221.0,1.597,213.8,5,213.2,204.0,210.5,10,2,8.128,4.42,2.045,-1.471,-4.99,-7.863,203.0,2,130.0,-8.351,-7.994,10,-7.811,-8.156,-5.155,-5.117,-5.006,-5.229,4.307,8.271,5,-1.902,2.061,5.101,7.786,-7.857,-7.55,-1.329,2.052,217.4,215.6,214.9,218.7,207.1,220.9,205.0,217.0,,216.8,0,norm,1.998,2.027,-1.832,-1.294,-4.494,-4.484,-1.428,-2.012,-1.731,-1.943,1.303,-1.408,218.4,206.4,-4.958,-8.467,209.6,-1.743,7.779,4.578,-4.376,-7.789,33,4.672,4.828,4.855,4.599,1.935,1.567,1.397,1.101,33,4.795,4.675,10,115.596508953,norm,0,88,88,88,677.134,677.143,677.145458841,677.146,677.15,677.155,up,1,1.4868039559,8.5131960441,001,009,800_600,Intel(R) Core(TM) i7-2670QM CPU @ 2.20GHz,orientation_search,GRVLAPTOP3,Intel(R) HD Graphics Family,2018_jun_07_1225,testMonitor,
237.6,236.2,238.2,238.8,36,-30,234.5,231.4,240.9,241.7,7.907,8.016,8.467,8.19,7.677,8.263,7.628,4.723,-4.351,-7.756,1.569,-1.824,8.143,4.664,-4.551,-7.665,235.8,236.1,-8.079,234.2,239.2,249.0,241.5,237.0,36,233.1,1,5,probe,5,0,109,norm,36,-5.002,down,norm,239.035738118,237.0,244.4,1.998,243.6,2,234.8,233.8,230.1,10,2,8.25,4.917,1.816,-1.829,-4.429,-7.777,237.7,2,130.0,-7.934,-7.899,10,-7.515,-7.871,-4.666,-4.939,-4.726,-5.008,4.609,8.255,8,-1.492,1.259,4.647,8.202,-8.246,-7.879,-1.279,1.446,240.2,,243.1,236.8,240.9,231.2,240.6,233.4,238.7,235.9,1,norm,1.722,2.098,-1.365,-1.937,-4.405,-4.954,-1.42,-1.256,-1.946,-1.472,1.827,-2.012,239.8,231.9,-4.517,-8.024,229.0,-1.474,7.634,4.899,-4.398,-8.468,33,5.217,4.438,5.232,4.51,2.007,1.233,2.028,1.273,33,4.602,4.367,10,115.596508953,norm,0,89,89,89,678.653,678.66,678.662101514,678.663,678.667,678.672,down,1,2.82562281901,7.17437718099,001,009,800_600,Intel(R) Core(TM) i7-2670QM CPU @ 2.20GHz,orientation_search,GRVLAPTOP3,Intel(R) HD Graphics Family,2018_jun_07_1225,testMonitor,
96.1,104.1,93.6,100.5,36,-20,93.0,91.6,92.7,93.5,7.672,8.468,7.718,8.094,7.906,7.711,7.575,4.875,-5.068,-7.703,1.34,-1.921,8.023,5.272,-4.445,-7.911,96.6,105.5,-8.05,117.7,85.7,113.2,88.9,98.9,36,101.0,2,5,prime,10,0,116,norm,36,-5.135,down,norm,97.7101218235,85.3,102.9,2.09,88.1,0,93.8,92.6,,10,2,8.294,4.771,2.068,-1.12,-4.36,-8.489,88.7,2,213.7,-7.894,-7.6,-20,-8.062,-7.644,-4.78,-4.416,-4.877,-4.389,5.139,7.524,12,-1.282,1.202,4.473,7.936,-8.459,-8.327,-1.353,1.128,77.7,96.9,99.6,113.0,92.0,95.1,91.5,108.7,89.8,86.0,0,norm,1.452,2.064,-1.143,-1.708,-4.468,-4.765,-1.824,-1.541,-1.381,-1.554,1.519,-1.381,107.5,94.8,-4.609,-8.448,96.1,-2.048,8.251,5.047,-4.464,-7.902,34,4.619,5.078,5.145,4.387,2.044,1.765,1.383,1.426,34,4.952,4.561,-30,115.596508953,norm,0,90,90,90,681.509,681.517,681.519298739,681.52,681.524,681.529,down,1,3.69352976143,6.30647023857,001,009,800_600,Intel(R) Core(TM) i7-2670QM CPU @ 2.20GHz,orientation_search,GRVLAPTOP3,Intel(R) HD Graphics Family,2018_jun_07_1225,testMonitor,
100.6,91.4,96.1,106.6,36,-20,92.1,87.7,81.6,77.7,7.78,8.386,8.142,7.959,7.899,8.321,8.309,4.587,-5.061,-7.819,1.225,-1.341,8.167,4.347,-5.172,-8.384,99.3,99.5,-7.505,84.7,105.9,90.8,117.7,91.9,36,97.7,0,5,prime,10,0,74,norm,36,-4.835,down,norm,97.7101218235,93.3,95.8,1.412,102.3,0,83.6,86.2,95.5,10,2,8.057,4.798,1.924,-2.084,-5.017,-8.297,88.0,2,171.7,-8.254,-8.329,-20,-8.035,-8.239,-4.747,-4.593,-5.165,-4.78,4.395,8.189,0,-1.314,1.499,5.195,8.397,-8.357,-7.623,-2.097,1.22,91.0,93.6,101.6,97.0,97.3,,92.4,92.7,89.3,105.1,1,norm,1.346,1.588,-1.182,-1.984,-4.517,-4.798,-1.998,-2.084,-1.546,-1.629,1.446,-1.769,99.1,102.8,-4.367,-7.816,94.2,-1.469,8.28,4.787,-4.768,-7.545,34,4.866,4.52,5.066,5.085,1.875,1.73,1.261,1.513,34,4.678,4.766,-30,115.596508953,norm,0,91,91,91,685.233,685.24,685.242823649,685.243,685.247,685.252,down,1,3.55250843679,6.44749156321,001,009,800_600,Intel(R) Core(TM) i7-2670QM CPU @ 2.20GHz,orientation_search,GRVLAPTOP3,Intel(R) HD Graphics Family,2018_jun_07_1225,testMonitor,
145.8,147.9,142.6,139.7,36,20,137.4,141.2,151.9,146.0,8.417,7.56,8.147,7.734,7.993,7.603,7.913,4.447,-5.291,-7.638,1.234,-1.682,7.584,4.688,-4.38,-7.581,144.4,142.2,-8.124,140.6,142.8,138.9,148.9,139.4,36,142.9,1,5,probe,5,0,68,norm,36,-4.679,down,norm,141.851116771,144.5,137.5,1.117,133.7,0,136.3,144.2,134.7,10,2,8.145,4.527,1.219,-1.613,-4.423,-8.395,131.9,2,73.9,-7.639,-7.664,-20,-8.336,-7.504,-5.098,-5.217,-5.228,-5.063,4.684,7.646,6,-1.879,1.272,5.231,7.662,-8.087,-8.237,-1.437,1.368,139.2,143.7,135.4,135.6,145.0,133.3,144.3,,142.0,142.3,0,norm,1.323,1.418,-1.639,-2.02,-4.974,-5.282,-1.113,-1.771,-1.869,-1.791,1.463,-1.595,142.0,140.6,-4.675,-8.153,142.5,-1.455,7.593,4.828,-4.638,-7.913,35,4.59,5.005,4.796,4.46,1.923,1.682,1.94,1.285,35,4.825,4.86,-20,97.7101218235,norm,0,92,92,92,688.815,688.823,688.825609744,688.826,688.83,688.835,down,1,1.8498584879,8.1501415121,001,009,800_600,Intel(R) Core(TM) i7-2670QM CPU @ 2.20GHz,orientation_search,GRVLAPTOP3,Intel(R) HD Graphics Family,2018_jun_07_1225,testMonitor,
143.6,155.9,145.0,146.4,36,20,140.7,147.7,138.5,142.0,8.248,8.277,7.509,7.897,7.964,8.395,8.466,4.971,-5.026,-7.763,1.898,-1.167,8.307,4.847,-4.525,-7.865,140.6,143.1,-7.672,150.5,150.4,143.7,148.5,139.9,36,147.8,2,5,probe,5,0,72,norm,36,-4.809,up,norm,145.851116771,,146.7,1.528,143.7,5,148.0,146.6,155.5,10,2,7.729,4.459,1.2,-1.864,-4.584,-7.714,135.9,2,73.9,-8.08,-8.129,-20,-8.234,-7.673,-4.916,-4.535,-5.09,-4.812,4.515,7.892,17,-1.371,1.993,4.359,8.457,-7.721,-8.403,-1.959,1.647,146.5,141.3,150.1,154.0,145.8,148.8,143.3,152.6,140.4,150.3,1,norm,1.682,1.823,-1.454,-1.113,-5.221,-4.524,-1.874,-2.081,-2.006,-1.978,1.108,-1.908,143.7,146.2,-4.986,-8.344,148.0,-1.575,7.665,5.161,-4.815,-7.927,35,4.766,5.064,5.175,5.282,2.014,1.467,1.538,1.415,35,5.094,4.416,-20,97.7101218235,norm,0,93,93,93,690.696,690.704,690.705951353,690.706,690.71,690.715,up,1,0.820010431877,9.17998956812,001,009,800_600,Intel(R) Core(TM) i7-2670QM CPU @ 2.20GHz,orientation_search,GRVLAPTOP3,Intel(R) HD Graphics Family,2018_jun_07_1225,testMonitor,
25.1,36.0,33.9,16.4,36,-60,36.0,40.7,21.8,31.2,7.604,8.4,7.709,8.039,7.965,8.148,7.614,5.112,-4.333,-8.45,1.901,-1.668,8.421,4.998,-4.477,-7.753,23.2,25.3,-8.23,32.0,,16.3,32.8,25.5,36,32.7,5,5,prime,10,0,91,norm,36,-5.155,down,norm,28.9909818756,42.9,35.1,1.858,24.6,0,16.7,19.4,26.3,10,5,7.689,5.18,1.458,-1.556,-5.233,-8.01,16.6,5,120.0,-8.076,-8.025,-60,-8.226,-7.742,-4.316,-5.004,-4.629,-4.601,4.658,7.528,30,-1.491,1.216,4.589,7.643,-8.313,-7.978,-1.207,1.629,9.0,14.3,36.4,20.3,49.0,36.1,31.7,18.5,28.3,29.4,0,norm,1.315,1.546,-1.546,-1.476,-4.641,-5.154,-1.679,-1.38,-1.389,-1.813,1.595,-1.735,27.2,38.5,-4.721,-7.578,27.1,-1.831,8.038,5.01,-4.575,-8.296,36,5.116,4.304,4.583,4.49,1.527,1.572,1.738,2.022,36,4.648,4.794,20,97.7101218235,norm,0,94,94,94,691.546,691.554,691.556192281,691.557,691.561,691.566,down,1,1.11154123276,8.88845876724,001,009,800_600,Intel(R) Core(TM) i7-2670QM CPU @ 2.20GHz,orientation_search,GRVLAPTOP3,Intel(R) HD Graphics Family,2018_jun_07_1225,testMonitor,
37.7,28.3,20.8,34.8,36,-60,18.4,25.5,27.2,38.3,8.4,8.354,8.28,8.194,7.845,8.29,7.787,5.187,-4.758,-7.514,1.399,-1.755,8.121,4.819,-4.861,-8.454,43.0,21.7,-7.763,26.4,27.3,32.3,,40.3,36,9.0,5,5,prime,10,0,108,norm,36,-5.238,down,norm,28.9909818756,35.3,16.8,1.964,39.4,2,32.9,24.4,35.8,10,5,7.646,5.03,1.64,-1.603,-4.493,-8.305,39.6,5,137.0,-7.612,-7.764,-60,-8.26,-7.997,-4.514,-5.148,-4.747,-4.948,5.183,7.73,32,-1.642,1.463,5.135,7.511,-8.022,-8.092,-2.095,1.962,11.7,32.9,42.0,49.0,29.8,31.5,39.9,26.3,24.9,23.3,1,norm,1.586,1.485,-1.161,-1.994,-4.666,-4.947,-1.217,-1.14,-1.706,-1.814,1.732,-1.18,25.0,25.1,-4.552,-7.688,21.8,-1.111,7.913,5.267,-4.927,-8.469,36,5.109,4.584,4.337,4.304,1.779,1.638,1.547,1.118,36,4.403,4.538,20,97.7101218235,norm,0,95,95,95,692.689,692.697,692.70097263,692.701,692.705,692.71,up,0,1.10230850805,-10,001,009,800_600,Intel(R) Core(TM) i7-2670QM CPU @ 2.20GHz,orientation_search,GRVLAPTOP3,Intel(R) HD Graphics Family,2018_jun_07_1225,testMonitor,
