d_ori_22,d_ori_23,d_ori_20,d_ori_21,set_size,ctpd,d_ori_24,d_ori_25,d_ori_28,d_ori_29,stim_pos_x_30,stim_pos_x_31,stim_pos_x_32,stim_pos_x_33,stim_pos_x_34,stim_pos_x_35,stim_pos_y_11,stim_pos_y_10,stim_pos_y_13,stim_pos_y_12,stim_pos_y_15,stim_pos_y_14,stim_pos_y_17,stim_pos_y_16,stim_pos_y_19,stim_pos_y_18,d_ori_35,d_ori_34,stim_pos_x_3,d_ori_31,d_ori_30,d_ori_33,d_ori_32,d_ori_26,test_set_size,d_ori_27,targetCol,dsd_test,seq_type,dsd,blockRepN,targetDist,dtype_test,prime_set_size,stim_pos_y_25,correctResponse,dtype,distrMean,d_ori_17,d_ori_16,stim_pos_y_3,d_ori_14,targetRow,d_ori_11,d_ori_13,d_ori_12,dsd_prime,streak_length_prime,stim_pos_y_35,stim_pos_y_34,stim_pos_y_33,stim_pos_y_32,stim_pos_y_31,stim_pos_y_30,d_ori_10,nextProbe,targetOri,stim_pos_x_1,stim_pos_x_2,ctpd_prime,stim_pos_x_4,stim_pos_x_5,stim_pos_x_6,stim_pos_x_7,stim_pos_x_8,stim_pos_x_9,stim_pos_y_28,stim_pos_y_29,targetPos,stim_pos_y_20,stim_pos_y_21,stim_pos_y_22,stim_pos_y_23,stim_pos_y_24,stim_pos_x_0,stim_pos_y_26,stim_pos_y_27,d_ori_9,d_ori_8,d_ori_3,d_ori_2,d_ori_1,d_ori_0,d_ori_7,d_ori_6,d_ori_5,d_ori_4,trialN,dtype_prime,stim_pos_x_18,stim_pos_x_19,stim_pos_x_12,stim_pos_x_13,stim_pos_x_10,stim_pos_x_11,stim_pos_x_16,stim_pos_x_17,stim_pos_x_14,stim_pos_x_15,stim_pos_y_9,stim_pos_y_8,d_ori_19,d_ori_18,stim_pos_y_1,stim_pos_y_0,d_ori_15,stim_pos_y_2,stim_pos_y_5,stim_pos_y_4,stim_pos_y_7,stim_pos_y_6,totBlockN,stim_pos_x_27,stim_pos_x_26,stim_pos_x_25,stim_pos_x_24,stim_pos_x_23,stim_pos_x_22,stim_pos_x_21,stim_pos_x_20,blockN,stim_pos_x_29,stim_pos_x_28,prevDistrCTPD,prevDistrMean,prevDistrType,trials.thisRepN,trials.thisTrialN,trials.thisN,trials.thisIndex,timeStart,timeBeforeDraw,timeDraw,timeAfterSaving,timeAfterWritingToTemp,timeAfterPreparingNext,answer,correct,rt,trialScore,session,participant,resolution,cpu_info,expName,pc_name,graphic_card,date,monitorName,
126.5,143.0,143.6,143.0,36,-60,135.8,145.2,137.0,150.8,7.92,8.323,8.331,8.062,8.261,7.74,8.119,5.207,-4.358,-8.358,1.129,-1.635,7.729,4.932,-4.655,-7.623,156.2,150.2,-8.135,146.3,144.5,148.8,140.1,,36,163.7,4,5,prime,10,0,83,norm,36,-4.953,down,norm,143.679933922,127.5,133.8,2.031,145.4,2,146.3,123.7,142.7,10,6,7.918,4.922,1.686,-1.443,-5.294,-7.543,152.3,6,226.7,-8.347,-8.215,-60,-7.84,-8.117,-4.716,-5.135,-4.643,-4.507,5.235,7.973,26,-1.718,1.49,5.22,8.482,-7.598,-8.232,-1.632,1.728,139.3,138.8,140.2,142.5,130.4,150.9,148.3,155.0,156.7,152.6,0,norm,1.665,1.634,-1.352,-1.4,-4.388,-4.513,-1.158,-2.073,-1.282,-1.572,2.094,-1.206,158.5,149.1,-4.424,-8.483,145.0,-2.085,8.436,4.96,-4.333,-7.74,0,4.805,5.173,4.878,4.703,1.425,1.603,1.563,1.293,0,4.508,4.467,,,,0,0,0,0,326.434,326.444,326.450906246,326.451,326.451,326.454,down,1,0.881247526157,9.11875247384,001,022,800_600,Intel(R) Core(TM) i5-4200U CPU @ 1.60GHz,orientation_search,GRVLAPTOP8,Intel(R) HD Graphics 4400,2018_jul_31_1514,testMonitor,
126.2,140.1,139.2,139.8,36,-60,131.2,145.9,133.4,147.0,8.02,8.119,8.057,7.854,7.713,7.588,7.815,5.091,-4.32,-7.881,1.869,-1.121,7.923,4.836,-4.666,-7.553,123.7,154.8,-8.196,134.0,139.9,154.8,145.0,152.2,36,146.4,2,5,prime,10,0,117,norm,36,-4.983,up,norm,143.679933922,130.3,,2.098,144.3,4,151.4,150.6,145.0,10,6,7.503,4.958,1.847,-1.44,-4.748,-7.758,137.9,6,260.7,-7.811,-7.557,-60,-7.609,-8.111,-5.119,-4.968,-4.417,-4.542,5.074,8.021,16,-1.754,1.646,4.548,7.802,-7.905,-8.312,-1.605,1.536,163.7,132.0,144.3,148.5,137.7,142.1,139.1,134.7,133.7,137.6,1,norm,1.923,1.739,-1.61,-1.892,-4.936,-4.632,-1.848,-2.096,-1.68,-1.288,1.331,-1.668,150.5,139.6,-4.653,-8.311,159.0,-1.561,7.692,4.319,-4.831,-8.398,0,4.687,5.08,4.459,5.298,1.893,1.115,1.727,1.759,0,5.093,5.075,,,,0,1,1,1,327.36,327.378,327.385150117,327.386,327.389,327.392,up,1,1.40715242261,8.59284757739,001,022,800_600,Intel(R) Core(TM) i5-4200U CPU @ 1.60GHz,orientation_search,GRVLAPTOP8,Intel(R) HD Graphics 4400,2018_jul_31_1514,testMonitor,
155.1,125.8,159.6,146.5,36,-60,131.1,144.4,135.0,,8.389,7.565,7.517,7.969,7.905,8.326,8.002,4.604,-4.3,-8.33,1.985,-1.68,7.88,5.042,-4.655,-7.899,143.1,129.9,-7.758,154.7,163.7,131.6,143.5,142.8,36,139.4,4,5,prime,10,0,68,norm,36,-4.306,up,norm,143.679933922,144.3,123.7,1.424,140.3,5,143.3,142.6,138.8,10,6,7.565,4.641,1.657,-1.415,-4.792,-7.503,139.7,6,211.7,-7.899,-7.777,-60,-8.064,-7.821,-4.687,-5.176,-4.904,-4.586,4.645,8.192,29,-1.31,1.883,4.972,7.682,-8.339,-8.466,-1.705,1.795,125.1,140.6,136.0,144.8,147.8,157.1,144.9,145.1,138.6,151.5,2,norm,1.861,1.98,-1.338,-1.578,-4.882,-4.649,-1.321,-1.824,-1.848,-1.168,1.676,-1.222,156.2,146.2,-4.754,-8.214,125.7,-1.638,7.653,4.352,-5.299,-7.725,0,4.409,4.989,4.566,5.058,2.076,1.363,1.269,1.989,0,5.285,5.198,,,,0,2,2,2,328.823,328.839,328.84146613,328.842,328.844,328.848,down,0,1.48174677937,-10,001,022,800_600,Intel(R) Core(TM) i5-4200U CPU @ 1.60GHz,orientation_search,GRVLAPTOP8,Intel(R) HD Graphics 4400,2018_jul_31_1514,testMonitor,
154.7,145.4,143.0,142.6,36,-60,125.0,140.6,,144.5,7.725,7.99,8.356,7.744,7.551,7.975,8.048,4.483,-4.474,-8.03,1.843,-2.056,7.718,5.239,-5.161,-8.328,123.7,140.9,-7.834,143.1,152.3,149.5,144.6,133.8,36,134.8,4,5,prime,10,0,119,norm,36,-4.627,up,norm,143.679933922,142.2,142.5,1.953,131.4,4,150.7,160.8,137.9,10,6,8.23,4.899,1.461,-1.545,-4.848,-8.488,147.7,6,262.7,-7.747,-8.444,-60,-7.945,-7.972,-4.758,-4.784,-4.731,-4.461,5.274,8.403,28,-1.635,1.989,5.159,7.655,-7.913,-7.514,-1.866,1.999,147.0,139.2,151.7,138.6,163.7,131.9,150.1,129.1,142.2,156.4,3,norm,1.981,1.811,-1.464,-1.195,-4.457,-4.391,-1.108,-1.676,-1.403,-1.875,1.57,-1.987,140.5,130.0,-4.605,-7.976,156.4,-1.588,7.756,4.91,-4.928,-8.367,0,4.596,4.487,4.729,4.909,2.086,1.451,1.479,1.143,0,4.648,4.948,,,,0,3,3,3,331.365,331.371,331.374372531,331.375,331.377,331.38,up,1,4.93816364243,5.06183635757,001,022,800_600,Intel(R) Core(TM) i5-4200U CPU @ 1.60GHz,orientation_search,GRVLAPTOP8,Intel(R) HD Graphics 4400,2018_jul_31_1514,testMonitor,
126.7,157.7,,145.9,36,-60,151.7,137.8,161.3,140.2,7.943,7.755,8.177,8.136,8.243,8.027,7.985,4.859,-4.77,-8.353,1.295,-1.985,8.441,5.16,-4.538,-8.203,150.0,144.2,-7.984,134.1,147.2,137.1,136.3,158.2,36,133.9,3,5,prime,10,0,78,norm,36,-4.325,down,norm,143.679933922,135.4,133.1,1.997,141.6,2,134.8,140.8,148.3,10,6,7.897,5.071,1.466,-1.292,-4.577,-7.711,129.7,6,221.7,-8.49,-8.485,-60,-7.942,-7.909,-4.847,-5.28,-4.688,-4.749,4.531,8.089,20,-1.125,2.059,4.495,7.55,-7.948,-8.004,-1.785,1.233,144.9,154.7,130.7,129.0,162.0,146.3,123.7,141.6,141.4,163.7,4,norm,1.605,1.244,-1.846,-1.54,-4.956,-4.596,-1.375,-1.322,-1.984,-1.189,1.376,-1.853,157.4,130.0,-4.468,-8.235,154.2,-1.775,7.642,4.377,-4.989,-7.74,0,4.353,5.134,4.965,4.35,1.853,1.724,1.324,2.07,0,4.431,4.418,,,,0,4,4,4,336.338,336.356,336.35980012,336.36,336.363,336.367,down,1,1.09869309716,8.90130690284,001,022,800_600,Intel(R) Core(TM) i5-4200U CPU @ 1.60GHz,orientation_search,GRVLAPTOP8,Intel(R) HD Graphics 4400,2018_jul_31_1514,testMonitor,
143.6,152.4,145.7,142.5,36,-60,155.6,130.3,126.7,136.1,8.248,7.682,7.532,7.611,8.296,8.287,7.835,5.01,-4.992,-7.737,1.694,-1.641,8.306,4.68,-5.276,-7.915,147.1,123.7,-8.442,137.5,139.6,136.1,137.6,161.0,36,140.5,0,5,prime,10,0,75,norm,36,-4.752,down,norm,143.679933922,159.5,146.0,1.542,142.4,1,144.4,139.6,163.7,10,6,7.584,4.824,1.11,-1.815,-4.734,-8.326,144.6,6,218.7,-7.839,-8.497,-60,-7.8,-7.624,-5.264,-4.991,-4.631,-4.655,4.493,8.387,1,-2.054,2.02,5.299,7.665,-7.606,-8.091,-1.106,1.742,151.9,155.2,128.4,128.3,,125.4,138.1,136.6,142.6,159.3,5,norm,2.009,1.71,-1.975,-1.151,-4.876,-4.339,-1.98,-1.777,-1.91,-2.038,1.634,-1.729,142.7,135.1,-4.754,-7.799,135.2,-2.076,7.763,5.181,-4.874,-7.726,0,4.373,5.134,4.676,5.256,2.059,1.678,1.384,1.652,0,4.984,5.134,,,,0,5,5,5,337.486,337.498,337.5015933,337.502,337.506,337.51,down,1,1.23591320991,8.76408679009,001,022,800_600,Intel(R) Core(TM) i5-4200U CPU @ 1.60GHz,orientation_search,GRVLAPTOP8,Intel(R) HD Graphics 4400,2018_jul_31_1514,testMonitor,
144.1,153.8,148.1,150.9,36,-80,143.0,151.3,146.7,144.4,8.431,7.754,7.817,8.387,7.721,7.519,8.405,4.5,-4.469,-8.361,1.59,-1.649,8.346,4.329,-4.676,-8.046,,142.2,-8.008,145.9,148.1,140.8,150.5,146.4,36,135.9,5,5,probe,5,0,67,norm,36,-4.851,up,norm,145.463272967,140.6,142.5,1.178,151.4,5,142.5,153.1,141.2,10,6,7.861,4.342,1.796,-1.258,-4.71,-8.247,155.5,1,78.5,-7.711,-7.717,-60,-8.237,-8.158,-4.982,-5.183,-4.801,-4.601,4.447,8.04,35,-1.1,1.782,4.886,7.587,-8.22,-7.622,-1.488,1.127,149.9,143.9,140.4,141.7,135.5,136.5,141.5,141.0,145.8,150.5,0,norm,1.156,1.924,-1.513,-1.544,-5.123,-4.997,-1.265,-1.742,-1.913,-1.904,1.517,-1.431,147.8,142.1,-5.207,-8.301,139.7,-1.145,8.215,4.607,-4.773,-8.097,1,5.084,4.719,4.85,4.596,1.39,1.481,1.889,2.064,1,4.633,4.978,-60,143.679933922,norm,0,6,6,6,338.766,338.779,338.784919054,338.785,338.792,338.795,up,1,1.29789236425,8.70210763575,001,022,800_600,Intel(R) Core(TM) i5-4200U CPU @ 1.60GHz,orientation_search,GRVLAPTOP8,Intel(R) HD Graphics 4400,2018_jul_31_1514,testMonitor,
362.4,361.4,333.3,358.0,36,10,361.0,348.8,362.2,350.9,8.352,7.979,7.985,8.444,7.836,7.564,7.68,5.299,-4.511,-7.69,1.634,-1.132,8.179,5.24,-5.181,-8.28,335.8,359.4,-8.489,337.5,349.3,351.0,354.6,365.4,36,373.3,2,5,prime,10,0,76,norm,36,-5.027,up,norm,353.318579538,340.0,346.5,1.741,339.2,3,347.9,344.2,356.5,10,5,7.854,4.849,1.466,-1.188,-5.239,-8.321,365.9,5,429.3,-8.336,-7.789,10,-8.14,-7.852,-4.783,-4.736,-5.053,-4.345,4.507,8.264,15,-1.552,1.294,4.578,8.463,-8.492,-8.424,-1.486,1.179,344.6,368.1,354.8,361.3,357.3,368.9,349.5,355.9,348.3,358.6,0,norm,1.757,1.282,-2.005,-1.903,-4.891,-4.721,-1.209,-1.278,-2.072,-1.33,1.406,-1.68,337.5,371.4,-5.115,-8.238,,-1.93,8.226,4.412,-5.283,-7.553,2,4.609,4.836,4.657,4.868,1.868,1.462,1.863,2.035,2,4.788,4.368,-80,143.679933922,norm,0,7,7,7,340.114,340.124,340.140123796,340.14,340.144,340.148,up,1,1.74142404974,8.25857595026,001,022,800_600,Intel(R) Core(TM) i5-4200U CPU @ 1.60GHz,orientation_search,GRVLAPTOP8,Intel(R) HD Graphics 4400,2018_jul_31_1514,testMonitor,
333.3,363.2,371.5,359.4,36,10,356.4,358.8,353.2,345.4,8.403,7.786,8.218,7.507,7.901,7.783,7.797,4.61,-4.737,-8.41,2.061,-1.692,8.444,5.007,-5.163,-8.45,342.1,341.3,-7.991,348.7,361.5,370.1,356.4,361.3,36,355.8,1,5,prime,10,0,95,norm,36,-5.082,up,norm,353.318579538,353.5,373.3,1.925,347.5,5,,361.7,362.2,10,5,8.314,4.97,1.229,-1.113,-4.525,-8.216,346.4,5,448.3,-7.525,-8.428,10,-8.354,-8.133,-4.722,-5.103,-4.667,-4.756,5.068,7.581,11,-1.651,1.781,5.056,7.973,-8.026,-8.427,-1.313,1.16,348.6,362.5,357.0,355.4,343.5,348.5,356.2,353.2,355.2,340.5,1,norm,1.428,1.32,-2.076,-1.883,-4.343,-4.718,-1.447,-1.915,-1.238,-1.618,1.656,-1.891,338.3,371.3,-4.484,-7.701,371.2,-1.6,8.417,5.234,-5.071,-8.057,2,4.43,4.676,4.753,4.735,1.221,1.558,1.179,1.1,2,4.866,5.013,-80,143.679933922,norm,0,8,8,8,341.909,341.917,341.936608943,341.937,341.941,341.945,up,1,1.85787392562,8.14212607438,001,022,800_600,Intel(R) Core(TM) i5-4200U CPU @ 1.60GHz,orientation_search,GRVLAPTOP8,Intel(R) HD Graphics 4400,2018_jul_31_1514,testMonitor,
364.2,361.1,336.1,345.5,36,10,372.2,346.7,371.7,358.9,8.115,8.357,8.128,7.658,8.498,7.915,7.764,4.867,-5.163,-8.295,1.896,-1.355,7.915,4.43,-4.599,-8.068,362.3,343.0,-8.382,344.2,335.2,333.3,347.5,337.0,36,361.3,0,5,prime,10,0,103,norm,36,-4.358,up,norm,353.318579538,356.9,360.8,1.615,362.0,5,357.8,357.8,351.7,10,5,8.246,4.672,1.624,-1.219,-4.398,-8.282,355.5,5,456.3,-7.972,-7.513,10,-8.286,-7.588,-4.908,-4.393,-4.953,-4.472,5.051,8.46,5,-1.241,1.58,4.579,8.354,-7.972,-8.008,-2.098,1.621,373.3,360.0,358.4,363.8,348.4,346.8,353.2,352.0,,352.6,2,norm,1.659,1.162,-1.738,-1.328,-4.605,-5.261,-1.763,-1.262,-1.216,-1.261,1.668,-1.555,369.7,358.3,-4.366,-7.868,357.7,-1.195,7.703,4.444,-4.758,-7.574,2,5.072,4.952,4.959,4.567,2.096,1.199,1.99,1.318,2,5.244,4.99,-80,143.679933922,norm,0,9,9,9,343.823,343.835,343.838698996,343.839,343.843,343.848,up,1,5.49282959392,4.50717040608,001,022,800_600,Intel(R) Core(TM) i5-4200U CPU @ 1.60GHz,orientation_search,GRVLAPTOP8,Intel(R) HD Graphics 4400,2018_jul_31_1514,testMonitor,
358.8,344.5,347.3,354.2,36,10,350.5,356.8,346.2,352.3,7.693,8.104,8.345,7.62,8.188,7.583,8.305,4.998,-4.743,-7.578,1.178,-1.265,8.019,4.519,-5.04,-8.069,344.9,,-7.734,349.6,350.8,351.5,353.3,353.8,36,344.9,5,5,prime,10,0,110,norm,36,-4.807,up,norm,353.318579538,373.3,365.0,1.196,368.2,4,347.7,359.3,336.8,10,5,7.897,4.677,1.148,-2.08,-5.131,-8.206,340.4,5,463.3,-7.651,-8.039,10,-8.301,-8.187,-5.122,-4.585,-5.205,-4.973,5.208,8.027,34,-1.875,1.505,4.688,7.554,-7.85,-7.526,-1.856,2.095,347.4,346.9,359.7,350.8,360.8,350.8,353.3,346.0,351.0,333.3,3,norm,2.002,1.226,-1.51,-1.295,-4.909,-4.796,-1.741,-1.23,-1.235,-1.108,1.786,-1.321,358.1,348.9,-5.092,-7.894,351.8,-1.318,7.587,4.967,-4.763,-7.797,2,4.497,4.4,5.218,4.649,1.57,1.28,1.683,1.497,2,4.327,4.77,-80,143.679933922,norm,0,10,10,10,349.362,349.376,349.381799748,349.382,349.386,349.391,up,1,1.58111191385,8.41888808615,001,022,800_600,Intel(R) Core(TM) i5-4200U CPU @ 1.60GHz,orientation_search,GRVLAPTOP8,Intel(R) HD Graphics 4400,2018_jul_31_1514,testMonitor,
348.5,356.3,367.7,354.2,36,10,355.0,365.2,346.3,,7.938,7.77,8.298,7.916,7.732,7.573,7.771,4.391,-4.933,-8.28,1.819,-1.561,8.323,5.155,-4.333,-8.114,356.0,362.2,-8.483,369.8,349.1,358.0,350.1,344.4,36,355.5,4,5,prime,10,0,95,norm,36,-4.609,up,norm,353.318579538,340.9,355.3,1.126,361.0,5,351.3,344.1,360.6,10,5,8.425,5.053,1.14,-1.885,-4.696,-8.297,353.9,5,448.3,-8.481,-8.335,10,-8.317,-8.095,-4.502,-4.773,-4.857,-4.941,4.39,7.691,29,-1.368,1.503,4.528,7.881,-8.194,-7.757,-1.684,1.997,353.2,373.3,349.1,347.1,333.3,348.3,371.6,353.8,349.1,363.9,4,norm,1.297,1.181,-2.078,-1.657,-4.458,-5.203,-1.682,-1.24,-2.025,-2.044,2.033,-1.239,350.1,348.1,-4.37,-8.117,341.5,-1.974,7.6,4.954,-4.608,-8.402,2,4.464,4.488,4.316,5.276,1.637,1.947,1.703,1.411,2,5.282,4.984,-80,143.679933922,norm,0,11,11,11,350.992,351.005,351.008967637,351.009,351.013,351.017,up,1,2.46623681863,7.53376318137,001,022,800_600,Intel(R) Core(TM) i5-4200U CPU @ 1.60GHz,orientation_search,GRVLAPTOP8,Intel(R) HD Graphics 4400,2018_jul_31_1514,testMonitor,
464.2,467.3,471.6,464.1,36,-80,457.6,465.1,452.5,466.8,8.031,7.946,8.104,7.515,8.003,7.751,7.854,4.479,-5.262,-7.853,1.382,-1.918,7.977,5.201,-5.049,-7.655,470.2,461.0,-7.567,463.5,459.9,463.6,464.1,462.9,36,,4,5,probe,5,0,102,norm,36,-4.425,up,norm,462.543176691,468.0,461.9,2.005,470.0,3,462.2,472.5,468.4,10,5,8.254,4.397,1.142,-1.816,-4.662,-8.174,458.3,1,360.5,-7.67,-8.297,10,-7.804,-7.568,-4.329,-4.824,-4.84,-4.677,4.501,7.721,27,-1.44,2.001,4.541,8.025,-7.763,-7.922,-1.344,1.678,466.2,471.9,469.5,455.8,461.7,468.2,465.9,462.8,464.5,462.2,0,norm,1.33,1.802,-1.124,-1.348,-4.983,-4.889,-1.28,-1.186,-1.802,-1.796,1.481,-1.347,456.3,462.6,-4.379,-7.779,456.5,-1.691,7.514,4.926,-4.55,-7.713,3,4.959,5.096,5.112,4.679,1.72,1.54,1.198,1.386,3,5.226,5.13,10,353.318579538,norm,0,12,12,12,353.504,353.518,353.520926644,353.521,353.524,353.527,up,1,1.23716848279,8.76283151721,001,022,800_600,Intel(R) Core(TM) i5-4200U CPU @ 1.60GHz,orientation_search,GRVLAPTOP8,Intel(R) HD Graphics 4400,2018_jul_31_1514,testMonitor,
349.0,346.3,347.3,330.8,36,10,332.3,326.6,339.1,340.1,8.222,7.531,7.964,7.922,8.417,8.262,7.698,4.968,-5.161,-7.654,1.26,-1.657,8.057,4.334,-5.074,-7.541,350.2,338.0,-8.023,332.3,324.6,358.5,318.5,338.7,36,343.2,2,5,prime,10,0,77,norm,36,-4.704,down,norm,338.468079217,335.9,345.6,1.428,,2,326.7,330.1,338.8,10,6,8.002,4.45,1.22,-1.145,-4.385,-8.452,326.8,6,415.5,-7.759,-8.156,10,-7.93,-7.679,-4.873,-5.249,-4.801,-4.953,4.782,7.912,14,-1.408,1.571,4.945,7.843,-8.171,-7.839,-1.715,1.595,325.5,325.1,343.9,327.2,336.2,336.7,347.4,334.4,344.7,344.4,0,norm,1.25,2.043,-1.411,-1.115,-4.496,-4.92,-1.819,-1.841,-1.187,-1.17,1.959,-2.002,341.6,322.9,-4.558,-8.236,337.1,-1.927,8.044,4.369,-4.496,-7.566,4,4.697,4.675,4.845,4.989,1.784,1.341,1.529,1.362,4,4.878,5.223,-80,353.318579538,norm,0,13,13,13,354.784,354.798,354.804230087,354.805,354.812,354.816,down,1,1.01238181894,8.98761818106,001,022,800_600,Intel(R) Core(TM) i5-4200U CPU @ 1.60GHz,orientation_search,GRVLAPTOP8,Intel(R) HD Graphics 4400,2018_jul_31_1514,testMonitor,
340.1,348.6,338.2,339.3,36,10,335.0,338.2,340.4,,8.43,8.325,7.818,7.684,7.926,7.691,7.989,4.927,-4.557,-8.468,1.385,-1.226,8.175,5.074,-4.489,-7.746,341.3,342.5,-8.253,351.5,330.3,341.2,318.5,323.3,36,356.7,4,5,prime,10,0,97,norm,36,-4.85,up,norm,338.468079217,334.9,352.2,1.113,337.0,5,334.7,326.1,333.0,10,6,7.818,4.541,1.194,-1.832,-4.737,-7.55,339.1,6,435.5,-8.088,-7.54,10,-8.411,-8.039,-4.817,-4.702,-4.926,-5.107,4.906,8.004,29,-2.075,1.544,4.734,8.2,-7.906,-8.486,-1.329,1.392,331.6,351.1,338.5,344.3,358.5,349.6,331.4,340.8,328.7,341.0,1,norm,2.009,1.925,-1.364,-2.034,-4.587,-4.685,-1.652,-1.916,-1.867,-1.887,1.244,-1.526,338.0,341.4,-5.176,-8.194,335.8,-1.885,8.247,4.86,-4.567,-7.758,4,4.782,4.507,4.915,4.428,1.204,1.504,1.327,1.264,4,4.723,4.683,-80,353.318579538,norm,0,14,14,14,355.848,355.862,355.868124503,355.869,355.876,355.884,up,1,1.07518830209,8.92481169791,001,022,800_600,Intel(R) Core(TM) i5-4200U CPU @ 1.60GHz,orientation_search,GRVLAPTOP8,Intel(R) HD Graphics 4400,2018_jul_31_1514,testMonitor,
344.6,340.7,329.3,322.9,36,10,350.8,336.5,346.3,338.5,8.092,8.294,7.736,7.711,7.653,8.1,8.308,4.834,-5.102,-7.85,1.333,-1.727,7.921,4.509,-4.779,-8.365,334.2,345.4,-7.803,326.7,350.6,332.6,358.5,326.8,36,327.1,2,5,prime,10,0,76,norm,36,-4.446,up,norm,338.468079217,346.0,,1.666,340.5,4,336.3,345.8,334.7,10,6,8.095,5.23,1.169,-1.161,-4.546,-7.556,322.1,6,414.5,-7.981,-7.625,10,-8.196,-7.581,-4.838,-5.181,-4.435,-4.456,4.412,7.792,16,-1.201,1.299,4.933,7.748,-8.252,-8.082,-1.26,1.911,348.8,334.3,318.5,336.8,348.4,330.0,355.4,324.2,323.7,335.7,2,norm,1.176,1.333,-1.364,-2.06,-5.147,-4.986,-1.806,-1.67,-1.738,-1.497,1.379,-1.645,336.0,330.2,-5.178,-8.173,355.4,-2.093,8.395,4.631,-4.817,-7.679,4,4.809,4.608,5.275,5.207,1.405,1.717,1.876,2.031,4,4.75,4.682,-80,353.318579538,norm,0,15,15,15,356.98,356.995,356.998768824,356.999,357.002,357.006,up,1,1.01865327471,8.98134672529,001,022,800_600,Intel(R) Core(TM) i5-4200U CPU @ 1.60GHz,orientation_search,GRVLAPTOP8,Intel(R) HD Graphics 4400,2018_jul_31_1514,testMonitor,
346.6,342.1,339.7,318.5,36,10,342.0,346.5,337.6,336.1,7.622,8.451,7.602,7.964,7.595,7.912,8.094,4.856,-4.424,-8.074,1.439,-1.39,7.873,4.985,-4.632,-8.404,351.1,340.2,-7.658,339.6,336.6,339.1,344.3,326.4,36,342.3,0,5,prime,10,0,118,norm,36,-4.704,up,norm,338.468079217,342.5,330.4,1.61,353.5,4,331.6,324.9,320.4,10,6,7.827,4.732,2.077,-1.687,-5.21,-8.115,339.3,6,456.5,-7.907,-7.55,10,-7.527,-8.395,-5.252,-4.924,-4.342,-5.197,4.679,8.409,4,-1.352,1.324,5.299,7.859,-8.04,-7.846,-1.253,1.212,341.6,327.0,340.7,340.9,344.0,327.9,343.0,337.4,333.0,,3,norm,2.011,1.259,-1.968,-1.286,-5.248,-4.638,-1.27,-1.622,-1.626,-1.94,1.807,-2.083,341.4,337.9,-4.482,-7.517,332.7,-2.098,8.448,4.359,-4.521,-8.092,4,5.209,4.517,5.043,5.201,1.173,2.095,1.912,1.295,4,4.447,4.593,-80,353.318579538,norm,0,16,16,16,358.045,358.058,358.061445005,358.062,358.065,358.069,up,1,4.86218504945,5.13781495055,001,022,800_600,Intel(R) Core(TM) i5-4200U CPU @ 1.60GHz,orientation_search,GRVLAPTOP8,Intel(R) HD Graphics 4400,2018_jul_31_1514,testMonitor,
343.7,358.5,343.9,352.6,36,10,343.7,,329.2,343.9,8.426,8.307,8.407,7.966,7.982,8.14,8.182,4.964,-4.953,-7.809,1.955,-1.79,8.104,5.166,-4.721,-8.465,345.6,333.2,-8.394,343.0,332.4,350.4,343.2,331.7,36,356.4,4,5,prime,10,0,107,norm,36,-4.832,down,norm,338.468079217,339.5,342.1,1.402,347.3,1,331.9,348.6,334.7,10,6,7.504,4.884,1.369,-1.217,-5.08,-8.45,338.7,6,445.5,-8.447,-7.71,10,-7.625,-7.708,-4.323,-4.973,-4.338,-4.504,4.584,8.276,25,-1.636,1.658,4.536,8.254,-7.502,-7.748,-1.869,1.201,340.2,353.6,342.7,338.5,324.3,336.5,340.2,339.1,330.5,348.4,4,norm,2.083,1.533,-1.754,-1.431,-5.115,-5.022,-1.36,-1.615,-1.815,-2.041,1.664,-1.238,341.2,318.5,-4.749,-7.94,342.2,-1.241,8.267,5.142,-4.605,-7.696,4,4.413,5.256,4.807,4.732,1.939,1.474,1.487,1.456,4,4.839,5.267,-80,353.318579538,norm,0,17,17,17,362.951,362.965,362.970865442,362.971,362.974,362.978,down,1,1.0178371019,8.9821628981,001,022,800_600,Intel(R) Core(TM) i5-4200U CPU @ 1.60GHz,orientation_search,GRVLAPTOP8,Intel(R) HD Graphics 4400,2018_jul_31_1514,testMonitor,
336.5,327.9,352.7,343.3,36,10,353.6,338.5,344.0,337.2,7.57,7.647,7.558,7.774,7.821,8.038,8.436,4.578,-4.327,-7.556,2.098,-1.715,7.508,4.531,-4.333,-8.266,345.0,358.5,-8.15,328.5,337.7,346.2,336.5,334.7,36,338.8,1,5,prime,10,0,60,norm,36,-4.406,up,norm,338.468079217,331.4,349.3,1.764,334.6,3,345.0,328.6,344.9,10,6,7.696,4.442,1.626,-1.503,-5.092,-7.689,339.0,6,398.5,-7.756,-7.752,10,-7.912,-8.446,-4.935,-4.489,-4.419,-4.887,5.186,8.023,9,-2.07,1.597,4.705,8.322,-8.348,-7.789,-1.266,1.564,,351.0,344.6,319.2,335.8,326.3,354.0,345.9,334.4,338.9,5,norm,1.77,1.856,-1.272,-1.628,-4.718,-5.191,-2.099,-1.212,-1.282,-1.549,1.403,-2.068,351.1,342.3,-4.982,-7.587,318.5,-2.055,8.123,4.905,-5.259,-8.32,4,5.017,5.197,4.303,4.609,1.382,1.643,1.557,1.301,4,4.346,4.439,-80,353.318579538,norm,0,18,18,18,364.016,364.03,364.035219039,364.036,364.043,364.048,up,1,0.778982278473,9.22101772153,001,022,800_600,Intel(R) Core(TM) i5-4200U CPU @ 1.60GHz,orientation_search,GRVLAPTOP8,Intel(R) HD Graphics 4400,2018_jul_31_1514,testMonitor,
442.3,443.0,438.6,430.0,36,40,435.6,439.0,435.7,437.5,8.328,7.527,7.572,8.26,8.163,8.369,8.043,4.399,-4.687,-8.485,1.925,-1.403,8.495,4.404,-5.077,-7.553,439.9,445.5,-7.684,437.8,441.9,441.8,441.8,434.1,36,446.5,1,5,probe,5,0,92,norm,36,-4.478,down,norm,439.76315538,429.8,434.0,1.656,429.8,2,443.1,439.5,443.3,10,6,7.86,4.601,1.67,-2.06,-5.08,-8.205,449.8,2,347.8,-8.022,-8.415,10,-7.646,-8.31,-4.835,-4.779,-5.23,-4.765,5.11,8.195,8,-1.598,1.416,4.547,8.414,-8.093,-8.341,-1.701,1.257,440.6,,438.5,437.3,435.5,443.0,443.1,433.6,440.8,440.9,0,norm,1.382,1.399,-1.269,-1.28,-4.512,-4.723,-1.998,-1.421,-2.031,-1.763,1.138,-1.597,437.5,442.2,-4.837,-8.338,441.6,-1.804,8.456,4.55,-4.836,-8.201,5,4.942,5.036,4.568,5.096,1.612,1.622,1.399,1.429,5,4.42,5.21,10,338.468079217,norm,0,19,19,19,364.847,364.86,364.862969539,364.863,364.867,364.871,down,1,0.904101703432,9.09589829657,001,022,800_600,Intel(R) Core(TM) i5-4200U CPU @ 1.60GHz,orientation_search,GRVLAPTOP8,Intel(R) HD Graphics 4400,2018_jul_31_1514,testMonitor,
450.6,456.6,455.1,457.9,36,40,456.1,460.4,465.9,455.0,7.785,8.303,8.177,8.37,8.334,8.255,7.946,4.359,-4.407,-7.653,1.474,-1.332,7.549,5.015,-4.543,-8.191,465.6,453.7,-7.834,460.3,456.9,461.9,461.8,467.8,36,461.6,1,5,probe,5,0,110,norm,36,-5.169,down,norm,457.76315538,449.4,455.7,2.055,457.8,0,447.8,457.5,465.7,10,6,8.419,4.816,1.966,-1.424,-5.05,-7.678,454.3,2,347.8,-8.034,-8.031,10,-8.082,-7.678,-4.966,-4.589,-4.602,-4.883,4.877,8.421,6,-1.795,1.104,4.689,8.289,-8.135,-8.371,-2.073,1.968,455.6,457.7,458.0,461.0,460.7,461.3,463.5,,457.6,459.4,1,norm,1.385,1.512,-1.996,-1.277,-5.29,-4.854,-1.116,-1.821,-2.099,-1.315,1.325,-1.273,467.6,457.5,-4.828,-8.08,461.5,-1.666,7.997,4.581,-5.038,-7.509,5,4.387,4.428,4.986,4.714,1.564,1.949,1.61,1.129,5,4.459,4.342,10,338.468079217,norm,0,20,20,20,365.795,365.803,365.822309051,365.823,365.826,365.831,down,1,0.959028482155,9.04097151784,001,022,800_600,Intel(R) Core(TM) i5-4200U CPU @ 1.60GHz,orientation_search,GRVLAPTOP8,Intel(R) HD Graphics 4400,2018_jul_31_1514,testMonitor,
315.2,355.0,342.5,338.5,36,-10,349.5,326.6,328.0,334.0,8.005,7.998,7.96,7.929,7.61,8.352,7.749,5.244,-4.798,-8.392,1.79,-1.407,8.104,4.789,-4.644,-8.111,335.0,326.3,-8.433,340.9,332.6,323.2,333.0,349.5,36,319.0,0,5,prime,10,0,85,norm,36,-4.393,down,norm,334.972101173,342.6,321.8,1.258,340.1,2,329.7,315.0,339.0,10,5,8.422,4.34,1.457,-1.809,-5.231,-8.254,351.0,5,420.0,-7.809,-7.621,-10,-7.863,-8.157,-4.314,-5.022,-5.164,-4.943,4.912,7.728,2,-1.819,1.785,4.375,8.363,-7.522,-7.685,-1.129,1.468,327.3,338.1,352.7,,333.2,330.5,315.5,317.4,327.9,337.9,0,norm,1.897,1.832,-1.776,-1.748,-4.541,-4.83,-1.922,-1.115,-1.818,-2.094,1.543,-1.899,324.3,319.1,-4.973,-7.552,335.4,-1.771,8.466,4.556,-4.985,-7.847,6,4.387,4.771,4.734,4.784,1.177,1.283,1.223,1.914,6,5.011,4.427,40,338.468079217,norm,0,21,21,21,366.81,366.819,366.836958215,366.837,366.841,366.843,up,0,1.82647782388,-10,001,022,800_600,Intel(R) Core(TM) i5-4200U CPU @ 1.60GHz,orientation_search,GRVLAPTOP8,Intel(R) HD Graphics 4400,2018_jul_31_1514,testMonitor,
315.0,323.5,318.7,347.6,36,-10,347.8,328.4,344.8,336.0,8.244,7.819,7.78,8.059,8.092,8.07,7.91,4.355,-4.774,-8.389,1.166,-1.573,7.574,4.507,-5.086,-7.703,326.1,336.1,-7.531,328.3,355.0,348.5,319.4,355.0,36,329.8,0,5,prime,10,0,84,norm,36,-5.048,down,norm,334.972101173,341.2,335.7,2.09,337.4,2,338.7,342.1,353.7,10,5,8.496,4.974,2.081,-1.891,-5.182,-7.535,347.1,5,419.0,-7.596,-8.352,-10,-7.812,-8.294,-5.223,-4.991,-4.552,-5.014,4.69,7.663,2,-1.757,2.098,4.695,7.746,-7.933,-8.476,-1.975,1.201,335.6,336.6,336.9,,334.2,334.6,354.3,330.7,326.8,337.1,1,norm,1.669,1.839,-1.886,-1.973,-4.689,-4.69,-1.551,-1.408,-1.608,-1.77,1.351,-1.796,334.0,337.2,-4.714,-8.488,339.7,-1.221,7.557,4.806,-5.232,-7.578,6,4.835,4.808,4.741,5.041,1.429,1.285,1.371,1.654,6,4.34,4.828,40,338.468079217,norm,0,22,22,22,369.709,369.714,369.730669668,369.731,369.733,369.736,down,1,0.979686712804,9.0203132872,001,022,800_600,Intel(R) Core(TM) i5-4200U CPU @ 1.60GHz,orientation_search,GRVLAPTOP8,Intel(R) HD Graphics 4400,2018_jul_31_1514,testMonitor,
323.3,331.6,331.9,337.6,36,-10,321.4,337.8,340.7,335.2,8.411,7.77,7.534,8.432,8.395,7.628,7.819,4.398,-5.087,-7.828,1.957,-1.818,7.503,5.035,-4.519,-7.792,323.4,345.0,-8.388,340.8,344.9,349.1,315.7,335.8,36,327.5,1,5,prime,10,0,103,norm,36,-4.637,down,norm,334.972101173,333.3,341.6,1.661,350.6,0,330.2,324.9,343.0,10,5,7.845,5.122,1.883,-1.697,-4.762,-7.564,349.2,5,438.0,-7.763,-8.482,-10,-7.796,-8.333,-5.23,-4.543,-5.03,-4.902,4.426,8.41,6,-1.686,1.296,4.639,7.73,-7.564,-7.654,-1.858,1.262,328.2,355.0,341.6,332.2,324.6,316.9,315.0,,339.0,337.1,2,norm,1.889,2.048,-1.927,-1.586,-4.541,-4.628,-2.023,-1.829,-1.755,-1.624,2.039,-1.449,322.9,345.9,-4.793,-7.814,333.1,-2.079,7.926,4.577,-4.688,-7.68,6,4.404,4.804,4.346,4.971,2.093,1.947,1.329,1.969,6,4.7,4.977,40,338.468079217,norm,0,23,23,23,370.736,370.744,370.762334406,370.763,370.766,370.769,down,1,1.32672347896,8.67327652104,001,022,800_600,Intel(R) Core(TM) i5-4200U CPU @ 1.60GHz,orientation_search,GRVLAPTOP8,Intel(R) HD Graphics 4400,2018_jul_31_1514,testMonitor,
325.9,336.8,,333.2,36,-10,323.7,339.7,323.3,327.5,8.471,7.7,7.78,8.152,8.086,7.767,7.935,5.062,-4.736,-8.163,1.781,-1.353,7.882,4.904,-5.27,-8.032,343.5,348.8,-7.713,336.1,315.0,335.4,344.6,340.1,36,337.1,3,5,prime,10,0,96,norm,36,-5.1,down,norm,334.972101173,324.2,331.7,1.624,326.9,2,336.5,332.4,324.7,10,5,7.588,4.595,1.19,-1.487,-4.517,-8.284,341.7,5,431.0,-8.12,-8.301,-10,-7.94,-7.986,-5.193,-4.984,-4.829,-4.446,4.437,8.271,20,-1.176,1.813,4.984,8.287,-7.611,-8.487,-1.414,1.244,354.3,333.2,316.7,323.0,345.9,331.3,343.1,332.2,355.0,332.7,3,norm,1.12,1.346,-1.32,-1.106,-4.684,-4.931,-1.628,-1.237,-1.576,-1.167,1.693,-2.055,329.6,344.6,-5.212,-7.851,329.8,-1.212,8.321,5.098,-5.018,-8.462,6,4.852,4.536,4.684,4.966,1.421,1.281,1.422,1.277,6,5.026,5.12,40,338.468079217,norm,0,24,24,24,372.116,372.129,372.132111112,372.132,372.136,372.139,down,1,1.1380983129,8.8619016871,001,022,800_600,Intel(R) Core(TM) i5-4200U CPU @ 1.60GHz,orientation_search,GRVLAPTOP8,Intel(R) HD Graphics 4400,2018_jul_31_1514,testMonitor,
345.8,332.3,345.9,332.4,36,-10,326.0,336.7,337.6,342.7,7.844,8.255,7.574,7.564,7.556,8.453,8.317,4.651,-4.514,-8.409,1.257,-1.631,7.728,5.211,-4.491,-8.041,335.5,346.2,-7.559,315.0,342.4,350.8,344.9,330.8,36,332.0,1,5,prime,10,0,62,norm,36,-5.3,down,norm,334.972101173,348.7,328.3,2.064,337.2,0,341.7,335.2,340.5,10,5,7.771,5.097,1.894,-1.162,-5.249,-7.658,349.5,5,397.0,-7.783,-7.874,-10,-8.11,-7.52,-4.506,-5.019,-4.933,-4.75,4.825,8.456,6,-1.981,1.632,5.041,7.884,-8.125,-7.864,-1.291,1.722,342.4,338.3,336.8,355.0,342.8,333.4,342.2,,333.1,333.7,4,norm,1.337,1.839,-1.867,-1.292,-5.184,-4.929,-1.994,-1.184,-1.18,-1.922,1.864,-1.912,337.6,323.7,-4.387,-7.648,335.9,-2.096,8.32,5.114,-5.3,-8.056,6,5.237,4.319,5.14,4.366,1.664,1.776,2.056,1.998,6,5.046,4.984,40,338.468079217,norm,0,25,25,25,373.297,373.312,373.317578684,373.318,373.325,373.331,down,1,1.59353567934,8.40646432066,001,022,800_600,Intel(R) Core(TM) i5-4200U CPU @ 1.60GHz,orientation_search,GRVLAPTOP8,Intel(R) HD Graphics 4400,2018_jul_31_1514,testMonitor,
385.4,381.0,398.4,388.5,36,60,393.1,389.8,383.2,390.9,7.718,7.908,8.361,8.282,8.173,8.451,7.953,4.408,-4.899,-7.755,1.871,-1.952,7.915,4.993,-5.022,-7.787,392.0,,-7.608,381.1,382.6,387.7,390.6,386.8,36,387.5,5,5,probe,5,0,66,norm,36,-5.036,up,norm,388.399532293,392.8,381.9,1.773,394.5,4,385.6,394.4,388.8,10,5,8.421,5.117,1.287,-1.219,-4.495,-8.251,387.9,1,322.4,-8.059,-7.953,-10,-8.214,-8.22,-5.212,-4.599,-4.59,-4.853,4.668,8.114,34,-1.353,1.469,4.425,8.203,-7.768,-8.375,-1.409,1.503,389.4,388.9,386.6,388.5,393.3,389.5,392.7,391.3,388.8,380.9,0,norm,1.441,1.942,-2.1,-1.916,-4.593,-4.813,-2.093,-1.347,-1.3,-1.544,1.76,-1.817,388.1,389.1,-4.917,-8.161,378.4,-1.794,8.402,4.49,-5.228,-8.198,7,4.494,4.35,4.831,5.134,1.463,1.356,1.475,1.773,7,4.996,5.286,-10,334.972101173,norm,0,26,26,26,374.941,374.948,374.954379108,374.955,374.959,374.964,up,1,2.02274841841,7.97725158159,001,022,800_600,Intel(R) Core(TM) i5-4200U CPU @ 1.60GHz,orientation_search,GRVLAPTOP8,Intel(R) HD Graphics 4400,2018_jul_31_1514,testMonitor,
-10.8,18.7,-6.0,2.0,36,30,2.3,20.9,21.2,-9.3,8.084,8.297,7.854,7.691,7.598,8.477,8.209,4.935,-4.344,-8.343,1.296,-1.544,8.279,4.45,-4.348,-8.071,10.8,14.6,-8.283,5.9,,13.4,9.3,4.7,36,26.6,5,5,prime,10,0,68,norm,36,-4.468,down,norm,9.158580947,3.6,1.0,1.317,-8.9,0,6.0,23.2,15.9,10,6,7.767,4.76,1.126,-1.799,-4.622,-7.556,10.7,6,77.2,-7.874,-8.47,30,-7.92,-8.025,-4.526,-4.682,-5.292,-4.718,5.127,7.746,30,-1.584,1.81,4.359,7.932,-7.91,-8.205,-1.506,1.334,9.6,11.8,-8.6,5.6,1.0,4.1,29.2,12.4,22.4,3.3,0,norm,1.454,1.476,-2.084,-1.113,-4.608,-5.025,-1.27,-1.203,-1.335,-1.816,1.356,-1.942,10.4,14.3,-4.424,-7.754,18.9,-1.99,8.278,4.706,-4.606,-8.472,8,4.484,4.396,5.189,4.692,1.384,2.058,2.086,1.392,8,4.954,4.914,60,334.972101173,norm,0,27,27,27,377.007,377.019,377.022033542,377.022,377.026,377.03,down,1,3.71537702587,6.28462297413,001,022,800_600,Intel(R) Core(TM) i5-4200U CPU @ 1.60GHz,orientation_search,GRVLAPTOP8,Intel(R) HD Graphics 4400,2018_jul_31_1514,testMonitor,
4.8,,2.9,26.5,36,30,24.6,0.2,-3.2,24.2,7.598,7.976,7.764,7.997,8.475,7.593,8.068,4.603,-5.052,-7.839,1.79,-1.341,8.347,4.794,-4.723,-8.063,15.1,-1.9,-8.246,11.1,-2.9,-6.2,11.9,13.2,36,7.3,3,5,prime,10,0,115,norm,36,-5.183,up,norm,9.158580947,12.2,25.1,1.83,7.3,5,13.3,29.2,-10.8,10,6,8.434,4.864,1.515,-1.391,-5.007,-7.81,5.7,6,124.2,-8.28,-7.787,30,-7.637,-7.892,-4.669,-4.913,-4.784,-4.555,5.238,8.388,23,-1.877,1.718,4.327,8.39,-8.11,-7.514,-1.906,1.669,3.5,-5.8,12.2,-2.8,21.5,24.6,9.4,25.9,22.8,16.8,1,norm,1.819,1.144,-1.549,-1.981,-4.48,-5.111,-1.787,-1.413,-2.053,-2.062,1.403,-1.376,5.5,9.1,-4.875,-8.271,13.1,-1.588,7.729,4.615,-4.447,-7.846,8,5.296,5.275,4.302,4.502,1.455,1.628,1.666,1.347,8,4.948,4.812,60,334.972101173,norm,0,28,28,28,380.761,380.768,380.776192387,380.777,380.78,380.785,up,1,1.09206732689,8.90793267311,001,022,800_600,Intel(R) Core(TM) i5-4200U CPU @ 1.60GHz,orientation_search,GRVLAPTOP8,Intel(R) HD Graphics 4400,2018_jul_31_1514,testMonitor,
-9.1,2.2,14.7,1.4,36,30,,13.2,22.1,18.3,7.769,8.004,7.531,7.785,8.101,8.469,7.979,4.368,-5.056,-8.379,1.109,-2.076,7.526,4.718,-4.33,-8.34,12.5,28.8,-8.37,6.5,-4.9,8.0,13.4,7.2,36,4.6,4,5,prime,10,0,102,norm,36,-4.763,down,norm,9.158580947,10.1,29.2,2.069,-10.1,0,3.6,11.2,-0.2,10,6,8.136,4.473,1.176,-1.522,-5.072,-7.573,12.7,6,111.2,-7.754,-7.519,30,-8.0,-8.364,-4.981,-4.823,-4.888,-4.457,4.974,7.725,24,-1.944,1.954,5.257,8.389,-8.221,-8.373,-1.441,2.07,21.8,2.3,10.0,8.3,5.9,7.6,0.7,-10.8,13.6,19.0,2,norm,1.96,1.462,-1.969,-1.938,-4.878,-4.91,-2.024,-2.017,-1.719,-1.149,1.41,-2.082,6.9,2.3,-4.871,-8.0,15.5,-1.337,7.79,4.862,-4.974,-8.458,8,4.395,4.89,4.423,4.524,1.443,2.045,1.643,1.755,8,4.999,4.34,60,334.972101173,norm,0,29,29,29,381.897,381.91,381.914095246,381.914,381.918,381.924,down,1,1.08241783496,8.91758216504,001,022,800_600,Intel(R) Core(TM) i5-4200U CPU @ 1.60GHz,orientation_search,GRVLAPTOP8,Intel(R) HD Graphics 4400,2018_jul_31_1514,testMonitor,
20.8,14.5,6.8,0.1,36,30,28.9,22.0,5.7,6.3,7.703,7.548,7.548,7.569,7.747,7.609,7.984,4.302,-4.895,-7.574,1.813,-2.014,7.864,5.298,-5.108,-8.328,0.0,,-8.28,11.5,-2.3,17.2,19.9,21.4,36,15.9,5,5,prime,10,0,71,norm,36,-5.077,up,norm,9.158580947,19.2,10.6,1.454,-10.8,4,5.9,22.1,-0.9,10,6,8.057,4.651,1.635,-1.242,-4.549,-8.404,2.8,6,80.2,-8.457,-8.16,30,-7.95,-8.009,-5.013,-4.729,-5.184,-4.428,4.328,8.432,34,-1.88,1.216,4.336,7.729,-7.805,-8.295,-1.577,1.952,12.4,22.9,17.1,18.9,7.3,10.3,29.2,-8.6,20.4,2.7,3,norm,1.137,1.975,-1.435,-2.022,-5.239,-4.405,-1.676,-1.195,-1.311,-1.675,1.84,-1.753,5.5,5.1,-4.734,-7.757,10.2,-1.493,8.39,4.39,-4.488,-8.37,8,4.49,4.485,4.736,4.652,1.464,1.303,1.271,1.375,8,4.775,4.858,60,334.972101173,norm,0,30,30,30,383.023,383.031,383.038366815,383.039,383.042,383.046,down,0,2.53946880493,-10,001,022,800_600,Intel(R) Core(TM) i5-4200U CPU @ 1.60GHz,orientation_search,GRVLAPTOP8,Intel(R) HD Graphics 4400,2018_jul_31_1514,testMonitor,
13.7,7.8,23.5,-6.0,36,30,16.3,4.0,13.6,-10.8,8.058,7.795,8.493,8.2,8.042,7.784,8.367,5.13,-4.376,-7.546,1.698,-1.853,7.911,5.289,-5.232,-8.465,11.6,2.4,-8.281,8.3,-5.5,4.0,,-0.5,36,13.8,5,5,prime,10,0,60,norm,36,-4.514,down,norm,9.158580947,15.3,3.7,2.046,18.6,2,29.2,2.3,4.0,10,6,8.063,4.429,1.252,-1.554,-4.854,-7.764,13.2,6,69.2,-8.042,-7.7,30,-8.093,-7.558,-5.067,-4.718,-4.589,-5.066,5.079,8.13,32,-1.155,1.274,4.824,7.636,-7.793,-8.465,-2.011,1.503,-7.4,12.2,2.5,7.6,16.9,16.4,13.8,21.4,19.9,4.4,4,norm,1.196,1.318,-1.766,-1.702,-4.968,-4.544,-1.591,-1.225,-1.91,-1.252,2.072,-1.826,16.9,27.0,-5.183,-8.394,7.7,-1.672,8.277,5.286,-4.915,-7.769,8,4.78,4.652,4.858,4.656,1.327,2.062,1.764,1.163,8,5.196,4.997,60,334.972101173,norm,0,31,31,31,386.619,386.624,386.630745841,386.631,386.634,386.637,up,0,1.16160400045,-10,001,022,800_600,Intel(R) Core(TM) i5-4200U CPU @ 1.60GHz,orientation_search,GRVLAPTOP8,Intel(R) HD Graphics 4400,2018_jul_31_1514,testMonitor,
-10.8,9.4,10.0,8.4,36,30,3.5,3.0,9.1,3.4,7.958,7.907,7.638,7.794,8.261,8.072,7.52,5.117,-5.221,-7.522,1.727,-1.487,7.709,4.951,-4.785,-8.338,12.2,19.9,-8.219,-0.8,14.8,13.2,3.1,,36,21.3,4,5,prime,10,0,67,norm,36,-5.159,down,norm,9.158580947,-10.5,23.2,1.812,19.4,2,15.4,10.1,2.9,10,6,8.437,4.883,1.736,-1.885,-5.119,-8.239,5.0,6,76.2,-7.658,-8.287,30,-8.003,-8.367,-4.893,-4.309,-4.416,-4.588,4.443,7.642,26,-1.567,1.658,5.199,8.347,-8.246,-7.618,-1.204,2.027,7.6,15.2,20.9,1.9,16.6,6.8,16.2,17.3,29.2,7.7,5,norm,2.05,1.317,-1.244,-1.921,-4.828,-4.888,-1.95,-1.392,-1.879,-1.589,1.784,-1.538,3.4,16.6,-4.939,-7.912,11.0,-2.093,7.88,4.556,-5.251,-7.781,8,5.004,4.869,4.618,4.518,1.516,1.533,1.476,1.825,8,5.227,4.397,60,334.972101173,norm,0,32,32,32,388.834,388.839,388.842989593,388.843,388.846,388.849,down,1,1.59404037668,8.40595962332,001,022,800_600,Intel(R) Core(TM) i5-4200U CPU @ 1.60GHz,orientation_search,GRVLAPTOP8,Intel(R) HD Graphics 4400,2018_jul_31_1514,testMonitor,
122.0,121.0,119.4,113.3,36,20,119.5,119.8,115.7,127.3,7.992,7.893,8.256,7.509,7.673,7.52,8.467,4.947,-4.527,-8.484,1.515,-1.293,8.055,4.314,-4.938,-8.406,112.4,128.4,-8.452,125.1,120.1,131.0,123.6,121.5,36,122.6,3,5,probe,5,0,83,norm,36,-4.76,down,norm,121.062668081,121.1,118.9,1.522,129.2,1,131.1,111.9,128.4,10,6,7.825,4.308,1.48,-1.82,-4.475,-8.471,119.5,2,38.1,-8.191,-8.066,30,-7.527,-8.43,-4.73,-5.134,-5.084,-4.707,5.038,8.272,19,-1.881,2.09,4.629,7.767,-7.623,-8.025,-1.258,1.752,121.0,127.2,122.5,125.5,121.0,111.1,123.4,126.7,118.4,127.5,0,norm,1.587,1.589,-1.454,-1.995,-4.312,-4.373,-1.588,-1.375,-1.409,-1.742,1.799,-1.522,,125.2,-5.238,-7.803,121.1,-1.55,8.275,4.609,-5.021,-8.407,9,5.073,4.536,4.383,4.394,2.071,2.08,1.891,1.269,9,4.316,4.335,30,9.158580947,norm,0,33,33,33,390.463,390.477,390.483311297,390.484,390.49,390.493,down,1,0.881027529879,9.11897247012,001,022,800_600,Intel(R) Core(TM) i5-4200U CPU @ 1.60GHz,orientation_search,GRVLAPTOP8,Intel(R) HD Graphics 4400,2018_jul_31_1514,testMonitor,
150.7,145.9,152.6,157.1,36,20,142.9,149.9,142.7,145.1,7.774,8.371,8.303,8.185,7.943,8.241,8.219,4.79,-4.959,-7.761,1.921,-1.148,8.254,5.029,-4.734,-8.052,150.8,150.5,-7.544,147.4,144.2,146.9,147.8,144.7,36,151.4,1,5,probe,5,0,109,norm,36,-4.906,up,norm,147.062668081,143.5,142.3,1.72,148.0,5,,142.4,139.8,10,6,8.446,4.815,1.768,-1.901,-5.281,-8.403,152.3,2,38.1,-7.921,-8.447,30,-7.549,-7.762,-5.201,-5.17,-4.844,-4.897,4.999,8.409,11,-1.478,2.029,4.381,8.151,-7.6,-8.224,-1.85,1.784,146.2,152.2,148.6,150.4,143.8,146.5,142.2,148.0,147.3,137.1,1,norm,1.763,1.259,-1.343,-1.876,-4.748,-4.414,-1.354,-1.549,-1.204,-1.847,1.231,-1.599,150.6,145.6,-4.617,-7.695,154.6,-1.468,7.51,4.929,-5.233,-8.385,9,4.301,4.362,4.353,5.162,1.401,1.133,1.523,1.5,9,5.036,4.731,30,9.158580947,norm,0,34,34,34,391.396,391.409,391.412386371,391.413,391.416,391.419,up,1,0.68728979311,9.31271020689,001,022,800_600,Intel(R) Core(TM) i5-4200U CPU @ 1.60GHz,orientation_search,GRVLAPTOP8,Intel(R) HD Graphics 4400,2018_jul_31_1514,testMonitor,
239.4,232.0,214.1,223.8,36,-40,226.4,233.2,211.7,227.3,8.036,8.118,7.815,8.299,8.397,7.836,8.459,4.77,-4.437,-8.29,1.309,-1.864,7.986,4.982,-4.403,-8.082,225.1,235.0,-7.718,243.2,,226.7,248.5,225.9,36,224.9,5,5,prime,10,0,63,norm,36,-4.585,down,norm,228.451733443,217.6,238.1,1.712,232.8,0,221.8,222.9,241.7,10,5,8.088,5.269,2.046,-1.618,-4.937,-7.782,214.9,5,291.5,-7.956,-7.841,-40,-8.202,-8.349,-4.675,-4.793,-4.556,-4.745,4.425,8.045,30,-1.431,1.275,4.544,7.823,-8.427,-8.369,-1.497,1.69,231.8,246.9,227.9,231.8,221.5,237.1,220.8,224.2,208.5,236.6,0,norm,1.845,1.758,-1.534,-2.086,-4.846,-4.305,-2.082,-1.683,-1.963,-1.783,1.403,-1.9,237.6,225.1,-4.556,-8.148,237.2,-2.098,8.06,5.029,-4.703,-7.507,10,4.723,5.286,5.19,4.478,1.533,2.056,1.511,1.472,10,4.644,4.992,20,9.158580947,norm,0,35,35,35,392.127,392.134,392.153039764,392.153,392.157,392.162,down,1,0.79326909561,9.20673090439,001,022,800_600,Intel(R) Core(TM) i5-4200U CPU @ 1.60GHz,orientation_search,GRVLAPTOP8,Intel(R) HD Graphics 4400,2018_jul_31_1514,testMonitor,
248.5,,247.0,226.9,36,-40,240.1,229.0,227.7,221.4,7.594,8.139,7.884,8.251,7.734,7.715,7.534,4.406,-5.178,-8.378,1.464,-1.461,7.695,4.777,-4.909,-7.99,228.4,242.0,-8.285,240.7,236.4,215.6,210.6,225.9,36,245.0,3,5,prime,10,0,82,norm,36,-4.736,up,norm,228.451733443,208.5,232.6,1.178,231.4,5,231.3,236.0,216.2,10,5,7.748,4.607,1.216,-1.198,-4.888,-8.291,219.0,5,310.5,-8.283,-8.38,-40,-8.099,-8.16,-4.677,-5.09,-5.275,-5.058,4.888,8.322,23,-1.396,2.096,4.762,7.827,-8.271,-8.363,-1.596,1.687,241.7,224.7,235.7,223.0,235.7,217.0,236.0,240.0,242.1,239.2,1,norm,1.217,1.511,-1.5,-1.724,-4.614,-4.435,-2.074,-1.484,-1.785,-1.155,1.199,-2.075,229.4,218.1,-4.649,-8.05,232.6,-1.352,7.508,4.504,-4.627,-8.267,10,4.522,4.524,4.687,5.161,1.116,1.793,1.977,1.971,10,4.642,5.267,20,9.158580947,norm,0,36,36,36,392.975,392.99,392.995697801,392.996,393.002,393.006,up,1,0.913212583787,9.08678741621,001,022,800_600,Intel(R) Core(TM) i5-4200U CPU @ 1.60GHz,orientation_search,GRVLAPTOP8,Intel(R) HD Graphics 4400,2018_jul_31_1514,testMonitor,
215.8,230.8,210.0,237.2,36,-40,222.0,233.3,248.5,233.1,7.844,8.207,8.407,7.96,7.694,7.763,8.212,5.159,-4.702,-8.153,1.873,-1.379,8.342,4.523,-4.84,-7.685,223.4,239.5,-8.139,208.5,233.2,227.7,228.6,225.5,36,211.9,3,5,prime,10,0,113,norm,36,-4.76,down,norm,228.451733443,217.3,225.2,1.926,241.0,1,238.0,211.8,234.2,10,5,7.735,4.847,1.262,-1.803,-4.684,-7.867,225.7,5,341.5,-7.966,-7.994,-40,-7.756,-7.866,-4.355,-5.249,-5.095,-4.653,5.203,8.375,19,-2.052,1.221,4.887,7.828,-8.127,-7.728,-1.25,1.454,220.7,222.2,218.5,226.0,224.4,243.8,223.1,240.0,238.7,220.3,2,norm,1.343,1.292,-2.027,-1.711,-5.224,-5.213,-1.46,-1.167,-1.474,-1.547,2.083,-2.002,,224.2,-5.067,-8.074,240.5,-1.234,7.704,4.867,-5.211,-7.714,10,5.249,5.221,4.604,4.415,1.862,1.964,1.174,2.059,10,5.08,5.295,20,9.158580947,norm,0,37,37,37,393.939,393.947,393.966202681,393.967,393.971,393.976,down,1,0.725543709869,9.27445629013,001,022,800_600,Intel(R) Core(TM) i5-4200U CPU @ 1.60GHz,orientation_search,GRVLAPTOP8,Intel(R) HD Graphics 4400,2018_jul_31_1514,testMonitor,
225.7,232.0,244.5,248.5,36,-40,234.9,238.6,218.3,245.5,7.79,8.214,8.301,7.57,7.505,7.999,7.645,4.363,-5.167,-8.273,1.197,-1.52,7.673,4.862,-5.015,-7.57,232.3,233.0,-8.423,233.5,,224.2,210.6,220.8,36,234.0,5,5,prime,10,0,91,norm,36,-5.142,down,norm,228.451733443,229.3,236.2,1.425,212.5,0,217.8,211.4,222.2,10,5,7.858,5.222,1.174,-1.792,-4.445,-7.831,227.6,5,319.5,-8.396,-7.676,-40,-8.282,-7.988,-4.668,-4.361,-4.384,-4.599,4.362,7.622,30,-1.181,1.801,4.903,7.561,-8.387,-7.758,-1.447,1.861,234.1,227.7,227.3,214.5,224.0,208.5,236.6,215.8,221.0,243.8,3,norm,1.91,1.923,-1.187,-1.949,-4.947,-4.46,-1.385,-1.991,-1.674,-1.684,1.972,-1.366,223.6,233.3,-5.018,-7.757,240.3,-1.69,8.346,5.144,-4.717,-8.205,10,5.279,5.234,5.021,5.175,1.575,1.473,1.237,1.287,10,4.719,4.857,20,9.158580947,norm,0,38,38,38,394.721,394.734,394.739237028,394.74,394.748,394.751,down,1,0.797001000024,9.20299899998,001,022,800_600,Intel(R) Core(TM) i5-4200U CPU @ 1.60GHz,orientation_search,GRVLAPTOP8,Intel(R) HD Graphics 4400,2018_jul_31_1514,testMonitor,
223.9,213.0,225.4,248.5,36,-40,218.1,229.0,231.8,222.7,7.848,8.468,7.956,7.836,8.259,7.566,8.485,4.945,-4.783,-7.942,1.932,-1.589,8.467,4.504,-4.807,-8.075,245.3,219.6,-7.737,227.8,226.7,,225.5,235.0,36,235.5,5,5,prime,10,0,116,norm,36,-4.33,up,norm,228.451733443,236.6,235.6,2.089,227.8,3,229.8,231.3,239.6,10,5,8.293,4.371,1.547,-2.099,-5.214,-7.728,222.1,5,344.5,-8.224,-7.616,-40,-7.781,-8.024,-5.219,-5.295,-4.802,-4.408,4.646,8.157,33,-1.347,1.572,4.662,8.334,-8.42,-8.108,-1.409,1.484,229.7,229.0,232.9,230.1,229.8,219.6,220.8,218.6,217.2,223.7,4,norm,1.132,1.579,-1.641,-1.78,-4.867,-5.017,-1.134,-2.045,-1.919,-1.915,1.81,-1.214,208.5,241.0,-4.321,-8.014,242.9,-1.804,7.726,4.679,-4.918,-7.868,10,5.059,4.98,4.444,5.016,1.87,1.877,1.594,1.471,10,4.824,5.011,20,9.158580947,norm,0,39,39,39,395.564,395.572,395.57989234,395.58,395.583,395.586,up,1,0.761650766395,9.2383492336,001,022,800_600,Intel(R) Core(TM) i5-4200U CPU @ 1.60GHz,orientation_search,GRVLAPTOP8,Intel(R) HD Graphics 4400,2018_jul_31_1514,testMonitor,
266.9,264.3,268.9,266.1,36,-30,260.8,262.5,262.9,262.6,8.336,7.664,8.099,7.815,8.171,7.561,7.797,5.144,-4.813,-8.083,1.966,-1.805,8.066,4.468,-4.604,-8.021,267.8,262.2,-7.606,263.0,265.9,272.9,257.4,269.7,36,,4,5,probe,5,0,80,norm,36,-5.092,up,norm,264.872233393,262.8,254.9,1.809,261.9,3,265.1,274.7,263.3,10,5,8.435,5.111,1.962,-1.736,-5.006,-7.912,259.8,2,184.9,-8.024,-8.453,-40,-7.821,-7.893,-4.732,-5.104,-4.627,-4.922,4.315,8.084,27,-1.438,1.639,4.752,8.146,-8.243,-7.541,-1.275,1.904,266.6,268.6,274.0,268.6,269.5,264.4,265.1,263.2,265.7,274.9,0,norm,1.194,2.073,-1.552,-1.833,-4.817,-5.141,-1.748,-1.935,-1.254,-1.185,1.418,-1.812,268.1,267.7,-5.017,-7.813,265.1,-1.175,8.107,5.057,-5.23,-8.288,11,4.869,4.98,5.078,4.743,1.396,1.814,1.964,2.082,11,5.029,5.152,-40,228.451733443,norm,0,40,40,40,396.364,396.372,396.378584143,396.379,396.383,396.387,up,1,1.09223645182,8.90776354818,001,022,800_600,Intel(R) Core(TM) i5-4200U CPU @ 1.60GHz,orientation_search,GRVLAPTOP8,Intel(R) HD Graphics 4400,2018_jul_31_1514,testMonitor,
292.9,310.7,308.3,299.0,36,-30,298.4,306.9,303.7,308.0,7.871,8.305,7.867,7.89,7.924,7.745,7.561,5.178,-5.156,-7.728,1.983,-1.292,7.678,5.024,-5.299,-7.972,302.8,301.5,-7.811,297.8,307.2,302.4,305.8,308.9,36,305.7,0,5,probe,5,0,118,norm,36,-4.319,up,norm,302.872233393,308.4,302.0,1.778,302.9,3,305.5,293.1,307.8,10,5,7.535,5.044,1.278,-1.758,-4.35,-7.971,303.9,2,184.9,-7.796,-8.115,-40,-7.689,-7.519,-4.459,-5.14,-5.286,-5.081,4.324,7.908,3,-1.56,1.544,4.391,7.959,-7.618,-7.578,-1.392,1.557,300.2,305.4,,295.7,309.7,306.3,312.9,298.3,303.2,303.9,1,norm,1.283,1.686,-1.704,-1.438,-4.925,-5.078,-1.24,-1.672,-1.472,-2.064,1.129,-1.881,303.9,296.0,-5.081,-8.241,301.0,-1.857,8.211,4.666,-4.681,-8.444,11,5.136,4.301,5.125,4.762,1.609,1.987,1.795,1.967,11,4.341,4.713,-40,228.451733443,norm,0,41,41,41,397.499,397.51,397.512997407,397.513,397.516,397.52,up,1,0.890425342501,9.1095746575,001,022,800_600,Intel(R) Core(TM) i5-4200U CPU @ 1.60GHz,orientation_search,GRVLAPTOP8,Intel(R) HD Graphics 4400,2018_jul_31_1514,testMonitor,
329.9,319.1,334.3,314.1,36,60,335.5,321.0,329.9,317.7,7.968,7.773,8.226,7.692,8.326,8.399,8.25,4.877,-5.178,-8.269,1.774,-2.022,8.04,4.862,-4.535,-8.329,327.5,319.6,-7.637,336.1,333.0,319.1,347.6,331.0,36,326.8,0,5,prime,10,0,105,norm,36,-5.096,up,norm,327.631686213,341.4,339.0,1.216,307.6,4,321.2,344.4,321.5,10,5,7.58,4.454,1.717,-1.298,-4.974,-7.905,323.5,5,432.6,-7.703,-8.17,60,-8.466,-7.585,-5.273,-4.99,-5.284,-5.014,5.279,8.023,4,-1.228,1.603,5.265,8.397,-7.768,-7.911,-1.411,1.811,331.5,322.8,333.8,319.6,344.3,326.3,325.8,334.2,327.2,,0,norm,1.429,1.517,-1.92,-1.432,-5.28,-4.738,-1.166,-1.636,-1.599,-1.533,1.211,-1.168,320.2,316.9,-5.293,-8.178,330.4,-1.475,7.798,4.673,-4.919,-7.683,12,4.694,4.947,4.762,4.434,1.526,1.994,1.388,1.127,12,4.835,4.336,-30,228.451733443,norm,0,42,42,42,398.431,398.446,398.451814791,398.452,398.459,398.464,up,1,1.55944071859,8.44055928141,001,022,800_600,Intel(R) Core(TM) i5-4200U CPU @ 1.60GHz,orientation_search,GRVLAPTOP8,Intel(R) HD Graphics 4400,2018_jul_31_1514,testMonitor,
339.6,307.6,336.1,327.0,36,60,328.9,337.9,331.1,309.4,8.39,8.278,8.252,7.706,7.544,8.136,8.112,4.695,-4.419,-7.561,1.948,-1.944,8.292,5.144,-5.015,-8.248,324.9,331.4,-8.434,337.2,335.1,328.1,314.7,322.3,36,346.2,1,5,prime,10,0,117,norm,36,-4.56,down,norm,327.631686213,341.4,340.6,1.73,333.3,2,318.6,319.7,333.3,10,5,8.037,5.098,1.846,-1.666,-4.646,-8.343,311.7,5,444.6,-8.298,-8.305,60,-7.734,-8.0,-4.899,-5.008,-5.031,-4.944,4.945,8.216,8,-1.418,1.676,4.633,7.846,-8.043,-7.872,-1.938,1.866,338.4,,325.7,347.6,319.6,346.4,318.6,313.0,322.4,328.8,1,norm,1.291,1.218,-1.588,-1.855,-5.039,-4.736,-1.145,-1.236,-1.468,-1.627,2.055,-1.17,323.0,338.9,-4.742,-7.587,330.1,-1.133,7.932,4.577,-4.636,-7.695,12,5.229,4.377,4.714,4.793,1.699,1.373,1.683,1.384,12,4.394,5.071,-30,228.451733443,norm,0,43,43,43,400.045,400.055,400.070471992,400.071,400.074,400.079,down,1,1.65820789157,8.34179210843,001,022,800_600,Intel(R) Core(TM) i5-4200U CPU @ 1.60GHz,orientation_search,GRVLAPTOP8,Intel(R) HD Graphics 4400,2018_jul_31_1514,testMonitor,
325.6,324.5,324.2,322.6,36,60,333.4,320.0,322.9,315.1,8.15,7.862,7.664,8.361,8.246,7.571,8.292,5.052,-4.736,-7.905,1.567,-1.318,7.95,5.136,-5.216,-7.969,,322.4,-7.984,311.9,321.7,332.8,321.8,347.6,36,327.4,5,5,prime,10,0,79,norm,36,-5.189,up,norm,327.631686213,315.5,323.6,1.871,342.6,5,307.8,333.4,329.0,10,5,8.099,4.809,1.539,-1.774,-4.833,-8.416,309.5,5,406.6,-8.078,-8.365,60,-8.091,-7.719,-4.89,-4.587,-4.581,-4.912,4.302,8.078,35,-1.203,1.755,4.337,8.114,-7.821,-7.728,-1.415,1.247,335.8,327.9,313.2,325.1,327.0,324.9,320.4,324.2,315.5,340.3,2,norm,1.327,1.318,-2.052,-1.341,-5.192,-4.644,-1.92,-1.524,-1.532,-1.543,1.917,-1.25,325.6,337.9,-4.558,-8.231,307.6,-1.93,8.108,4.836,-5.059,-7.615,12,5.076,4.78,4.806,4.347,1.46,1.281,1.773,1.182,12,4.679,5.207,-30,228.451733443,norm,0,44,44,44,401.759,401.771,401.774240087,401.775,401.778,401.783,up,1,0.76917749505,9.23082250495,001,022,800_600,Intel(R) Core(TM) i5-4200U CPU @ 1.60GHz,orientation_search,GRVLAPTOP8,Intel(R) HD Graphics 4400,2018_jul_31_1514,testMonitor,
320.8,324.2,335.9,313.8,36,60,329.7,333.7,339.5,317.6,8.31,8.088,8.222,7.729,7.917,7.556,8.344,4.838,-4.48,-7.545,1.9,-1.536,8.157,4.682,-4.382,-8.092,332.5,317.2,-8.149,333.2,335.9,322.4,324.8,341.0,36,324.2,1,5,prime,10,0,103,norm,36,-5.207,up,norm,327.631686213,330.4,317.8,1.871,333.6,3,334.8,320.8,329.0,10,5,7.749,4.595,1.977,-1.851,-4.588,-7.676,330.2,5,430.6,-7.624,-7.759,60,-7.995,-8.491,-5.044,-5.01,-5.146,-4.968,4.548,7.763,9,-1.183,2.046,4.341,8.379,-8.471,-8.051,-1.357,1.422,,316.1,319.8,312.8,318.8,316.3,307.6,321.6,320.9,324.6,3,norm,1.876,1.424,-1.362,-1.532,-4.305,-4.985,-1.354,-1.993,-1.374,-2.073,2.086,-1.213,347.6,333.5,-4.484,-7.671,340.0,-1.315,8.483,4.575,-5.24,-8.15,12,4.745,4.711,4.85,4.754,1.249,1.726,1.91,1.624,12,5.204,4.45,-30,228.451733443,norm,0,45,45,45,402.573,402.583,402.59874196,402.599,402.602,402.606,up,1,1.02753701895,8.97246298105,001,022,800_600,Intel(R) Core(TM) i5-4200U CPU @ 1.60GHz,orientation_search,GRVLAPTOP8,Intel(R) HD Graphics 4400,2018_jul_31_1514,testMonitor,
,325.1,325.0,333.1,36,60,330.2,334.3,335.6,328.8,7.881,8.498,8.068,8.215,8.256,7.838,8.437,5.286,-5.017,-7.886,1.656,-1.28,8.069,4.312,-4.663,-8.037,330.9,327.3,-7.679,337.9,330.8,315.0,315.7,332.5,36,342.4,3,5,prime,10,0,107,norm,36,-4.78,up,norm,327.631686213,322.9,318.6,1.137,335.7,4,318.3,319.2,335.5,10,5,8.12,4.395,1.755,-1.676,-4.828,-7.523,343.3,5,434.6,-7.895,-8.395,60,-7.537,-8.02,-4.86,-4.966,-5.072,-4.714,4.368,7.549,22,-1.402,1.215,4.875,7.728,-8.48,-7.54,-2.028,1.953,320.0,327.2,336.4,318.8,325.5,345.8,314.0,322.8,307.6,311.9,4,norm,1.436,2.038,-2.027,-1.469,-4.585,-5.226,-1.231,-1.915,-1.112,-1.419,1.764,-1.831,319.7,333.1,-5.21,-8.109,336.4,-1.655,8.456,4.485,-4.688,-8.339,12,4.63,4.556,4.924,4.497,1.85,1.11,1.162,2.092,12,4.847,4.943,-30,228.451733443,norm,0,46,46,46,403.653,403.661,403.679996894,403.68,403.684,403.688,up,1,0.842973528602,9.1570264714,001,022,800_600,Intel(R) Core(TM) i5-4200U CPU @ 1.60GHz,orientation_search,GRVLAPTOP8,Intel(R) HD Graphics 4400,2018_jul_31_1514,testMonitor,
481.8,480.3,478.8,479.0,36,-40,,480.1,491.1,475.1,7.64,8.382,7.532,7.8,8.259,7.93,8.383,5.221,-4.58,-8.244,1.641,-1.26,7.766,4.811,-4.77,-7.593,484.8,481.5,-7.626,492.3,486.2,479.9,472.3,477.0,36,477.1,4,5,probe,5,0,88,norm,36,-4.584,down,norm,482.265349793,489.3,491.6,1.997,487.0,0,486.8,478.7,476.5,10,5,7.823,4.796,1.807,-1.575,-4.621,-8.22,477.6,2,394.3,-8.442,-8.018,60,-8.106,-8.01,-4.747,-4.719,-4.365,-5.014,4.835,8.378,24,-1.564,1.184,4.869,8.163,-7.735,-7.608,-1.938,1.797,486.4,484.9,478.9,484.1,479.5,488.6,474.4,481.1,482.2,481.6,0,norm,1.234,2.094,-1.238,-1.893,-4.616,-5.067,-1.302,-1.868,-1.469,-1.313,1.422,-1.432,480.9,476.8,-4.613,-8.081,479.2,-1.719,7.968,4.65,-4.84,-8.084,13,4.371,4.39,4.3,5.176,1.842,1.313,1.824,1.745,13,5.267,5.159,60,327.631686213,norm,0,47,47,47,404.548,404.553,404.561780354,404.562,404.565,404.567,down,1,0.945436906808,9.05456309319,001,022,800_600,Intel(R) Core(TM) i5-4200U CPU @ 1.60GHz,orientation_search,GRVLAPTOP8,Intel(R) HD Graphics 4400,2018_jul_31_1514,testMonitor,
492.1,497.4,485.6,486.4,36,-40,487.6,489.9,480.9,491.3,8.313,8.111,8.352,8.31,7.642,8.026,8.317,4.479,-4.58,-8.018,1.822,-1.229,8.314,4.701,-4.538,-7.91,484.7,492.3,-8.313,494.4,478.3,,487.6,483.4,36,494.0,5,5,probe,5,0,94,norm,36,-5.148,up,norm,488.265349793,496.0,493.8,1.809,488.5,3,488.7,493.2,483.6,10,5,8.351,4.571,1.588,-1.874,-5.008,-7.847,487.4,2,394.3,-8.335,-8.024,60,-7.724,-7.771,-4.946,-4.717,-5.205,-4.785,4.439,8.47,33,-1.181,1.461,4.77,7.837,-7.589,-8.286,-1.934,1.418,487.6,498.3,481.1,481.5,491.2,487.6,483.8,481.2,483.0,495.9,1,norm,1.407,1.507,-1.682,-1.516,-5.17,-5.033,-1.793,-1.823,-1.883,-1.343,1.974,-1.607,487.9,489.3,-5.246,-8.414,494.0,-1.503,8.202,5.151,-5.058,-7.856,13,5.076,5.25,5.092,4.645,1.633,1.419,1.313,1.113,13,4.522,4.54,60,327.631686213,norm,0,48,48,48,405.533,405.545,405.547899169,405.548,405.551,405.554,up,1,1.37296509021,8.62703490979,001,022,800_600,Intel(R) Core(TM) i5-4200U CPU @ 1.60GHz,orientation_search,GRVLAPTOP8,Intel(R) HD Graphics 4400,2018_jul_31_1514,testMonitor,
103.0,122.2,105.0,126.5,36,0,117.8,105.7,117.6,105.4,7.724,7.831,8.327,7.505,7.976,8.031,8.034,4.397,-5.222,-8.13,1.315,-2.099,8.1,4.678,-4.331,-8.419,115.5,108.9,-7.669,122.9,108.2,,93.7,108.4,36,125.9,5,5,prime,10,0,87,norm,36,-4.806,up,norm,113.722346332,110.5,113.7,1.358,109.9,3,129.0,133.7,123.2,10,5,7.954,5.21,1.443,-1.815,-4.64,-7.847,114.6,5,200.7,-7.556,-8.236,0,-8.074,-7.85,-4.834,-4.778,-4.703,-4.813,5.218,7.511,33,-1.569,1.11,4.891,7.834,-8.165,-8.401,-1.411,1.32,117.5,116.7,110.6,124.2,129.1,114.0,105.4,104.7,125.0,122.9,0,norm,1.747,1.608,-1.192,-1.459,-4.324,-4.877,-2.027,-1.901,-1.436,-1.744,1.735,-1.533,110.0,105.3,-5.173,-7.666,112.0,-1.876,8.476,4.399,-4.42,-8.176,14,4.828,4.978,4.501,4.746,2.027,1.102,1.697,1.432,14,4.342,4.399,-40,327.631686213,norm,0,49,49,49,406.948,406.955,406.973460774,406.974,406.977,406.982,up,1,0.743505312709,9.25649468729,001,022,800_600,Intel(R) Core(TM) i5-4200U CPU @ 1.60GHz,orientation_search,GRVLAPTOP8,Intel(R) HD Graphics 4400,2018_jul_31_1514,testMonitor,
109.5,115.4,106.7,115.7,36,0,119.4,110.7,98.5,99.7,7.764,7.854,7.708,7.826,7.841,7.952,7.733,4.784,-4.813,-8.255,1.829,-1.786,8.016,4.969,-4.446,-8.255,103.3,133.7,-7.636,124.1,129.5,124.9,102.8,93.7,36,106.2,1,5,prime,10,0,65,norm,36,-4.891,up,norm,113.722346332,100.1,98.4,2.058,126.0,3,118.0,102.8,108.1,10,5,8.38,4.523,1.547,-1.987,-4.749,-7.677,118.7,5,178.7,-7.961,-7.718,0,-7.707,-7.558,-4.605,-4.477,-4.739,-5.002,4.455,7.815,9,-1.197,1.536,4.873,8.473,-7.924,-8.455,-1.615,2.047,,104.8,102.0,112.5,112.4,132.1,107.7,115.9,108.5,113.9,1,norm,1.117,1.896,-1.735,-1.631,-4.893,-4.923,-1.198,-1.841,-1.347,-1.655,1.671,-1.15,103.2,119.6,-4.527,-8.066,106.3,-1.609,8.225,5.192,-4.334,-7.532,14,4.321,5.207,4.758,5.184,1.581,1.89,1.897,2.023,14,4.575,5.231,-40,327.631686213,norm,0,50,50,50,407.746,407.759,407.762007312,407.762,407.766,407.77,up,1,1.06939700046,8.93060299954,001,022,800_600,Intel(R) Core(TM) i5-4200U CPU @ 1.60GHz,orientation_search,GRVLAPTOP8,Intel(R) HD Graphics 4400,2018_jul_31_1514,testMonitor,
123.1,108.5,106.7,112.7,36,0,115.1,93.7,121.4,118.6,8.355,8.242,8.054,7.782,8.007,8.435,7.989,5.095,-5.199,-7.92,1.769,-1.579,7.913,4.461,-4.491,-8.006,111.2,117.5,-7.909,113.9,,112.0,127.2,124.8,36,97.9,5,5,prime,10,0,89,norm,36,-4.772,down,norm,113.722346332,115.4,128.7,1.269,121.3,0,111.0,111.3,110.3,10,5,7.816,4.382,1.634,-1.635,-4.92,-7.648,109.0,5,202.7,-8.238,-7.991,0,-8.379,-7.703,-4.705,-4.58,-5.145,-4.932,4.986,8.261,30,-2.073,1.961,4.412,8.07,-7.894,-7.956,-1.837,1.208,114.9,109.3,116.7,133.7,124.0,122.1,119.3,112.3,95.8,106.1,2,norm,1.364,2.042,-1.677,-1.575,-4.843,-4.41,-1.967,-1.114,-1.852,-1.734,1.731,-1.712,99.8,102.7,-4.555,-7.784,106.7,-1.123,8.014,4.67,-4.332,-8.486,14,5.045,4.74,4.41,4.33,1.202,1.766,1.576,1.786,14,5.063,5.052,-40,327.631686213,norm,0,51,51,51,408.86,408.869,408.886194542,408.886,408.889,408.892,down,1,1.31135988491,8.68864011509,001,022,800_600,Intel(R) Core(TM) i5-4200U CPU @ 1.60GHz,orientation_search,GRVLAPTOP8,Intel(R) HD Graphics 4400,2018_jul_31_1514,testMonitor,
126.9,111.2,133.7,127.2,36,0,118.8,114.2,121.5,118.3,7.745,7.576,7.723,8.42,8.021,7.744,7.674,4.553,-4.502,-7.671,1.12,-1.767,7.863,4.519,-5.037,-8.432,101.9,126.8,-8.132,105.0,108.1,109.3,119.9,118.4,36,93.7,0,5,prime,10,0,90,norm,36,-5.169,down,norm,113.722346332,106.0,120.8,1.893,122.3,1,102.8,117.0,100.8,10,5,8.144,4.362,1.663,-1.594,-4.681,-7.848,104.2,5,203.7,-7.881,-7.994,0,-7.908,-8.182,-4.762,-4.828,-4.604,-4.455,4.697,8.138,1,-1.359,1.676,5.203,7.998,-8.046,-7.944,-1.154,1.276,121.6,117.9,128.8,113.9,,119.6,108.0,111.0,113.9,119.4,3,norm,1.385,1.48,-1.136,-1.401,-4.91,-5.016,-2.039,-1.669,-1.577,-1.867,1.679,-1.648,123.8,108.7,-5.279,-7.576,119.2,-1.574,7.596,5.121,-4.516,-7.819,14,4.869,4.582,4.83,4.68,1.794,1.482,1.99,1.483,14,4.376,4.939,-40,327.631686213,norm,0,52,52,52,410.224,410.232,410.250293291,410.251,410.255,410.261,down,1,0.690736103978,9.30926389602,001,022,800_600,Intel(R) Core(TM) i5-4200U CPU @ 1.60GHz,orientation_search,GRVLAPTOP8,Intel(R) HD Graphics 4400,2018_jul_31_1514,testMonitor,
110.3,109.0,106.5,109.2,36,0,115.4,120.9,111.0,128.8,7.782,8.411,8.205,8.486,7.783,7.918,8.437,4.951,-4.837,-8.097,1.445,-1.327,7.687,4.647,-4.967,-7.683,107.1,97.5,-7.53,133.7,123.5,125.1,106.7,104.5,36,128.4,1,5,prime,10,0,87,norm,36,-4.765,down,norm,113.722346332,93.7,118.2,1.927,126.3,1,124.9,107.9,116.5,10,5,7.558,4.511,1.263,-1.699,-4.951,-7.936,131.5,5,200.7,-8.098,-7.578,0,-7.992,-8.045,-5.245,-4.414,-4.52,-5.089,5.113,7.76,7,-1.9,1.336,5.216,8.161,-8.021,-7.683,-1.393,1.765,118.0,116.4,114.5,118.8,125.4,102.4,,125.7,115.4,116.9,4,norm,2.063,1.467,-1.304,-1.314,-4.302,-5.192,-1.685,-1.15,-1.66,-1.659,1.884,-1.131,114.1,115.2,-4.826,-8.368,123.8,-1.884,7.676,5.095,-4.504,-7.758,14,4.604,4.809,5.216,4.794,1.264,1.28,1.27,1.95,14,5.146,5.02,-40,327.631686213,norm,0,53,53,53,410.972,410.979,410.998806754,410.999,411.003,411.007,down,1,0.709564304734,9.29043569527,001,022,800_600,Intel(R) Core(TM) i5-4200U CPU @ 1.60GHz,orientation_search,GRVLAPTOP8,Intel(R) HD Graphics 4400,2018_jul_31_1514,testMonitor,
200.8,201.6,201.5,214.0,36,0,204.7,204.1,213.6,202.7,8.141,7.742,8.447,8.36,8.271,7.837,8.193,4.532,-5.06,-7.921,1.852,-1.392,8.146,4.524,-4.733,-7.869,201.5,197.3,-8.006,207.8,207.6,209.4,213.0,201.2,36,208.1,2,5,probe,5,0,98,norm,36,-4.595,up,norm,206.896044423,213.5,205.0,1.922,201.9,3,208.9,210.8,212.4,10,5,8.439,4.985,1.834,-1.267,-4.474,-7.774,198.1,2,108.9,-7.96,-8.205,0,-7.725,-7.867,-5.119,-5.059,-5.141,-4.991,4.55,8.405,15,-1.12,1.536,4.49,7.792,-8.099,-7.951,-1.465,1.518,207.1,211.0,209.2,196.9,208.5,206.2,197.5,200.1,209.1,207.4,0,norm,1.963,1.547,-1.993,-1.316,-4.726,-5.29,-1.643,-1.951,-1.344,-1.888,1.123,-1.905,197.1,216.9,-4.869,-7.698,,-1.495,7.528,5.162,-4.528,-7.669,15,4.75,4.738,4.877,5.065,2.076,1.724,1.291,1.146,15,4.875,5.139,0,113.722346332,norm,0,54,54,54,411.737,411.752,411.754405615,411.755,411.758,411.761,up,1,0.937472416795,9.06252758321,001,022,800_600,Intel(R) Core(TM) i5-4200U CPU @ 1.60GHz,orientation_search,GRVLAPTOP8,Intel(R) HD Graphics 4400,2018_jul_31_1514,testMonitor,
,190.2,180.8,177.8,36,0,188.8,186.6,185.0,178.7,7.559,7.671,8.327,7.629,7.75,8.301,7.793,4.33,-4.698,-8.395,1.614,-1.247,8.015,4.914,-4.96,-7.513,182.7,186.4,-7.618,187.5,192.1,185.2,183.9,177.1,36,186.1,3,5,probe,5,0,74,norm,36,-4.853,up,norm,182.896044423,184.9,186.2,1.291,172.9,4,183.7,179.3,173.6,10,5,8.007,4.753,1.541,-1.865,-4.997,-7.613,185.6,2,108.9,-7.843,-7.562,0,-8.245,-7.607,-5.115,-4.53,-4.454,-4.772,5.058,8.335,22,-2.075,1.849,4.617,7.816,-8.143,-8.427,-1.617,1.853,182.7,182.6,175.3,188.8,184.6,192.9,186.6,180.1,180.2,186.9,1,norm,1.797,1.802,-1.755,-1.537,-5.087,-4.955,-1.113,-1.472,-1.992,-1.373,1.397,-1.483,190.1,184.1,-4.867,-7.544,175.9,-1.685,7.891,5.102,-4.98,-8.287,15,4.8,5.257,5.115,4.707,1.914,1.647,1.94,1.183,15,4.494,4.689,0,113.722346332,norm,0,55,55,55,412.718,412.725,412.729125231,412.729,412.733,412.736,up,1,0.844055214156,9.15594478584,001,022,800_600,Intel(R) Core(TM) i5-4200U CPU @ 1.60GHz,orientation_search,GRVLAPTOP8,Intel(R) HD Graphics 4400,2018_jul_31_1514,testMonitor,
286.2,290.4,287.1,287.9,36,40,273.8,295.2,294.6,299.8,8.462,7.699,8.272,8.391,8.036,8.003,7.927,5.188,-4.829,-8.098,2.037,-1.289,7.896,5.261,-5.076,-8.117,282.5,296.1,-7.827,313.8,299.4,294.3,289.6,295.8,36,,4,5,prime,10,0,71,norm,36,-4.672,up,norm,293.838378439,282.4,297.8,1.21,292.9,3,297.0,304.4,305.6,10,6,8.26,4.634,1.816,-1.137,-4.771,-7.956,283.3,6,364.8,-7.581,-7.528,40,-7.865,-8.034,-4.752,-5.175,-4.962,-4.965,4.359,8.497,27,-1.37,1.985,5.221,8.451,-8.124,-7.876,-1.678,1.248,297.0,291.5,291.6,305.0,300.9,311.2,305.6,305.4,295.1,303.4,0,norm,1.723,1.153,-1.412,-1.77,-4.39,-4.885,-1.273,-1.499,-1.579,-1.7,1.448,-1.328,284.3,298.6,-5.045,-8.12,294.3,-1.163,7.52,4.659,-4.787,-7.64,16,5.211,4.841,5.083,4.444,1.896,1.187,1.945,1.805,16,4.351,5.217,0,113.722346332,norm,0,56,56,56,413.6,413.611,413.62671451,413.627,413.63,413.633,up,1,2.32605278036,7.67394721964,001,022,800_600,Intel(R) Core(TM) i5-4200U CPU @ 1.60GHz,orientation_search,GRVLAPTOP8,Intel(R) HD Graphics 4400,2018_jul_31_1514,testMonitor,
290.9,288.5,308.3,305.5,36,40,303.3,306.2,295.6,281.6,7.772,8.493,8.178,7.719,7.553,8.498,8.039,4.483,-5.086,-8.06,1.44,-1.998,8.125,5.299,-4.38,-7.667,286.2,283.3,-7.814,298.0,274.9,292.6,302.1,293.5,36,308.8,0,5,prime,10,0,87,norm,36,-5.11,up,norm,293.838378439,287.0,273.8,1.617,294.7,5,293.9,288.7,292.0,10,6,7.954,4.432,1.511,-1.269,-4.483,-8.096,278.2,6,380.8,-8.142,-7.681,40,-7.805,-7.9,-4.696,-5.289,-4.859,-5.07,4.741,8.278,5,-1.746,1.597,4.988,7.622,-7.793,-8.202,-1.317,1.805,305.8,294.3,294.2,288.0,313.8,295.1,297.4,305.5,,283.3,1,norm,1.14,1.445,-1.908,-1.436,-4.691,-5.026,-2.096,-1.888,-1.545,-1.585,1.862,-1.511,285.8,288.1,-4.706,-7.734,307.6,-1.55,7.732,5.001,-5.098,-8.354,16,4.934,4.898,4.822,4.968,1.824,1.958,2.054,1.459,16,4.424,4.525,0,113.722346332,norm,0,57,57,57,415.979,415.989,416.00552088,416.006,416.01,416.013,down,0,1.05830302992,-10,001,022,800_600,Intel(R) Core(TM) i5-4200U CPU @ 1.60GHz,orientation_search,GRVLAPTOP8,Intel(R) HD Graphics 4400,2018_jul_31_1514,testMonitor,
299.9,313.3,293.6,285.9,36,40,282.2,297.3,313.2,306.3,7.555,7.642,8.048,7.616,7.623,7.676,7.751,5.265,-4.689,-7.606,2.056,-1.699,8.388,4.865,-5.183,-7.545,284.5,287.2,-8.105,273.8,286.4,303.9,297.7,297.7,36,293.9,0,5,prime,10,0,108,norm,36,-4.653,down,norm,293.838378439,283.1,302.1,1.435,289.6,1,282.1,302.9,298.9,10,6,8.099,4.461,1.199,-1.682,-4.336,-8.001,280.8,6,401.8,-7.734,-8.329,40,-8.438,-8.03,-4.383,-4.686,-5.225,-4.778,4.832,7.704,1,-1.731,2.078,4.69,8.046,-8.247,-7.572,-1.788,1.487,294.0,284.4,299.1,311.8,,280.4,299.0,301.2,301.5,293.7,2,norm,2.083,1.406,-1.965,-1.538,-5.162,-4.965,-1.66,-1.145,-1.981,-1.776,1.294,-1.548,313.8,304.9,-4.853,-8.113,282.2,-1.787,7.965,4.536,-4.818,-8.105,16,4.551,4.91,5.022,5.276,1.806,1.553,1.752,1.134,16,4.998,4.897,0,113.722346332,norm,0,58,58,58,418.115,418.12,418.134339188,418.135,418.137,418.14,down,1,0.863117244629,9.13688275537,001,022,800_600,Intel(R) Core(TM) i5-4200U CPU @ 1.60GHz,orientation_search,GRVLAPTOP8,Intel(R) HD Graphics 4400,2018_jul_31_1514,testMonitor,
284.2,291.6,308.5,303.1,36,40,290.4,292.7,273.8,279.9,7.988,8.412,7.986,7.506,8.138,8.196,8.451,4.958,-4.538,-8.423,1.74,-1.982,7.566,5.149,-4.708,-7.672,290.3,290.5,-8.244,,297.1,286.8,290.4,293.2,36,295.4,5,5,prime,10,0,87,norm,36,-5.248,down,norm,293.838378439,278.1,286.5,1.926,302.9,1,287.3,296.8,288.8,10,6,8.151,4.324,2.019,-1.687,-4.557,-7.982,309.6,6,380.8,-8.187,-8.423,40,-7.504,-8.383,-5.172,-4.896,-4.771,-4.471,5.205,7.511,31,-1.959,1.243,5.201,7.779,-8.429,-7.651,-1.576,1.767,311.2,307.4,286.6,310.1,304.3,291.4,280.8,297.8,279.9,280.5,3,norm,1.182,1.874,-2.085,-1.562,-4.622,-5.006,-1.287,-1.815,-1.57,-1.735,1.99,-2.079,276.2,289.4,-4.561,-7.881,313.8,-1.987,7.796,5.185,-4.547,-8.452,16,5.098,4.359,4.8,4.903,1.258,1.735,1.679,1.552,16,4.401,4.966,0,113.722346332,norm,0,59,59,59,419.023,419.037,419.040216926,419.041,419.044,419.049,down,1,0.768812470799,9.2311875292,001,022,800_600,Intel(R) Core(TM) i5-4200U CPU @ 1.60GHz,orientation_search,GRVLAPTOP8,Intel(R) HD Graphics 4400,2018_jul_31_1514,testMonitor,
273.8,286.7,291.9,304.8,36,40,295.2,299.7,285.3,286.3,7.508,8.382,7.621,7.532,7.562,8.02,7.857,5.135,-4.307,-8.402,1.901,-1.679,8.096,4.606,-5.223,-8.012,297.0,304.0,-7.818,286.1,,291.5,297.0,290.5,36,299.9,5,5,prime,10,0,114,norm,36,-4.696,down,norm,293.838378439,307.6,286.0,1.652,308.8,0,303.4,298.1,313.8,10,6,8.495,5.125,1.948,-1.345,-4.765,-8.146,290.0,6,407.8,-7.789,-7.565,40,-8.155,-7.714,-4.487,-4.866,-4.475,-5.08,5.217,8.032,30,-1.201,1.446,4.63,8.027,-8.091,-7.758,-1.64,1.247,282.3,307.8,285.8,309.8,286.8,298.3,288.2,288.6,281.1,295.1,4,norm,1.852,1.967,-1.74,-1.571,-5.115,-4.555,-2.034,-1.974,-1.806,-1.987,1.67,-1.766,279.7,301.5,-5.024,-8.417,296.7,-1.102,8.199,5.2,-4.577,-7.812,16,4.636,4.723,4.434,4.525,1.855,1.197,1.484,1.181,16,5.118,4.8,0,113.722346332,norm,0,60,60,60,419.838,419.85,419.853573512,419.854,419.857,419.861,down,1,1.17122314807,8.82877685193,001,022,800_600,Intel(R) Core(TM) i5-4200U CPU @ 1.60GHz,orientation_search,GRVLAPTOP8,Intel(R) HD Graphics 4400,2018_jul_31_1514,testMonitor,
291.2,286.2,273.8,286.4,36,40,313.8,292.5,305.6,295.0,8.118,7.597,7.552,7.855,8.466,8.279,8.366,4.498,-5.202,-7.892,1.385,-1.85,8.485,5.246,-5.16,-7.891,293.7,282.1,-7.565,311.2,281.0,285.8,287.7,285.1,36,285.1,0,5,prime,10,0,118,norm,36,-5.081,down,norm,293.838378439,301.2,296.9,1.667,287.3,2,292.8,293.6,293.0,10,6,7.906,4.385,1.42,-1.269,-4.957,-8.016,295.2,6,411.8,-7.83,-7.814,40,-8.203,-8.136,-4.559,-5.102,-4.647,-5.078,4.794,7.545,2,-1.342,1.192,4.713,8.499,-7.651,-8.344,-1.361,1.258,307.0,277.5,300.9,,294.7,295.1,299.0,310.1,292.4,299.0,5,norm,1.401,1.664,-1.491,-1.674,-5.257,-5.039,-1.783,-1.126,-2.01,-2.014,1.619,-1.934,298.1,283.9,-4.877,-7.744,287.6,-1.107,8.408,4.334,-4.57,-8.149,16,5.064,4.839,4.681,4.729,2.022,1.607,1.334,1.744,16,5.024,4.59,0,113.722346332,norm,0,61,61,61,421.051,421.059,421.078726092,421.079,421.083,421.088,down,1,0.974964155778,9.02503584422,001,022,800_600,Intel(R) Core(TM) i5-4200U CPU @ 1.60GHz,orientation_search,GRVLAPTOP8,Intel(R) HD Graphics 4400,2018_jul_31_1514,testMonitor,
436.1,433.9,440.4,444.5,36,20,,440.1,432.7,440.5,7.737,7.698,8.414,8.054,7.572,8.273,8.136,5.092,-4.418,-7.525,1.73,-1.845,8.271,4.728,-5.098,-7.806,431.1,428.5,-8.491,438.6,438.9,448.5,442.2,437.3,36,430.4,4,5,probe,5,0,100,norm,36,-4.597,down,norm,438.541724934,443.6,429.8,1.192,440.9,0,441.0,436.1,444.8,10,6,7.581,4.587,1.563,-1.738,-4.373,-8.497,440.2,1,338.5,-7.815,-8.331,40,-7.961,-7.768,-4.612,-4.61,-4.951,-4.442,4.464,8.364,24,-1.165,1.976,4.363,7.909,-7.727,-8.077,-1.977,1.404,434.5,436.7,440.1,436.5,439.0,430.5,441.1,433.0,444.3,436.9,0,norm,1.417,1.68,-1.397,-1.531,-4.337,-5.147,-1.217,-1.594,-1.714,-1.403,1.644,-1.594,441.7,442.4,-5.115,-8.226,438.0,-1.7,7.556,4.302,-4.819,-8.224,17,5.043,5.042,4.51,4.642,1.274,1.936,1.108,1.95,17,4.781,4.73,40,293.838378439,norm,0,62,62,62,422.083,422.095,422.097439163,422.098,422.1,422.103,down,1,2.55449816528,7.44550183472,001,022,800_600,Intel(R) Core(TM) i5-4200U CPU @ 1.60GHz,orientation_search,GRVLAPTOP8,Intel(R) HD Graphics 4400,2018_jul_31_1514,testMonitor,
239.2,239.5,249.1,250.8,36,-30,240.6,260.1,245.9,223.1,7.684,7.766,7.81,7.635,7.964,8.108,7.809,4.737,-4.52,-8.036,1.346,-1.478,7.617,4.53,-5.03,-7.658,254.1,245.8,-8.206,231.3,237.9,238.5,241.6,232.9,36,252.7,3,5,prime,10,0,73,norm,36,-4.855,down,norm,242.782146213,262.8,227.5,1.37,227.7,1,225.2,256.1,246.9,10,5,8.138,5.087,1.35,-1.647,-4.638,-8.43,257.4,5,315.8,-7.779,-7.723,-30,-8.118,-8.026,-4.849,-5.04,-4.377,-4.507,4.812,8.478,19,-1.123,1.966,4.365,8.333,-7.855,-7.956,-1.38,1.898,261.0,236.6,244.9,236.8,256.3,222.8,244.9,235.9,244.0,244.9,0,norm,1.176,1.67,-1.874,-1.139,-4.45,-4.353,-1.967,-1.92,-1.604,-1.693,2.093,-2.054,,247.8,-4.356,-7.932,243.5,-1.115,8.247,4.877,-4.671,-8.485,18,4.76,4.734,4.457,5.198,1.135,2.051,1.325,2.047,18,4.568,4.353,20,293.838378439,norm,0,63,63,63,424.678,428.384,428.397102207,428.397,428.4,428.402,down,1,2.16069813342,7.83930186658,001,022,800_600,Intel(R) Core(TM) i5-4200U CPU @ 1.60GHz,orientation_search,GRVLAPTOP8,Intel(R) HD Graphics 4400,2018_jul_31_1514,testMonitor,
250.3,229.0,241.4,237.6,36,-30,238.7,234.7,240.1,244.2,7.643,7.61,7.503,7.593,8.07,7.674,7.953,4.403,-4.332,-8.343,1.674,-1.323,7.657,5.287,-4.502,-8.055,247.2,237.1,-8.087,230.9,246.0,249.5,239.1,253.5,36,236.7,1,5,prime,10,0,118,norm,36,-4.539,down,norm,242.782146213,244.9,235.4,1.357,244.4,1,252.6,222.8,240.7,10,5,7.616,4.353,1.445,-1.405,-4.967,-8.441,235.3,5,360.8,-7.61,-7.555,-30,-8.438,-8.138,-4.447,-4.596,-4.675,-5.282,4.422,7.524,7,-2.015,1.199,4.334,8.213,-7.62,-7.86,-1.333,1.88,244.2,230.9,246.1,234.0,262.8,249.0,,252.9,226.8,246.5,1,norm,1.841,1.965,-1.316,-1.561,-5.248,-4.661,-1.999,-1.828,-1.807,-1.871,1.479,-1.287,241.2,240.2,-4.901,-7.971,244.2,-1.728,7.9,5.25,-5.173,-7.563,18,5.103,4.456,4.995,5.292,2.089,1.617,1.453,1.237,18,4.821,4.873,20,293.838378439,norm,0,64,64,64,430.583,430.596,430.599129297,430.599,430.602,430.605,down,1,0.722828786223,9.27717121378,001,022,800_600,Intel(R) Core(TM) i5-4200U CPU @ 1.60GHz,orientation_search,GRVLAPTOP8,Intel(R) HD Graphics 4400,2018_jul_31_1514,testMonitor,
249.3,252.2,240.3,238.8,36,-30,243.3,226.5,247.8,240.1,7.657,7.846,8.436,7.982,8.242,7.549,7.835,4.927,-5.045,-7.984,1.54,-1.121,8.066,4.544,-4.553,-8.033,250.9,249.3,-8.17,252.3,245.9,239.9,242.1,239.9,36,262.8,2,5,prime,10,0,71,norm,36,-4.333,up,norm,242.782146213,222.8,,1.605,250.2,4,224.2,258.8,239.7,10,5,8.498,4.9,1.613,-1.24,-5.101,-8.359,252.5,5,313.8,-8.455,-7.935,-30,-8.261,-8.026,-5.205,-4.831,-5.012,-5.282,4.982,7.656,16,-1.751,1.454,4.393,8.198,-8.19,-8.048,-1.684,2.09,253.4,236.0,237.3,250.7,254.8,248.1,249.8,237.2,257.5,237.6,2,norm,1.92,1.178,-1.588,-1.31,-4.374,-4.962,-1.438,-1.98,-1.174,-1.609,1.521,-1.325,223.9,246.7,-5.242,-8.258,256.8,-1.924,8.209,4.764,-4.6,-8.497,18,4.815,4.302,4.633,4.976,2.034,1.272,1.252,1.812,18,5.049,5.18,20,293.838378439,norm,0,65,65,65,431.351,431.36,431.364356676,431.365,431.369,431.375,up,1,1.10063156335,8.89936843665,001,022,800_600,Intel(R) Core(TM) i5-4200U CPU @ 1.60GHz,orientation_search,GRVLAPTOP8,Intel(R) HD Graphics 4400,2018_jul_31_1514,testMonitor,
256.9,233.8,240.8,222.9,36,-30,249.2,248.7,262.8,256.7,7.778,7.947,7.77,7.526,8.132,8.034,7.523,4.98,-4.41,-7.834,1.985,-1.308,8.108,4.711,-4.87,-8.238,238.0,229.3,-7.71,245.5,249.3,250.3,237.4,252.4,36,242.1,0,5,prime,10,0,99,norm,36,-4.526,up,norm,242.782146213,223.6,235.0,1.582,248.1,3,239.5,231.4,239.2,10,5,8.395,4.661,1.455,-1.289,-4.441,-7.804,233.0,5,341.8,-8.344,-8.324,-30,-8.306,-7.871,-4.305,-4.999,-4.303,-4.607,5.177,7.62,3,-1.471,1.52,5.242,7.899,-7.807,-7.951,-1.579,1.488,244.7,242.7,,238.9,242.8,247.7,240.7,222.8,250.2,238.6,3,norm,1.21,1.19,-2.076,-1.472,-4.814,-4.364,-1.696,-1.614,-1.277,-1.783,1.84,-1.171,247.2,232.9,-5.049,-8.255,223.7,-1.619,7.882,5.136,-4.481,-8.448,18,5.049,4.61,4.926,4.819,1.441,1.645,1.558,1.507,18,4.612,5.155,20,293.838378439,norm,0,66,66,66,432.497,432.511,432.515739997,432.516,432.519,432.523,up,1,0.850830028555,9.14916997145,001,022,800_600,Intel(R) Core(TM) i5-4200U CPU @ 1.60GHz,orientation_search,GRVLAPTOP8,Intel(R) HD Graphics 4400,2018_jul_31_1514,testMonitor,
257.0,255.8,246.7,239.8,36,-30,233.1,230.8,232.8,233.6,7.881,8.261,8.465,7.577,7.842,7.665,7.719,4.309,-5.207,-7.952,1.452,-1.478,7.819,5.036,-5.175,-8.377,239.1,239.0,-8.018,,231.2,262.8,231.4,230.3,36,252.2,5,5,prime,10,0,79,norm,36,-4.81,down,norm,242.782146213,247.6,236.2,1.519,244.6,1,255.3,249.3,250.3,10,5,7.604,4.777,1.679,-1.344,-5.093,-7.882,241.6,5,321.8,-7.833,-7.972,-30,-8.02,-7.804,-4.985,-4.686,-5.28,-5.007,5.286,7.506,31,-1.134,1.773,5.273,7.878,-7.699,-8.315,-1.18,1.237,243.3,245.6,240.2,239.5,253.4,233.7,251.8,233.8,231.2,238.1,4,norm,1.833,1.178,-1.725,-2.063,-4.492,-4.395,-1.957,-1.168,-1.604,-2.027,1.444,-1.162,235.9,250.2,-4.985,-7.797,256.6,-1.287,8.079,4.694,-4.735,-8.358,18,4.5,4.474,4.73,5.107,1.121,1.32,1.797,1.434,18,4.367,4.349,20,293.838378439,norm,0,67,67,67,433.393,433.398,433.404437945,433.405,433.407,433.411,down,1,1.09440473157,8.90559526843,001,022,800_600,Intel(R) Core(TM) i5-4200U CPU @ 1.60GHz,orientation_search,GRVLAPTOP8,Intel(R) HD Graphics 4400,2018_jul_31_1514,testMonitor,
278.3,287.5,282.5,291.6,36,-60,286.4,284.9,287.5,,8.169,8.29,8.172,7.846,7.829,8.055,7.85,4.882,-4.543,-7.904,1.389,-1.182,8.024,4.985,-4.87,-7.582,288.3,286.0,-7.629,289.0,285.8,286.3,284.3,283.0,36,296.1,4,5,probe,5,0,72,norm,36,-5.08,up,norm,286.0582313,281.4,278.6,2.059,294.3,5,283.2,293.6,295.7,10,5,8.082,4.941,1.709,-1.223,-5.009,-7.826,281.8,2,214.1,-7.804,-8.085,-30,-7.546,-7.508,-4.408,-4.349,-4.813,-4.783,4.838,7.941,29,-1.55,1.637,4.722,7.861,-8.439,-8.079,-1.326,1.403,293.9,284.4,278.5,292.8,282.5,290.9,283.1,276.1,281.2,285.3,0,norm,1.638,1.184,-1.379,-1.912,-4.655,-4.456,-1.327,-2.041,-1.788,-1.766,2.09,-1.437,276.6,293.2,-4.782,-7.572,289.2,-1.962,8.474,4.49,-4.717,-8.46,19,4.768,4.363,4.836,4.766,2.024,1.668,1.6,1.358,19,5.054,4.629,-30,242.782146213,norm,0,68,68,68,434.525,434.532,434.551706935,434.552,434.556,434.56,up,1,1.40866829961,8.59133170039,001,022,800_600,Intel(R) Core(TM) i5-4200U CPU @ 1.60GHz,orientation_search,GRVLAPTOP8,Intel(R) HD Graphics 4400,2018_jul_31_1514,testMonitor,
289.3,289.4,299.5,293.1,36,-60,289.3,299.6,296.4,297.4,8.224,7.676,7.546,7.621,8.148,8.189,7.689,4.325,-5.292,-8.048,1.909,-1.898,8.41,5.148,-4.763,-7.766,291.3,295.0,-7.919,,290.6,294.0,290.8,289.0,36,287.8,5,5,probe,5,0,80,norm,36,-4.937,down,norm,294.0582313,295.6,302.1,2.004,292.0,1,304.1,295.6,287.2,10,5,8.076,5.031,2.033,-1.178,-4.323,-8.177,295.8,2,214.1,-8.35,-8.03,-30,-7.708,-7.553,-4.482,-5.078,-4.977,-4.441,4.497,8.264,31,-1.454,1.408,4.886,7.606,-7.638,-8.271,-2.064,1.495,291.8,296.7,293.1,294.5,293.8,296.8,284.1,289.4,302.0,291.1,1,norm,1.685,1.546,-1.829,-1.425,-5.156,-5.077,-1.916,-1.499,-2.052,-1.214,1.903,-1.244,292.2,293.7,-4.323,-8.189,291.2,-1.208,7.691,4.494,-4.612,-8.495,19,4.442,5.153,5.164,4.967,1.285,1.357,1.603,1.537,19,4.658,5.229,-30,242.782146213,norm,0,69,69,69,435.989,436.0,436.004313801,436.005,436.009,436.014,down,1,1.03622129394,8.96377870606,001,022,800_600,Intel(R) Core(TM) i5-4200U CPU @ 1.60GHz,orientation_search,GRVLAPTOP8,Intel(R) HD Graphics 4400,2018_jul_31_1514,testMonitor,
245.5,232.6,,241.5,36,80,253.5,259.0,229.9,248.6,7.8,7.866,8.162,8.393,8.272,7.673,7.648,4.426,-4.782,-8.277,1.133,-1.506,7.989,4.664,-4.811,-8.436,255.2,222.3,-7.659,235.3,233.9,239.5,241.2,241.4,36,240.8,3,5,prime,10,0,113,norm,36,-5.145,down,norm,239.011904864,235.8,228.2,1.755,243.1,2,223.8,239.7,233.8,10,5,8.196,4.864,1.814,-1.299,-4.483,-8.415,234.1,5,352.0,-8.335,-7.531,80,-8.17,-7.891,-4.771,-5.186,-4.436,-4.789,4.807,7.774,20,-1.835,1.35,4.509,7.523,-8.414,-7.85,-1.845,1.883,239.3,245.1,232.6,235.8,236.0,228.6,242.4,219.0,243.3,241.5,0,norm,1.568,1.612,-1.548,-1.157,-4.311,-4.706,-1.68,-2.046,-2.068,-1.4,1.458,-1.608,243.7,237.6,-4.498,-8.22,236.0,-1.203,7.672,4.677,-5.024,-8.132,20,5.015,4.464,4.894,5.261,1.916,1.201,1.902,1.567,20,4.965,5.049,-60,242.782146213,norm,0,70,70,70,437.07,437.077,437.096709114,437.097,437.101,437.106,down,1,1.45815541376,8.54184458624,001,022,800_600,Intel(R) Core(TM) i5-4200U CPU @ 1.60GHz,orientation_search,GRVLAPTOP8,Intel(R) HD Graphics 4400,2018_jul_31_1514,testMonitor,
246.3,248.2,230.8,254.8,36,80,241.7,228.1,233.3,219.9,8.102,8.104,8.08,8.144,7.683,7.786,7.603,4.819,-4.322,-8.197,1.117,-1.512,8.266,4.317,-4.669,-7.892,246.2,227.0,-8.421,225.1,241.7,240.5,251.2,234.8,36,234.7,1,5,prime,10,0,66,norm,36,-4.935,down,norm,239.011904864,242.0,235.2,1.149,227.4,1,246.1,237.0,226.9,10,5,7.548,4.799,1.666,-1.68,-4.583,-7.618,236.8,5,305.0,-7.803,-8.467,80,-8.168,-8.223,-4.709,-5.005,-5.193,-5.196,5.218,7.577,7,-1.413,2.081,4.522,8.02,-7.859,-7.688,-1.849,1.198,226.3,246.9,240.6,237.8,237.2,245.4,,231.5,240.2,225.2,1,norm,2.096,1.214,-1.426,-1.938,-4.601,-4.476,-1.144,-1.885,-1.132,-1.963,1.561,-1.697,259.0,249.7,-5.16,-8.008,247.2,-1.46,8.495,4.909,-4.777,-8.047,20,4.729,4.457,5.095,4.387,1.386,1.268,1.934,1.511,20,4.605,4.615,-60,242.782146213,norm,0,71,71,71,438.584,438.597,438.600790202,438.601,438.604,438.608,down,1,0.704382566834,9.29561743317,001,022,800_600,Intel(R) Core(TM) i5-4200U CPU @ 1.60GHz,orientation_search,GRVLAPTOP8,Intel(R) HD Graphics 4400,2018_jul_31_1514,testMonitor,
234.8,240.9,253.6,251.3,36,80,239.8,224.1,255.1,242.3,8.089,7.735,7.549,7.504,7.949,8.219,7.986,4.795,-4.951,-8.075,1.936,-1.793,8.387,4.898,-4.895,-7.626,235.8,239.7,-7.675,248.6,248.6,229.8,,234.5,36,240.7,5,5,prime,10,0,101,norm,36,-5.282,down,norm,239.011904864,247.5,245.0,1.456,259.0,2,236.9,225.3,235.3,10,5,7.708,4.975,2.063,-1.529,-4.981,-8.018,219.8,5,340.0,-7.983,-7.794,80,-7.937,-8.029,-5.2,-4.767,-4.9,-4.327,5.236,7.778,32,-1.72,1.235,4.39,7.614,-7.783,-8.454,-1.372,1.762,221.4,249.4,237.8,244.5,228.6,240.5,241.5,235.9,252.5,245.4,2,norm,1.516,1.709,-1.504,-1.4,-4.367,-5.173,-1.456,-1.937,-1.277,-1.762,1.876,-1.268,222.8,219.0,-5.133,-7.966,256.0,-1.86,7.635,4.553,-4.435,-8.401,20,4.847,4.378,4.856,4.314,1.928,1.862,1.106,1.458,20,5.152,5.215,-60,242.782146213,norm,0,72,72,72,439.332,439.347,439.350413017,439.351,439.354,439.357,down,1,2.38295595567,7.61704404433,001,022,800_600,Intel(R) Core(TM) i5-4200U CPU @ 1.60GHz,orientation_search,GRVLAPTOP8,Intel(R) HD Graphics 4400,2018_jul_31_1514,testMonitor,
251.7,221.7,245.3,227.3,36,80,233.0,245.7,231.8,,8.175,8.487,7.727,8.313,8.013,8.164,8.185,5.29,-5.195,-7.785,2.051,-1.156,7.81,5.201,-4.518,-8.098,235.3,242.4,-7.782,240.7,254.9,232.7,219.0,259.0,36,245.1,4,5,prime,10,0,79,norm,36,-4.76,up,norm,239.011904864,251.9,250.7,2.056,227.6,5,247.3,226.3,240.0,10,5,7.923,4.601,1.982,-2.031,-4.863,-7.503,235.0,5,318.0,-7.615,-8.337,80,-7.662,-8.051,-5.198,-5.069,-4.872,-4.79,4.74,7.536,29,-1.957,1.304,4.739,8.413,-8.463,-7.889,-1.875,1.769,250.5,231.2,242.0,240.4,230.6,236.7,246.2,244.1,233.4,227.8,3,norm,1.899,1.15,-1.538,-1.34,-4.461,-4.382,-1.773,-1.788,-1.186,-1.817,1.505,-1.692,239.3,251.1,-4.613,-7.518,251.5,-1.703,8.18,4.69,-4.511,-8.465,20,5.174,4.498,5.026,5.251,1.784,2.076,1.532,1.674,20,4.374,5.246,-60,242.782146213,norm,0,73,73,73,441.761,441.774,441.780109927,441.781,441.784,441.788,up,1,0.834600729067,9.16539927093,001,022,800_600,Intel(R) Core(TM) i5-4200U CPU @ 1.60GHz,orientation_search,GRVLAPTOP8,Intel(R) HD Graphics 4400,2018_jul_31_1514,testMonitor,
234.3,223.7,238.2,254.4,36,80,244.8,252.3,233.5,229.4,7.899,8.356,8.428,8.095,8.301,8.211,7.58,4.76,-5.161,-7.547,1.254,-1.623,8.037,4.766,-5.001,-7.736,227.3,259.0,-7.919,237.6,230.4,236.0,219.0,222.2,36,239.2,2,5,prime,10,0,87,norm,36,-4.664,down,norm,239.011904864,224.0,232.4,1.789,237.9,1,240.4,,230.6,10,5,8.069,4.993,1.134,-1.646,-4.897,-7.929,246.9,5,326.0,-7.63,-8.287,80,-7.778,-8.346,-4.591,-5.067,-5.227,-4.631,4.771,8.207,13,-1.215,1.721,4.793,7.696,-8.218,-8.161,-2.022,1.519,239.6,250.9,236.2,244.3,220.3,236.7,236.8,238.3,232.1,256.7,4,norm,1.152,1.456,-1.803,-1.554,-4.413,-4.378,-1.503,-1.491,-1.358,-1.899,1.418,-1.238,241.6,224.8,-5.012,-7.886,247.9,-1.879,7.961,4.833,-4.72,-8.377,20,4.923,5.276,5.112,5.223,1.555,1.81,1.948,1.79,20,4.922,4.438,-60,242.782146213,norm,0,74,74,74,442.642,442.655,442.658136493,442.658,442.661,442.664,down,1,0.922732666145,9.07726733386,001,022,800_600,Intel(R) Core(TM) i5-4200U CPU @ 1.60GHz,orientation_search,GRVLAPTOP8,Intel(R) HD Graphics 4400,2018_jul_31_1514,testMonitor,
398.9,390.9,387.9,391.4,36,30,391.3,392.6,397.8,392.2,7.557,8.256,8.126,8.2,8.237,7.997,7.567,5.274,-5.151,-8.455,1.881,-1.791,7.981,4.405,-5.113,-8.465,384.5,394.0,-8.378,396.8,400.3,392.9,390.7,390.5,36,382.9,2,5,probe,5,0,81,norm,36,-4.756,down,norm,390.310397837,393.4,390.2,1.547,389.0,1,395.1,,392.9,10,5,7.521,4.691,1.293,-1.118,-4.619,-8.14,385.1,2,309.3,-8.443,-7.822,80,-7.52,-7.596,-5.185,-4.604,-4.464,-4.61,4.307,8.168,13,-1.338,1.199,4.332,7.582,-7.594,-7.663,-1.136,1.291,383.6,392.0,384.8,396.1,389.0,386.2,392.2,385.8,382.9,380.3,0,norm,1.734,1.7,-1.57,-1.171,-4.744,-4.573,-1.857,-1.582,-1.258,-2.048,1.352,-1.812,384.2,398.0,-4.494,-7.543,380.6,-1.714,7.503,4.751,-4.769,-8.314,21,5.05,4.492,4.82,4.437,1.985,1.133,1.448,1.762,21,5.238,4.935,80,239.011904864,norm,0,75,75,75,443.607,443.621,443.627552548,443.628,443.636,443.641,down,1,1.14377136095,8.85622863905,001,022,800_600,Intel(R) Core(TM) i5-4200U CPU @ 1.60GHz,orientation_search,GRVLAPTOP8,Intel(R) HD Graphics 4400,2018_jul_31_1514,testMonitor,
389.4,397.4,392.6,397.8,36,30,392.9,396.6,395.9,398.5,8.467,7.606,8.202,7.644,7.778,8.158,8.385,5.271,-4.352,-7.863,2.005,-1.305,7.596,4.786,-4.88,-7.791,398.1,396.6,-8.068,399.5,392.7,394.6,396.9,396.4,36,392.3,1,5,probe,5,0,87,norm,36,-4.808,up,norm,396.310397837,406.1,391.9,1.587,393.1,4,386.3,399.7,392.3,10,5,8.336,4.588,1.771,-1.801,-4.708,-7.502,,2,309.3,-7.705,-7.743,80,-8.261,-7.666,-4.964,-4.485,-4.656,-4.694,4.453,7.521,10,-1.352,1.302,5.259,7.683,-7.888,-8.453,-1.733,1.948,405.4,395.5,386.5,398.2,406.3,389.9,395.5,392.8,389.1,400.9,1,norm,1.72,1.189,-1.219,-1.939,-4.842,-5.006,-2.009,-1.344,-1.373,-1.431,1.709,-1.251,393.9,393.1,-4.379,-7.839,394.6,-1.643,7.95,4.42,-4.879,-7.623,21,4.315,4.413,4.919,5.293,1.608,1.917,1.539,2.049,21,5.291,5.01,80,239.011904864,norm,0,76,76,76,444.806,444.815,444.831275795,444.832,444.837,444.84,up,1,0.859133660902,9.1408663391,001,022,800_600,Intel(R) Core(TM) i5-4200U CPU @ 1.60GHz,orientation_search,GRVLAPTOP8,Intel(R) HD Graphics 4400,2018_jul_31_1514,testMonitor,
341.2,369.7,366.6,358.1,36,-20,352.3,347.9,352.2,364.9,7.944,7.719,7.881,8.479,7.544,7.654,7.914,4.46,-4.517,-7.612,1.22,-1.501,7.54,5.029,-4.628,-7.528,365.2,356.8,-7.766,363.3,357.8,354.7,376.9,337.6,36,349.2,0,5,prime,10,0,88,norm,36,-4.386,down,norm,357.566434793,356.9,352.3,1.76,352.5,2,360.6,357.2,350.1,10,6,8.116,4.958,1.108,-1.436,-4.566,-8.025,360.4,6,445.6,-8.485,-8.014,-20,-8.379,-7.753,-5.294,-4.81,-5.271,-5.136,4.446,7.939,2,-1.418,1.525,4.964,7.533,-8.499,-8.015,-1.35,2.09,377.6,351.0,370.3,,362.3,342.7,357.7,342.3,371.7,346.2,0,norm,2.086,1.239,-1.182,-1.255,-4.971,-5.123,-1.582,-1.907,-1.22,-1.591,1.831,-1.901,338.3,356.2,-4.41,-8.417,353.1,-1.804,8.068,4.736,-4.459,-8.161,22,5.202,4.941,5.233,4.583,1.164,1.165,1.113,1.505,22,4.588,5.087,30,239.011904864,norm,0,77,77,77,445.72,445.734,445.740237052,445.741,445.746,445.75,down,1,2.67740067034,7.32259932966,001,022,800_600,Intel(R) Core(TM) i5-4200U CPU @ 1.60GHz,orientation_search,GRVLAPTOP8,Intel(R) HD Graphics 4400,2018_jul_31_1514,testMonitor,
363.4,354.3,365.4,374.7,36,-20,339.8,365.9,363.2,349.3,8.464,7.565,7.893,7.575,8.222,7.842,8.348,4.661,-5.299,-7.701,1.726,-1.669,8.13,4.676,-4.909,-7.686,366.4,353.8,-8.408,348.9,369.2,359.0,374.0,361.2,36,349.3,1,5,prime,10,0,61,norm,36,-5.228,down,norm,357.566434793,349.2,364.6,1.535,357.7,1,370.1,337.6,350.9,10,6,7.874,4.605,1.907,-2.061,-4.654,-8.281,339.2,6,418.6,-8.454,-8.36,-20,-7.562,-8.025,-4.583,-5.036,-4.592,-4.976,4.945,7.738,7,-1.933,1.656,4.993,7.723,-8.126,-7.815,-1.28,1.789,344.4,357.2,350.3,346.2,350.3,356.9,,355.6,344.1,357.8,1,norm,1.681,2.058,-1.352,-1.293,-4.63,-4.966,-1.673,-1.263,-1.797,-2.087,2.049,-1.215,377.6,355.4,-4.888,-7.882,365.6,-1.723,7.678,4.42,-4.562,-8.331,22,5.065,4.352,4.464,4.836,1.371,1.671,1.696,2.049,22,4.931,4.816,30,239.011904864,norm,0,78,78,78,448.447,448.462,448.467384548,448.468,448.474,448.478,down,1,0.846401989874,9.15359801013,001,022,800_600,Intel(R) Core(TM) i5-4200U CPU @ 1.60GHz,orientation_search,GRVLAPTOP8,Intel(R) HD Graphics 4400,2018_jul_31_1514,testMonitor,
355.1,347.9,349.6,347.9,36,-20,357.0,356.6,369.2,365.4,8.152,7.639,7.846,8.114,7.717,8.094,8.315,4.985,-4.398,-8.228,1.195,-1.954,7.718,5.195,-4.527,-7.756,348.7,352.6,-8.436,358.3,364.3,337.9,346.7,337.6,36,369.2,1,5,prime,10,0,90,norm,36,-5.159,down,norm,357.566434793,354.7,371.2,1.65,357.6,1,354.8,342.8,343.7,10,6,8.18,4.355,1.65,-1.63,-4.643,-7.749,351.4,6,447.6,-7.653,-8.181,-20,-8.401,-7.953,-4.771,-4.321,-5.192,-4.603,5.001,7.984,7,-1.226,1.71,4.461,7.537,-8.02,-8.279,-2.033,1.702,368.1,351.6,354.3,366.7,344.3,369.1,,377.6,368.7,358.1,2,norm,1.604,1.88,-1.378,-2.078,-4.969,-4.897,-1.894,-2.034,-1.98,-1.417,1.208,-1.238,357.8,363.3,-4.315,-7.648,358.7,-1.927,7.726,4.875,-5.139,-7.935,22,4.841,5.231,4.656,4.96,1.16,1.251,1.504,1.599,22,4.632,4.599,30,239.011904864,norm,0,79,79,79,449.341,449.348,449.355787531,449.356,449.36,449.363,down,1,1.30928085314,8.69071914686,001,022,800_600,Intel(R) Core(TM) i5-4200U CPU @ 1.60GHz,orientation_search,GRVLAPTOP8,Intel(R) HD Graphics 4400,2018_jul_31_1514,testMonitor,
375.0,340.1,354.3,353.5,36,-20,365.7,375.0,350.0,368.1,8.37,7.598,7.687,7.874,7.937,7.916,8.366,4.572,-4.688,-8.179,1.881,-2.024,7.564,5.091,-5.207,-8.482,358.5,355.5,-7.935,,350.9,359.9,377.6,356.9,36,337.6,5,5,prime,10,0,92,norm,36,-4.788,down,norm,357.566434793,358.9,358.5,1.475,354.3,1,354.2,353.0,349.8,10,6,7.548,5.12,1.208,-1.526,-4.939,-7.901,350.5,6,449.6,-8.237,-7.707,-20,-8.373,-8.007,-5.265,-4.522,-4.464,-4.464,5.052,7.867,31,-1.132,1.881,5.049,8.349,-7.875,-7.976,-1.556,1.949,355.6,360.5,344.9,367.5,359.4,352.4,346.1,353.5,360.5,360.3,3,norm,1.854,1.272,-2.069,-1.916,-5.154,-4.702,-1.691,-1.6,-1.224,-1.378,2.029,-1.54,338.5,346.9,-4.63,-7.55,368.5,-1.436,8.368,5.108,-4.542,-8.18,22,4.654,4.96,4.501,4.958,1.46,1.235,1.626,1.947,22,5.005,5.26,30,239.011904864,norm,0,80,80,80,450.693,450.706,450.71160496,450.712,450.719,450.723,down,1,2.7437913525,7.2562086475,001,022,800_600,Intel(R) Core(TM) i5-4200U CPU @ 1.60GHz,orientation_search,GRVLAPTOP8,Intel(R) HD Graphics 4400,2018_jul_31_1514,testMonitor,
,360.0,340.8,367.6,36,-20,376.1,359.2,361.8,351.5,8.329,8.127,8.418,7.853,7.728,8.057,8.406,5.15,-4.625,-8.202,1.548,-1.951,8.012,4.316,-4.7,-7.797,342.7,368.9,-8.031,359.6,356.1,355.3,349.9,349.2,36,363.4,3,5,prime,10,0,110,norm,36,-4.787,up,norm,357.566434793,377.6,361.3,1.469,345.8,4,343.6,357.7,347.5,10,6,7.902,5.016,2.049,-1.571,-4.97,-7.905,337.6,6,467.6,-7.687,-8.12,-20,-8.345,-8.488,-5.114,-5.275,-4.495,-5.246,4.572,8.039,22,-1.357,1.714,5.194,7.955,-8.279,-7.576,-1.662,1.98,360.8,362.1,362.7,362.3,350.1,352.5,361.5,348.5,365.0,362.4,4,norm,1.206,1.646,-1.682,-1.635,-5.283,-4.537,-1.791,-1.299,-1.712,-2.029,1.289,-1.681,357.1,365.4,-5.263,-7.536,353.0,-1.934,7.693,4.47,-5.153,-7.932,22,4.47,4.606,4.539,4.806,1.178,1.599,1.876,1.821,22,5.019,4.724,30,239.011904864,norm,0,81,81,81,453.488,453.502,453.506679096,453.507,453.513,453.517,up,1,2.56122300081,7.43877699919,001,022,800_600,Intel(R) Core(TM) i5-4200U CPU @ 1.60GHz,orientation_search,GRVLAPTOP8,Intel(R) HD Graphics 4400,2018_jul_31_1514,testMonitor,
345.1,343.0,377.6,365.4,36,-20,367.6,348.7,374.9,367.1,7.98,8.259,8.311,7.848,7.682,7.701,7.519,5.079,-4.555,-8.149,1.856,-1.342,8.378,4.302,-5.019,-8.01,360.1,354.8,-8.006,363.1,348.9,,339.1,341.0,36,346.2,5,5,prime,10,0,114,norm,36,-5.122,up,norm,357.566434793,337.6,342.6,1.75,360.2,3,356.2,353.9,368.1,10,6,7.749,4.857,1.749,-1.179,-4.973,-7.77,351.9,6,471.6,-7.653,-8.172,-20,-8.491,-8.35,-5.262,-4.542,-4.572,-5.063,4.31,8.325,33,-2.034,2.077,4.473,8.206,-8.107,-7.916,-1.874,1.814,360.3,349.3,361.8,357.2,353.0,355.7,357.1,369.3,356.7,349.7,5,norm,1.119,1.296,-1.529,-1.435,-5.047,-4.634,-1.786,-1.561,-2.017,-1.736,1.591,-1.633,372.6,373.2,-4.366,-7.67,359.6,-1.634,7.785,4.834,-4.305,-7.877,22,4.445,4.734,5.282,4.583,1.435,1.557,1.726,1.31,22,4.823,4.316,30,239.011904864,norm,0,82,82,82,456.099,456.113,456.118193781,456.119,456.122,456.126,up,1,3.49530488673,6.50469511327,001,022,800_600,Intel(R) Core(TM) i5-4200U CPU @ 1.60GHz,orientation_search,GRVLAPTOP8,Intel(R) HD Graphics 4400,2018_jul_31_1514,testMonitor,
451.6,449.0,451.7,451.3,36,-20,459.0,449.4,450.7,448.1,8.379,8.437,7.675,7.714,8.312,8.249,8.385,4.657,-4.749,-7.988,1.395,-1.813,8.226,4.745,-4.395,-8.067,452.4,445.1,-7.69,457.2,454.3,444.8,455.8,451.8,36,451.5,3,5,probe,5,0,118,norm,36,-5.023,down,norm,450.887087093,441.0,451.1,1.467,449.2,1,445.1,447.9,449.6,10,6,8.087,5.195,1.463,-2.025,-5.115,-7.782,460.0,1,332.9,-7.778,-8.169,-20,-7.773,-7.83,-5.065,-4.666,-5.156,-4.704,5.274,7.596,19,-1.365,1.286,5.277,8.014,-8.29,-7.752,-1.135,1.551,444.0,445.6,445.0,458.8,440.9,454.3,456.1,447.7,449.6,457.9,0,norm,1.748,1.581,-1.65,-1.261,-4.658,-5.085,-2.091,-2.049,-2.01,-1.785,1.338,-1.871,,459.5,-5.016,-8.253,459.3,-1.119,8.222,4.432,-5.082,-7.517,23,4.906,5.248,5.259,4.756,1.803,1.379,1.271,1.712,23,4.842,4.316,-20,357.566434793,norm,0,83,83,83,459.642,459.655,459.659966969,459.66,459.664,459.669,down,1,1.06672089969,8.93327910031,001,022,800_600,Intel(R) Core(TM) i5-4200U CPU @ 1.60GHz,orientation_search,GRVLAPTOP8,Intel(R) HD Graphics 4400,2018_jul_31_1514,testMonitor,
88.4,84.2,98.3,99.4,36,80,94.9,108.3,94.0,105.1,7.525,7.626,8.082,7.561,8.061,8.161,8.219,4.908,-5.039,-7.758,1.381,-1.916,7.601,5.012,-5.246,-8.362,103.5,120.6,-8.07,96.6,92.3,101.3,113.2,101.0,36,94.6,2,5,prime,10,0,62,norm,36,-5.263,down,norm,100.569488341,119.5,115.0,2.006,101.3,0,94.0,100.7,,10,6,7.551,5.256,1.52,-1.804,-5.099,-8.466,115.4,6,162.6,-8.236,-7.784,80,-7.654,-7.712,-4.461,-4.658,-4.403,-5.176,4.889,8.046,12,-1.511,1.767,4.825,7.602,-7.58,-8.235,-1.194,1.373,94.8,102.5,80.6,95.2,99.1,95.1,120.4,104.0,104.3,96.8,0,norm,1.889,1.27,-1.538,-1.134,-5.049,-4.566,-1.973,-2.043,-2.039,-2.09,2.015,-1.746,109.4,107.0,-5.054,-7.611,112.5,-1.657,7.595,4.802,-4.927,-7.806,24,5.02,5.219,5.17,5.258,1.438,1.704,1.898,1.414,24,4.417,4.411,-20,357.566434793,norm,0,84,84,84,460.756,460.767,460.770555484,460.771,460.773,460.777,down,1,0.940782624489,9.05921737551,001,022,800_600,Intel(R) Core(TM) i5-4200U CPU @ 1.60GHz,orientation_search,GRVLAPTOP8,Intel(R) HD Graphics 4400,2018_jul_31_1514,testMonitor,
120.6,104.7,108.2,98.7,36,80,98.6,92.4,104.4,114.2,7.687,8.401,7.906,7.95,7.724,7.86,7.894,4.874,-5.213,-7.637,1.286,-1.393,8.181,5.289,-5.157,-7.907,94.5,108.0,-7.759,83.3,80.6,100.3,106.9,114.1,36,108.9,0,5,prime,10,0,114,norm,36,-4.554,up,norm,100.569488341,109.3,91.2,1.857,81.2,3,95.5,103.6,96.7,10,6,8.319,4.999,1.175,-1.251,-4.505,-7.704,98.0,6,214.6,-8.011,-8.097,80,-8.426,-8.475,-4.974,-4.708,-4.754,-4.883,4.685,7.898,3,-1.414,1.253,4.576,8.242,-8.293,-8.22,-1.166,1.608,98.7,93.8,,101.9,101.6,108.6,115.4,107.7,95.6,93.1,1,norm,1.256,1.547,-1.927,-2.077,-5.097,-5.25,-1.471,-1.39,-1.211,-2.062,1.838,-1.593,113.3,105.3,-4.322,-8.493,86.7,-1.958,8.414,5.012,-4.594,-7.556,24,5.03,4.372,4.428,4.313,1.588,1.688,1.426,1.28,24,4.811,4.508,-20,357.566434793,norm,0,85,85,85,461.738,461.753,461.759208495,461.76,461.765,461.77,up,1,1.12831361027,8.87168638973,001,022,800_600,Intel(R) Core(TM) i5-4200U CPU @ 1.60GHz,orientation_search,GRVLAPTOP8,Intel(R) HD Graphics 4400,2018_jul_31_1514,testMonitor,
88.8,91.6,95.5,95.4,36,80,120.6,112.7,118.9,,8.135,7.894,7.734,8.495,8.221,7.827,7.739,5.195,-4.473,-7.589,1.208,-1.826,7.791,4.855,-5.159,-7.602,92.5,107.4,-8.427,116.1,101.3,99.9,107.1,101.9,36,101.6,4,5,prime,10,0,89,norm,36,-4.551,up,norm,100.569488341,104.3,110.6,1.843,102.1,5,86.5,91.8,99.4,10,6,8.485,5.069,1.928,-1.585,-4.968,-7.635,111.1,6,189.6,-8.098,-8.456,80,-8.014,-7.998,-4.54,-4.878,-5.284,-5.005,4.594,8.209,29,-1.124,1.796,4.503,8.43,-8.238,-7.723,-1.176,2.005,95.4,100.2,120.0,107.9,120.3,85.9,94.9,80.6,82.8,103.4,2,norm,1.989,1.686,-1.741,-1.872,-5.069,-4.798,-1.906,-1.161,-1.933,-1.215,1.664,-1.475,86.6,98.0,-5.143,-8.469,95.7,-1.657,8.357,4.514,-4.585,-8.17,24,4.48,5.15,4.96,4.517,1.359,1.965,1.996,1.334,24,4.738,4.627,-20,357.566434793,norm,0,86,86,86,462.919,462.933,462.936345215,462.937,462.939,462.942,up,1,0.970615547802,9.0293844522,001,022,800_600,Intel(R) Core(TM) i5-4200U CPU @ 1.60GHz,orientation_search,GRVLAPTOP8,Intel(R) HD Graphics 4400,2018_jul_31_1514,testMonitor,
95.4,99.6,107.4,97.2,36,80,80.6,,99.4,120.6,8.036,7.975,7.752,7.881,8.2,8.112,8.262,4.403,-4.306,-7.676,1.427,-1.611,8.469,4.41,-5.204,-7.875,115.5,100.9,-7.637,88.9,90.6,90.5,112.8,117.6,36,97.8,4,5,prime,10,0,75,norm,36,-4.381,down,norm,100.569488341,101.6,100.0,1.54,80.6,1,118.7,110.0,104.7,10,6,8.409,4.421,2.035,-1.933,-4.896,-8.27,88.3,6,175.6,-8.114,-7.827,80,-8.33,-7.856,-5.177,-4.526,-4.392,-5.1,5.052,8.3,25,-1.549,1.426,4.463,8.375,-7.837,-7.758,-1.475,1.607,88.1,101.0,106.3,112.6,101.7,105.3,98.3,119.4,86.0,98.7,3,norm,1.153,1.798,-1.999,-1.823,-4.727,-4.427,-1.995,-1.651,-1.232,-2.032,1.782,-1.467,106.6,107.3,-4.747,-7.735,100.2,-1.586,7.575,4.694,-4.752,-7.684,24,4.627,5.12,5.003,5.139,1.817,1.258,1.587,1.888,24,5.262,4.619,-20,357.566434793,norm,0,87,87,87,463.933,463.947,463.950707893,463.951,463.954,463.958,down,1,0.986630205891,9.01336979411,001,022,800_600,Intel(R) Core(TM) i5-4200U CPU @ 1.60GHz,orientation_search,GRVLAPTOP8,Intel(R) HD Graphics 4400,2018_jul_31_1514,testMonitor,
100.1,100.6,94.7,92.3,36,80,90.7,100.8,92.3,103.5,8.156,7.81,8.02,8.036,7.967,7.574,7.934,4.484,-4.557,-8.292,1.759,-1.719,8.496,4.7,-4.522,-8.476,98.2,96.8,-7.749,106.7,98.5,107.6,100.2,99.2,36,120.6,2,5,prime,10,0,78,norm,36,-4.535,up,norm,100.569488341,,103.7,1.467,92.8,5,114.1,100.1,116.3,10,6,7.591,4.301,1.92,-1.39,-4.602,-8.206,95.5,6,178.6,-8.177,-7.98,80,-8.312,-8.142,-4.422,-5.014,-5.191,-4.822,4.751,7.504,17,-1.224,1.97,4.73,8.142,-8.487,-8.482,-2.046,1.119,106.2,118.5,91.0,102.8,106.8,115.2,102.7,88.9,113.9,80.6,4,norm,1.183,1.894,-1.923,-1.656,-4.308,-4.347,-1.17,-1.739,-1.55,-1.261,2.013,-1.468,107.5,89.9,-5.149,-7.699,118.5,-1.295,7.884,4.516,-5.13,-7.562,24,4.851,4.68,5.097,5.137,1.4,1.37,1.121,1.189,24,5.154,5.224,-20,357.566434793,norm,0,88,88,88,464.967,464.979,464.982193689,464.982,464.985,464.988,up,1,1.00402374532,8.99597625468,001,022,800_600,Intel(R) Core(TM) i5-4200U CPU @ 1.60GHz,orientation_search,GRVLAPTOP8,Intel(R) HD Graphics 4400,2018_jul_31_1514,testMonitor,
101.3,87.6,94.5,86.3,36,80,97.8,82.3,103.6,99.9,8.306,7.705,8.088,8.104,8.311,8.291,8.478,4.755,-4.969,-8.216,1.15,-1.891,8.468,4.538,-4.408,-7.802,107.5,111.8,-8.466,94.7,120.6,93.1,91.7,114.6,36,88.6,1,5,prime,10,0,104,norm,36,-5.049,up,norm,100.569488341,103.8,89.7,1.623,101.7,5,,100.1,105.7,10,6,8.47,4.456,2.057,-1.967,-4.363,-8.004,80.6,6,204.6,-7.602,-7.556,80,-8.08,-7.556,-5.096,-4.606,-4.669,-5.069,4.564,7.73,11,-1.326,1.625,4.76,8.483,-7.731,-7.585,-1.181,1.259,117.9,107.3,86.6,95.9,89.7,88.9,108.9,83.2,110.6,86.0,5,norm,1.606,1.431,-1.686,-1.629,-4.662,-4.843,-1.7,-1.974,-2.064,-1.5,1.25,-1.864,95.0,112.7,-4.705,-8.021,81.7,-1.363,7.632,4.31,-5.174,-8.015,24,4.899,5.241,5.179,4.56,1.942,1.452,1.26,1.646,24,5.29,4.896,-20,357.566434793,norm,0,89,89,89,466.012,466.025,466.028053319,466.028,466.031,466.035,up,1,2.86792771092,7.13207228908,001,022,800_600,Intel(R) Core(TM) i5-4200U CPU @ 1.60GHz,orientation_search,GRVLAPTOP8,Intel(R) HD Graphics 4400,2018_jul_31_1514,testMonitor,
280.3,281.1,279.6,275.1,36,-10,284.0,277.6,285.9,285.0,8.429,7.67,7.929,7.908,8.168,7.841,7.767,5.287,-4.458,-8.26,1.404,-1.643,7.974,5.243,-4.75,-8.048,289.1,285.7,-8.151,286.6,277.2,277.4,285.2,283.1,36,282.5,1,5,probe,5,0,98,norm,36,-4.808,up,norm,285.06006399,286.1,290.0,1.297,290.3,4,289.0,288.3,282.6,10,6,8.443,5.271,1.346,-1.683,-5.237,-7.642,,2,187.1,-7.676,-7.614,80,-7.59,-7.905,-4.787,-4.977,-4.719,-4.369,5.201,7.914,10,-1.295,1.327,4.891,8.485,-7.867,-8.161,-1.692,2.009,285.5,285.0,287.6,285.4,287.6,281.7,286.4,279.6,290.5,276.2,0,norm,1.626,1.224,-1.481,-1.933,-5.124,-5.034,-2.022,-1.523,-1.697,-1.461,1.604,-1.337,289.8,292.4,-4.628,-7.689,295.1,-1.584,8.316,4.452,-4.847,-8.377,25,4.405,5.235,5.168,5.281,2.04,1.419,1.823,1.217,25,4.584,5.081,80,100.569488341,norm,0,90,90,90,468.923,468.931,468.949754724,468.95,468.954,468.958,up,1,1.07619992798,8.92380007202,001,022,800_600,Intel(R) Core(TM) i5-4200U CPU @ 1.60GHz,orientation_search,GRVLAPTOP8,Intel(R) HD Graphics 4400,2018_jul_31_1514,testMonitor,
280.9,291.8,285.0,282.4,36,-10,284.7,288.9,283.7,290.2,7.609,8.09,8.082,7.711,7.884,7.968,7.81,4.693,-4.973,-8.058,1.953,-2.031,7.92,5.176,-4.599,-8.004,294.1,279.8,-8.153,286.3,291.9,295.7,291.1,284.5,36,282.5,2,5,probe,5,0,100,norm,36,-4.34,down,norm,287.06006399,297.1,293.1,2.067,294.0,0,284.5,291.9,,10,6,7.764,5.06,1.856,-2.004,-4.459,-8.177,288.9,2,187.1,-8.448,-8.325,80,-8.176,-7.785,-5.017,-4.674,-4.318,-5.154,4.33,7.526,12,-1.307,1.727,4.729,8.264,-7.853,-7.851,-1.892,1.387,282.9,284.1,290.3,285.1,283.3,286.5,289.2,297.0,288.1,288.7,1,norm,1.769,1.127,-1.947,-1.997,-5.201,-4.431,-1.118,-1.813,-1.608,-1.838,1.728,-1.527,282.6,277.1,-5.233,-7.726,290.1,-1.232,8.24,5.055,-4.396,-8.227,25,4.89,4.915,4.568,4.408,1.352,1.329,1.706,1.672,25,5.117,4.628,80,100.569488341,norm,0,91,91,91,470.055,470.066,470.069013234,470.069,470.072,470.076,down,1,0.856290666401,9.1437093336,001,022,800_600,Intel(R) Core(TM) i5-4200U CPU @ 1.60GHz,orientation_search,GRVLAPTOP8,Intel(R) HD Graphics 4400,2018_jul_31_1514,testMonitor,
326.7,312.8,,286.7,36,-10,314.0,309.0,294.8,307.8,8.194,7.735,8.228,7.871,7.975,8.294,7.914,4.644,-4.582,-7.914,1.62,-2.005,7.61,4.474,-5.115,-8.432,304.0,304.5,-8.257,303.6,290.9,296.1,305.3,302.5,36,314.2,3,5,prime,10,0,108,norm,36,-4.378,down,norm,306.665552884,296.4,316.6,1.529,309.8,2,305.6,302.7,314.5,10,6,8.243,4.444,2.058,-1.494,-4.904,-8.341,304.8,6,414.7,-7.569,-8.319,-10,-8.493,-7.961,-5.111,-4.32,-4.958,-5.074,4.824,8.34,20,-1.198,1.754,5.04,8.053,-8.239,-8.168,-1.549,1.543,288.6,300.6,319.8,303.0,296.5,301.9,319.5,318.5,319.9,291.9,0,norm,1.389,1.118,-1.964,-1.133,-4.31,-4.563,-1.391,-1.435,-1.215,-2.079,1.763,-1.101,296.4,298.9,-4.526,-8.221,303.8,-1.531,7.818,4.306,-5.088,-8.04,26,4.854,4.523,5.126,5.178,1.632,1.256,1.136,1.13,26,4.902,4.798,-10,100.569488341,norm,0,92,92,92,470.952,470.966,470.970201437,470.97,470.974,470.977,down,1,1.35250588256,8.64749411744,001,022,800_600,Intel(R) Core(TM) i5-4200U CPU @ 1.60GHz,orientation_search,GRVLAPTOP8,Intel(R) HD Graphics 4400,2018_jul_31_1514,testMonitor,
301.6,326.7,301.9,292.7,36,-10,314.1,319.1,303.7,308.2,8.257,7.658,7.668,7.743,7.923,7.763,7.719,4.437,-4.691,-8.407,1.301,-1.321,8.48,4.418,-4.956,-8.484,323.2,301.0,-7.835,309.6,313.2,308.8,286.7,,36,303.8,4,5,prime,10,0,84,norm,36,-5.284,down,norm,306.665552884,314.7,292.3,1.761,292.5,2,312.2,294.2,316.0,10,6,7.511,4.546,1.884,-1.812,-5.083,-8.284,297.7,6,390.7,-8.452,-7.917,-10,-7.801,-7.873,-4.339,-4.3,-5.172,-4.467,5.11,8.185,26,-1.629,1.351,5.148,7.601,-7.964,-8.359,-1.327,1.231,311.1,295.9,290.4,318.3,303.5,315.1,296.3,303.9,304.3,293.7,1,norm,1.869,1.922,-2.037,-1.505,-4.665,-5.208,-1.78,-1.925,-1.946,-2.061,1.849,-1.146,322.7,297.1,-4.861,-8.498,298.2,-1.678,7.985,4.98,-5.152,-8.404,26,4.82,4.996,4.998,4.529,1.511,1.656,1.516,1.932,26,5.062,4.424,-10,100.569488341,norm,0,93,93,93,472.349,472.36,472.375958021,472.376,472.379,472.382,down,1,0.978315417544,9.02168458246,001,022,800_600,Intel(R) Core(TM) i5-4200U CPU @ 1.60GHz,orientation_search,GRVLAPTOP8,Intel(R) HD Graphics 4400,2018_jul_31_1514,testMonitor,
286.7,316.5,313.6,306.8,36,-10,306.0,296.6,311.8,311.5,8.124,7.652,7.864,8.231,7.735,8.437,7.769,4.365,-5.274,-8.486,1.462,-1.701,8.438,4.779,-5.248,-8.291,309.7,315.8,-8.048,,303.5,326.4,302.5,326.7,36,302.7,5,5,prime,10,0,90,norm,36,-4.717,down,norm,306.665552884,303.0,310.6,1.549,310.4,1,299.6,301.1,300.9,10,6,8.34,4.885,1.899,-1.191,-4.471,-8.472,309.3,6,396.7,-7.53,-7.708,-10,-7.955,-8.472,-4.59,-5.255,-4.959,-4.621,5.023,7.736,31,-1.693,1.471,4.489,7.581,-7.805,-8.249,-2.057,1.326,312.4,295.3,304.2,295.8,313.1,295.0,320.1,287.7,295.5,306.6,2,norm,1.239,1.762,-1.654,-1.516,-5.002,-4.313,-1.948,-1.789,-1.308,-1.431,1.92,-1.317,305.8,311.7,-4.742,-8.208,305.7,-1.917,7.518,4.723,-4.985,-8.479,26,5.252,5.3,4.341,4.944,1.187,1.601,1.494,1.473,26,5.242,4.534,-10,100.569488341,norm,0,94,94,94,473.38,473.395,473.401015285,473.401,473.404,473.408,down,1,0.867512261557,9.13248773844,001,022,800_600,Intel(R) Core(TM) i5-4200U CPU @ 1.60GHz,orientation_search,GRVLAPTOP8,Intel(R) HD Graphics 4400,2018_jul_31_1514,testMonitor,
303.4,295.5,289.8,306.0,36,-10,294.6,326.7,304.8,299.6,7.538,7.574,7.565,7.868,7.905,8.421,8.002,5.185,-4.519,-7.588,1.102,-1.595,7.892,4.69,-4.865,-8.391,309.3,311.1,-8.181,309.2,301.1,305.6,318.1,300.8,36,286.7,0,5,prime,10,0,95,norm,36,-4.767,up,norm,306.665552884,309.2,318.3,1.176,325.0,3,305.2,304.4,324.9,10,6,7.512,4.339,1.443,-1.782,-4.93,-7.955,323.1,6,401.7,-8.448,-7.764,-10,-8.224,-8.137,-4.835,-4.533,-4.991,-4.852,4.603,7.806,3,-1.783,1.113,4.569,8.083,-8.288,-8.102,-1.801,1.508,311.0,312.8,,299.3,307.4,295.7,318.0,311.4,303.4,300.9,3,norm,1.343,1.574,-2.011,-1.111,-4.745,-4.986,-2.033,-1.435,-1.812,-2.066,1.747,-1.309,301.0,308.7,-5.285,-8.102,298.6,-1.462,7.754,4.634,-4.989,-7.727,26,5.134,4.802,4.606,4.457,1.933,1.235,1.694,2.045,26,4.616,5.084,-10,100.569488341,norm,0,95,95,95,474.295,474.307,474.310545051,474.311,474.314,474.317,up,1,1.12277398796,8.87722601204,001,022,800_600,Intel(R) Core(TM) i5-4200U CPU @ 1.60GHz,orientation_search,GRVLAPTOP8,Intel(R) HD Graphics 4400,2018_jul_31_1514,testMonitor,
