d_ori_22,d_ori_23,d_ori_20,d_ori_21,set_size,ctpd,d_ori_24,d_ori_25,d_ori_28,d_ori_29,stim_pos_x_30,stim_pos_x_31,stim_pos_x_32,stim_pos_x_33,stim_pos_x_34,stim_pos_x_35,stim_pos_y_11,stim_pos_y_10,stim_pos_y_13,stim_pos_y_12,stim_pos_y_15,stim_pos_y_14,stim_pos_y_17,stim_pos_y_16,stim_pos_y_19,stim_pos_y_18,d_ori_35,d_ori_34,stim_pos_x_3,d_ori_31,d_ori_30,d_ori_33,d_ori_32,d_ori_26,test_set_size,d_ori_27,targetCol,dsd_test,seq_type,dsd,blockRepN,targetDist,dtype_test,prime_set_size,stim_pos_y_25,correctResponse,dtype,distrMean,d_ori_17,d_ori_16,stim_pos_y_3,d_ori_14,targetRow,d_ori_11,d_ori_13,d_ori_12,dsd_prime,streak_length_prime,stim_pos_y_35,stim_pos_y_34,stim_pos_y_33,stim_pos_y_32,stim_pos_y_31,stim_pos_y_30,d_ori_10,nextProbe,targetOri,stim_pos_x_1,stim_pos_x_2,ctpd_prime,stim_pos_x_4,stim_pos_x_5,stim_pos_x_6,stim_pos_x_7,stim_pos_x_8,stim_pos_x_9,stim_pos_y_28,stim_pos_y_29,targetPos,stim_pos_y_20,stim_pos_y_21,stim_pos_y_22,stim_pos_y_23,stim_pos_y_24,stim_pos_x_0,stim_pos_y_26,stim_pos_y_27,d_ori_9,d_ori_8,d_ori_3,d_ori_2,d_ori_1,d_ori_0,d_ori_7,d_ori_6,d_ori_5,d_ori_4,trialN,dtype_prime,stim_pos_x_18,stim_pos_x_19,stim_pos_x_12,stim_pos_x_13,stim_pos_x_10,stim_pos_x_11,stim_pos_x_16,stim_pos_x_17,stim_pos_x_14,stim_pos_x_15,stim_pos_y_9,stim_pos_y_8,d_ori_19,d_ori_18,stim_pos_y_1,stim_pos_y_0,d_ori_15,stim_pos_y_2,stim_pos_y_5,stim_pos_y_4,stim_pos_y_7,stim_pos_y_6,totBlockN,stim_pos_x_27,stim_pos_x_26,stim_pos_x_25,stim_pos_x_24,stim_pos_x_23,stim_pos_x_22,stim_pos_x_21,stim_pos_x_20,blockN,stim_pos_x_29,stim_pos_x_28,prevDistrCTPD,prevDistrMean,prevDistrType,trials.thisRepN,trials.thisTrialN,trials.thisN,trials.thisIndex,timeStart,timeBeforeDraw,timeDraw,timeAfterSaving,timeAfterWritingToTemp,timeAfterPreparingNext,answer,correct,rt,trialScore,session,participant,resolution,cpu_info,expName,pc_name,graphic_card,date,monitorName,
282.9,296.7,306.0,298.5,36,30,280.1,290.1,319.7,302.1,7.952,8.365,7.59,8.489,7.556,8.09,8.291,4.804,-5.086,-8.267,1.144,-1.279,8.138,5.095,-4.415,-7.91,294.1,293.3,-8.055,294.5,289.8,308.4,308.4,288.6,36,299.1,2,5,prime,10,0,113,norm,36,-4.694,up,norm,300.140628588,293.2,294.7,1.588,306.6,3,303.3,307.9,289.0,10,6,7.613,5.255,1.533,-1.466,-4.335,-8.414,296.2,6,413.1,-7.787,-8.046,30,-8.161,-7.992,-4.945,-4.846,-5.293,-4.642,5.032,8.381,15,-1.608,1.793,4.319,8.291,-8.142,-8.423,-1.276,1.849,298.3,306.7,284.0,307.2,310.6,305.2,293.7,285.8,297.8,320.1,0,norm,1.176,1.775,-1.894,-1.463,-4.738,-4.436,-1.248,-1.418,-1.414,-2.069,1.363,-1.459,303.2,299.9,-4.378,-7.923,,-1.591,8.016,5.166,-4.855,-7.77,0,4.849,5.176,5.163,4.839,1.335,1.357,1.462,1.198,0,5.121,5.15,,,,0,0,0,0,320.588,320.599,320.60437337,320.605,320.605,320.609,up,1,1.73489740151,8.26510259849,001,jef,800_600,Intel(R) Core(TM) i7-2670QM CPU @ 2.20GHz,orientation_search,GRVLAPTOP3,Intel(R) HD Graphics Family,2018_jun_27_1426,testMonitor,
294.4,318.5,320.1,303.1,36,30,293.5,307.9,305.4,305.3,7.931,8.285,7.89,7.533,8.476,7.97,7.874,5.273,-4.583,-7.831,1.485,-1.431,8.35,4.519,-4.48,-8.412,316.4,288.8,-7.647,295.6,294.2,318.8,304.7,307.2,36,280.1,2,5,prime,10,0,81,norm,36,-4.63,down,norm,300.140628588,290.0,312.2,1.138,295.4,0,305.5,299.8,,10,6,7.912,4.338,1.152,-1.27,-4.401,-8.153,314.3,6,381.1,-7.557,-8.385,30,-8.178,-7.965,-4.746,-4.826,-5.105,-4.616,4.438,7.86,12,-1.924,1.295,4.723,8.162,-8.107,-8.12,-1.854,1.13,295.9,309.6,305.8,289.2,312.7,314.6,312.1,317.7,311.5,302.6,1,norm,1.868,2.078,-1.48,-2.017,-4.566,-5.211,-1.515,-1.365,-1.258,-1.984,1.734,-2.067,302.7,287.2,-5.106,-7.823,293.2,-1.492,8.297,5.043,-5.117,-7.526,0,4.478,5.148,5.084,4.914,1.805,1.342,2.055,1.527,0,4.757,4.509,,,,0,1,1,1,322.354,322.359,322.361606909,322.362,322.364,322.367,down,1,0.922542156342,9.07745784366,001,jef,800_600,Intel(R) Core(TM) i7-2670QM CPU @ 2.20GHz,orientation_search,GRVLAPTOP3,Intel(R) HD Graphics Family,2018_jun_27_1426,testMonitor,
311.1,302.7,305.8,299.8,36,30,301.5,292.4,298.6,303.6,7.662,8.044,8.253,8.389,7.708,7.896,7.844,5.077,-5.262,-8.039,1.573,-1.615,8.095,5.244,-4.525,-7.603,304.6,309.3,-8.451,286.9,293.3,298.1,293.7,305.2,36,312.8,1,5,prime,10,0,80,norm,36,-4.831,down,norm,300.140628588,305.8,320.1,1.559,308.4,1,300.9,309.3,283.3,10,6,7.609,4.433,1.635,-1.389,-4.866,-8.2,302.3,6,380.1,-8.089,-8.072,30,-7.801,-7.983,-5.274,-4.341,-5.078,-4.908,5.039,7.589,7,-1.439,1.623,5.248,7.934,-8.012,-8.192,-2.052,1.659,302.7,315.2,298.2,309.7,306.7,294.4,,317.4,280.1,302.5,2,norm,1.3,1.286,-2.066,-1.27,-4.443,-4.824,-2.071,-1.207,-1.225,-1.124,1.685,-1.189,295.5,305.2,-4.32,-8.455,297.8,-1.589,8.491,5.139,-4.848,-7.535,0,4.572,4.802,4.5,4.642,1.894,1.397,1.667,1.578,0,4.402,4.709,,,,0,2,2,2,323.299,323.305,323.307357001,323.308,323.31,323.314,down,1,1.67187768497,8.32812231503,001,jef,800_600,Intel(R) Core(TM) i7-2670QM CPU @ 2.20GHz,orientation_search,GRVLAPTOP3,Intel(R) HD Graphics Family,2018_jun_27_1426,testMonitor,
302.2,304.2,303.9,283.8,36,30,295.2,295.7,309.4,293.1,8.41,7.816,7.885,8.42,8.371,7.934,8.035,4.581,-4.619,-8.14,1.434,-1.684,8.217,5.197,-5.276,-8.107,300.1,296.0,-7.634,291.5,280.1,289.2,289.1,315.5,36,310.0,0,5,prime,10,0,82,norm,36,-5.248,up,norm,300.140628588,302.2,295.6,1.899,314.2,3,297.1,294.7,284.9,10,6,7.574,4.838,1.603,-1.356,-4.652,-7.697,295.0,6,382.1,-8.498,-7.911,30,-7.573,-7.726,-5.153,-4.75,-5.16,-4.986,4.897,7.818,3,-1.685,1.135,4.515,8.37,-7.91,-8.024,-1.213,1.388,320.1,296.2,,298.9,303.9,307.9,301.2,300.9,298.0,305.8,3,norm,1.783,1.794,-1.96,-1.728,-4.661,-4.725,-1.995,-1.665,-1.543,-1.237,1.672,-1.247,289.5,294.1,-5.227,-7.798,302.7,-2.093,7.709,5.166,-5.238,-8.266,0,4.511,4.569,5.028,4.762,1.339,1.735,1.581,1.911,0,4.896,4.511,,,,0,3,3,3,324.995,325.001,325.003526414,325.004,325.007,325.01,up,1,0.819237637003,9.180762363,001,jef,800_600,Intel(R) Core(TM) i7-2670QM CPU @ 2.20GHz,orientation_search,GRVLAPTOP3,Intel(R) HD Graphics Family,2018_jun_27_1426,testMonitor,
295.5,294.7,301.2,295.7,36,30,312.0,296.3,299.5,292.2,7.845,7.584,8.032,7.516,8.253,8.19,7.735,4.616,-4.915,-8.152,1.135,-1.87,8.336,4.817,-5.056,-8.007,,293.3,-8.233,296.2,296.7,300.7,302.6,295.5,36,286.6,5,5,prime,10,0,68,norm,36,-5.112,up,norm,300.140628588,294.7,280.6,1.974,283.6,5,301.9,301.7,288.6,10,6,8.221,4.364,1.485,-1.637,-4.866,-8.443,320.1,6,368.1,-7.684,-7.806,30,-7.704,-7.6,-5.28,-5.132,-5.068,-4.682,4.645,7.998,35,-2.073,1.759,4.516,7.797,-8.479,-7.697,-1.519,1.996,303.8,280.1,305.7,299.3,298.2,306.2,296.9,291.1,309.9,292.1,4,norm,1.694,1.177,-1.489,-1.912,-5.293,-4.71,-1.812,-1.506,-1.435,-1.143,1.791,-1.904,282.9,295.1,-5.184,-7.666,292.7,-2.095,7.782,4.655,-4.782,-7.539,0,4.373,4.758,4.326,4.768,1.111,1.311,1.134,1.412,0,4.673,4.842,,,,0,4,4,4,325.837,325.843,325.845084313,325.846,325.848,325.852,up,1,1.18922818591,8.81077181409,001,jef,800_600,Intel(R) Core(TM) i7-2670QM CPU @ 2.20GHz,orientation_search,GRVLAPTOP3,Intel(R) HD Graphics Family,2018_jun_27_1426,testMonitor,
309.0,293.8,304.8,301.9,36,30,302.3,297.0,306.5,307.5,8.42,7.502,7.915,8.419,7.993,7.79,8.117,4.446,-4.699,-8.149,1.351,-2.075,7.567,5.094,-5.003,-8.173,292.0,311.3,-8.485,313.7,299.6,307.8,301.0,296.1,36,302.0,2,5,prime,10,0,72,norm,36,-4.832,down,norm,300.140628588,302.8,297.5,1.31,,2,308.8,320.1,295.1,10,6,7.923,4.767,1.427,-1.525,-5.233,-7.872,283.9,6,372.1,-7.688,-8.117,30,-8.226,-8.3,-4.807,-4.325,-5.126,-4.608,5.093,8.472,14,-1.157,1.847,5.026,7.914,-7.613,-7.626,-1.217,1.852,297.1,280.1,281.6,286.9,287.0,307.5,310.1,287.7,288.0,298.8,5,norm,1.343,2.039,-1.211,-1.687,-5.209,-4.318,-1.538,-1.41,-1.911,-1.256,1.511,-1.47,302.7,296.0,-4.32,-8.443,305.1,-1.72,7.921,5.248,-5.244,-8.456,0,5.041,5.049,4.554,4.954,1.596,1.244,1.162,2.055,0,4.43,4.475,,,,0,5,5,5,327.05,327.057,327.058477683,327.059,327.062,327.065,down,1,0.985099124374,9.01490087563,001,jef,800_600,Intel(R) Core(TM) i7-2670QM CPU @ 2.20GHz,orientation_search,GRVLAPTOP3,Intel(R) HD Graphics Family,2018_jun_27_1426,testMonitor,
421.4,422.9,417.4,419.4,36,-20,420.2,422.3,422.3,419.2,8.015,7.806,7.822,8.168,8.266,8.293,7.66,5.015,-4.89,-7.529,1.808,-1.366,8.32,4.927,-4.684,-8.372,418.5,428.1,-7.974,422.7,417.6,422.6,,425.0,36,429.2,5,5,probe,5,0,94,norm,36,-5.002,down,norm,421.778189769,426.4,423.0,1.267,429.7,2,425.6,419.9,412.0,10,6,7.773,5.021,2.024,-1.505,-4.44,-7.818,417.2,1,327.8,-7.808,-7.975,30,-7.869,-7.841,-4.439,-5.152,-5.228,-4.364,4.938,7.515,32,-2.018,1.771,4.602,7.773,-8.34,-8.435,-1.867,2.098,422.0,413.2,428.1,422.3,423.0,420.2,419.4,431.8,419.4,422.8,0,norm,1.847,1.432,-1.654,-1.265,-4.979,-4.977,-1.397,-1.15,-1.81,-1.826,1.905,-1.425,419.0,422.5,-4.469,-7.841,411.8,-1.796,8.186,5.171,-4.994,-7.698,1,5.111,5.19,4.96,4.9,1.423,1.983,1.982,1.738,1,4.3,5.277,30,300.140628588,norm,0,6,6,6,328.058,328.063,328.066065171,328.067,328.069,328.073,down,1,1.01505543643,8.98494456357,001,jef,800_600,Intel(R) Core(TM) i7-2670QM CPU @ 2.20GHz,orientation_search,GRVLAPTOP3,Intel(R) HD Graphics Family,2018_jun_27_1426,testMonitor,
79.2,69.3,60.2,87.6,36,40,79.9,84.5,72.2,86.0,7.964,8.465,7.737,7.625,7.855,8.155,7.985,4.55,-4.488,-7.862,1.326,-1.627,7.904,5.236,-4.75,-7.72,82.5,89.0,-7.699,87.5,74.7,80.5,91.9,81.8,36,71.3,0,5,prime,10,0,119,norm,36,-4.381,up,norm,80.1512104457,72.3,79.9,1.199,100.2,3,71.5,88.3,80.4,10,5,8.138,4.741,1.335,-2.049,-5.058,-7.608,88.7,5,199.2,-7.569,-8.498,40,-7.901,-7.772,-4.563,-5.26,-4.644,-5.094,5.065,8.272,3,-2.078,1.824,4.78,8.414,-8.45,-7.899,-1.148,1.583,72.2,65.5,,74.2,90.0,68.4,64.8,73.7,88.7,85.9,0,norm,1.352,1.313,-2.053,-2.028,-5.282,-5.153,-1.469,-1.741,-1.32,-1.176,1.369,-1.522,80.5,90.1,-5.015,-7.6,68.3,-1.351,7.766,4.754,-5.182,-8.116,2,5.216,5.063,5.251,4.568,1.116,2.039,1.414,1.649,2,4.384,4.936,-20,300.140628588,norm,0,7,7,7,329.096,329.101,329.103462816,329.104,329.107,329.111,up,1,0.946342652432,9.05365734757,001,jef,800_600,Intel(R) Core(TM) i7-2670QM CPU @ 2.20GHz,orientation_search,GRVLAPTOP3,Intel(R) HD Graphics Family,2018_jun_27_1426,testMonitor,
81.0,100.2,72.8,88.5,36,40,69.4,70.3,60.2,75.5,8.465,8.465,8.186,7.618,8.168,8.471,8.185,4.553,-4.581,-7.687,1.604,-2.073,7.606,4.753,-4.604,-8.179,63.5,90.9,-7.97,,77.3,74.8,66.7,96.9,36,74.2,5,5,prime,10,0,76,norm,36,-5.064,down,norm,80.1512104457,69.0,81.8,1.969,83.3,1,68.4,77.1,79.7,10,5,7.671,5.101,2.052,-1.416,-4.412,-7.713,81.6,5,156.2,-8.15,-8.083,40,-8.006,-8.047,-5.005,-4.866,-5.172,-4.705,5.134,7.712,31,-1.637,1.435,5.112,8.424,-8.341,-7.895,-1.393,1.792,64.2,81.6,72.9,85.3,89.3,76.6,72.7,92.9,85.7,68.9,1,norm,1.732,1.35,-1.132,-1.274,-5.233,-4.455,-1.421,-1.345,-1.811,-1.853,1.455,-1.754,77.1,64.3,-4.722,-8.335,75.2,-1.66,7.763,4.554,-4.538,-8.292,2,4.62,5.286,4.49,4.523,1.27,1.455,1.395,1.102,2,4.589,4.765,-20,300.140628588,norm,0,8,8,8,330.065,330.07,330.072399363,330.073,330.076,330.079,down,1,0.953863366381,9.04613663362,001,jef,800_600,Intel(R) Core(TM) i7-2670QM CPU @ 2.20GHz,orientation_search,GRVLAPTOP3,Intel(R) HD Graphics Family,2018_jun_27_1426,testMonitor,
87.2,64.2,83.1,60.2,36,40,90.6,85.7,92.3,75.1,8.469,7.741,8.049,7.5,8.476,8.041,7.655,4.818,-4.477,-7.611,1.408,-1.489,7.929,4.919,-5.096,-7.825,76.0,83.9,-8.016,64.9,94.9,,83.9,100.2,36,74.5,5,5,prime,10,0,64,norm,36,-4.462,up,norm,80.1512104457,93.9,74.8,1.365,65.7,3,83.9,89.9,87.4,10,5,7.664,4.986,2.036,-1.46,-4.784,-8.126,99.2,5,144.2,-7.743,-8.288,40,-8.444,-7.973,-4.829,-4.693,-5.187,-4.826,4.38,8.252,33,-1.445,1.848,5.271,8.395,-8.374,-8.31,-2.026,1.502,68.6,76.4,77.9,68.0,79.4,73.8,76.7,67.7,88.9,83.2,2,norm,1.512,1.904,-2.022,-1.789,-5.001,-4.818,-2.039,-2.078,-1.739,-1.281,1.839,-1.307,73.4,81.8,-4.534,-7.547,88.4,-1.153,7.574,4.564,-4.965,-7.661,2,5.008,5.022,4.533,4.59,1.102,1.519,1.33,1.947,2,4.942,4.685,-20,300.140628588,norm,0,9,9,9,331.041,331.046,331.048251922,331.049,331.051,331.055,up,1,1.28384788228,8.71615211772,001,jef,800_600,Intel(R) Core(TM) i7-2670QM CPU @ 2.20GHz,orientation_search,GRVLAPTOP3,Intel(R) HD Graphics Family,2018_jun_27_1426,testMonitor,
60.2,91.1,81.5,78.1,36,40,91.9,76.0,78.4,94.8,7.549,8.223,7.512,7.854,8.183,8.092,8.485,4.833,-4.322,-7.707,1.343,-1.264,7.627,4.387,-4.723,-8.202,88.5,76.3,-7.898,79.7,64.7,91.4,83.6,83.1,36,74.4,1,5,prime,10,0,84,norm,36,-4.462,down,norm,80.1512104457,83.1,78.7,2.071,71.5,1,83.8,72.2,85.3,10,5,8.075,4.656,1.617,-1.626,-4.857,-7.688,76.6,5,164.2,-7.913,-7.547,40,-8.466,-7.593,-4.948,-4.943,-4.826,-4.512,4.823,7.989,7,-1.488,1.171,5.145,8.145,-7.895,-8.397,-1.88,1.774,86.6,75.8,78.3,82.0,87.6,86.0,,82.9,100.2,66.6,3,norm,2.083,1.697,-1.755,-1.937,-4.688,-4.523,-1.872,-1.342,-2.053,-1.691,1.347,-1.311,87.4,70.6,-4.761,-7.8,88.8,-1.79,7.506,5.069,-4.487,-8.314,2,4.76,5.004,5.19,4.311,1.135,1.339,1.731,1.153,2,4.515,4.584,-20,300.140628588,norm,0,10,10,10,332.347,332.352,332.35423095,332.355,332.357,332.363,down,1,0.757995603189,9.24200439681,001,jef,800_600,Intel(R) Core(TM) i7-2670QM CPU @ 2.20GHz,orientation_search,GRVLAPTOP3,Intel(R) HD Graphics Family,2018_jun_27_1426,testMonitor,
82.6,100.2,95.8,73.9,36,40,80.0,60.2,63.1,81.7,7.892,8.215,7.971,8.079,7.619,8.343,7.524,5.035,-4.657,-8.382,2.097,-1.696,7.802,5.195,-4.352,-8.228,74.0,81.0,-8.141,84.4,88.4,62.6,82.4,69.9,36,81.3,2,5,prime,10,0,75,norm,36,-4.578,down,norm,80.1512104457,84.5,75.5,1.539,66.9,0,72.8,79.0,,10,5,8.08,5.115,1.536,-1.826,-4.306,-8.49,77.5,5,155.2,-8.447,-7.633,40,-7.515,-7.568,-4.45,-4.499,-4.557,-5.266,4.392,7.592,12,-1.85,1.225,5.288,7.767,-8.043,-7.872,-1.992,1.148,84.3,91.4,76.2,77.6,68.8,78.4,70.7,74.4,79.1,77.3,4,norm,2.075,2.044,-2.002,-1.969,-4.982,-4.347,-1.279,-2.073,-1.686,-1.382,1.736,-1.493,80.5,81.8,-5.083,-7.968,82.0,-1.158,8.159,5.119,-5.201,-7.927,2,4.603,5.231,4.957,4.899,2.022,1.464,1.93,1.289,2,5.228,5.231,-20,300.140628588,norm,0,11,11,11,333.129,333.135,333.136559374,333.137,333.14,333.143,down,1,1.10690144344,8.89309855656,001,jef,800_600,Intel(R) Core(TM) i7-2670QM CPU @ 2.20GHz,orientation_search,GRVLAPTOP3,Intel(R) HD Graphics Family,2018_jun_27_1426,testMonitor,
213.4,202.4,209.1,206.2,36,-40,215.4,213.3,209.7,211.3,7.937,8.021,7.741,8.403,8.427,8.267,8.285,4.563,-4.476,-7.733,1.302,-1.871,8.192,5.285,-4.999,-7.966,217.0,220.3,-7.524,201.8,212.0,204.3,213.1,204.9,36,211.3,0,5,probe,5,0,84,norm,36,-5.013,down,norm,211.849886419,211.7,216.1,1.954,206.9,0,211.1,215.5,204.2,10,5,7.853,4.713,1.297,-1.175,-5.122,-7.893,212.8,1,127.8,-7.66,-7.69,40,-7.579,-8.38,-4.667,-5.294,-5.202,-4.639,4.764,7.612,0,-1.579,1.317,5.122,8.081,-8.05,-8.019,-1.761,1.391,207.2,218.7,208.6,209.3,213.1,,210.9,216.9,211.9,211.0,0,norm,1.711,1.238,-1.483,-1.216,-4.512,-4.472,-1.81,-1.778,-1.159,-1.354,1.216,-1.848,213.2,221.8,-4.726,-8.385,215.8,-1.28,7.813,4.776,-5.079,-8.425,3,5.022,4.524,4.733,5.099,1.801,1.504,1.761,1.832,3,4.803,4.766,40,80.1512104457,norm,0,12,12,12,334.258,334.263,334.265659671,334.266,334.269,334.272,down,1,1.08542636368,8.91457363632,001,jef,800_600,Intel(R) Core(TM) i7-2670QM CPU @ 2.20GHz,orientation_search,GRVLAPTOP3,Intel(R) HD Graphics Family,2018_jun_27_1426,testMonitor,
248.5,224.1,249.0,223.3,36,60,225.9,241.3,241.8,228.3,8.007,8.199,7.786,7.653,8.241,7.775,8.052,4.797,-5.058,-8.062,1.506,-1.282,8.241,4.526,-4.603,-7.998,,248.2,-7.609,243.7,232.9,250.3,238.3,241.4,36,260.8,5,5,prime,10,0,68,norm,36,-4.798,up,norm,240.819425897,220.8,241.6,1.871,234.3,5,238.7,239.7,236.9,10,5,8.27,4.964,1.236,-1.262,-4.434,-7.902,226.1,5,308.8,-7.796,-8.259,60,-8.185,-8.103,-4.764,-4.386,-4.356,-4.472,4.511,7.699,35,-1.968,1.401,4.615,7.718,-7.556,-7.533,-1.786,1.252,247.7,234.3,231.5,247.3,240.1,239.5,246.0,238.9,234.7,237.9,0,norm,1.25,2.064,-1.306,-1.435,-4.87,-4.891,-2.015,-1.463,-1.2,-1.375,1.226,-1.889,250.6,242.3,-4.357,-8.103,236.3,-2.087,7.875,5.093,-4.386,-8.016,4,5.276,4.682,4.42,5.038,1.716,1.228,1.856,1.521,4,4.657,4.638,-40,80.1512104457,norm,0,13,13,13,335.366,335.371,335.373366605,335.374,335.376,335.382,up,1,0.695507276965,9.30449272303,001,jef,800_600,Intel(R) Core(TM) i7-2670QM CPU @ 2.20GHz,orientation_search,GRVLAPTOP3,Intel(R) HD Graphics Family,2018_jun_27_1426,testMonitor,
252.7,242.6,253.2,240.4,36,60,250.5,246.0,249.2,247.2,8.13,7.91,7.623,8.079,7.775,7.804,7.691,5.035,-5.046,-7.915,1.307,-2.008,8.011,5.032,-4.444,-7.885,243.8,238.3,-7.812,227.9,260.8,254.8,225.2,220.8,36,228.7,1,5,prime,10,0,112,norm,36,-5.0,down,norm,240.819425897,248.2,233.1,1.507,233.0,0,236.8,242.4,243.0,10,5,8.204,4.842,1.501,-1.957,-5.149,-7.614,241.0,5,352.8,-8.292,-8.217,60,-7.959,-8.468,-4.402,-4.615,-4.983,-5.114,4.601,7.768,6,-1.406,1.702,5.002,8.026,-8.116,-7.945,-1.197,1.142,233.9,247.0,259.7,247.6,255.0,243.9,247.8,,235.5,239.2,1,norm,1.827,1.27,-1.472,-1.918,-4.581,-4.977,-1.531,-1.178,-1.512,-1.974,1.447,-1.197,252.7,236.1,-5.191,-8.461,243.4,-1.479,7.649,4.547,-5.017,-7.998,4,4.751,4.504,5.211,4.795,1.475,2.05,1.403,1.699,4,4.877,5.177,-40,80.1512104457,norm,0,14,14,14,336.086,336.091,336.092978363,336.093,336.096,336.1,down,1,1.18837179765,8.81162820235,001,jef,800_600,Intel(R) Core(TM) i7-2670QM CPU @ 2.20GHz,orientation_search,GRVLAPTOP3,Intel(R) HD Graphics Family,2018_jun_27_1426,testMonitor,
,241.2,246.2,220.8,36,60,249.3,243.6,230.8,232.5,8.324,8.134,8.034,8.098,8.42,7.795,7.909,4.601,-4.699,-8.129,2.055,-1.523,7.966,4.756,-5.075,-8.477,258.5,232.7,-8.228,246.7,249.9,251.2,232.5,242.3,36,239.3,3,5,prime,10,0,108,norm,36,-5.045,up,norm,240.819425897,260.8,230.0,1.312,248.3,4,242.6,231.0,244.6,10,5,8.07,4.984,1.176,-2.017,-4.843,-7.869,230.5,5,348.8,-8.347,-8.423,60,-7.539,-8.481,-4.551,-4.918,-4.863,-4.85,5.117,7.948,22,-1.816,1.868,4.902,8.26,-7.927,-7.931,-2.063,2.067,247.5,236.3,232.3,235.2,240.1,242.8,253.1,237.0,241.6,228.6,2,norm,1.672,1.75,-1.557,-1.75,-4.581,-4.351,-1.915,-1.897,-2.068,-1.64,1.218,-1.5,253.3,249.5,-5.217,-7.734,229.0,-1.907,7.801,4.336,-5.252,-8.3,4,4.849,4.737,4.714,5.023,1.33,1.11,1.924,2.061,4,4.46,4.79,-40,80.1512104457,norm,0,15,15,15,337.296,337.302,337.304001957,337.304,337.307,337.31,up,1,1.38151443439,8.61848556561,001,jef,800_600,Intel(R) Core(TM) i7-2670QM CPU @ 2.20GHz,orientation_search,GRVLAPTOP3,Intel(R) HD Graphics Family,2018_jun_27_1426,testMonitor,
251.9,260.5,226.7,245.7,36,60,223.2,232.7,244.3,227.3,8.01,7.772,8.079,7.598,7.547,7.866,7.992,4.387,-4.977,-7.759,1.491,-1.308,8.087,5.167,-4.314,-8.386,226.3,232.4,-8.455,233.6,228.0,248.2,228.8,222.9,36,235.1,2,5,prime,10,0,111,norm,36,-4.961,down,norm,240.819425897,254.1,242.7,1.474,242.6,1,240.4,,245.7,10,5,7.876,5.149,1.844,-1.564,-4.752,-8.466,245.9,5,351.8,-8.211,-8.35,60,-8.486,-8.494,-5.236,-4.646,-5.021,-4.373,4.626,8.217,13,-1.616,1.982,4.347,8.163,-8.122,-7.833,-1.594,1.702,244.4,240.4,260.8,232.0,232.2,242.5,245.0,237.5,231.4,223.6,3,norm,2.013,1.129,-1.947,-1.624,-4.537,-4.764,-1.581,-1.772,-1.997,-1.848,1.588,-1.268,231.8,220.8,-4.893,-8.397,256.2,-1.787,7.798,5.226,-4.968,-8.461,4,4.686,5.038,4.68,4.402,1.556,1.674,1.946,2.006,4,4.651,4.408,-40,80.1512104457,norm,0,16,16,16,338.7,338.706,338.707614384,338.708,338.711,338.714,down,1,0.847459692784,9.15254030722,001,jef,800_600,Intel(R) Core(TM) i7-2670QM CPU @ 2.20GHz,orientation_search,GRVLAPTOP3,Intel(R) HD Graphics Family,2018_jun_27_1426,testMonitor,
258.0,226.7,236.9,245.6,36,60,231.4,236.6,246.5,244.8,7.617,8.259,7.778,7.782,7.625,7.62,7.749,4.44,-5.257,-7.906,2.031,-2.053,8.382,5.124,-4.563,-7.765,228.1,249.5,-8.325,229.3,237.9,245.9,246.3,257.1,36,238.6,2,5,prime,10,0,85,norm,36,-4.38,down,norm,240.819425897,245.9,222.8,1.808,,2,251.4,244.9,239.5,10,5,7.782,5.112,1.15,-2.1,-4.695,-8.479,226.2,5,325.8,-8.087,-7.714,60,-8.433,-8.392,-4.845,-4.556,-4.621,-4.439,4.617,8.054,14,-1.427,1.185,4.552,7.626,-7.851,-8.499,-1.771,1.551,236.2,250.6,249.2,236.9,258.3,234.4,244.3,250.3,260.8,239.1,4,norm,1.292,1.642,-1.545,-1.601,-5.135,-4.952,-1.686,-2.056,-1.582,-1.253,1.351,-1.869,239.0,220.8,-5.046,-8.216,227.8,-2.075,8.08,4.632,-4.949,-8.478,4,5.143,4.631,4.908,4.322,1.186,1.169,1.824,1.722,4,4.632,5.256,-40,80.1512104457,norm,0,17,17,17,339.57,339.575,339.577036187,339.577,339.58,339.583,down,1,0.975549974972,9.02445002503,001,jef,800_600,Intel(R) Core(TM) i7-2670QM CPU @ 2.20GHz,orientation_search,GRVLAPTOP3,Intel(R) HD Graphics Family,2018_jun_27_1426,testMonitor,
415.1,409.3,412.2,415.0,36,-60,411.2,416.4,413.8,413.8,7.737,7.759,7.603,8.015,7.622,7.788,8.154,4.666,-4.73,-8.173,1.271,-1.634,8.313,4.78,-4.834,-8.399,,410.3,-7.962,416.7,416.1,408.7,417.7,412.1,36,422.3,5,5,probe,5,0,105,norm,36,-4.901,up,norm,412.311237003,411.8,413.1,1.457,414.0,5,415.1,417.7,420.6,10,5,8.081,4.3,1.916,-1.132,-4.95,-7.896,409.2,2,307.3,-8.448,-7.973,60,-8.078,-8.25,-5.26,-4.669,-4.867,-4.476,4.63,8.455,35,-1.301,1.141,5.019,8.136,-7.827,-7.631,-1.412,1.272,405.8,414.5,415.3,403.8,416.1,403.4,417.6,409.7,418.0,406.2,0,norm,1.308,1.832,-1.807,-1.213,-4.738,-4.72,-1.657,-1.6,-1.411,-1.104,2.076,-2.014,414.5,409.4,-5.035,-7.775,415.8,-1.987,8.446,4.63,-4.616,-8.429,5,4.801,5.131,4.389,4.99,1.62,1.267,1.71,1.585,5,5.19,5.059,60,240.819425897,norm,0,18,18,18,340.567,340.573,340.574740655,340.575,340.578,340.582,up,1,0.606484923083,9.39351507692,001,jef,800_600,Intel(R) Core(TM) i7-2670QM CPU @ 2.20GHz,orientation_search,GRVLAPTOP3,Intel(R) HD Graphics Family,2018_jun_27_1426,testMonitor,
422.8,416.7,419.8,421.9,36,-60,423.5,419.8,426.6,429.5,8.068,8.122,8.21,7.855,7.98,8.495,7.58,4.71,-4.654,-8.3,2.06,-2.027,8.326,4.46,-5.062,-7.957,425.4,424.4,-8.046,423.4,418.9,419.3,423.2,415.4,36,417.6,1,5,probe,5,0,114,norm,36,-4.865,down,norm,421.311237003,431.3,416.2,1.38,425.6,2,417.4,418.3,424.8,10,5,8.025,4.618,1.123,-1.842,-5.104,-7.901,426.9,2,307.3,-7.736,-8.083,60,-7.607,-8.455,-5.219,-4.333,-4.645,-4.751,5.103,7.712,8,-1.803,1.381,4.552,7.866,-7.792,-7.876,-1.193,1.219,419.5,,422.7,423.2,415.0,417.6,418.8,416.2,422.7,426.1,1,norm,2.021,1.635,-1.586,-1.586,-4.469,-4.584,-1.445,-1.342,-1.745,-1.925,2.084,-1.224,422.5,411.3,-4.666,-8.168,420.0,-1.703,7.858,4.728,-4.369,-7.929,5,4.437,4.749,4.348,5.023,1.889,1.362,1.613,1.397,5,4.498,4.37,60,240.819425897,norm,0,19,19,19,341.196,341.202,341.203766241,341.204,341.207,341.21,down,1,0.837080771329,9.16291922867,001,jef,800_600,Intel(R) Core(TM) i7-2670QM CPU @ 2.20GHz,orientation_search,GRVLAPTOP3,Intel(R) HD Graphics Family,2018_jun_27_1426,testMonitor,
60.9,63.4,72.1,66.1,36,80,54.6,63.6,75.9,62.0,7.893,7.601,7.825,8.18,8.392,7.535,8.256,4.517,-5.113,-8.201,1.737,-2.084,8.331,5.071,-5.294,-7.788,83.4,64.0,-7.618,60.4,80.2,56.7,,58.9,36,65.3,5,5,prime,10,0,74,norm,36,-4.473,down,norm,63.4157459206,62.7,54.8,1.772,81.0,2,69.7,57.5,62.2,10,5,8.015,4.699,1.925,-1.129,-5.281,-8.211,65.2,5,137.4,-8.181,-8.215,80,-7.528,-7.509,-4.87,-4.875,-5.188,-5.129,4.913,7.67,32,-1.278,1.425,4.795,8.269,-8.129,-7.704,-1.359,1.341,76.1,58.4,64.1,43.4,69.1,55.2,69.2,62.9,77.1,60.4,0,norm,1.476,1.556,-1.991,-1.268,-4.324,-4.67,-1.416,-1.397,-1.736,-1.333,1.633,-1.702,65.7,64.8,-4.385,-8.192,57.0,-1.957,7.619,4.779,-4.682,-7.716,6,5.223,5.174,4.545,4.869,1.418,1.123,1.105,1.58,6,5.275,5.017,-60,240.819425897,norm,0,20,20,20,342.056,342.061,342.062925859,342.063,342.066,342.07,down,1,1.02864137784,8.97135862216,001,jef,800_600,Intel(R) Core(TM) i7-2670QM CPU @ 2.20GHz,orientation_search,GRVLAPTOP3,Intel(R) HD Graphics Family,2018_jun_27_1426,testMonitor,
55.1,43.4,74.1,74.5,36,80,55.6,50.7,67.8,55.6,7.79,8.402,8.295,8.244,7.645,8.48,7.555,4.691,-5.214,-8.107,2.007,-2.032,7.813,5.153,-4.756,-7.736,55.3,66.4,-8.33,49.8,,65.1,57.3,63.1,36,59.6,5,5,prime,10,0,75,norm,36,-4.345,down,norm,63.4157459206,67.3,60.3,1.521,52.4,0,69.0,57.3,63.6,10,5,8.127,4.77,1.853,-1.594,-4.357,-7.74,60.7,5,138.4,-8.276,-8.386,80,-8.235,-8.367,-4.752,-5.153,-5.035,-5.033,5.198,8.27,30,-1.935,1.381,4.861,8.403,-7.964,-8.453,-1.789,1.72,57.8,53.8,83.4,55.2,66.3,68.5,52.4,46.9,62.5,71.3,1,norm,1.451,2.011,-1.508,-1.434,-4.811,-4.99,-1.555,-1.263,-1.359,-1.144,1.449,-1.379,56.5,57.6,-4.47,-8.416,64.4,-1.531,7.773,5.249,-5.15,-7.97,6,4.735,4.412,4.705,4.782,1.94,1.611,1.341,1.12,6,4.749,5.098,-60,240.819425897,norm,0,21,21,21,343.106,343.112,343.114193351,343.115,343.118,343.121,down,1,1.10352445329,8.89647554671,001,jef,800_600,Intel(R) Core(TM) i7-2670QM CPU @ 2.20GHz,orientation_search,GRVLAPTOP3,Intel(R) HD Graphics Family,2018_jun_27_1426,testMonitor,
75.6,50.6,63.2,55.7,36,80,48.5,61.0,63.6,50.7,7.673,7.97,8.13,8.212,8.377,7.884,8.428,4.482,-5.057,-7.873,1.273,-1.298,7.744,4.545,-5.088,-7.883,73.0,52.0,-8.18,83.4,58.2,81.7,,78.2,36,57.9,5,5,prime,10,0,81,norm,36,-4.816,down,norm,63.4157459206,61.9,56.0,1.408,48.9,2,51.2,50.2,43.4,10,5,7.974,5.093,1.963,-1.721,-4.739,-7.514,56.0,5,144.4,-7.968,-7.511,80,-8.285,-7.996,-4.542,-4.335,-4.517,-5.122,4.636,8.322,32,-1.922,1.334,5.287,7.502,-7.909,-8.083,-1.497,1.546,69.7,68.9,59.4,50.9,70.8,64.4,65.7,57.9,54.2,66.2,2,norm,1.403,1.753,-1.914,-1.31,-4.528,-4.978,-1.632,-2.003,-2.07,-1.592,1.939,-1.323,62.2,71.8,-4.958,-8.295,74.5,-1.56,8.066,4.322,-5.14,-8.3,6,4.909,4.48,4.599,4.351,1.182,1.228,2.074,1.695,6,4.939,4.584,-60,240.819425897,norm,0,22,22,22,344.233,344.239,344.241055552,344.241,344.244,344.247,down,1,0.814263207244,9.18573679276,001,jef,800_600,Intel(R) Core(TM) i7-2670QM CPU @ 2.20GHz,orientation_search,GRVLAPTOP3,Intel(R) HD Graphics Family,2018_jun_27_1426,testMonitor,
70.5,60.8,64.2,73.0,36,80,55.0,70.0,62.0,76.6,7.93,7.963,7.733,8.422,7.794,7.646,7.974,5.017,-5.289,-7.918,1.506,-1.35,8.305,4.878,-4.781,-7.503,48.4,83.4,-7.943,60.7,,69.2,66.9,48.2,36,60.3,5,5,prime,10,0,77,norm,36,-5.138,down,norm,63.4157459206,64.7,60.1,1.372,49.0,0,58.2,60.3,68.6,10,5,7.514,4.7,1.138,-1.764,-4.641,-7.769,43.4,5,140.4,-7.823,-8.024,80,-8.32,-7.725,-5.062,-4.496,-5.005,-4.602,5.187,7.851,30,-1.875,1.371,5.233,8.254,-7.877,-8.255,-1.464,1.964,54.8,56.9,72.3,62.8,53.0,58.7,71.9,59.7,54.5,62.4,3,norm,1.92,1.565,-1.41,-1.515,-4.499,-4.371,-1.97,-1.265,-1.863,-1.831,1.835,-1.627,65.7,75.6,-4.952,-7.689,58.1,-1.663,7.72,4.915,-4.455,-8.235,6,5.298,4.352,4.546,4.317,1.43,1.768,1.341,1.601,6,4.541,4.979,-60,240.819425897,norm,0,23,23,23,345.07,345.075,345.076709788,345.077,345.08,345.084,down,1,0.844144807131,9.15585519287,001,jef,800_600,Intel(R) Core(TM) i7-2670QM CPU @ 2.20GHz,orientation_search,GRVLAPTOP3,Intel(R) HD Graphics Family,2018_jun_27_1426,testMonitor,
67.8,74.2,53.8,44.7,36,80,67.6,62.0,60.9,62.9,8.199,7.778,8.238,7.646,8.133,8.081,7.782,4.723,-4.417,-8.444,1.325,-1.879,7.98,5.228,-4.615,-8.325,57.9,53.8,-8.45,67.6,57.7,55.2,61.6,62.6,36,58.3,1,5,prime,10,0,67,norm,36,-4.741,down,norm,63.4157459206,80.1,66.4,1.753,57.6,0,68.6,54.5,83.4,10,5,8.104,5.209,1.753,-1.928,-4.953,-7.739,65.7,5,130.4,-8.391,-8.351,80,-7.6,-8.071,-5.249,-5.288,-4.573,-5.216,4.462,8.12,6,-1.103,1.349,4.67,7.584,-7.752,-8.128,-1.4,1.127,70.3,60.6,43.4,60.2,59.9,57.5,47.5,,71.7,78.7,4,norm,1.548,1.692,-2.046,-1.635,-5.139,-4.944,-1.579,-1.334,-1.817,-1.926,1.213,-1.461,58.4,58.5,-5.0,-8.238,66.4,-1.717,8.449,5.168,-4.685,-7.683,6,5.055,4.535,4.727,4.423,2.097,1.825,1.588,1.78,6,4.965,4.713,-60,240.819425897,norm,0,24,24,24,345.936,345.941,345.94342234,345.944,345.947,345.95,down,1,1.25738016168,8.74261983832,001,jef,800_600,Intel(R) Core(TM) i7-2670QM CPU @ 2.20GHz,orientation_search,GRVLAPTOP3,Intel(R) HD Graphics Family,2018_jun_27_1426,testMonitor,
239.9,241.9,239.1,241.8,36,40,244.1,235.3,240.5,243.7,8.465,7.529,7.795,7.701,7.875,8.104,8.205,5.28,-4.829,-7.539,1.456,-1.409,8.419,5.164,-5.123,-8.021,246.4,245.5,-8.49,241.8,244.0,240.3,239.1,244.6,36,235.1,2,5,probe,5,0,88,norm,36,-4.649,down,norm,241.146187657,232.3,240.7,1.473,236.0,0,234.4,239.7,,10,5,8.008,4.67,1.649,-1.198,-4.368,-7.937,245.3,1,153.1,-8.462,-8.263,80,-8.067,-8.069,-4.502,-5.135,-4.355,-4.826,4.387,7.574,12,-1.385,2.043,4.543,8.102,-7.71,-7.921,-1.393,1.482,251.1,240.0,246.8,239.4,235.7,242.7,238.4,231.1,242.6,244.4,0,norm,2.06,1.632,-1.476,-1.775,-4.645,-5.253,-1.863,-1.606,-1.45,-1.51,1.287,-2.063,241.0,238.2,-4.625,-8.396,240.0,-1.277,7.781,5.204,-4.685,-7.684,7,5.113,5.026,4.641,4.68,2.051,2.065,1.775,1.98,7,5.0,4.785,80,63.4157459206,norm,0,25,25,25,347.216,347.221,347.223330557,347.224,347.227,347.23,down,1,1.10053596644,8.89946403356,001,jef,800_600,Intel(R) Core(TM) i7-2670QM CPU @ 2.20GHz,orientation_search,GRVLAPTOP3,Intel(R) HD Graphics Family,2018_jun_27_1426,testMonitor,
262.7,279.0,266.1,278.5,36,-60,265.7,281.0,264.2,287.9,7.747,8.087,8.464,7.908,7.81,8.102,7.953,4.347,-5.06,-8.232,1.616,-1.421,8.171,4.738,-5.249,-7.988,271.3,258.8,-8.102,280.5,256.0,266.9,255.6,255.2,36,260.5,3,5,prime,10,0,109,norm,36,-4.556,down,norm,267.930004684,253.0,272.3,1.228,278.9,1,269.7,269.0,276.7,10,5,7.519,5.167,1.637,-1.522,-4.876,-7.826,247.9,5,376.9,-7.655,-7.728,-60,-8.323,-8.432,-4.349,-4.657,-4.943,-4.766,4.985,7.616,19,-1.949,1.629,4.72,7.542,-8.111,-8.058,-1.712,1.398,274.2,254.1,281.6,274.5,272.0,254.7,276.0,269.2,285.3,249.0,0,norm,1.204,2.028,-1.193,-1.57,-5.252,-4.832,-1.129,-1.473,-1.412,-1.912,1.16,-2.097,,287.6,-4.805,-8.334,263.2,-1.772,8.471,4.735,-4.786,-7.854,8,4.546,4.458,4.876,4.303,1.136,1.248,1.588,1.119,8,4.594,5.13,40,63.4157459206,norm,0,26,26,26,348.339,348.344,348.345794078,348.346,348.349,348.353,up,0,1.45520071425,-10,001,jef,800_600,Intel(R) Core(TM) i7-2670QM CPU @ 2.20GHz,orientation_search,GRVLAPTOP3,Intel(R) HD Graphics Family,2018_jun_27_1426,testMonitor,
258.3,267.2,274.2,266.5,36,-60,270.6,281.1,269.9,276.4,8.192,7.866,8.252,8.074,8.454,7.532,7.5,4.635,-5.012,-7.909,1.499,-2.09,8.116,5.206,-4.749,-8.197,254.6,252.0,-7.63,260.3,281.2,247.9,278.0,269.1,36,271.4,0,5,prime,10,0,99,norm,36,-4.819,down,norm,267.930004684,279.1,262.2,1.17,258.6,0,272.2,276.8,259.7,10,5,7.844,5.17,1.337,-1.445,-4.69,-8.448,270.7,5,366.9,-8.156,-7.517,-60,-7.833,-8.44,-4.545,-4.578,-4.633,-4.738,4.824,7.713,0,-1.126,2.058,4.924,7.557,-7.706,-8.211,-1.251,2.053,259.6,282.0,261.2,254.7,287.9,,259.1,276.5,265.4,260.8,1,norm,1.944,1.538,-1.73,-1.525,-4.405,-4.694,-1.695,-1.821,-1.494,-1.259,1.312,-1.73,272.7,282.8,-4.878,-8.426,261.4,-1.348,8.34,4.612,-5.236,-8.062,8,4.676,4.643,4.552,4.5,1.421,1.225,1.645,2.089,8,4.785,5.161,40,63.4157459206,norm,0,27,27,27,350.822,350.828,350.83016009,350.831,350.833,350.837,down,1,0.941024079733,9.05897592027,001,jef,800_600,Intel(R) Core(TM) i7-2670QM CPU @ 2.20GHz,orientation_search,GRVLAPTOP3,Intel(R) HD Graphics Family,2018_jun_27_1426,testMonitor,
270.1,269.2,283.7,270.5,36,-60,262.3,278.6,287.0,272.2,8.149,7.847,7.59,7.545,8.133,7.852,7.783,4.349,-4.547,-8.478,1.718,-2.057,7.595,5.148,-4.899,-8.296,264.5,255.9,-7.552,259.6,272.5,287.9,265.1,,36,247.9,4,5,prime,10,0,77,norm,36,-5.114,down,norm,267.930004684,261.2,282.5,1.152,254.3,2,270.9,270.0,262.8,10,5,8.066,4.369,1.627,-1.968,-5.082,-7.65,267.5,5,344.9,-7.563,-8.35,-60,-7.762,-8.022,-4.342,-4.36,-4.562,-4.898,4.597,8.313,26,-1.504,1.469,4.807,8.427,-8.279,-8.442,-1.992,2.04,274.0,283.7,261.2,287.9,279.2,275.7,263.9,272.4,277.2,273.1,2,norm,1.416,1.631,-1.31,-1.547,-4.602,-4.995,-1.114,-1.151,-1.692,-1.843,1.798,-2.075,269.4,280.0,-5.174,-8.409,278.2,-1.407,8.028,5.05,-4.553,-8.17,8,4.768,4.575,4.743,4.926,1.342,1.783,1.969,1.52,8,5.261,5.152,40,63.4157459206,norm,0,28,28,28,351.786,351.793,351.794783409,351.795,351.798,351.802,down,1,2.28824562747,7.71175437253,001,jef,800_600,Intel(R) Core(TM) i7-2670QM CPU @ 2.20GHz,orientation_search,GRVLAPTOP3,Intel(R) HD Graphics Family,2018_jun_27_1426,testMonitor,
268.3,268.8,251.0,278.9,36,-60,264.9,253.3,276.1,254.5,7.987,8.104,8.305,7.912,7.873,8.4,8.31,4.733,-4.971,-7.774,1.659,-1.322,7.608,4.745,-4.97,-8.029,267.7,267.9,-8.298,265.2,,275.4,271.8,275.6,36,261.6,5,5,prime,10,0,118,norm,36,-4.49,down,norm,267.930004684,260.3,272.5,2.002,278.3,0,257.8,262.5,286.8,10,5,8.247,4.793,1.365,-1.318,-4.639,-7.627,261.7,5,385.9,-7.961,-7.787,-60,-7.734,-8.276,-4.488,-4.959,-5.008,-5.229,4.474,7.571,30,-1.55,1.564,4.765,8.348,-8.387,-7.821,-1.582,1.105,272.5,269.1,261.6,284.3,274.9,261.2,270.1,269.1,265.4,287.9,3,norm,1.129,1.886,-1.99,-1.5,-4.623,-4.514,-1.574,-1.304,-1.896,-1.38,2.058,-2.046,271.0,267.4,-4.845,-8.386,271.0,-1.671,8.334,4.922,-4.767,-8.159,8,5.072,4.494,5.288,4.462,1.404,1.897,1.839,1.685,8,5.109,5.063,40,63.4157459206,norm,0,29,29,29,354.098,354.103,354.1053521,354.106,354.109,354.112,up,0,2.53336738963,-10,001,jef,800_600,Intel(R) Core(TM) i7-2670QM CPU @ 2.20GHz,orientation_search,GRVLAPTOP3,Intel(R) HD Graphics Family,2018_jun_27_1426,testMonitor,
273.0,265.6,284.0,273.8,36,-60,273.7,259.0,253.9,280.4,7.686,7.858,7.588,8.366,7.955,8.34,7.569,4.716,-4.642,-8.201,1.461,-1.495,8.229,4.567,-5.176,-7.761,278.0,267.6,-7.865,279.0,271.2,267.4,264.7,279.4,36,262.4,1,5,prime,10,0,116,norm,36,-4.331,down,norm,267.930004684,247.9,265.9,1.41,282.1,1,287.9,257.4,261.1,10,5,7.685,4.437,1.626,-1.846,-4.728,-8.32,260.1,5,383.9,-8.326,-7.601,-60,-7.646,-7.922,-4.395,-4.62,-4.345,-4.799,4.475,8.283,7,-1.433,1.367,5.239,8.264,-7.671,-8.178,-1.19,1.74,256.4,273.3,274.8,255.1,267.2,270.5,,273.0,276.0,283.6,4,norm,1.73,1.954,-1.986,-1.888,-5.229,-5.034,-1.152,-1.467,-1.792,-1.451,2.006,-1.313,267.8,264.8,-4.804,-8.314,270.7,-1.469,7.637,5.028,-5.026,-7.768,8,5.237,5.097,5.011,5.028,1.516,1.927,1.918,1.152,8,4.598,4.871,40,63.4157459206,norm,0,30,30,30,357.655,357.66,357.662124011,357.662,357.665,357.669,down,1,1.45632326462,8.54367673538,001,jef,800_600,Intel(R) Core(TM) i7-2670QM CPU @ 2.20GHz,orientation_search,GRVLAPTOP3,Intel(R) HD Graphics Family,2018_jun_27_1426,testMonitor,
317.4,328.5,337.4,327.3,36,60,333.8,,325.5,322.5,8.34,8.183,8.458,7.606,8.095,7.671,8.167,4.338,-5.199,-8.265,2.05,-1.608,8.009,4.308,-5.201,-7.791,330.8,326.2,-8.184,331.3,326.4,326.8,326.3,326.1,36,334.3,4,5,probe,5,0,116,norm,36,-4.401,down,norm,327.371601278,326.8,325.1,1.526,322.2,1,325.6,328.7,331.3,10,5,7.868,4.588,1.84,-1.618,-4.715,-7.572,330.2,2,211.4,-7.879,-8.291,-60,-7.832,-7.896,-5.069,-4.302,-4.721,-4.669,4.318,8.356,25,-1.265,1.62,5.075,7.758,-7.735,-8.427,-2.072,2.059,327.7,324.7,317.4,327.5,331.0,332.4,327.6,323.5,333.4,327.8,0,norm,1.583,1.549,-1.572,-1.685,-4.926,-5.261,-1.436,-1.743,-1.819,-2.005,1.235,-1.317,319.9,325.2,-5.278,-8.005,328.6,-1.335,7.663,4.402,-4.364,-8.171,9,4.767,4.452,4.393,4.736,1.637,2.033,1.707,1.836,9,4.767,4.682,-60,267.930004684,norm,0,31,31,31,359.134,359.141,359.142820254,359.143,359.146,359.15,down,1,0.914675898601,9.0853241014,001,jef,800_600,Intel(R) Core(TM) i7-2670QM CPU @ 2.20GHz,orientation_search,GRVLAPTOP3,Intel(R) HD Graphics Family,2018_jun_27_1426,testMonitor,
302.1,301.0,306.4,307.1,36,60,310.1,307.1,311.7,312.0,7.971,8.465,7.591,7.523,7.733,8.04,7.78,4.493,-4.559,-7.92,2.064,-1.689,7.984,4.641,-5.208,-8.457,305.8,306.2,-7.657,300.3,315.4,301.0,301.5,308.0,36,302.0,2,5,probe,5,0,94,norm,36,-5.077,up,norm,305.371601278,306.4,313.6,1.625,304.4,3,297.6,297.9,295.4,10,5,8.482,4.313,2.045,-1.637,-4.977,-8.086,304.8,2,211.4,-8.059,-7.557,-60,-7.652,-8.129,-5.072,-4.616,-5.053,-4.983,5.051,8.45,15,-1.744,1.84,5.248,7.768,-8.469,-8.175,-1.386,1.954,312.6,298.0,304.0,304.1,304.3,296.6,301.9,304.4,302.9,302.5,1,norm,1.932,1.848,-1.54,-1.813,-4.676,-4.549,-1.658,-1.64,-1.166,-1.751,2.056,-1.797,304.8,304.9,-4.371,-7.699,,-1.321,8.473,4.454,-4.915,-8.256,9,4.468,5.03,4.503,5.281,1.653,1.131,1.388,1.447,9,4.652,4.368,-60,267.930004684,norm,0,32,32,32,360.072,360.078,360.079709482,360.08,360.083,360.086,up,1,0.858354595172,9.14164540483,001,jef,800_600,Intel(R) Core(TM) i7-2670QM CPU @ 2.20GHz,orientation_search,GRVLAPTOP3,Intel(R) HD Graphics Family,2018_jun_27_1426,testMonitor,
73.5,54.1,72.9,82.3,36,10,75.0,89.9,89.2,77.2,7.708,7.656,7.944,7.705,7.633,7.539,8.496,4.711,-5.183,-7.848,1.943,-1.936,8.114,4.957,-5.148,-7.873,67.2,78.9,-7.665,83.0,86.3,57.3,69.4,85.6,36,74.7,2,5,prime,10,0,74,norm,36,-4.364,down,norm,74.0670549813,73.1,73.5,1.745,,2,72.1,66.3,77.8,10,5,7.811,4.492,2.095,-1.958,-4.76,-7.908,77.0,5,148.1,-7.841,-7.924,10,-7.694,-7.72,-4.374,-4.569,-4.895,-4.463,4.438,8.105,14,-1.572,1.493,4.621,7.918,-8.386,-7.651,-2.005,1.33,94.1,80.4,86.5,59.9,66.6,69.7,75.7,70.5,76.9,71.8,0,norm,1.761,1.507,-1.792,-1.315,-4.607,-4.312,-1.736,-2.029,-1.151,-1.654,1.683,-1.985,76.2,80.3,-4.766,-7.669,71.5,-1.207,7.645,5.24,-5.154,-7.536,10,4.385,4.639,5.143,4.612,1.521,1.91,1.853,1.483,10,4.335,4.686,60,267.930004684,norm,0,33,33,33,360.952,360.958,360.959587253,360.96,360.963,360.967,down,1,0.763910005454,9.23608999455,001,jef,800_600,Intel(R) Core(TM) i7-2670QM CPU @ 2.20GHz,orientation_search,GRVLAPTOP3,Intel(R) HD Graphics Family,2018_jun_27_1426,testMonitor,
63.3,84.2,81.2,78.8,36,10,87.4,88.2,60.9,74.0,7.59,8.225,8.29,7.814,8.218,7.989,8.314,4.516,-4.682,-8.253,1.806,-1.325,8.229,4.951,-4.389,-8.056,80.4,78.1,-7.619,67.7,58.5,78.8,60.5,86.6,36,60.4,1,5,prime,10,0,85,norm,36,-4.566,down,norm,74.0670549813,70.7,80.7,1.37,74.2,0,76.7,68.6,54.1,10,5,8.344,4.937,1.1,-1.144,-4.63,-7.959,79.5,5,159.1,-8.252,-7.586,10,-8.341,-7.758,-4.615,-4.971,-4.848,-4.43,4.948,7.5,6,-1.964,1.872,4.361,8.33,-7.654,-7.781,-1.562,1.632,73.4,68.0,94.1,64.3,63.8,64.6,81.8,,92.4,74.9,1,norm,1.888,1.857,-1.104,-1.408,-5.131,-4.976,-1.488,-1.251,-1.351,-1.207,1.345,-2.016,73.0,73.0,-4.768,-7.894,77.4,-1.521,8.021,4.409,-4.614,-8.151,10,4.415,4.643,4.709,4.501,1.568,1.62,1.163,1.613,10,4.559,4.733,60,267.930004684,norm,0,34,34,34,361.739,361.744,361.74617427,361.747,361.749,361.754,down,1,0.935540206356,9.06445979364,001,jef,800_600,Intel(R) Core(TM) i7-2670QM CPU @ 2.20GHz,orientation_search,GRVLAPTOP3,Intel(R) HD Graphics Family,2018_jun_27_1426,testMonitor,
84.5,82.0,80.4,63.6,36,10,81.8,73.2,69.9,65.4,8.348,7.668,7.884,7.889,8.444,7.762,8.426,5.074,-4.922,-7.76,1.96,-2.093,7.799,4.674,-4.535,-7.772,80.2,79.7,-7.847,94.1,76.6,76.1,66.9,86.2,36,66.9,2,5,prime,10,0,108,norm,36,-4.348,down,norm,74.0670549813,84.7,68.7,1.132,,2,66.5,76.8,90.0,10,5,8.347,4.726,1.82,-1.9,-4.303,-7.989,77.3,5,182.1,-7.976,-7.774,10,-7.959,-7.855,-4.921,-4.783,-4.808,-4.886,4.902,8.368,14,-1.892,1.548,4.715,7.847,-8.445,-7.945,-1.791,1.961,73.6,61.1,62.0,80.7,71.9,58.5,70.5,54.1,78.6,75.4,2,norm,1.726,1.479,-1.316,-1.905,-4.707,-4.689,-1.542,-1.296,-1.997,-1.977,1.4,-1.516,76.9,68.4,-4.51,-7.924,73.2,-1.456,7.822,5.244,-4.988,-7.708,10,4.56,4.701,5.181,5.15,1.852,1.768,1.287,1.222,10,4.713,5.01,60,267.930004684,norm,0,35,35,35,362.697,362.703,362.704820616,362.705,362.708,362.711,down,1,1.99292942688,8.00707057312,001,jef,800_600,Intel(R) Core(TM) i7-2670QM CPU @ 2.20GHz,orientation_search,GRVLAPTOP3,Intel(R) HD Graphics Family,2018_jun_27_1426,testMonitor,
74.2,72.3,64.6,66.5,36,10,,54.1,84.2,91.9,8.079,7.957,7.862,7.649,7.606,7.646,7.597,5.019,-4.711,-8.209,1.962,-1.238,7.907,4.577,-4.946,-7.629,71.4,66.9,-8.479,93.6,85.2,70.8,78.8,55.5,36,81.0,4,5,prime,10,0,66,norm,36,-5.231,down,norm,74.0670549813,66.6,84.3,1.428,64.0,0,65.1,69.4,82.7,10,5,7.558,4.309,1.14,-1.527,-4.493,-8.461,83.9,5,140.1,-8.108,-7.613,10,-7.872,-8.043,-4.487,-5.08,-5.108,-4.504,4.937,8.498,24,-1.721,1.677,5.227,8.226,-7.69,-7.707,-1.782,1.786,57.3,67.7,77.9,74.7,76.8,73.6,79.1,63.6,63.5,84.9,3,norm,2.039,1.867,-1.488,-1.158,-5.174,-5.219,-1.657,-1.254,-1.162,-1.749,2.091,-2.046,82.2,82.8,-4.614,-7.881,94.1,-1.723,7.588,4.76,-5.179,-7.646,10,4.588,4.322,4.898,5.072,1.374,1.89,1.492,2.057,10,4.413,4.882,60,267.930004684,norm,0,36,36,36,364.713,364.718,364.72038036,364.721,364.724,364.727,up,0,1.9640737185,-10,001,jef,800_600,Intel(R) Core(TM) i7-2670QM CPU @ 2.20GHz,orientation_search,GRVLAPTOP3,Intel(R) HD Graphics Family,2018_jun_27_1426,testMonitor,
69.7,83.4,69.3,78.1,36,10,81.8,82.4,76.3,54.1,7.631,7.929,7.605,7.935,8.459,8.202,8.173,4.816,-5.084,-8.021,1.496,-1.778,7.616,5.026,-5.22,-8.489,62.0,74.0,-8.024,89.9,64.3,75.5,74.0,89.1,36,62.4,0,5,prime,10,0,106,norm,36,-4.471,down,norm,74.0670549813,64.1,69.1,1.417,83.1,2,88.8,74.0,68.6,10,5,8.131,5.154,1.4,-1.698,-5.048,-7.911,69.0,5,180.1,-8.363,-8.062,10,-8.326,-7.731,-4.645,-4.615,-4.932,-4.734,4.569,8.311,2,-1.355,1.192,4.737,8.469,-7.982,-8.289,-1.529,1.553,94.1,61.3,70.1,,60.0,74.4,73.2,72.2,73.4,75.3,4,norm,1.181,2.036,-1.976,-1.923,-4.939,-4.996,-2.054,-1.81,-1.874,-1.651,1.982,-1.744,70.3,94.0,-4.417,-7.504,57.6,-1.166,8.103,4.823,-4.768,-7.924,10,4.586,4.934,4.495,5.086,1.553,1.281,2.018,1.18,10,4.368,4.566,60,267.930004684,norm,0,37,37,37,367.701,367.709,367.711767447,367.712,367.716,367.721,down,1,0.655705301576,9.34429469842,001,jef,800_600,Intel(R) Core(TM) i7-2670QM CPU @ 2.20GHz,orientation_search,GRVLAPTOP3,Intel(R) HD Graphics Family,2018_jun_27_1426,testMonitor,
168.3,,176.0,179.9,36,-10,179.7,163.7,178.1,172.4,8.283,7.76,7.737,7.551,7.594,8.244,7.515,5.27,-4.975,-7.848,2.074,-1.983,7.677,4.645,-4.459,-7.623,173.9,176.7,-7.765,169.5,177.9,169.6,173.8,162.6,36,172.3,3,5,probe,5,0,87,norm,36,-4.7,up,norm,172.645268119,168.7,170.0,1.404,167.1,5,167.1,176.6,167.3,10,5,8.498,4.827,1.129,-1.503,-5.01,-8.192,177.0,2,85.6,-7.739,-7.637,10,-7.572,-7.581,-4.693,-4.672,-4.733,-4.691,4.784,8.392,23,-1.984,1.91,4.941,8.304,-8.454,-8.321,-1.623,1.297,174.0,173.1,172.1,171.3,173.3,169.0,174.2,182.6,169.6,173.1,0,norm,1.93,1.449,-1.779,-1.787,-5.244,-4.395,-1.813,-1.379,-1.934,-1.139,1.501,-1.359,177.3,168.1,-4.651,-8.315,169.1,-1.549,8.344,5.225,-4.301,-8.287,11,5.275,5.005,4.859,5.272,1.861,1.31,1.47,1.417,11,5.225,5.215,10,74.0670549813,norm,0,38,38,38,368.387,368.395,368.397356683,368.398,368.402,368.407,up,1,0.830203982906,9.16979601709,001,jef,800_600,Intel(R) Core(TM) i7-2670QM CPU @ 2.20GHz,orientation_search,GRVLAPTOP3,Intel(R) HD Graphics Family,2018_jun_27_1426,testMonitor,
181.7,173.8,189.7,180.9,36,-10,179.0,170.6,180.9,183.6,7.903,8.488,7.807,7.508,7.775,7.573,7.738,5.172,-4.499,-8.111,1.811,-1.222,8.492,5.2,-4.342,-8.067,181.5,190.6,-8.008,180.1,179.0,178.8,182.0,170.8,36,181.7,2,5,probe,5,0,95,norm,36,-4.912,up,norm,180.645268119,179.7,179.8,1.313,175.2,3,179.7,190.6,175.5,10,5,8.201,4.695,1.635,-1.169,-5.156,-8.339,182.4,2,85.6,-7.542,-8.044,10,-7.717,-7.871,-4.44,-4.31,-5.152,-4.324,4.736,8.476,15,-1.333,2.021,4.404,8.118,-7.56,-8.307,-1.3,2.082,179.9,179.4,180.5,185.6,180.8,174.8,179.6,183.8,176.0,174.6,1,norm,1.137,1.981,-1.362,-1.588,-4.409,-4.441,-1.648,-1.707,-1.451,-1.437,1.668,-1.46,178.8,184.2,-5.193,-7.893,,-1.201,7.852,4.667,-4.988,-8.46,11,4.514,4.441,4.512,5.202,1.258,1.627,1.988,1.191,11,4.576,5.052,10,74.0670549813,norm,0,39,39,39,369.248,369.255,369.257468882,369.258,369.262,369.267,up,1,0.84168117328,9.15831882672,001,jef,800_600,Intel(R) Core(TM) i7-2670QM CPU @ 2.20GHz,orientation_search,GRVLAPTOP3,Intel(R) HD Graphics Family,2018_jun_27_1426,testMonitor,
172.8,182.8,181.8,192.4,36,20,165.4,168.9,153.9,162.9,8.393,8.477,8.092,7.883,7.514,7.524,8.395,4.545,-4.436,-7.787,1.357,-1.829,8.222,5.12,-5.143,-8.284,182.1,172.1,-7.666,175.9,165.6,171.8,173.6,162.4,36,169.8,1,5,prime,10,0,67,norm,36,-5.012,up,norm,172.409840587,165.6,157.1,1.945,158.7,4,180.9,182.5,174.6,10,5,7.898,5.187,1.83,-1.875,-5.244,-7.972,,5,239.4,-8.023,-7.905,20,-7.728,-7.891,-4.317,-4.726,-4.465,-4.367,4.422,8.346,10,-1.291,2.01,4.405,7.665,-8.14,-7.652,-1.436,1.624,182.2,172.6,152.4,172.9,160.9,166.5,173.5,174.0,163.3,179.4,0,norm,2.068,1.325,-1.448,-1.18,-4.325,-4.44,-1.52,-1.546,-1.201,-1.352,1.265,-2.088,186.7,165.4,-4.826,-7.902,159.8,-1.848,8.165,4.407,-4.927,-8.061,12,4.844,4.539,4.342,4.523,1.871,1.891,1.853,1.605,12,4.955,4.932,-10,74.0670549813,norm,0,40,40,40,370.119,370.127,370.12914279,370.13,370.133,370.138,up,1,1.67662937907,8.32337062093,001,jef,800_600,Intel(R) Core(TM) i7-2670QM CPU @ 2.20GHz,orientation_search,GRVLAPTOP3,Intel(R) HD Graphics Family,2018_jun_27_1426,testMonitor,
180.0,168.0,179.3,170.7,36,20,170.0,172.4,153.4,166.9,7.892,8.487,8.017,7.949,8.466,8.402,7.744,4.401,-5.062,-7.927,1.507,-1.151,8.291,5.083,-4.375,-7.809,174.5,177.3,-7.569,156.8,155.4,183.6,182.3,152.4,36,170.6,2,5,prime,10,0,83,norm,36,-4.44,down,norm,172.409840587,175.2,162.9,1.174,,2,157.8,177.8,184.7,10,5,7.952,4.592,1.258,-1.265,-4.778,-8.473,178.9,5,255.4,-7.573,-7.693,20,-7.63,-7.824,-4.415,-5.108,-4.582,-4.491,4.965,8.206,14,-1.947,1.657,5.245,8.439,-8.112,-7.846,-2.046,1.267,164.1,179.5,153.9,173.4,192.4,184.3,154.6,165.8,156.5,156.6,1,norm,2.082,1.435,-1.201,-1.287,-4.399,-4.803,-1.412,-1.249,-1.361,-1.462,1.238,-1.154,160.2,156.8,-5.18,-7.948,156.2,-1.745,7.622,4.534,-5.195,-8.083,12,5.237,4.619,4.716,4.554,1.357,1.174,1.562,1.987,12,5.247,4.826,-10,74.0670549813,norm,0,41,41,41,371.826,371.833,371.835636959,371.836,371.84,371.845,down,1,1.52592932602,8.47407067398,001,jef,800_600,Intel(R) Core(TM) i7-2670QM CPU @ 2.20GHz,orientation_search,GRVLAPTOP3,Intel(R) HD Graphics Family,2018_jun_27_1426,testMonitor,
171.5,162.2,161.2,172.4,36,20,159.1,178.0,167.9,175.3,7.77,8.161,8.123,8.134,7.704,8.382,8.46,4.447,-4.951,-8.454,1.542,-1.341,7.669,5.23,-4.592,-7.924,181.7,188.4,-8.312,179.0,162.8,170.4,157.6,165.0,36,169.0,0,5,prime,10,0,86,norm,36,-4.913,down,norm,172.409840587,153.1,187.5,1.763,170.4,1,163.0,166.3,170.3,10,5,7.51,4.379,1.335,-1.663,-4.981,-8.482,173.7,5,258.4,-8.254,-8.347,20,-7.898,-7.878,-5.087,-4.401,-4.457,-5.121,5.026,8.339,1,-2.033,1.797,4.58,8.493,-8.352,-7.588,-1.228,1.347,179.9,173.3,181.4,166.9,,183.2,179.4,152.4,155.7,176.1,2,norm,1.332,1.524,-1.127,-1.456,-4.405,-4.927,-1.704,-1.402,-1.116,-1.934,1.963,-1.607,164.7,182.4,-5.188,-8.055,177.7,-1.423,7.543,4.53,-4.981,-7.543,12,4.6,4.597,5.054,4.566,1.956,1.149,2.086,1.444,12,4.336,4.773,-10,74.0670549813,norm,0,42,42,42,373.382,373.39,373.392082471,373.393,373.396,373.402,down,1,1.41721190987,8.58278809013,001,jef,800_600,Intel(R) Core(TM) i7-2670QM CPU @ 2.20GHz,orientation_search,GRVLAPTOP3,Intel(R) HD Graphics Family,2018_jun_27_1426,testMonitor,
160.4,183.5,159.2,170.8,36,20,172.7,179.0,155.1,192.4,7.56,7.523,7.924,8.04,8.412,8.334,8.297,4.933,-5.299,-8.032,1.13,-1.764,8.22,5.061,-5.142,-7.517,171.2,,-7.74,170.7,170.1,155.8,171.8,152.4,36,165.7,5,5,prime,10,0,109,norm,36,-4.994,up,norm,172.409840587,164.8,170.1,1.105,176.0,4,163.4,170.2,175.6,10,5,8.063,5.125,1.574,-1.746,-5.179,-8.104,160.0,5,281.4,-8.071,-8.424,20,-7.559,-8.085,-4.563,-4.814,-4.945,-4.664,4.773,8.192,34,-1.11,1.346,4.533,7.97,-7.838,-7.818,-1.836,1.485,180.7,171.2,163.0,181.2,161.3,172.2,190.2,170.2,168.9,185.2,3,norm,1.576,1.701,-2.071,-2.004,-4.631,-4.424,-1.523,-1.3,-2.002,-1.282,1.573,-1.578,178.4,187.6,-5.202,-8.444,165.6,-1.595,7.729,5.143,-4.914,-7.83,12,4.416,4.932,5.2,4.6,1.279,1.366,1.28,1.541,12,5.251,4.621,-10,74.0670549813,norm,0,43,43,43,374.829,374.837,374.839579893,374.84,374.844,374.849,up,1,0.810935246961,9.18906475304,001,jef,800_600,Intel(R) Core(TM) i7-2670QM CPU @ 2.20GHz,orientation_search,GRVLAPTOP3,Intel(R) HD Graphics Family,2018_jun_27_1426,testMonitor,
172.0,182.8,174.0,165.8,36,20,177.1,171.6,179.6,152.4,8.313,8.471,8.193,8.264,8.401,7.883,7.566,4.509,-4.348,-8.467,1.361,-2.03,8.212,4.881,-4.557,-7.836,186.7,164.8,-8.118,177.4,176.5,164.1,167.4,189.3,36,181.8,0,5,prime,10,0,89,norm,36,-5.122,up,norm,172.409840587,172.4,174.0,1.277,181.3,5,170.9,159.5,168.5,10,5,7.958,4.495,1.555,-1.366,-4.444,-7.714,165.9,5,261.4,-7.63,-7.606,20,-7.907,-8.45,-5.047,-5.013,-4.559,-4.337,5.116,8.377,5,-1.159,1.132,5.196,8.272,-8.169,-7.622,-2.041,1.18,163.7,171.7,156.7,178.8,189.2,163.9,181.4,168.9,,168.1,4,norm,1.841,1.619,-1.207,-1.252,-5.07,-4.87,-1.33,-1.968,-1.829,-1.985,1.665,-1.69,173.2,185.6,-4.982,-8.439,168.5,-1.372,8.497,4.435,-4.454,-8.053,12,4.686,4.786,4.662,4.469,2.042,2.058,1.332,1.688,12,5.07,4.368,-10,74.0670549813,norm,0,44,44,44,375.671,375.678,375.680368256,375.681,375.685,375.69,up,1,1.07583238698,8.92416761302,001,jef,800_600,Intel(R) Core(TM) i7-2670QM CPU @ 2.20GHz,orientation_search,GRVLAPTOP3,Intel(R) HD Graphics Family,2018_jun_27_1426,testMonitor,
271.9,274.4,,270.3,36,0,272.1,270.0,271.0,260.6,7.586,7.875,7.885,7.702,8.137,7.772,7.959,4.349,-4.372,-8.222,1.792,-1.355,7.745,4.702,-4.821,-7.77,270.6,264.2,-7.833,268.3,268.8,273.8,277.6,266.6,36,274.9,3,5,probe,5,0,77,norm,36,-4.77,down,norm,270.551947985,274.2,275.4,1.419,262.6,2,269.5,277.1,264.4,10,5,7.558,4.309,1.699,-1.615,-4.578,-7.985,263.7,1,193.6,-8.378,-8.086,20,-7.75,-8.074,-5.297,-5.114,-4.527,-4.874,4.814,8.16,20,-1.236,1.384,4.98,8.49,-8.032,-8.285,-1.676,1.754,268.5,273.2,264.2,273.7,280.6,271.2,276.1,263.6,270.7,267.9,0,norm,1.751,1.271,-1.955,-1.997,-4.631,-4.76,-1.519,-1.402,-1.965,-1.781,1.981,-1.463,273.8,277.7,-5.003,-7.722,278.0,-2.027,7.652,4.876,-4.987,-7.519,13,4.967,4.648,4.507,4.968,1.718,1.646,1.503,1.369,13,5.031,4.722,20,172.409840587,norm,0,45,45,45,376.776,376.783,376.785986051,376.786,376.79,376.795,down,1,0.842311090275,9.15768890973,001,jef,800_600,Intel(R) Core(TM) i7-2670QM CPU @ 2.20GHz,orientation_search,GRVLAPTOP3,Intel(R) HD Graphics Family,2018_jun_27_1426,testMonitor,
347.6,342.6,338.6,343.7,36,-30,324.8,316.4,323.7,,8.289,8.25,7.897,8.133,7.502,8.137,8.466,5.194,-4.764,-7.954,1.463,-1.673,7.726,4.323,-5.086,-7.937,352.0,328.8,-8.33,356.4,330.0,338.0,341.1,337.0,36,338.5,4,5,prime,10,0,83,norm,36,-5.206,up,norm,336.394480314,334.9,316.8,1.842,322.5,5,341.8,330.5,322.4,10,5,8.393,5.191,1.628,-1.615,-4.677,-7.688,334.1,5,419.4,-7.554,-7.89,-30,-8.114,-7.905,-4.724,-5.218,-4.512,-4.403,4.436,7.513,29,-1.568,2.01,5.215,7.958,-7.756,-8.262,-1.339,1.384,338.9,338.6,333.3,327.5,342.8,321.1,336.1,336.6,345.8,332.9,0,norm,1.829,1.172,-1.872,-1.54,-4.716,-4.323,-2.065,-1.37,-1.309,-1.724,1.199,-1.877,333.8,330.9,-5.107,-8.351,333.4,-1.234,7.985,4.744,-4.476,-7.953,14,4.761,4.73,4.98,4.761,1.246,1.121,1.119,1.134,14,4.461,4.662,0,172.409840587,norm,0,46,46,46,377.648,377.656,377.658806324,377.659,377.663,377.668,up,1,0.799473465972,9.20052653403,001,jef,800_600,Intel(R) Core(TM) i7-2670QM CPU @ 2.20GHz,orientation_search,GRVLAPTOP3,Intel(R) HD Graphics Family,2018_jun_27_1426,testMonitor,
338.1,337.3,328.1,316.4,36,-30,337.1,339.1,342.2,328.8,8.39,8.217,7.524,8.332,7.605,8.316,8.481,5.06,-5.026,-7.802,1.493,-1.841,8.263,4.375,-5.241,-8.006,323.4,325.2,-8.123,349.2,325.2,326.3,328.7,319.0,36,350.7,1,5,prime,10,0,103,norm,36,-4.883,down,norm,336.394480314,330.5,340.7,2.048,333.4,0,328.0,326.3,318.0,10,5,7.892,5.277,2.092,-1.348,-5.103,-7.605,334.2,5,439.4,-7.627,-8.162,-30,-8.443,-8.33,-5.282,-4.334,-4.806,-5.015,5.295,8.461,6,-1.871,1.141,5.16,8.312,-8.305,-7.612,-1.997,2.052,333.6,327.0,344.8,328.6,328.6,356.4,320.0,,332.8,332.6,1,norm,1.916,1.925,-1.702,-1.555,-5.299,-5.257,-1.719,-1.486,-1.236,-1.952,1.816,-1.666,327.1,349.8,-5.138,-7.927,325.8,-1.538,7.609,5.1,-4.46,-7.517,14,4.41,5.034,4.339,4.978,1.521,1.628,1.988,1.538,14,4.394,4.911,0,172.409840587,norm,0,47,47,47,378.478,378.486,378.488229564,378.489,378.492,378.498,down,1,0.845364016377,9.15463598362,001,jef,800_600,Intel(R) Core(TM) i7-2670QM CPU @ 2.20GHz,orientation_search,GRVLAPTOP3,Intel(R) HD Graphics Family,2018_jun_27_1426,testMonitor,
356.4,326.2,334.2,328.1,36,-30,329.2,338.6,333.2,341.7,7.572,7.578,8.017,8.499,8.393,7.517,7.814,4.359,-4.714,-8.134,1.757,-1.714,7.763,4.399,-5.148,-8.291,334.1,334.8,-7.607,319.1,338.5,348.3,328.4,334.8,36,351.6,0,5,prime,10,0,104,norm,36,-4.568,up,norm,336.394480314,332.0,336.6,1.85,334.2,5,332.3,316.4,324.5,10,5,7.677,5.238,1.526,-1.91,-5.168,-7.518,327.7,5,440.4,-8.129,-8.269,-30,-7.707,-7.908,-4.706,-4.538,-4.432,-5.019,4.335,8.037,5,-1.335,1.189,5.294,7.945,-8.151,-7.893,-1.953,1.169,339.5,346.1,352.2,335.0,331.5,348.3,352.4,346.1,,327.4,2,norm,1.128,1.429,-1.366,-1.173,-4.369,-4.401,-1.553,-1.848,-1.477,-1.515,1.297,-1.78,317.2,338.4,-4.829,-7.643,343.2,-1.593,8.261,4.6,-4.358,-7.651,14,5.026,4.793,4.383,4.33,1.757,1.262,1.908,1.506,14,4.777,4.64,0,172.409840587,norm,0,48,48,48,379.354,379.361,379.36372033,379.364,379.368,379.373,down,0,1.28945269599,-10,001,jef,800_600,Intel(R) Core(TM) i7-2670QM CPU @ 2.20GHz,orientation_search,GRVLAPTOP3,Intel(R) HD Graphics Family,2018_jun_27_1426,testMonitor,
330.2,350.5,327.6,340.7,36,-30,329.2,334.5,356.4,323.8,7.627,8.405,8.181,7.515,8.34,8.308,8.395,4.684,-5.081,-8.322,1.778,-1.414,7.614,4.987,-5.223,-7.532,340.3,341.7,-7.909,337.0,337.5,327.8,338.2,328.0,36,341.8,1,5,prime,10,0,107,norm,36,-5.137,up,norm,336.394480314,334.1,342.4,1.273,316.4,5,,346.6,325.4,10,5,7.783,4.771,1.817,-1.201,-4.933,-8.163,334.2,5,443.4,-7.693,-8.078,-30,-7.669,-7.898,-4.543,-4.413,-5.253,-5.074,4.846,7.853,11,-1.71,1.267,5.215,7.788,-7.696,-8.247,-1.291,1.538,333.0,333.0,321.5,336.1,340.4,349.8,347.6,345.2,343.5,337.5,3,norm,1.645,2.085,-2.083,-1.801,-4.92,-4.535,-1.558,-2.035,-1.741,-1.104,1.886,-1.575,345.3,350.3,-4.657,-7.615,343.0,-1.702,8.266,4.62,-5.153,-8.224,14,4.939,4.321,5.233,4.939,1.857,1.508,1.656,1.351,14,5.103,4.695,0,172.409840587,norm,0,49,49,49,381.678,381.686,381.688890113,381.689,381.693,381.698,up,1,0.988780099666,9.01121990033,001,jef,800_600,Intel(R) Core(TM) i7-2670QM CPU @ 2.20GHz,orientation_search,GRVLAPTOP3,Intel(R) HD Graphics Family,2018_jun_27_1426,testMonitor,
331.7,347.1,349.9,327.9,36,-30,339.9,334.9,350.2,317.4,8.258,8.279,7.805,7.572,8.234,8.486,8.269,5.115,-4.351,-7.638,1.245,-1.74,8.442,4.638,-4.323,-8.262,339.6,334.3,-7.969,340.4,319.7,335.9,340.2,323.5,36,340.7,1,5,prime,10,0,82,norm,36,-4.391,up,norm,336.394480314,345.6,331.2,1.286,334.7,5,,347.7,331.0,10,5,7.623,5.264,1.147,-1.442,-4.714,-7.551,338.7,5,418.4,-7.754,-7.747,-30,-7.999,-8.003,-4.62,-5.038,-5.253,-4.634,4.75,8.069,11,-1.446,1.311,4.658,8.089,-8.115,-7.543,-1.747,1.116,335.6,325.1,319.9,331.3,331.6,338.3,343.0,336.6,356.4,339.9,4,norm,1.432,1.959,-1.512,-1.647,-4.941,-5.102,-1.859,-1.305,-1.937,-1.717,1.262,-1.611,339.0,316.4,-4.995,-8.034,336.4,-1.79,8.073,4.67,-4.884,-7.931,14,5.125,5.202,4.513,4.918,1.147,1.747,1.606,1.777,14,4.69,4.667,0,172.409840587,norm,0,50,50,50,382.698,382.705,382.707971602,382.708,382.712,382.717,up,1,0.767616196104,9.2323838039,001,jef,800_600,Intel(R) Core(TM) i7-2670QM CPU @ 2.20GHz,orientation_search,GRVLAPTOP3,Intel(R) HD Graphics Family,2018_jun_27_1426,testMonitor,
382.6,380.1,391.1,388.8,36,-10,386.9,387.7,382.5,388.5,8.189,8.309,8.403,8.126,8.002,8.181,7.509,5.196,-4.948,-8.031,2.005,-1.648,8.242,4.817,-4.613,-8.059,389.7,391.6,-8.093,395.2,380.5,379.5,387.2,380.5,36,378.9,0,5,probe,5,0,77,norm,36,-4.359,up,norm,386.758977018,390.7,390.9,1.282,382.8,5,380.4,384.0,396.8,10,5,7.784,4.743,1.728,-1.575,-5.1,-7.709,376.8,2,309.8,-8.165,-8.242,-30,-7.968,-8.449,-4.393,-4.844,-5.013,-4.428,4.48,7.659,5,-2.015,1.964,4.445,7.624,-7.828,-8.344,-1.858,1.261,392.6,384.4,384.7,385.2,396.0,382.8,379.0,377.3,,394.3,0,norm,1.995,1.931,-1.405,-1.162,-4.83,-4.866,-1.796,-1.795,-1.738,-1.317,1.664,-1.754,390.2,394.8,-4.498,-8.25,392.9,-1.156,8.002,4.382,-5.191,-7.708,15,4.833,4.859,4.559,4.403,1.784,1.399,1.667,2.1,15,4.76,5.275,-30,336.394480314,norm,0,51,51,51,383.496,383.503,383.505558586,383.506,383.51,383.515,up,1,1.01791924735,8.98208075265,001,jef,800_600,Intel(R) Core(TM) i7-2670QM CPU @ 2.20GHz,orientation_search,GRVLAPTOP3,Intel(R) HD Graphics Family,2018_jun_27_1426,testMonitor,
379.6,378.9,384.3,390.1,36,-10,383.3,385.0,380.4,395.8,8.252,7.889,8.493,8.002,7.876,8.229,8.114,5.237,-4.875,-7.967,1.366,-1.476,7.849,4.789,-4.373,-8.465,383.7,391.2,-7.743,381.4,381.2,382.9,380.8,389.2,36,384.4,0,5,probe,5,0,76,norm,36,-4.841,up,norm,385.758977018,377.6,378.4,1.927,392.5,4,392.8,383.3,381.1,10,5,8.296,4.733,1.661,-1.816,-5.124,-8.213,375.8,2,309.8,-8.273,-8.0,-30,-8.126,-7.964,-4.701,-4.45,-4.701,-4.576,4.981,7.639,4,-1.934,1.384,4.716,7.73,-8.383,-8.01,-1.881,1.666,390.8,381.4,384.1,384.1,384.8,381.1,390.0,391.8,387.1,,1,norm,1.641,1.862,-1.123,-1.974,-5.275,-4.832,-1.582,-1.201,-1.831,-1.86,1.309,-1.498,383.1,393.4,-5.245,-8.128,381.7,-1.447,7.629,4.893,-5.283,-7.93,15,4.434,4.695,4.38,5.152,1.927,1.138,2.034,1.303,15,4.672,5.232,-30,336.394480314,norm,0,52,52,52,384.544,384.552,384.554841535,384.555,384.559,384.564,up,1,0.908607402483,9.09139259752,001,jef,800_600,Intel(R) Core(TM) i7-2670QM CPU @ 2.20GHz,orientation_search,GRVLAPTOP3,Intel(R) HD Graphics Family,2018_jun_27_1426,testMonitor,
297.1,302.1,287.6,292.7,36,10,278.0,280.9,292.0,297.0,7.521,8.262,7.703,7.669,7.564,7.706,8.361,5.293,-4.771,-8.1,1.242,-1.63,8.389,4.565,-4.691,-7.642,282.9,306.5,-8.307,,289.2,282.9,283.4,273.5,36,297.9,5,5,prime,10,0,114,norm,36,-4.747,down,norm,286.504435147,285.7,266.5,1.792,302.8,1,286.1,275.9,288.4,10,6,8.335,4.449,1.299,-1.55,-4.46,-7.875,282.7,6,400.5,-7.642,-8.456,10,-7.766,-8.133,-4.995,-5.101,-5.23,-4.678,4.735,7.546,31,-1.552,1.599,4.633,7.67,-8.337,-8.341,-1.267,2.031,292.5,274.3,295.1,296.2,270.8,281.0,284.2,286.2,283.8,285.2,0,norm,1.658,1.634,-1.541,-2.022,-4.703,-4.934,-1.459,-1.107,-1.331,-1.443,1.639,-1.834,285.7,291.0,-4.491,-7.743,290.5,-1.524,8.368,4.778,-5.231,-8.406,16,4.765,4.389,5.205,5.219,1.976,1.911,1.721,1.557,16,4.571,4.367,-10,336.394480314,norm,0,53,53,53,385.484,385.491,385.493972129,385.494,385.498,385.503,down,1,1.21084335099,8.78915664901,001,jef,800_600,Intel(R) Core(TM) i7-2670QM CPU @ 2.20GHz,orientation_search,GRVLAPTOP3,Intel(R) HD Graphics Family,2018_jun_27_1426,testMonitor,
288.5,295.8,300.9,290.7,36,10,288.9,286.6,280.9,285.2,8.479,8.114,8.223,7.951,8.351,7.775,7.765,4.764,-5.182,-7.983,1.218,-1.644,7.634,5.202,-4.802,-8.136,272.5,278.1,-8.326,296.1,290.2,281.4,300.9,284.2,36,269.8,0,5,prime,10,0,65,norm,36,-4.602,up,norm,286.504435147,283.8,286.8,1.929,293.7,4,278.5,299.8,305.4,10,6,8.072,5.159,1.334,-1.342,-4.523,-7.897,283.0,6,351.5,-7.541,-7.961,10,-7.838,-8.219,-5.049,-4.689,-4.496,-4.817,5.179,7.505,4,-1.208,1.157,4.82,8.175,-8.212,-8.019,-1.952,2.028,289.2,306.5,273.5,283.7,295.5,291.8,293.1,283.6,266.5,,1,norm,1.449,1.149,-1.818,-1.952,-4.867,-4.364,-1.658,-1.414,-1.528,-1.24,1.835,-1.458,275.3,282.7,-5.184,-7.656,284.7,-1.654,8.349,4.689,-4.886,-8.321,16,4.359,4.703,4.946,5.213,1.757,1.276,1.202,1.775,16,5.169,4.72,-10,336.394480314,norm,0,54,54,54,386.725,386.733,386.735314856,386.736,386.74,386.745,up,1,0.912846851255,9.08715314874,001,jef,800_600,Intel(R) Core(TM) i7-2670QM CPU @ 2.20GHz,orientation_search,GRVLAPTOP3,Intel(R) HD Graphics Family,2018_jun_27_1426,testMonitor,
,273.6,284.6,278.9,36,10,268.6,304.2,267.6,274.9,8.043,8.17,8.291,8.13,7.736,8.474,7.88,4.501,-4.319,-7.835,1.963,-1.279,8.268,4.59,-4.498,-8.456,295.1,304.2,-7.519,273.4,292.6,291.6,285.0,275.6,36,287.6,3,5,prime,10,0,115,norm,36,-5.237,up,norm,286.504435147,289.7,270.0,1.972,288.7,4,286.1,284.4,306.5,10,6,8.331,4.431,1.378,-1.585,-4.396,-8.011,275.8,6,401.5,-7.8,-8.132,10,-8.093,-8.244,-5.0,-4.898,-4.313,-5.196,4.926,8.391,22,-1.76,1.961,4.71,7.673,-8.216,-8.125,-1.853,1.998,282.1,279.4,300.5,275.4,266.5,288.5,291.1,304.4,300.7,293.6,2,norm,1.343,1.652,-1.83,-1.619,-5.28,-4.89,-1.601,-2.019,-1.659,-1.922,1.556,-1.357,274.4,294.2,-5.023,-8.115,300.8,-1.451,7.522,5.047,-5.015,-7.574,16,4.648,4.649,4.861,4.924,1.444,1.17,1.28,1.392,16,5.229,4.783,-10,336.394480314,norm,0,55,55,55,387.668,387.676,387.678716183,387.679,387.683,387.689,down,0,2.62659230315,-10,001,jef,800_600,Intel(R) Core(TM) i7-2670QM CPU @ 2.20GHz,orientation_search,GRVLAPTOP3,Intel(R) HD Graphics Family,2018_jun_27_1426,testMonitor,
306.5,299.1,288.5,274.9,36,10,278.7,292.8,294.3,281.4,7.676,7.693,8.156,7.698,7.905,7.627,7.511,4.618,-4.868,-8.084,2.065,-1.398,8.413,5.051,-4.664,-8.023,298.5,277.8,-8.486,,281.3,283.9,297.0,274.8,36,292.5,5,5,prime,10,0,70,norm,36,-4.918,down,norm,286.504435147,287.0,294.4,1.893,301.6,1,277.5,290.0,279.3,10,6,8.236,4.89,1.269,-1.306,-5.195,-7.817,299.5,6,356.5,-7.559,-7.537,10,-8.042,-8.09,-5.215,-4.59,-5.07,-4.336,4.589,7.547,31,-1.856,1.963,4.391,8.05,-7.693,-8.21,-1.956,1.479,280.6,297.6,287.2,291.8,288.8,282.1,287.7,281.6,280.3,303.7,3,norm,1.109,1.483,-1.446,-1.579,-5.251,-4.435,-1.813,-1.601,-1.962,-1.315,1.504,-1.748,279.8,290.1,-4.711,-7.856,266.5,-1.952,7.543,4.567,-4.937,-8.385,16,4.34,5.172,5.056,4.632,1.731,2.028,2.012,1.995,16,4.989,4.879,-10,336.394480314,norm,0,56,56,56,391.335,391.342,391.34453798,391.345,391.349,391.354,down,1,1.22258063311,8.77741936689,001,jef,800_600,Intel(R) Core(TM) i7-2670QM CPU @ 2.20GHz,orientation_search,GRVLAPTOP3,Intel(R) HD Graphics Family,2018_jun_27_1426,testMonitor,
288.0,280.0,279.0,289.7,36,10,294.2,271.3,297.3,291.0,8.042,8.475,8.35,7.75,8.098,7.794,7.913,4.74,-4.873,-7.611,1.55,-1.138,7.524,4.69,-4.859,-8.183,284.4,277.4,-7.726,,294.5,306.5,290.2,275.4,36,275.1,5,5,prime,10,0,113,norm,36,-4.567,down,norm,286.504435147,288.7,291.8,1.801,299.9,1,298.4,283.5,279.5,10,6,7.956,4.361,1.187,-1.563,-4.453,-7.908,266.5,6,399.5,-8.247,-7.948,10,-8.424,-8.11,-4.599,-5.224,-4.759,-4.894,5.266,8.253,31,-2.013,1.126,4.688,8.183,-7.865,-7.946,-1.676,1.908,292.4,282.8,298.9,271.6,291.6,281.1,290.0,277.3,269.1,289.4,4,norm,1.336,1.828,-1.718,-1.29,-4.924,-4.33,-1.356,-1.958,-1.535,-1.422,2.027,-1.381,291.1,281.9,-4.525,-8.239,284.0,-1.754,8.467,4.959,-4.936,-7.569,16,5.28,5.229,5.027,5.163,1.521,1.312,1.522,2.052,16,4.945,4.73,-10,336.394480314,norm,0,57,57,57,392.587,392.595,392.597354629,392.598,392.602,392.607,down,1,1.98082792293,8.01917207707,001,jef,800_600,Intel(R) Core(TM) i7-2670QM CPU @ 2.20GHz,orientation_search,GRVLAPTOP3,Intel(R) HD Graphics Family,2018_jun_27_1426,testMonitor,
266.5,284.9,273.2,291.0,36,10,285.9,281.1,,297.4,7.675,7.893,8.01,7.783,8.483,7.734,8.427,5.029,-5.182,-7.98,2.076,-1.804,8.028,5.136,-4.504,-8.008,280.1,302.2,-7.506,306.5,297.9,282.5,294.1,300.2,36,280.7,4,5,prime,10,0,90,norm,36,-4.543,up,norm,286.504435147,296.4,278.2,1.243,286.6,4,294.8,279.8,295.2,10,6,8.311,4.707,1.528,-2.025,-5.271,-7.614,292.1,6,376.5,-8.252,-8.446,10,-7.89,-8.026,-4.85,-4.757,-4.921,-4.454,4.356,8.455,28,-1.278,1.52,5.066,7.896,-8.236,-8.221,-1.76,1.769,273.1,281.0,271.5,305.6,279.0,286.7,297.2,285.0,282.6,298.4,5,norm,1.219,1.5,-1.238,-1.271,-5.092,-4.464,-2.089,-1.323,-2.047,-1.578,1.976,-1.25,294.8,298.4,-4.968,-8.18,276.5,-1.842,8.137,4.435,-4.344,-8.264,16,5.263,5.073,5.214,4.716,1.433,1.756,1.649,2.068,16,4.395,4.707,-10,336.394480314,norm,0,58,58,58,394.599,394.607,394.609601355,394.61,394.614,394.62,up,1,0.762640832443,9.23735916756,001,jef,800_600,Intel(R) Core(TM) i7-2670QM CPU @ 2.20GHz,orientation_search,GRVLAPTOP3,Intel(R) HD Graphics Family,2018_jun_27_1426,testMonitor,
376.0,374.2,377.9,371.3,36,-80,371.4,372.7,372.6,376.6,8.396,8.361,8.178,7.53,8.404,8.349,8.054,4.747,-4.37,-8.181,1.301,-1.352,7.833,5.171,-4.42,-7.896,373.4,378.9,-8.027,373.2,375.6,371.7,376.0,375.9,36,376.2,1,5,probe,5,0,74,norm,36,-4.871,up,norm,372.225145809,372.4,367.1,1.814,374.2,4,382.2,370.5,379.2,10,6,7.571,5.116,2.008,-1.196,-5.058,-8.273,,1,298.2,-8.103,-7.933,10,-8.419,-7.88,-4.305,-4.675,-4.537,-5.164,4.793,8.153,10,-1.234,1.505,4.63,7.802,-8.303,-8.435,-1.23,1.977,374.1,377.7,370.2,376.4,375.2,362.9,363.4,374.8,376.1,377.6,0,norm,2.092,1.62,-1.638,-1.78,-4.335,-4.396,-1.702,-1.358,-1.865,-1.659,1.796,-1.813,362.2,381.1,-5.116,-7.721,366.3,-1.939,7.606,5.06,-4.932,-7.856,17,4.368,4.387,5.247,5.111,1.782,1.36,2.056,1.855,17,4.942,4.483,10,286.504435147,norm,0,59,59,59,395.393,395.401,395.403293032,395.404,395.408,395.413,up,1,0.901341643817,9.09865835618,001,jef,800_600,Intel(R) Core(TM) i7-2670QM CPU @ 2.20GHz,orientation_search,GRVLAPTOP3,Intel(R) HD Graphics Family,2018_jun_27_1426,testMonitor,
212.8,241.1,225.5,230.5,36,0,236.0,234.1,215.9,220.0,8.495,8.029,8.373,8.474,7.811,7.734,8.299,5.131,-5.028,-8.235,1.85,-1.563,8.408,4.894,-4.8,-7.808,228.4,212.8,-8.441,241.9,209.3,228.6,230.8,222.5,36,224.0,2,5,prime,10,0,83,norm,36,-4.307,down,norm,224.314642148,229.1,222.0,1.745,227.8,1,218.5,,224.6,10,5,7.722,4.786,1.606,-2.052,-4.937,-7.871,225.5,5,307.3,-8.496,-8.143,0,-7.594,-7.947,-4.438,-4.394,-4.914,-5.039,4.572,8.395,13,-2.082,1.726,4.671,7.831,-7.834,-8.088,-1.871,1.989,244.3,224.1,230.8,234.3,222.4,232.3,221.1,238.5,214.4,213.9,0,norm,1.548,1.312,-1.861,-1.44,-4.461,-4.551,-1.231,-1.782,-1.486,-1.181,1.833,-1.364,227.7,209.4,-4.597,-8.338,204.3,-1.391,8.219,5.289,-5.215,-8.447,18,5.053,5.145,4.654,4.675,1.438,1.119,1.339,1.936,18,4.985,4.658,-80,286.504435147,norm,0,60,60,60,396.325,417.827,417.829462932,417.83,417.834,417.839,down,1,0.685232018648,9.31476798135,001,jef,800_600,Intel(R) Core(TM) i7-2670QM CPU @ 2.20GHz,orientation_search,GRVLAPTOP3,Intel(R) HD Graphics Family,2018_jun_27_1426,testMonitor,
230.4,204.3,216.0,211.8,36,0,208.0,233.1,211.3,224.1,7.57,8.445,8.438,8.352,7.666,7.692,8.058,4.68,-4.323,-8.105,2.068,-1.266,7.816,5.228,-5.11,-7.696,237.9,229.1,-8.404,226.1,229.0,226.0,237.0,220.1,36,244.3,1,5,prime,10,0,73,norm,36,-4.609,up,norm,224.314642148,232.4,214.0,1.851,218.7,3,207.7,214.3,237.6,10,5,8.358,4.656,1.106,-1.858,-4.962,-8.177,212.0,5,297.3,-8.373,-8.242,0,-7.833,-7.625,-5.276,-5.189,-5.228,-5.208,4.956,7.812,9,-1.368,1.5,4.319,7.99,-8.15,-7.68,-1.891,1.153,,221.9,221.3,228.2,235.4,214.7,227.9,211.5,207.1,225.5,1,norm,1.675,1.559,-1.627,-1.445,-4.623,-5.061,-1.485,-1.568,-1.636,-1.456,1.868,-1.15,220.5,211.6,-4.848,-7.983,223.2,-1.483,8.178,4.661,-4.786,-7.874,18,4.497,4.442,5.119,4.393,1.228,1.87,1.497,1.391,18,4.934,4.697,-80,286.504435147,norm,0,61,61,61,418.535,418.543,418.545633727,418.546,418.55,418.555,up,1,0.863821658311,9.13617834169,001,jef,800_600,Intel(R) Core(TM) i7-2670QM CPU @ 2.20GHz,orientation_search,GRVLAPTOP3,Intel(R) HD Graphics Family,2018_jun_27_1426,testMonitor,
219.6,216.7,238.3,210.8,36,0,244.3,,229.7,205.2,8.041,8.267,8.015,8.109,8.02,7.662,7.633,4.756,-4.999,-7.818,1.738,-1.86,8.479,4.871,-4.541,-7.966,239.5,225.6,-7.743,228.6,228.8,231.1,224.1,223.5,36,208.5,4,5,prime,10,0,94,norm,36,-4.604,down,norm,224.314642148,232.6,231.5,1.538,224.7,1,215.0,220.7,211.2,10,5,8.384,4.669,2.092,-1.26,-4.788,-7.745,213.6,5,318.3,-8.296,-8.034,0,-8.328,-8.076,-4.582,-4.91,-4.897,-4.834,4.481,7.595,25,-1.591,1.919,4.382,8.314,-8.337,-8.083,-2.091,1.363,210.4,224.9,227.8,224.3,210.4,212.7,235.4,217.3,225.4,234.1,2,norm,1.651,2.079,-1.884,-1.683,-4.889,-5.101,-1.487,-1.128,-1.283,-1.793,1.159,-1.648,204.3,243.1,-5.1,-7.614,229.2,-1.894,8.013,4.916,-4.449,-7.647,18,4.975,4.48,4.575,5.192,2.082,1.516,1.922,2.026,18,4.43,4.876,-80,286.504435147,norm,0,62,62,62,419.43,419.438,419.440118662,419.441,419.444,419.45,down,1,0.779409045403,9.2205909546,001,jef,800_600,Intel(R) Core(TM) i7-2670QM CPU @ 2.20GHz,orientation_search,GRVLAPTOP3,Intel(R) HD Graphics Family,2018_jun_27_1426,testMonitor,
216.5,227.0,204.3,238.5,36,0,230.5,213.8,212.6,220.7,7.596,8.277,8.373,7.806,8.406,8.28,8.173,4.626,-4.741,-8.206,1.88,-1.756,8.12,4.581,-4.828,-8.302,239.1,233.3,-8.034,224.1,204.6,231.7,222.4,206.3,36,214.9,1,5,prime,10,0,83,norm,36,-4.793,up,norm,224.314642148,213.7,212.8,1.943,222.1,5,,237.8,221.9,10,5,8.485,5.006,1.246,-1.754,-4.841,-7.554,231.9,5,307.3,-7.678,-8.01,0,-8.453,-7.947,-5.225,-4.785,-5.031,-4.486,5.172,8.355,11,-1.369,1.235,4.35,7.776,-7.931,-7.943,-1.696,1.955,240.9,236.5,221.8,240.2,216.2,217.8,223.3,227.8,244.3,218.8,3,norm,1.63,1.286,-1.699,-1.755,-4.323,-5.287,-1.42,-1.469,-1.44,-1.83,1.644,-1.632,224.3,224.8,-5.21,-8.42,231.7,-1.451,8.47,4.67,-5.078,-7.702,18,4.539,4.864,4.583,5.083,1.525,1.774,1.256,2.093,18,4.447,4.945,-80,286.504435147,norm,0,63,63,63,420.25,420.258,420.260294403,420.261,420.264,420.269,up,1,0.801981460174,9.19801853983,001,jef,800_600,Intel(R) Core(TM) i7-2670QM CPU @ 2.20GHz,orientation_search,GRVLAPTOP3,Intel(R) HD Graphics Family,2018_jun_27_1426,testMonitor,
223.6,224.9,220.3,229.6,36,0,220.3,211.3,225.8,225.3,7.561,7.715,7.519,8.239,8.029,7.714,7.772,4.986,-4.777,-8.26,1.974,-1.505,7.865,5.206,-4.528,-7.683,208.6,236.8,-8.432,238.3,222.8,230.3,238.4,234.9,36,211.3,2,5,prime,10,0,69,norm,36,-4.824,down,norm,224.314642148,237.0,228.3,1.59,,2,225.2,224.2,216.5,10,5,8.491,5.261,1.547,-1.127,-5.257,-8.059,244.3,5,293.3,-8.214,-7.78,0,-7.536,-7.544,-4.44,-4.77,-5.17,-4.991,4.8,7.912,14,-1.455,1.208,4.372,7.759,-7.694,-8.283,-1.581,1.312,204.3,221.7,204.4,223.5,233.1,214.4,223.1,227.7,221.1,232.6,4,norm,1.331,1.37,-1.434,-1.525,-4.69,-4.833,-1.859,-1.686,-1.661,-1.748,1.585,-2.081,228.4,224.3,-5.233,-7.734,224.2,-2.038,8.259,5.09,-4.971,-7.648,18,4.382,4.733,4.538,4.652,1.429,1.986,1.781,1.135,18,5.27,5.126,-80,286.504435147,norm,0,64,64,64,421.082,421.09,421.092763099,421.093,421.097,421.102,down,1,0.725199294717,9.27480070528,001,jef,800_600,Intel(R) Core(TM) i7-2670QM CPU @ 2.20GHz,orientation_search,GRVLAPTOP3,Intel(R) HD Graphics Family,2018_jun_27_1426,testMonitor,
,341.7,332.6,334.5,36,-80,332.0,332.0,328.7,336.2,7.586,7.919,8.021,8.062,8.317,7.504,8.372,4.812,-4.829,-8.186,1.52,-1.121,8.428,4.503,-4.442,-8.486,338.2,339.7,-8.291,330.3,335.4,334.2,332.1,334.2,36,332.3,3,5,probe,5,0,106,norm,36,-4.653,up,norm,333.146578888,335.8,338.7,1.99,327.9,4,329.3,332.7,332.0,10,5,7.595,4.821,1.213,-1.715,-5.298,-7.611,330.3,1,227.1,-7.653,-8.151,0,-8.19,-7.96,-4.552,-4.525,-4.311,-4.819,4.355,8.159,22,-1.114,1.285,5.152,7.757,-7.872,-7.843,-1.431,1.227,330.2,323.1,338.7,327.8,328.2,335.5,343.1,332.7,336.3,332.0,0,norm,2.08,2.043,-2.07,-1.395,-4.863,-4.366,-2.012,-1.852,-2.048,-1.323,1.915,-2.037,340.2,334.3,-4.702,-7.842,324.4,-1.883,7.815,4.958,-4.907,-7.707,19,4.655,5.289,4.859,4.36,1.522,2.099,1.173,1.678,19,4.62,4.936,0,224.314642148,norm,0,65,65,65,421.838,421.846,421.848641079,421.849,421.853,421.858,up,1,0.917829686134,9.08217031387,001,jef,800_600,Intel(R) Core(TM) i7-2670QM CPU @ 2.20GHz,orientation_search,GRVLAPTOP3,Intel(R) HD Graphics Family,2018_jun_27_1426,testMonitor,
88.2,84.2,84.6,109.0,36,20,83.6,92.3,73.5,82.4,8.35,7.823,7.606,7.501,8.254,8.482,8.088,4.82,-4.678,-7.634,2.083,-1.394,7.98,5.068,-5.035,-7.871,92.4,79.8,-8.416,101.0,83.1,92.2,74.3,96.6,36,92.9,2,5,prime,10,0,89,norm,36,-4.608,down,norm,89.5310726858,101.1,92.9,1.241,97.0,1,91.4,,96.3,10,6,7.634,4.886,1.668,-1.812,-4.649,-8.034,83.0,6,178.5,-7.604,-7.76,20,-7.529,-7.799,-4.387,-5.087,-4.527,-5.282,4.866,8.271,13,-1.73,1.168,5.117,8.022,-8.208,-8.264,-1.359,1.373,88.4,109.5,83.0,93.4,73.4,91.3,93.3,82.1,94.4,91.7,0,norm,1.761,1.988,-1.33,-1.333,-4.419,-4.827,-1.706,-1.266,-1.355,-1.844,2.057,-1.77,89.5,69.5,-5.205,-7.789,100.0,-1.152,7.705,4.533,-5.101,-8.076,20,4.437,4.302,5.257,4.893,1.302,1.398,1.679,1.694,20,5.116,4.732,-80,224.314642148,norm,0,66,66,66,422.787,422.794,422.797148984,422.798,422.801,422.806,down,1,0.720647922629,9.27935207737,001,jef,800_600,Intel(R) Core(TM) i7-2670QM CPU @ 2.20GHz,orientation_search,GRVLAPTOP3,Intel(R) HD Graphics Family,2018_jun_27_1426,testMonitor,
81.5,90.2,98.0,88.3,36,20,101.3,91.8,104.7,99.2,8.479,8.229,7.636,7.884,7.998,8.421,7.857,5.159,-4.758,-7.577,1.214,-1.417,7.706,5.07,-4.511,-7.81,87.4,91.0,-7.879,98.5,87.7,102.2,92.6,76.2,36,85.8,0,5,prime,10,0,67,norm,36,-4.894,up,norm,89.5310726858,82.2,74.4,1.352,94.3,4,92.9,78.3,97.3,10,6,8.063,4.6,1.901,-1.859,-4.736,-8.108,74.2,6,156.5,-8.219,-8.351,20,-8.266,-7.827,-4.848,-4.644,-5.264,-5.199,4.79,7.545,4,-1.938,1.652,4.947,7.843,-8.342,-8.011,-1.304,1.71,106.0,103.9,79.3,78.2,80.5,69.5,78.7,98.2,102.7,,1,norm,1.586,1.239,-1.348,-1.444,-5.024,-4.898,-1.114,-1.419,-1.461,-1.376,1.87,-1.911,89.4,74.5,-4.815,-8.227,89.3,-1.332,8.119,4.347,-4.797,-8.391,20,4.955,4.482,4.681,5.043,1.501,1.139,1.407,2.079,20,5.271,4.726,-80,224.314642148,norm,0,67,67,67,423.538,423.548,423.550981718,423.551,423.555,423.56,up,1,0.807031069056,9.19296893094,001,jef,800_600,Intel(R) Core(TM) i7-2670QM CPU @ 2.20GHz,orientation_search,GRVLAPTOP3,Intel(R) HD Graphics Family,2018_jun_27_1426,testMonitor,
87.4,76.4,,89.2,36,20,91.5,88.1,92.0,84.7,8.438,7.77,8.344,8.373,7.548,8.406,7.791,4.54,-4.704,-7.778,1.927,-1.562,7.705,4.58,-4.934,-8.15,75.2,86.7,-7.876,94.2,79.2,109.5,81.9,100.0,36,98.3,3,5,prime,10,0,89,norm,36,-4.668,down,norm,89.5310726858,95.0,78.3,1.424,92.2,2,74.4,92.6,86.4,10,6,7.673,4.988,1.615,-1.846,-5.286,-7.876,83.3,6,178.5,-7.59,-8.201,20,-7.5,-7.836,-4.918,-5.146,-5.134,-5.218,4.421,8.198,20,-1.623,1.241,4.704,8.144,-8.406,-8.154,-1.753,1.749,100.9,97.6,82.8,94.8,100.0,95.6,79.6,82.3,95.2,94.4,2,norm,2.074,1.94,-1.426,-2.091,-4.389,-4.502,-1.156,-2.07,-1.756,-1.887,1.55,-1.699,90.3,69.5,-4.957,-8.276,91.6,-1.183,8.394,5.212,-4.832,-7.569,20,5.028,4.452,4.558,5.257,1.398,1.506,1.773,1.927,20,4.662,4.742,-80,224.314642148,norm,0,68,68,68,424.378,424.385,424.387995715,424.388,424.392,424.397,down,1,1.25818004886,8.74181995114,001,jef,800_600,Intel(R) Core(TM) i7-2670QM CPU @ 2.20GHz,orientation_search,GRVLAPTOP3,Intel(R) HD Graphics Family,2018_jun_27_1426,testMonitor,
69.5,92.1,74.7,80.6,36,20,85.7,83.8,87.9,86.4,8.11,7.69,8.475,7.898,8.329,7.529,7.714,4.661,-4.755,-8.305,1.772,-1.144,8.306,5.153,-4.609,-7.604,107.6,96.4,-8.0,93.5,70.1,95.0,91.2,105.3,36,90.5,1,5,prime,10,0,69,norm,36,-4.564,down,norm,89.5310726858,91.6,100.0,1.197,71.9,0,77.6,100.3,89.8,10,6,8.039,4.827,1.463,-1.202,-5.094,-7.703,97.1,6,158.5,-7.78,-8.108,20,-8.45,-7.505,-5.149,-5.009,-4.491,-5.253,4.581,7.868,6,-1.425,1.903,5.015,7.916,-7.787,-7.936,-1.668,1.278,84.9,97.1,94.9,82.0,72.2,92.5,70.7,,96.7,109.5,3,norm,1.482,1.543,-1.68,-1.392,-5.3,-4.55,-1.856,-1.968,-1.443,-1.954,1.755,-1.458,99.1,86.3,-4.746,-7.596,106.4,-1.508,7.577,4.41,-4.473,-7.685,20,4.336,4.633,5.215,4.843,1.915,1.878,1.787,1.395,20,5.05,5.123,-80,224.314642148,norm,0,69,69,69,425.666,425.673,425.676074174,425.677,425.68,425.685,down,1,1.44675683803,8.55324316197,001,jef,800_600,Intel(R) Core(TM) i7-2670QM CPU @ 2.20GHz,orientation_search,GRVLAPTOP3,Intel(R) HD Graphics Family,2018_jun_27_1426,testMonitor,
96.1,102.6,87.2,99.9,36,20,96.6,101.3,108.9,102.2,7.879,7.759,8.143,7.685,8.392,7.615,7.949,4.662,-4.32,-7.576,1.708,-1.659,8.059,5.145,-4.902,-8.343,93.1,74.8,-7.683,97.3,87.6,94.4,92.6,97.2,36,88.2,1,5,prime,10,0,99,norm,36,-4.682,up,norm,89.5310726858,85.2,101.4,2.004,98.8,5,,100.2,91.9,10,6,8.324,4.823,1.867,-1.199,-4.962,-8.433,79.2,6,188.5,-8.11,-8.182,20,-8.247,-7.883,-4.649,-4.795,-4.541,-4.591,5.231,7.808,11,-1.213,1.988,4.82,8.134,-7.546,-8.023,-1.954,1.301,91.3,89.5,101.1,81.9,78.4,89.8,96.7,84.1,74.2,109.5,4,norm,1.624,1.265,-1.747,-1.76,-5.08,-4.756,-1.622,-2.036,-1.442,-1.918,1.241,-1.804,80.0,101.9,-4.436,-7.983,69.5,-1.271,8.047,4.637,-4.915,-7.629,20,4.585,4.401,4.665,4.711,1.35,1.758,1.622,1.3,20,5.264,5.086,-80,224.314642148,norm,0,70,70,70,427.143,427.151,427.153409303,427.154,427.158,427.163,up,1,1.81823042354,8.18176957646,001,jef,800_600,Intel(R) Core(TM) i7-2670QM CPU @ 2.20GHz,orientation_search,GRVLAPTOP3,Intel(R) HD Graphics Family,2018_jun_27_1426,testMonitor,
103.1,81.6,94.1,94.7,36,20,109.5,98.6,99.0,90.4,8.474,8.445,7.568,8.47,7.853,8.125,8.058,4.53,-4.361,-7.66,1.307,-1.203,8.437,5.222,-4.849,-7.554,89.2,77.0,-7.705,84.0,101.5,103.9,,74.0,36,80.4,5,5,prime,10,0,84,norm,36,-5.139,down,norm,89.5310726858,78.1,98.7,1.172,82.3,2,69.5,84.4,83.2,10,6,7.518,4.377,1.19,-1.272,-4.54,-7.993,88.1,6,173.5,-8.408,-8.273,20,-7.871,-7.657,-5.183,-4.309,-4.388,-4.411,4.622,8.254,32,-1.52,1.578,4.449,8.267,-8.466,-8.24,-1.417,1.991,74.1,79.6,101.6,98.1,97.6,89.5,87.5,84.5,70.5,83.4,5,norm,1.422,1.891,-1.356,-1.158,-5.232,-4.625,-1.509,-1.963,-1.106,-1.152,1.885,-1.695,86.4,86.8,-4.485,-7.713,98.1,-1.842,8.097,4.6,-4.553,-8.178,20,4.351,4.911,4.476,4.331,1.719,1.577,1.892,2.1,20,4.953,4.795,-80,224.314642148,norm,0,71,71,71,428.992,428.999,429.001685226,429.002,429.006,429.011,down,1,0.888863777298,9.1111362227,001,jef,800_600,Intel(R) Core(TM) i7-2670QM CPU @ 2.20GHz,orientation_search,GRVLAPTOP3,Intel(R) HD Graphics Family,2018_jun_27_1426,testMonitor,
219.0,212.7,212.6,215.6,36,-30,218.5,,211.4,213.0,8.339,7.863,7.965,8.31,8.021,8.084,8.071,4.598,-4.395,-8.159,1.227,-1.743,7.779,4.71,-5.123,-8.129,210.4,210.1,-7.516,222.3,213.4,211.4,225.2,220.7,36,221.4,4,5,probe,5,0,107,norm,36,-4.974,down,norm,217.232102197,207.2,212.7,1.823,209.3,1,220.6,221.1,210.2,10,6,8.43,4.775,1.478,-1.82,-5.027,-8.006,221.4,2,110.2,-7.811,-8.479,20,-7.948,-8.134,-4.906,-4.856,-4.377,-5.123,4.863,7.725,25,-2.054,1.443,4.399,7.679,-7.504,-8.461,-1.827,1.468,216.2,213.6,209.1,212.4,214.6,215.2,222.9,217.8,218.7,207.6,0,norm,1.726,1.617,-1.225,-1.317,-4.333,-4.878,-1.698,-1.909,-1.456,-1.821,1.827,-1.712,218.7,227.2,-4.865,-8.375,220.4,-2.069,7.731,4.837,-4.392,-8.428,21,4.839,4.483,4.523,4.715,1.691,2.098,1.856,1.324,21,5.075,4.836,20,89.5310726858,norm,0,72,72,72,429.911,429.918,429.920382041,429.921,429.925,429.93,down,1,1.09100829679,8.90899170321,001,jef,800_600,Intel(R) Core(TM) i7-2670QM CPU @ 2.20GHz,orientation_search,GRVLAPTOP3,Intel(R) HD Graphics Family,2018_jun_27_1426,testMonitor,
199.1,214.3,201.6,198.0,36,-30,209.7,205.9,206.0,202.0,7.766,7.975,7.541,7.505,7.584,7.932,7.666,4.75,-4.851,-8.036,1.408,-1.964,8.423,5.116,-5.224,-8.497,209.0,201.1,-7.697,201.1,213.0,205.1,208.5,207.3,36,202.5,1,5,probe,5,0,95,norm,36,-5.041,up,norm,205.232102197,207.2,195.2,2.018,210.0,3,204.9,206.1,211.3,10,6,8.01,4.943,1.758,-1.726,-5.254,-8.216,203.7,2,110.2,-7.587,-7.973,20,-7.722,-7.899,-5.015,-4.835,-5.261,-4.375,5.196,7.67,9,-1.913,1.621,4.954,8.086,-7.935,-8.272,-1.258,1.273,,207.9,199.1,209.0,203.5,210.1,200.9,202.5,214.3,209.0,1,norm,1.588,1.504,-1.782,-2.019,-5.138,-5.06,-1.672,-1.406,-1.958,-1.982,1.404,-1.931,199.9,206.4,-5.236,-7.692,215.2,-1.789,7.93,4.662,-5.131,-7.862,21,4.597,5.137,4.952,4.507,1.588,1.5,1.481,1.459,21,4.409,4.576,20,89.5310726858,norm,0,73,73,73,431.032,431.04,431.042816145,431.043,431.047,431.052,up,1,1.24155705768,8.75844294232,001,jef,800_600,Intel(R) Core(TM) i7-2670QM CPU @ 2.20GHz,orientation_search,GRVLAPTOP3,Intel(R) HD Graphics Family,2018_jun_27_1426,testMonitor,
236.9,241.8,252.6,252.5,36,30,237.5,243.9,231.3,236.0,8.209,7.588,7.618,7.578,8.368,7.785,7.568,4.915,-5.261,-8.403,1.817,-1.832,8.198,5.235,-4.586,-7.574,244.5,242.4,-7.707,229.2,238.7,237.2,260.4,245.4,36,258.5,2,5,prime,10,0,89,norm,36,-4.403,down,norm,240.355502666,252.6,233.1,1.346,240.1,1,253.8,,236.4,10,5,8.224,4.397,1.464,-2.054,-5.19,-7.937,227.1,5,329.4,-8.257,-8.023,30,-7.624,-7.947,-4.845,-4.682,-5.223,-4.691,4.439,8.385,13,-1.37,1.463,4.686,7.71,-7.58,-8.018,-1.28,1.373,237.1,220.4,251.0,234.8,239.7,239.1,246.1,248.4,244.8,255.0,0,norm,1.257,1.818,-1.324,-1.69,-4.597,-4.852,-1.944,-1.474,-1.127,-1.862,1.755,-1.479,243.1,238.1,-4.801,-8.256,240.9,-1.519,7.704,4.761,-4.881,-8.238,22,4.839,4.578,4.53,4.902,1.462,1.45,1.462,1.919,22,4.591,4.596,-30,89.5310726858,norm,0,74,74,74,432.305,432.312,432.315016866,432.315,432.319,432.324,down,1,0.815862514662,9.18413748534,001,jef,800_600,Intel(R) Core(TM) i7-2670QM CPU @ 2.20GHz,orientation_search,GRVLAPTOP3,Intel(R) HD Graphics Family,2018_jun_27_1426,testMonitor,
229.9,249.5,247.4,245.5,36,30,232.8,238.3,241.3,231.7,8.446,8.18,7.544,8.057,7.731,8.388,8.358,4.921,-4.334,-8.183,1.605,-1.291,7.966,4.592,-4.487,-7.926,240.1,247.0,-7.584,228.1,247.6,260.4,236.3,242.3,36,232.0,1,5,prime,10,0,81,norm,36,-4.754,down,norm,240.355502666,252.2,250.3,1.997,221.5,2,244.9,231.3,238.7,10,5,7.688,4.786,1.536,-1.213,-5.298,-7.689,244.2,5,321.4,-7.772,-7.865,30,-7.558,-7.826,-4.319,-4.365,-5.153,-4.848,4.894,7.678,8,-1.51,1.337,5.253,8.49,-8.348,-8.288,-2.038,1.907,244.2,,253.9,226.8,237.7,248.4,239.3,252.0,229.4,256.4,1,norm,1.714,1.825,-1.851,-1.711,-4.377,-4.587,-1.991,-1.688,-1.357,-1.318,1.621,-1.539,233.5,220.4,-4.647,-8.03,231.8,-1.925,8.276,5.239,-4.622,-8.186,22,5.167,4.616,4.37,4.655,1.202,1.261,1.448,1.904,22,4.589,4.946,-30,89.5310726858,norm,0,75,75,75,433.151,433.158,433.160492951,433.161,433.165,433.17,down,1,0.765811430215,9.23418856979,001,jef,800_600,Intel(R) Core(TM) i7-2670QM CPU @ 2.20GHz,orientation_search,GRVLAPTOP3,Intel(R) HD Graphics Family,2018_jun_27_1426,testMonitor,
246.8,240.1,232.9,250.4,36,30,246.4,249.9,245.8,236.7,7.785,8.018,8.169,8.182,8.069,7.797,8.131,4.873,-5.063,-8.281,2.076,-1.489,7.734,5.211,-5.03,-8.25,256.3,233.1,-8.288,234.9,230.6,244.8,248.0,247.7,36,220.4,1,5,prime,10,0,103,norm,36,-5.03,down,norm,240.355502666,260.4,250.6,1.276,240.7,1,228.2,225.1,223.6,10,5,7.924,4.635,1.955,-1.213,-5.27,-7.862,234.3,5,343.4,-7.863,-7.771,30,-8.228,-8.017,-4.789,-4.631,-5.272,-4.833,4.968,8.302,7,-1.172,1.711,4.463,8.47,-7.539,-8.397,-1.464,1.963,237.7,248.1,231.3,231.8,241.6,251.8,,230.6,240.9,237.6,2,norm,2.066,2.037,-1.537,-1.297,-5.038,-5.294,-1.1,-1.751,-1.179,-1.514,2.094,-1.671,234.9,234.7,-4.742,-8.31,259.5,-1.903,7.736,5.201,-5.173,-7.673,22,4.681,5.002,5.249,4.665,1.138,1.409,1.477,1.818,22,4.871,4.599,-30,89.5310726858,norm,0,76,76,76,433.946,433.954,433.956798154,433.957,433.961,433.967,down,1,1.01431251728,8.98568748272,001,jef,800_600,Intel(R) Core(TM) i7-2670QM CPU @ 2.20GHz,orientation_search,GRVLAPTOP3,Intel(R) HD Graphics Family,2018_jun_27_1426,testMonitor,
237.4,231.0,231.7,232.4,36,30,234.2,225.0,238.1,221.6,8.24,7.928,8.32,8.075,8.172,8.064,7.984,4.784,-4.422,-7.797,1.88,-1.624,7.812,5.103,-4.584,-7.713,242.4,228.1,-7.667,260.4,238.7,248.1,253.7,251.6,36,234.9,1,5,prime,10,0,95,norm,36,-5.065,down,norm,240.355502666,252.5,241.1,1.668,245.9,2,236.4,233.7,242.5,10,5,8.266,4.437,1.587,-1.728,-5.164,-7.607,239.1,5,335.4,-8.451,-8.096,30,-8.154,-8.21,-5.262,-5.018,-4.769,-5.254,4.414,7.611,8,-1.944,1.502,4.842,7.959,-7.649,-8.041,-2.007,1.117,243.6,,251.0,232.7,233.5,238.2,220.4,235.4,247.1,231.5,3,norm,1.763,1.63,-1.3,-1.97,-4.771,-4.59,-1.907,-1.907,-1.488,-1.775,1.397,-1.702,228.0,250.4,-4.882,-8.058,237.3,-1.826,8.481,4.812,-5.105,-7.668,22,4.534,5.09,5.171,4.627,1.631,1.428,1.834,1.482,22,4.52,4.86,-30,89.5310726858,norm,0,77,77,77,434.992,435.0,435.00213957,435.003,435.006,435.011,down,1,1.41408660635,8.58591339365,001,jef,800_600,Intel(R) Core(TM) i7-2670QM CPU @ 2.20GHz,orientation_search,GRVLAPTOP3,Intel(R) HD Graphics Family,2018_jun_27_1426,testMonitor,
260.4,236.4,246.7,229.9,36,30,248.0,252.0,248.1,,8.105,7.653,8.219,7.631,7.645,8.144,7.502,4.795,-5.293,-7.856,1.965,-2.047,8.388,4.979,-5.234,-7.722,247.0,220.4,-7.615,235.9,236.7,249.0,226.0,242.1,36,240.7,4,5,prime,10,0,104,norm,36,-4.845,up,norm,240.355502666,235.1,246.3,1.124,245.0,5,234.5,227.2,227.2,10,5,8.334,4.656,1.895,-1.172,-4.486,-8.226,231.3,5,344.4,-7.718,-8.251,30,-7.907,-7.815,-4.542,-4.602,-4.441,-4.949,4.909,8.244,29,-1.823,1.496,4.67,8.015,-8.222,-7.982,-2.097,2.052,259.9,236.3,235.9,236.1,237.9,235.2,248.1,223.0,238.7,256.3,4,norm,1.627,2.02,-1.307,-1.465,-4.507,-5.116,-2.07,-1.676,-1.166,-1.864,2.056,-1.733,247.0,228.4,-4.818,-8.155,231.1,-1.763,7.918,4.697,-5.282,-8.332,22,5.129,5.242,5.013,5.076,1.836,1.927,1.849,1.513,22,4.475,5.086,-30,89.5310726858,norm,0,78,78,78,436.436,436.443,436.445843015,436.446,436.45,436.455,up,1,0.975317900289,9.02468209971,001,jef,800_600,Intel(R) Core(TM) i7-2670QM CPU @ 2.20GHz,orientation_search,GRVLAPTOP3,Intel(R) HD Graphics Family,2018_jun_27_1426,testMonitor,
350.8,349.6,348.9,350.0,36,80,353.0,349.1,345.1,346.2,8.123,7.89,7.697,8.208,7.665,7.684,7.668,5.031,-4.881,-8.258,1.924,-1.235,8.447,4.587,-5.213,-8.485,352.7,355.8,-7.553,345.9,349.0,349.1,350.1,355.9,36,359.9,1,5,probe,5,0,83,norm,36,-4.338,down,norm,349.921788591,351.3,348.6,1.223,342.3,2,351.4,351.3,349.2,10,5,7.942,4.741,1.379,-1.592,-4.398,-8.218,345.3,2,266.9,-7.592,-8.324,30,-8.28,-8.498,-4.856,-5.081,-5.051,-4.381,4.674,7.82,8,-1.234,1.67,4.441,8.373,-7.505,-8.309,-2.029,1.736,351.0,,354.5,356.3,350.4,351.1,339.9,340.6,355.2,357.3,0,norm,1.498,1.626,-1.953,-1.762,-4.69,-4.36,-1.875,-1.251,-1.395,-1.4,1.652,-1.335,347.2,352.8,-4.658,-8.302,349.5,-1.615,7.948,4.792,-4.752,-8.123,23,5.271,4.529,4.455,4.707,1.959,1.793,1.524,1.441,23,4.644,5.159,30,240.355502666,norm,0,79,79,79,437.441,437.449,437.451659824,437.452,437.456,437.461,down,1,0.798723075602,9.2012769244,001,jef,800_600,Intel(R) Core(TM) i7-2670QM CPU @ 2.20GHz,orientation_search,GRVLAPTOP3,Intel(R) HD Graphics Family,2018_jun_27_1426,testMonitor,
376.2,373.1,360.9,369.2,36,80,376.4,365.8,372.9,366.3,7.678,7.863,8.03,7.531,7.975,8.068,7.687,5.055,-4.799,-8.203,1.543,-1.8,7.745,4.751,-4.763,-8.115,376.1,366.6,-7.891,377.3,360.9,374.1,366.1,366.2,36,367.2,1,5,probe,5,0,104,norm,36,-4.822,up,norm,370.921788591,373.4,380.9,1.214,370.7,3,370.8,370.6,368.0,10,5,7.985,4.653,1.177,-1.771,-4.457,-8.059,373.5,2,266.9,-7.67,-8.112,30,-8.417,-8.484,-5.128,-4.56,-4.654,-5.236,4.858,8.117,9,-1.894,1.634,4.751,8.21,-8.118,-8.485,-1.196,1.593,,367.2,375.6,369.5,370.7,364.1,375.9,369.4,367.5,370.8,1,norm,1.324,1.685,-1.342,-1.519,-4.45,-4.515,-1.425,-1.666,-1.474,-1.385,1.935,-1.5,374.4,371.4,-4.878,-8.059,375.4,-1.463,7.582,5.126,-4.774,-8.423,23,4.87,5.085,4.78,4.341,1.505,1.65,1.893,1.517,23,4.669,5.004,30,240.355502666,norm,0,80,80,80,438.27,438.278,438.28041766,438.281,438.285,438.29,up,1,0.749176765262,9.25082323474,001,jef,800_600,Intel(R) Core(TM) i7-2670QM CPU @ 2.20GHz,orientation_search,GRVLAPTOP3,Intel(R) HD Graphics Family,2018_jun_27_1426,testMonitor,
6.6,-9.6,30.4,5.1,36,-20,29.4,-2.2,13.2,18.0,7.796,8.123,8.244,7.773,8.196,7.788,8.251,5.148,-4.864,-7.569,1.863,-1.759,7.513,4.574,-4.395,-7.703,5.2,-2.0,-7.947,2.1,18.3,9.7,14.1,19.1,36,8.8,0,5,prime,10,0,106,norm,36,-5.124,down,norm,10.430099488,-5.0,1.0,1.526,7.2,1,0.4,30.4,17.6,10,6,7.505,4.937,1.627,-1.465,-4.424,-8.416,10.4,6,116.4,-8.323,-8.216,-20,-8.288,-7.837,-4.635,-5.042,-5.095,-4.593,4.522,7.515,1,-1.34,1.136,5.202,7.548,-8.299,-8.356,-1.478,1.425,24.4,10.3,23.9,3.7,,1.8,20.4,8.5,1.3,12.2,0,norm,1.651,2.064,-1.647,-1.872,-4.469,-4.758,-1.122,-1.487,-1.813,-1.621,1.912,-1.46,9.4,1.6,-4.753,-7.91,19.8,-1.726,8.271,4.972,-4.8,-7.958,24,4.497,4.634,4.512,5.15,1.416,1.724,1.743,1.444,24,4.839,4.618,80,240.355502666,norm,0,81,81,81,439.049,439.057,439.059338274,439.06,439.064,439.069,down,1,0.694653690408,9.30534630959,001,jef,800_600,Intel(R) Core(TM) i7-2670QM CPU @ 2.20GHz,orientation_search,GRVLAPTOP3,Intel(R) HD Graphics Family,2018_jun_27_1426,testMonitor,
-2.6,20.4,2.9,10.1,36,-20,6.8,5.2,12.8,16.1,8.443,7.957,8.369,8.214,7.669,8.487,7.868,5.058,-5.146,-7.611,1.899,-1.72,7.972,5.298,-4.636,-8.13,5.8,15.1,-7.935,9.3,11.3,13.2,17.1,18.3,36,15.8,0,5,prime,10,0,93,norm,36,-4.436,up,norm,10.430099488,-9.6,3.4,1.316,0.7,4,-3.8,-2.0,19.9,10,6,7.538,4.88,1.222,-1.203,-4.933,-8.28,10.5,6,103.4,-7.647,-8.499,-20,-8.407,-8.063,-4.664,-4.731,-4.693,-5.041,4.732,7.951,4,-1.509,1.232,4.664,7.709,-7.65,-7.909,-1.765,1.124,9.7,-6.9,-2.6,9.1,11.7,22.6,30.4,15.7,14.8,,1,norm,1.99,1.156,-1.289,-1.4,-4.53,-5.204,-1.415,-2.029,-1.632,-1.189,1.976,-1.774,-0.9,-0.9,-4.621,-8.194,10.6,-1.488,8.289,4.31,-4.39,-7.901,24,5.035,4.598,4.828,5.098,1.562,1.388,1.238,1.694,24,4.551,5.251,80,240.355502666,norm,0,82,82,82,439.774,439.782,439.784299891,439.785,439.789,439.794,up,1,1.19368850254,8.80631149746,001,jef,800_600,Intel(R) Core(TM) i7-2670QM CPU @ 2.20GHz,orientation_search,GRVLAPTOP3,Intel(R) HD Graphics Family,2018_jun_27_1426,testMonitor,
30.4,-3.4,22.9,-9.6,36,-20,1.0,18.1,-6.6,5.4,8.257,8.04,7.65,7.861,8.4,7.644,7.867,4.693,-5.02,-7.522,1.2,-1.465,8.346,4.799,-4.704,-7.577,15.5,5.3,-7.996,7.9,6.0,16.5,23.1,20.3,36,7.2,1,5,prime,10,0,119,norm,36,-5.003,up,norm,10.430099488,7.3,16.7,1.288,1.1,5,,9.6,3.2,10,6,7.849,4.78,1.331,-1.107,-5.037,-7.852,10.2,6,129.4,-7.896,-7.92,-20,-7.836,-8.442,-4.955,-5.194,-5.1,-4.523,4.784,7.571,11,-1.101,1.282,4.344,7.537,-7.939,-7.906,-1.949,1.961,20.3,8.5,21.8,3.7,18.3,17.6,12.3,10.9,27.4,15.4,2,norm,1.261,1.588,-1.245,-1.1,-5.151,-4.331,-1.606,-2.019,-1.744,-1.922,1.103,-1.384,27.2,18.9,-5.031,-7.998,20.1,-1.121,8.218,4.663,-4.672,-7.582,24,5.269,4.692,4.713,4.951,1.293,1.829,1.925,1.518,24,4.909,5.064,80,240.355502666,norm,0,83,83,83,440.999,441.006,441.008761403,441.009,441.013,441.018,up,1,1.57896936427,8.42103063573,001,jef,800_600,Intel(R) Core(TM) i7-2670QM CPU @ 2.20GHz,orientation_search,GRVLAPTOP3,Intel(R) HD Graphics Family,2018_jun_27_1426,testMonitor,
-8.5,7.0,1.6,-0.4,36,-20,22.1,2.5,6.0,4.0,7.983,7.658,7.755,7.837,7.677,7.862,8.425,4.643,-4.322,-7.742,1.302,-1.117,7.968,5.225,-5.215,-8.382,-7.9,30.4,-8.432,21.2,20.1,6.3,-1.2,1.4,36,10.9,3,5,prime,10,0,75,norm,36,-4.653,down,norm,10.430099488,-6.1,17.3,1.444,3.8,0,14.8,-2.5,23.4,10,6,8.06,5.206,2.007,-1.757,-5.077,-8.106,15.7,6,85.4,-7.978,-7.744,-20,-8.158,-7.885,-4.917,-4.324,-4.932,-4.542,4.604,7.736,18,-2.077,1.814,4.513,8.051,-7.529,-7.894,-2.064,1.136,5.6,24.3,13.3,11.6,18.0,16.5,9.8,22.1,-9.6,6.1,3,norm,2.029,1.238,-1.169,-1.546,-4.757,-5.138,-1.341,-1.359,-1.185,-2.022,1.641,-2.051,23.3,,-4.602,-8.408,7.7,-1.923,7.711,4.763,-4.439,-7.787,24,5.146,4.956,4.83,5.036,1.53,1.411,1.379,1.784,24,4.565,4.419,80,240.355502666,norm,0,84,84,84,442.607,442.615,442.617254216,442.618,442.621,442.627,up,0,2.2045894753,-10,001,jef,800_600,Intel(R) Core(TM) i7-2670QM CPU @ 2.20GHz,orientation_search,GRVLAPTOP3,Intel(R) HD Graphics Family,2018_jun_27_1426,testMonitor,
18.7,-5.3,-3.4,21.1,36,-20,4.0,8.4,-5.2,6.3,8.01,8.072,8.086,8.124,8.019,8.071,7.643,4.787,-5.276,-8.483,1.722,-1.314,7.906,4.88,-4.842,-7.758,20.4,8.3,-7.773,30.4,7.9,13.7,5.7,9.6,36,19.6,2,5,prime,10,0,118,norm,36,-4.499,down,norm,10.430099488,18.2,25.7,1.713,-9.6,1,2.4,,5.0,10,6,8.477,4.961,1.522,-2.099,-4.93,-7.699,15.2,6,128.4,-7.733,-7.939,-20,-7.857,-7.74,-4.338,-4.84,-4.47,-4.366,4.972,8.125,13,-1.622,1.854,4.444,7.601,-7.875,-8.315,-1.187,1.706,25.3,23.5,10.4,9.1,-5.3,13.3,6.6,25.3,11.1,23.9,4,norm,1.232,1.607,-2.026,-1.172,-4.365,-4.876,-1.412,-1.191,-1.961,-1.822,1.575,-1.222,3.8,7.3,-4.82,-7.599,26.6,-1.804,8.173,4.697,-4.379,-8.024,24,4.417,5.118,4.926,4.937,1.515,1.588,1.111,1.369,24,5.148,5.292,80,240.355502666,norm,0,85,85,85,445.855,445.863,445.865154337,445.866,445.869,445.875,down,1,0.763283357117,9.23671664288,001,jef,800_600,Intel(R) Core(TM) i7-2670QM CPU @ 2.20GHz,orientation_search,GRVLAPTOP3,Intel(R) HD Graphics Family,2018_jun_27_1426,testMonitor,
20.8,16.5,16.7,9.9,36,-20,12.8,18.5,22.8,-0.5,7.526,7.948,7.639,7.74,7.824,8.224,7.96,4.556,-4.981,-7.674,1.82,-1.284,8.194,4.346,-4.653,-7.826,16.3,30.4,-8.34,21.6,11.7,,16.8,12.1,36,3.0,5,5,prime,10,0,63,norm,36,-4.98,up,norm,10.430099488,7.9,8.3,1.631,9.0,3,10.1,12.6,16.1,10,6,8.254,5.027,1.214,-2.041,-4.387,-7.723,4.2,6,73.4,-7.57,-8.459,-20,-8.443,-8.157,-5.025,-5.233,-5.197,-5.105,5.258,7.86,33,-1.562,1.786,4.803,8.277,-7.637,-7.661,-1.367,1.463,28.5,13.8,-0.6,8.9,22.3,2.6,0.6,-9.6,2.5,25.1,5,norm,1.247,1.515,-1.166,-1.875,-4.839,-4.699,-1.3,-1.959,-1.936,-1.833,1.8,-1.179,12.1,10.1,-5.226,-7.581,10.4,-1.829,7.962,4.786,-5.096,-8.224,24,4.333,4.998,4.872,4.957,1.379,1.377,1.154,1.442,24,4.669,4.721,80,240.355502666,norm,0,86,86,86,446.649,446.656,446.658358985,446.659,446.663,446.668,up,1,0.883639528715,9.11636047128,001,jef,800_600,Intel(R) Core(TM) i7-2670QM CPU @ 2.20GHz,orientation_search,GRVLAPTOP3,Intel(R) HD Graphics Family,2018_jun_27_1426,testMonitor,
62.8,49.9,62.9,56.8,36,-40,61.1,62.2,51.6,59.1,8.283,8.458,8.221,7.688,7.527,7.671,8.299,4.798,-4.536,-7.849,1.424,-1.545,7.798,5.254,-4.804,-7.768,53.7,68.8,-8.274,52.5,52.7,49.9,52.6,,36,60.0,4,5,probe,5,0,72,norm,36,-5.269,down,norm,59.0797019281,63.4,55.7,1.264,58.1,2,54.7,60.7,54.7,10,6,8.483,4.425,1.835,-1.55,-4.525,-8.209,54.7,1,-12.9,-7.958,-8.0,-20,-7.958,-8.076,-5.058,-4.599,-4.948,-5.089,4.887,7.666,26,-1.749,1.386,4.62,7.945,-8.083,-7.834,-1.25,1.782,55.9,59.9,53.5,58.0,49.1,61.6,50.8,62.7,69.1,57.6,0,norm,1.901,1.322,-1.287,-1.792,-5.021,-5.169,-1.572,-1.933,-1.416,-1.506,1.465,-2.082,50.5,56.5,-5.007,-7.675,59.0,-1.982,8.403,4.666,-4.574,-7.606,25,4.791,5.009,5.145,4.543,1.519,1.445,1.457,1.676,25,5.266,4.702,-20,10.430099488,norm,0,87,87,87,447.562,447.569,447.571723685,447.572,447.576,447.581,down,1,1.35232158733,8.64767841267,001,jef,800_600,Intel(R) Core(TM) i7-2670QM CPU @ 2.20GHz,orientation_search,GRVLAPTOP3,Intel(R) HD Graphics Family,2018_jun_27_1426,testMonitor,
16.6,19.8,36.7,17.6,36,-40,44.1,37.6,18.6,33.8,8.089,7.719,8.465,8.342,7.978,7.521,7.781,5.214,-5.115,-8.136,1.378,-1.618,8.183,4.903,-4.586,-7.962,,45.5,-7.661,19.8,37.4,30.4,18.7,34.6,36,30.8,5,5,prime,10,0,63,norm,36,-4.53,up,norm,31.1104970069,38.9,37.6,1.199,32.4,5,37.8,34.1,23.7,10,5,7.737,5.215,1.71,-1.925,-4.828,-7.677,29.1,5,94.1,-8.269,-8.326,-40,-8.193,-8.083,-4.769,-4.999,-5.169,-4.38,4.622,7.638,35,-2.074,1.924,4.659,7.864,-8.152,-8.127,-1.307,2.024,51.1,30.7,11.1,28.3,29.8,17.0,32.7,30.4,28.0,33.5,0,norm,1.345,1.608,-1.607,-1.213,-4.525,-4.601,-1.654,-1.178,-1.344,-1.247,1.252,-1.498,32.0,35.5,-4.785,-7.786,25.1,-1.862,8.232,5.148,-5.274,-7.936,26,4.467,5.134,4.309,4.331,1.997,1.777,2.008,1.403,26,4.522,5.071,-40,10.430099488,norm,0,88,88,88,448.944,448.952,448.955415512,448.956,448.96,448.965,up,1,1.71290727472,8.28709272528,001,jef,800_600,Intel(R) Core(TM) i7-2670QM CPU @ 2.20GHz,orientation_search,GRVLAPTOP3,Intel(R) HD Graphics Family,2018_jun_27_1426,testMonitor,
37.1,27.6,38.1,30.8,36,-40,49.3,14.9,30.6,43.4,7.782,7.969,8.044,8.364,7.912,7.785,8.439,4.435,-5.003,-8.186,1.844,-1.223,7.696,4.794,-4.762,-7.628,23.0,14.8,-8.223,28.4,37.6,14.3,27.1,19.9,36,48.0,1,5,prime,10,0,100,norm,36,-4.84,down,norm,31.1104970069,39.4,37.5,1.859,34.2,0,51.1,42.0,24.8,10,5,7.642,4.924,1.533,-1.817,-4.907,-7.642,47.7,5,131.1,-7.987,-8.029,-40,-8.094,-8.24,-4.788,-4.385,-4.995,-4.89,4.63,8.233,6,-1.303,1.558,4.344,8.398,-7.963,-8.165,-1.747,1.355,39.2,26.4,34.4,17.7,44.5,30.9,15.7,,49.2,11.1,1,norm,1.123,1.952,-1.166,-1.11,-5.204,-4.551,-1.912,-1.759,-1.325,-1.142,1.312,-1.266,42.0,26.0,-5.282,-7.627,23.7,-1.971,7.863,4.35,-5.196,-8.227,26,4.913,4.893,5.221,5.277,1.152,1.126,1.34,2.036,26,4.834,4.56,-40,10.430099488,norm,0,89,89,89,450.688,450.696,450.69843506,450.699,450.703,450.708,down,1,0.837167624228,9.16283237577,001,jef,800_600,Intel(R) Core(TM) i7-2670QM CPU @ 2.20GHz,orientation_search,GRVLAPTOP3,Intel(R) HD Graphics Family,2018_jun_27_1426,testMonitor,
48.9,33.6,28.2,40.2,36,-40,19.2,16.2,36.4,31.3,7.676,8.016,7.812,8.464,8.314,7.845,7.666,4.357,-4.942,-8.217,1.875,-1.216,8.029,4.573,-4.552,-7.511,23.7,43.8,-8.192,35.4,33.4,49.2,22.0,30.8,36,11.8,0,5,prime,10,0,115,norm,36,-4.945,down,norm,31.1104970069,35.2,36.0,1.714,20.9,1,24.1,20.5,48.7,10,5,8.381,4.895,2.0,-1.738,-5.167,-7.524,11.1,5,146.1,-7.538,-7.674,-40,-8.204,-7.515,-4.679,-4.902,-4.545,-5.172,4.449,8.016,1,-1.313,1.837,4.322,7.827,-7.552,-8.428,-1.514,1.496,20.9,36.8,17.9,31.9,,37.0,12.9,17.7,18.4,51.1,2,norm,1.24,1.728,-1.55,-1.679,-5.085,-5.113,-1.775,-1.631,-1.91,-1.179,1.818,-1.155,35.9,30.8,-5.169,-7.961,35.4,-1.727,8.159,4.323,-4.991,-7.794,26,5.244,4.758,4.791,5.028,1.362,1.472,1.875,1.115,26,4.462,4.82,-40,10.430099488,norm,0,90,90,90,451.556,451.563,451.565566935,451.566,451.57,451.575,down,1,1.98929047719,8.01070952281,001,jef,800_600,Intel(R) Core(TM) i7-2670QM CPU @ 2.20GHz,orientation_search,GRVLAPTOP3,Intel(R) HD Graphics Family,2018_jun_27_1426,testMonitor,
26.0,33.6,18.8,41.3,36,-40,22.7,31.1,25.1,28.2,8.045,8.28,8.255,8.259,8.075,8.462,7.85,4.719,-5.106,-8.421,1.858,-2.038,8.304,4.55,-5.168,-8.299,32.4,,-8.38,43.2,41.0,22.8,39.7,14.7,36,32.4,5,5,prime,10,0,61,norm,36,-5.083,up,norm,31.1104970069,19.7,13.4,1.611,32.7,4,32.0,32.0,27.1,10,5,7.602,4.758,1.696,-1.825,-4.569,-8.021,31.4,5,92.1,-7.984,-8.038,-40,-7.582,-7.898,-5.159,-5.107,-4.791,-4.806,4.542,7.566,34,-1.447,1.492,4.741,8.328,-7.76,-7.502,-1.717,1.773,21.2,19.8,25.1,24.4,34.3,21.9,28.6,45.9,51.1,26.8,3,norm,1.158,1.83,-1.137,-1.127,-4.964,-4.852,-1.369,-1.395,-1.78,-1.421,2.003,-1.998,25.4,23.0,-4.468,-7.96,11.1,-1.763,8.16,4.339,-5.221,-8.267,26,4.816,4.876,4.674,4.663,1.108,1.111,1.702,1.201,26,4.847,4.849,-40,10.430099488,norm,0,91,91,91,453.575,453.583,453.585324568,453.586,453.59,453.595,up,1,0.840588507774,9.15941149223,001,jef,800_600,Intel(R) Core(TM) i7-2670QM CPU @ 2.20GHz,orientation_search,GRVLAPTOP3,Intel(R) HD Graphics Family,2018_jun_27_1426,testMonitor,
33.2,19.9,39.7,33.3,36,-40,33.8,15.8,45.1,40.2,7.685,7.616,7.918,8.256,8.266,8.042,8.432,4.555,-5.086,-7.893,1.129,-1.163,7.53,5.177,-5.056,-8.231,20.2,48.3,-7.876,43.7,28.0,38.1,25.2,23.1,36,26.2,0,5,prime,10,0,116,norm,36,-4.604,down,norm,31.1104970069,11.1,37.1,1.323,44.5,1,40.7,34.4,51.1,10,5,7.803,4.852,1.342,-1.493,-5.032,-8.019,21.5,5,147.1,-8.042,-8.273,-40,-7.693,-8.453,-4.51,-4.417,-4.445,-4.402,4.314,7.821,1,-1.648,1.115,4.895,8.139,-7.786,-7.591,-1.868,1.831,26.3,30.7,41.8,11.1,,48.6,35.6,36.9,26.9,28.4,4,norm,1.906,1.893,-1.19,-1.581,-4.634,-4.924,-1.865,-1.522,-1.104,-1.679,1.649,-1.711,30.7,30.8,-4.504,-7.739,30.5,-1.225,7.887,4.632,-4.305,-7.939,26,4.404,5.006,4.41,5.244,1.41,1.959,1.17,2.097,26,5.181,4.85,-40,10.430099488,norm,0,92,92,92,454.446,454.453,454.455778333,454.456,454.46,454.465,down,1,0.751568021697,9.2484319783,001,jef,800_600,Intel(R) Core(TM) i7-2670QM CPU @ 2.20GHz,orientation_search,GRVLAPTOP3,Intel(R) HD Graphics Family,2018_jun_27_1426,testMonitor,
107.7,102.3,111.0,110.6,36,-20,102.3,112.7,104.1,,7.717,7.97,8.318,8.182,8.33,7.921,7.976,4.904,-4.581,-7.829,1.125,-1.178,7.705,4.565,-4.811,-8.053,110.8,101.0,-7.801,99.1,105.1,106.9,108.2,108.2,36,106.5,4,5,probe,5,0,117,norm,36,-4.561,up,norm,109.101405718,119.1,114.7,1.708,111.4,5,115.4,109.5,104.5,10,5,7.83,4.331,2.081,-1.487,-4.624,-8.367,104.5,2,-7.9,-8.417,-8.498,-40,-8.25,-7.507,-4.355,-4.832,-4.472,-4.928,4.836,7.861,29,-1.235,1.194,4.717,8.499,-7.815,-7.821,-1.311,2.046,108.8,103.7,108.4,106.5,114.0,117.4,104.3,108.3,110.6,114.8,0,norm,1.321,1.657,-1.804,-1.663,-4.57,-4.427,-2.027,-1.901,-1.336,-2.037,1.949,-1.346,116.5,105.1,-4.417,-8.208,116.2,-1.226,8.442,5.07,-4.36,-8.4,27,4.883,4.782,5.035,5.09,1.827,1.334,1.329,1.32,27,4.963,4.803,-40,31.1104970069,norm,0,93,93,93,455.227,455.234,455.236835248,455.237,455.241,455.246,up,1,2.83271804747,7.16728195253,001,jef,800_600,Intel(R) Core(TM) i7-2670QM CPU @ 2.20GHz,orientation_search,GRVLAPTOP3,Intel(R) HD Graphics Family,2018_jun_27_1426,testMonitor,
,90.0,89.2,87.2,36,-20,84.8,95.5,84.4,87.2,7.71,7.648,8.306,8.5,8.34,8.413,7.558,4.479,-4.881,-8.177,1.243,-1.312,7.901,4.913,-4.56,-8.117,89.4,90.9,-8.073,81.1,93.3,93.5,101.1,93.4,36,87.5,3,5,probe,5,0,99,norm,36,-4.55,up,norm,91.1014057181,95.1,92.2,1.785,91.0,4,90.7,91.4,91.6,10,5,7.553,5.2,1.829,-1.444,-5.062,-7.644,89.4,2,-7.9,-8.389,-8.457,-40,-7.822,-8.451,-4.991,-4.776,-5.209,-5.137,4.38,8.189,22,-1.797,1.933,5.189,8.235,-7.843,-8.481,-1.379,1.705,92.6,97.9,89.7,88.9,92.3,89.0,98.4,88.4,98.3,89.2,1,norm,1.219,1.292,-1.23,-1.208,-5.125,-4.923,-1.981,-2.039,-1.959,-1.316,1.141,-1.542,95.3,89.5,-4.338,-8.269,83.6,-1.286,8.002,4.606,-4.845,-7.855,27,4.951,4.456,4.35,4.861,2.039,1.372,1.635,1.83,27,4.75,4.842,-40,31.1104970069,norm,0,94,94,94,458.09,458.098,458.100139525,458.101,458.104,458.109,up,1,2.39547393666,7.60452606334,001,jef,800_600,Intel(R) Core(TM) i7-2670QM CPU @ 2.20GHz,orientation_search,GRVLAPTOP3,Intel(R) HD Graphics Family,2018_jun_27_1426,testMonitor,
143.9,124.6,155.2,139.9,36,80,141.0,139.1,149.2,140.0,7.735,8.165,7.549,8.334,8.237,8.032,7.838,4.376,-4.436,-8.464,1.63,-1.807,8.345,4.397,-4.505,-7.955,136.1,136.5,-7.892,134.6,138.0,123.9,157.1,143.3,36,147.6,1,5,prime,10,0,70,norm,36,-4.596,up,norm,143.925529232,163.9,144.9,1.27,135.6,4,157.8,144.5,146.8,10,6,8.082,4.442,1.773,-1.774,-4.913,-8.4,,6,213.9,-8.255,-8.082,80,-7.632,-8.041,-4.335,-4.819,-4.397,-5.247,5.105,7.77,10,-1.99,1.68,4.543,7.863,-7.786,-8.158,-1.845,1.496,146.7,141.7,154.4,133.2,132.6,136.4,132.0,137.4,138.8,139.0,0,norm,1.831,1.227,-2.003,-1.26,-4.906,-4.687,-1.802,-1.984,-1.705,-1.539,1.758,-1.6,145.2,127.2,-5.003,-8.148,146.9,-1.794,8.269,4.814,-4.75,-8.24,28,5.131,4.959,5.128,5.051,1.637,1.954,1.8,1.248,28,4.636,4.82,-20,31.1104970069,norm,0,95,95,95,460.516,460.523,460.52541101,460.526,460.53,460.535,up,1,0.971714905825,9.02828509417,001,jef,800_600,Intel(R) Core(TM) i7-2670QM CPU @ 2.20GHz,orientation_search,GRVLAPTOP3,Intel(R) HD Graphics Family,2018_jun_27_1426,testMonitor,
