d_ori_22,d_ori_23,d_ori_20,d_ori_21,set_size,ctpd,d_ori_24,d_ori_25,d_ori_28,d_ori_29,stim_pos_x_30,stim_pos_x_31,stim_pos_x_32,stim_pos_x_33,stim_pos_x_34,stim_pos_x_35,stim_pos_y_11,stim_pos_y_10,stim_pos_y_13,stim_pos_y_12,stim_pos_y_15,stim_pos_y_14,stim_pos_y_17,stim_pos_y_16,stim_pos_y_19,stim_pos_y_18,d_ori_35,d_ori_34,stim_pos_x_3,d_ori_31,d_ori_30,d_ori_33,d_ori_32,d_ori_26,test_set_size,d_ori_27,targetCol,dsd_test,seq_type,dsd,blockRepN,targetDist,dtype_test,prime_set_size,stim_pos_y_25,correctResponse,dtype,distrMean,d_ori_17,d_ori_16,stim_pos_y_3,d_ori_14,targetRow,d_ori_11,d_ori_13,d_ori_12,dsd_prime,streak_length_prime,stim_pos_y_35,stim_pos_y_34,stim_pos_y_33,stim_pos_y_32,stim_pos_y_31,stim_pos_y_30,d_ori_10,nextProbe,targetOri,stim_pos_x_1,stim_pos_x_2,ctpd_prime,stim_pos_x_4,stim_pos_x_5,stim_pos_x_6,stim_pos_x_7,stim_pos_x_8,stim_pos_x_9,stim_pos_y_28,stim_pos_y_29,targetPos,stim_pos_y_20,stim_pos_y_21,stim_pos_y_22,stim_pos_y_23,stim_pos_y_24,stim_pos_x_0,stim_pos_y_26,stim_pos_y_27,d_ori_9,d_ori_8,d_ori_3,d_ori_2,d_ori_1,d_ori_0,d_ori_7,d_ori_6,d_ori_5,d_ori_4,trialN,dtype_prime,stim_pos_x_18,stim_pos_x_19,stim_pos_x_12,stim_pos_x_13,stim_pos_x_10,stim_pos_x_11,stim_pos_x_16,stim_pos_x_17,stim_pos_x_14,stim_pos_x_15,stim_pos_y_9,stim_pos_y_8,d_ori_19,d_ori_18,stim_pos_y_1,stim_pos_y_0,d_ori_15,stim_pos_y_2,stim_pos_y_5,stim_pos_y_4,stim_pos_y_7,stim_pos_y_6,totBlockN,stim_pos_x_27,stim_pos_x_26,stim_pos_x_25,stim_pos_x_24,stim_pos_x_23,stim_pos_x_22,stim_pos_x_21,stim_pos_x_20,blockN,stim_pos_x_29,stim_pos_x_28,prevDistrCTPD,prevDistrMean,prevDistrType,trials.thisRepN,trials.thisTrialN,trials.thisN,trials.thisIndex,timeStart,timeBeforeDraw,timeDraw,timeAfterSaving,timeAfterWritingToTemp,timeAfterPreparingNext,answer,correct,rt,trialScore,session,participant,resolution,cpu_info,expName,pc_name,graphic_card,date,monitorName,
146.0,165.0,154.3,175.3,36,40,167.1,144.1,160.1,156.8,7.503,8.349,7.691,7.73,7.688,8.232,8.243,5.212,-4.942,-8.241,1.85,-1.56,7.696,4.873,-4.829,-8.497,169.9,158.5,-8.388,152.2,164.2,176.5,151.8,170.8,36,155.1,0,5,prime,10,0,114,norm,36,-4.336,down,norm,164.058847874,158.0,164.4,2.047,177.6,1,153.7,183.3,153.9,10,5,7.555,4.366,1.455,-1.606,-4.763,-8.419,146.9,5,278.1,-7.76,-8.092,40,-8.298,-7.616,-4.907,-5.156,-4.416,-4.84,5.112,8.018,1,-1.641,1.401,4.829,7.748,-7.853,-7.634,-1.748,1.568,162.8,184.1,164.7,166.1,,152.4,169.9,159.3,152.8,172.3,0,norm,1.853,1.612,-1.844,-2.027,-5.278,-4.591,-1.831,-2.081,-1.819,-2.054,1.382,-1.311,161.2,164.3,-5.275,-7.656,163.2,-1.279,7.884,4.896,-4.957,-8.493,0,5.156,4.693,4.779,4.507,1.348,1.128,1.859,1.179,0,4.544,4.406,,,,0,0,0,0,310.17,310.181,310.188093185,310.188,310.189,310.192,up,0,1.45502362115,-10,001,007,800_600,Intel(R) Core(TM) i7-2670QM CPU @ 2.20GHz,orientation_search,GRVLAPTOP3,Intel(R) HD Graphics Family,2018_jun_07_1053,testMonitor,
167.4,151.9,156.0,155.7,36,40,156.8,162.0,177.5,167.8,7.865,8.267,8.087,8.075,7.602,8.409,7.56,4.525,-4.621,-7.851,1.361,-1.904,7.917,4.412,-4.812,-8.273,159.2,148.7,-7.959,166.7,178.8,173.3,148.0,171.7,36,151.4,1,5,prime,10,0,94,norm,36,-4.941,up,norm,164.058847874,144.1,156.9,1.527,157.1,4,169.1,149.8,151.2,10,5,7.821,4.31,1.713,-1.701,-4.6,-8.255,,5,258.1,-7.663,-8.131,40,-8.042,-7.776,-4.941,-5.037,-4.316,-5.29,4.634,8.436,10,-1.862,1.728,5.264,7.501,-7.683,-7.908,-1.846,2.097,172.2,156.9,162.3,159.4,180.0,162.4,147.8,161.0,172.9,147.9,1,norm,1.722,1.847,-2.085,-1.838,-5.038,-5.177,-1.392,-1.113,-1.739,-1.61,2.074,-1.119,169.8,154.5,-4.464,-7.768,184.1,-1.271,8.111,5.096,-4.738,-8.138,0,5.14,4.304,4.808,4.92,1.221,2.05,1.601,1.907,0,5.259,4.904,,,,0,1,1,1,312.671,312.677,312.679037671,312.679,312.681,312.685,up,1,2.99848424922,7.00151575078,001,007,800_600,Intel(R) Core(TM) i7-2670QM CPU @ 2.20GHz,orientation_search,GRVLAPTOP3,Intel(R) HD Graphics Family,2018_jun_07_1053,testMonitor,
178.7,167.6,162.7,156.6,36,40,181.5,166.3,163.6,153.4,7.56,7.964,7.581,8.412,8.079,7.919,8.393,4.943,-4.605,-8.015,1.395,-1.926,7.987,4.584,-4.768,-7.89,165.4,170.6,-8.471,151.7,178.3,153.0,144.8,155.9,36,170.2,2,5,prime,10,0,73,norm,36,-5.004,down,norm,164.058847874,167.5,144.5,2.033,171.3,0,154.1,147.2,,10,5,7.944,5.021,2.09,-1.74,-5.019,-7.646,157.3,5,237.1,-7.931,-7.615,40,-8.434,-8.285,-4.576,-4.635,-4.509,-5.269,4.653,7.7,12,-1.47,1.943,4.465,7.955,-7.702,-8.49,-1.261,1.823,179.3,168.5,144.1,167.5,161.4,154.5,175.2,158.2,184.1,166.2,2,norm,1.115,1.327,-1.585,-1.759,-4.643,-5.045,-1.697,-1.647,-1.521,-1.353,1.807,-1.24,169.7,162.2,-4.337,-8.27,156.8,-2.004,8.418,4.464,-4.34,-7.653,0,4.517,4.986,4.725,4.679,1.928,1.388,1.275,1.238,0,4.677,4.38,,,,0,2,2,2,315.691,315.698,315.700028438,315.701,315.703,315.707,down,1,1.73232943251,8.26767056749,001,007,800_600,Intel(R) Core(TM) i7-2670QM CPU @ 2.20GHz,orientation_search,GRVLAPTOP3,Intel(R) HD Graphics Family,2018_jun_07_1053,testMonitor,
177.1,184.1,162.7,,36,40,144.1,174.2,181.3,183.5,7.534,7.594,7.552,7.778,8.122,7.613,7.771,4.515,-5.106,-8.289,1.262,-1.62,8.352,5.145,-4.752,-8.291,159.2,158.7,-8.325,181.8,161.7,152.6,165.8,157.7,36,150.9,3,5,prime,10,0,97,norm,36,-4.306,up,norm,164.058847874,164.0,157.3,1.706,149.8,3,161.8,153.2,148.2,10,5,7.86,5.214,1.734,-1.642,-4.676,-7.645,178.0,5,261.1,-7.617,-8.097,40,-8.164,-8.41,-4.975,-4.852,-5.3,-4.65,4.695,7.758,21,-1.902,1.984,5.119,8.366,-7.62,-7.657,-1.955,1.885,161.2,164.7,160.5,164.5,173.2,156.4,148.9,166.6,176.1,162.5,3,norm,1.695,1.896,-1.854,-1.361,-5.299,-4.531,-1.212,-1.576,-1.48,-1.591,1.16,-1.625,155.9,181.2,-5.049,-7.942,151.6,-1.977,8.479,4.514,-4.76,-8.258,0,4.459,4.447,4.406,4.769,1.247,1.407,1.652,2.079,0,4.952,4.918,,,,0,3,3,3,317.448,317.455,317.456536103,317.457,317.46,317.463,down,0,2.62135742347,-10,001,007,800_600,Intel(R) Core(TM) i7-2670QM CPU @ 2.20GHz,orientation_search,GRVLAPTOP3,Intel(R) HD Graphics Family,2018_jun_07_1053,testMonitor,
144.1,164.7,171.2,169.9,36,40,176.4,177.6,152.1,174.2,7.766,7.59,7.728,8.25,7.574,8.189,7.968,4.7,-5.195,-8.306,1.611,-1.145,8.432,4.704,-4.363,-7.522,162.4,169.5,-7.995,180.0,183.7,168.8,168.5,184.1,36,177.3,3,5,prime,10,0,114,norm,36,-4.964,down,norm,164.058847874,171.8,158.7,1.884,176.7,1,161.1,176.2,165.4,10,5,8.079,4.918,1.443,-1.914,-4.829,-7.981,154.5,5,278.1,-7.782,-7.554,40,-7.684,-8.394,-4.548,-4.794,-4.757,-4.641,5.237,7.639,19,-1.32,1.999,4.325,7.876,-7.839,-7.827,-2.066,1.275,149.8,167.7,161.6,177.6,164.9,169.6,156.5,166.0,168.2,169.0,4,norm,1.784,1.701,-1.419,-1.357,-4.92,-4.881,-1.723,-2.03,-1.64,-1.229,1.904,-1.952,,161.3,-4.776,-7.734,157.3,-1.545,8.11,4.382,-4.571,-7.938,0,4.448,5.018,4.39,4.573,1.681,1.494,1.232,1.443,0,5.19,4.516,,,,0,4,4,4,321.095,321.1,321.101446501,321.102,321.105,321.108,down,1,2.84461219708,7.15538780292,001,007,800_600,Intel(R) Core(TM) i7-2670QM CPU @ 2.20GHz,orientation_search,GRVLAPTOP3,Intel(R) HD Graphics Family,2018_jun_07_1053,testMonitor,
272.6,274.9,281.8,281.3,36,60,277.6,289.4,279.6,276.4,8.08,8.357,8.181,7.68,8.0,8.078,8.309,4.988,-5.271,-7.616,2.021,-1.242,8.171,4.724,-4.728,-7.68,269.4,287.9,-7.759,282.4,276.9,281.8,289.0,272.4,36,274.1,1,5,probe,5,0,79,norm,36,-5.053,down,norm,279.400327237,283.8,278.2,1.607,278.1,2,279.8,285.8,285.2,10,5,8.281,5.0,1.726,-1.634,-4.322,-8.244,276.0,1,200.4,-8.049,-8.439,40,-8.071,-8.381,-4.72,-5.012,-4.438,-5.247,5.263,8.007,8,-1.273,2.096,4.466,8.415,-7.646,-8.287,-1.418,1.3,279.7,,285.8,281.5,283.5,286.8,283.1,278.5,285.8,281.7,0,norm,1.656,1.638,-1.272,-1.297,-4.554,-4.473,-1.724,-1.438,-1.514,-1.152,1.382,-2.04,280.8,276.9,-4.862,-7.605,280.3,-1.865,8.103,5.265,-4.337,-8.111,1,4.874,4.33,4.702,4.456,1.52,1.359,1.347,1.349,1,4.895,4.689,40,164.058847874,norm,0,5,5,5,323.96,323.967,323.968352749,323.969,323.972,323.976,down,1,2.03944500921,7.96055499079,001,007,800_600,Intel(R) Core(TM) i7-2670QM CPU @ 2.20GHz,orientation_search,GRVLAPTOP3,Intel(R) HD Graphics Family,2018_jun_07_1053,testMonitor,
322.6,306.7,,321.6,36,-80,334.1,313.9,304.3,305.4,7.617,7.987,7.966,7.888,7.541,7.556,8.089,5.17,-4.309,-7.976,1.114,-1.178,8.485,4.745,-5.06,-8.334,318.6,294.2,-7.715,314.0,316.6,322.0,316.8,323.5,36,323.9,3,5,prime,10,0,71,norm,36,-4.367,down,norm,314.162630243,334.2,307.8,1.798,300.7,2,328.5,312.7,313.1,10,2,8.187,4.855,1.39,-1.85,-5.109,-7.864,314.6,2,385.2,-7.738,-8.073,-80,-8.418,-7.562,-4.947,-4.42,-4.97,-4.851,4.736,8.079,20,-1.739,1.82,4.358,8.481,-8.201,-7.994,-1.725,2.087,325.2,315.7,313.8,312.2,306.4,324.8,295.7,321.5,326.7,304.8,0,norm,1.921,1.933,-1.687,-1.216,-4.805,-4.748,-2.028,-2.04,-1.805,-1.526,1.854,-1.165,327.6,330.6,-5.081,-8.326,311.5,-1.791,7.943,4.969,-5.064,-7.944,2,4.315,5.006,4.479,5.165,1.75,1.91,1.662,1.837,2,4.537,4.91,60,164.058847874,norm,0,6,6,6,326.023,326.03,326.031284891,326.032,326.034,326.038,down,1,1.2111203621,8.7888796379,001,007,800_600,Intel(R) Core(TM) i7-2670QM CPU @ 2.20GHz,orientation_search,GRVLAPTOP3,Intel(R) HD Graphics Family,2018_jun_07_1053,testMonitor,
315.4,301.5,304.2,329.0,36,-80,316.2,294.2,322.6,319.8,8.459,8.138,8.055,7.91,8.076,7.749,8.252,4.49,-4.636,-7.666,1.275,-1.827,8.388,4.985,-5.19,-8.263,297.9,317.2,-7.607,304.6,,313.2,311.0,333.9,36,334.2,5,5,prime,10,0,80,norm,36,-4.666,down,norm,314.162630243,306.6,304.9,1.217,331.0,0,315.5,298.5,308.4,10,2,7.745,5.256,1.915,-1.25,-4.467,-8.17,312.1,2,394.2,-8.291,-8.5,-80,-8.131,-8.198,-4.427,-4.403,-4.738,-4.749,4.92,7.556,30,-1.855,1.248,4.972,7.664,-7.867,-8.012,-1.163,1.854,301.7,319.4,307.9,320.3,299.1,331.1,310.5,322.6,318.8,314.9,1,norm,1.513,1.573,-2.033,-1.265,-5.272,-4.376,-1.7,-1.322,-1.907,-1.916,1.372,-1.197,317.6,303.9,-4.571,-8.317,312.7,-1.75,8.312,4.719,-4.395,-8.124,2,4.54,5.06,4.644,5.1,1.256,1.801,1.265,1.426,2,4.365,4.597,60,164.058847874,norm,0,7,7,7,327.258,327.263,327.264653542,327.265,327.268,327.271,down,1,1.09943250403,8.90056749597,001,007,800_600,Intel(R) Core(TM) i7-2670QM CPU @ 2.20GHz,orientation_search,GRVLAPTOP3,Intel(R) HD Graphics Family,2018_jun_07_1053,testMonitor,
318.3,322.3,330.5,326.8,36,-40,323.3,332.9,325.8,322.0,8.129,7.716,8.075,8.49,8.361,7.856,7.995,4.688,-4.337,-8.156,2.083,-1.99,8.295,5.123,-4.376,-8.018,322.8,327.6,-7.807,321.3,316.9,321.9,329.8,332.0,36,325.2,3,5,probe,5,0,81,norm,36,-4.563,down,norm,322.905851742,325.6,320.6,1.261,322.1,1,323.1,326.1,330.7,10,2,8.42,4.714,1.985,-1.912,-4.358,-7.683,317.0,1,241.9,-7.815,-8.129,-80,-8.188,-7.843,-4.836,-5.159,-4.427,-4.73,5.151,8.168,19,-1.612,1.611,4.842,7.896,-7.65,-7.75,-1.998,1.411,327.9,324.6,329.1,328.0,319.9,316.4,323.2,319.9,314.0,317.2,0,norm,1.356,1.564,-1.643,-1.845,-4.986,-4.438,-1.835,-1.417,-2.007,-1.503,1.139,-1.68,,326.5,-4.526,-7.626,312.9,-1.342,7.785,4.963,-4.417,-8.298,3,5.01,4.81,5.244,4.846,1.325,1.377,1.21,2.032,3,5.175,4.799,-80,314.162630243,norm,0,8,8,8,328.379,328.385,328.386769074,328.387,328.39,328.394,down,1,1.35187692066,8.64812307934,001,007,800_600,Intel(R) Core(TM) i7-2670QM CPU @ 2.20GHz,orientation_search,GRVLAPTOP3,Intel(R) HD Graphics Family,2018_jun_07_1053,testMonitor,
25.1,23.9,29.1,15.8,36,-10,16.9,42.8,29.8,33.5,8.281,7.817,7.92,8.138,7.638,8.067,8.207,4.863,-4.459,-7.808,1.219,-1.938,7.694,4.312,-5.0,-8.085,46.5,26.0,-7.719,24.1,29.7,29.0,44.9,41.5,36,32.6,0,5,prime,10,0,62,norm,36,-4.851,up,norm,31.8387917936,44.9,22.7,1.612,11.8,4,19.4,34.0,41.6,10,5,8.074,4.738,1.274,-1.61,-4.645,-7.906,25.8,5,93.8,-7.807,-8.097,-10,-8.415,-7.712,-4.825,-5.237,-4.51,-4.537,5.161,8.213,4,-1.165,2.08,5.005,7.681,-8.397,-8.129,-1.618,1.862,19.6,17.4,38.4,46.7,26.7,33.6,33.0,28.9,33.6,,0,norm,1.327,1.938,-1.703,-1.695,-4.352,-4.784,-1.557,-1.581,-1.574,-1.339,1.613,-1.322,34.6,26.8,-5.183,-7.977,27.9,-1.564,7.928,4.568,-4.924,-8.02,4,4.764,4.752,4.566,4.867,1.628,1.723,1.495,2.064,4,4.783,5.146,-40,314.162630243,norm,0,9,9,9,329.754,329.76,329.761279992,329.762,329.765,329.768,up,1,1.66458293739,8.33541706261,001,007,800_600,Intel(R) Core(TM) i7-2670QM CPU @ 2.20GHz,orientation_search,GRVLAPTOP3,Intel(R) HD Graphics Family,2018_jun_07_1053,testMonitor,
26.8,43.2,26.5,37.6,36,-10,22.3,39.8,34.0,34.8,7.561,7.612,7.914,7.883,8.133,7.912,7.925,4.637,-4.368,-7.51,1.703,-1.665,8.096,4.518,-5.289,-7.612,39.7,29.3,-7.544,39.2,51.8,37.2,26.4,24.0,36,32.3,2,5,prime,10,0,85,norm,36,-4.466,down,norm,31.8387917936,49.8,50.2,1.88,31.0,0,41.9,39.0,,10,5,8.299,5.069,1.294,-1.305,-4.442,-7.567,26.7,5,116.8,-7.777,-8.489,-10,-7.742,-7.624,-4.34,-5.074,-4.529,-4.414,4.896,7.88,12,-1.111,1.148,5.294,7.761,-7.537,-7.781,-1.297,1.568,32.1,21.7,32.2,41.9,44.9,30.8,23.9,23.6,11.8,14.0,1,norm,1.666,1.512,-1.337,-1.506,-5.277,-5.161,-2.064,-1.642,-1.616,-1.432,1.326,-2.097,37.9,37.7,-4.553,-8.45,19.0,-1.2,8.475,5.149,-5.072,-7.75,4,4.994,4.591,4.793,4.372,1.658,1.126,1.813,1.452,4,4.317,4.584,-40,314.162630243,norm,0,10,10,10,331.441,331.447,331.449529842,331.45,331.453,331.456,down,1,0.0147545216869,9.98524547831,001,007,800_600,Intel(R) Core(TM) i7-2670QM CPU @ 2.20GHz,orientation_search,GRVLAPTOP3,Intel(R) HD Graphics Family,2018_jun_07_1053,testMonitor,
39.0,45.1,38.2,35.0,36,-10,11.8,30.4,30.3,27.5,7.925,7.669,7.761,7.921,8.388,8.179,7.645,5.26,-4.386,-8.297,1.818,-1.898,8.323,5.258,-4.853,-7.73,45.5,40.1,-7.518,40.8,33.5,31.3,32.6,32.6,36,30.0,0,5,prime,10,0,73,norm,36,-4.769,down,norm,31.8387917936,36.9,43.3,1.179,40.6,0,20.7,31.5,21.9,10,5,8.474,5.029,1.193,-1.866,-4.852,-7.618,33.5,5,104.8,-8.277,-7.871,-10,-8.084,-8.232,-4.396,-5.28,-4.861,-4.614,4.769,8.283,0,-1.881,1.206,4.825,8.446,-8.49,-7.517,-1.11,1.788,34.6,51.8,30.8,35.3,27.2,,46.1,15.5,36.4,39.8,2,norm,1.705,1.173,-1.119,-1.705,-4.548,-4.734,-1.557,-1.782,-1.437,-1.837,1.825,-1.428,25.9,32.7,-4.572,-7.625,30.2,-1.487,8.213,5.18,-4.865,-8.366,4,4.335,4.803,4.411,4.999,1.443,1.754,1.47,1.125,4,5.025,4.762,-40,314.162630243,norm,0,11,11,11,331.479,331.485,331.486868396,331.487,331.49,331.493,down,1,2.1306165314,7.8693834686,001,007,800_600,Intel(R) Core(TM) i7-2670QM CPU @ 2.20GHz,orientation_search,GRVLAPTOP3,Intel(R) HD Graphics Family,2018_jun_07_1053,testMonitor,
18.7,25.4,50.5,41.7,36,-10,42.9,48.1,39.2,40.4,7.901,7.95,7.992,7.724,8.238,8.489,7.539,4.391,-4.418,-7.645,1.476,-1.287,8.382,5.101,-4.44,-8.487,33.0,51.7,-7.89,22.5,51.8,31.7,40.2,38.7,36,24.7,1,5,prime,10,0,60,norm,36,-5.215,down,norm,31.8387917936,29.6,27.2,1.102,48.6,0,14.9,11.8,26.0,10,5,7.564,4.834,1.461,-1.175,-4.434,-8.393,45.7,5,91.8,-8.439,-8.464,-10,-7.911,-8.49,-4.399,-5.275,-5.076,-4.341,4.391,8.053,6,-1.804,1.674,4.678,7.626,-7.558,-8.328,-1.834,1.281,32.5,31.4,41.8,28.0,42.1,30.3,24.3,,42.3,44.6,3,norm,1.128,1.155,-1.213,-1.58,-4.815,-5.175,-1.98,-2.093,-1.25,-1.906,1.729,-1.866,21.1,45.8,-4.722,-7.609,33.6,-1.962,8.188,5.062,-4.781,-7.728,4,4.622,4.768,5.134,4.385,1.273,1.241,1.503,2.07,4,4.405,4.603,-40,314.162630243,norm,0,12,12,12,333.632,333.638,333.64003674,333.64,333.643,333.647,down,1,2.28609492448,7.71390507552,001,007,800_600,Intel(R) Core(TM) i7-2670QM CPU @ 2.20GHz,orientation_search,GRVLAPTOP3,Intel(R) HD Graphics Family,2018_jun_07_1053,testMonitor,
51.8,32.0,33.0,27.4,36,-10,40.1,14.5,39.6,24.8,7.618,7.65,8.253,7.841,8.174,8.027,8.076,4.615,-4.548,-7.926,1.351,-1.177,8.225,4.446,-5.225,-8.315,26.9,26.8,-7.759,25.9,29.8,34.4,31.0,36.8,36,39.8,2,5,prime,10,0,75,norm,36,-5.149,up,norm,31.8387917936,36.1,,1.928,26.9,4,22.5,11.8,23.9,10,5,8.151,5.18,1.516,-1.954,-4.46,-7.976,33.6,5,106.8,-7.673,-7.659,-10,-8.285,-7.883,-5.252,-5.011,-4.828,-4.994,4.358,8.203,16,-1.152,1.725,4.508,8.318,-7.736,-8.292,-1.681,1.993,34.1,39.1,21.3,42.6,36.7,20.0,15.1,24.3,39.1,34.4,4,norm,1.658,1.287,-1.8,-1.426,-4.354,-4.75,-1.601,-1.991,-1.268,-1.968,1.85,-2.048,33.1,46.3,-4.783,-8.494,43.2,-1.294,8.055,4.922,-4.709,-7.951,4,4.533,5.101,4.493,5.025,1.499,1.738,1.986,1.792,4,4.657,4.732,-40,314.162630243,norm,0,13,13,13,335.941,335.947,335.948776869,335.949,335.952,335.956,up,1,1.51062683253,8.48937316747,001,007,800_600,Intel(R) Core(TM) i7-2670QM CPU @ 2.20GHz,orientation_search,GRVLAPTOP3,Intel(R) HD Graphics Family,2018_jun_07_1053,testMonitor,
94.4,94.8,96.4,82.7,36,-30,102.7,92.1,91.8,89.0,8.169,7.7,7.957,8.371,8.002,7.866,8.384,5.097,-4.665,-7.915,2.034,-1.8,8.047,4.747,-4.908,-7.597,92.9,91.5,-7.836,87.8,94.6,84.9,94.1,91.9,36,90.5,3,5,probe,5,0,66,norm,36,-4.527,down,norm,92.7075024668,96.0,90.5,1.201,92.2,0,99.8,82.7,87.8,10,5,7.984,4.414,1.212,-1.367,-4.73,-7.544,96.0,2,26.7,-8.079,-8.066,-10,-8.025,-8.364,-4.813,-4.535,-4.778,-4.332,5.087,8.273,18,-1.387,1.219,4.57,8.42,-8.134,-7.749,-1.741,1.516,91.1,89.5,96.3,98.3,98.1,88.9,93.9,94.9,94.2,94.1,0,norm,1.785,1.869,-1.209,-1.793,-4.945,-4.833,-1.996,-1.38,-1.558,-1.575,1.515,-2.029,89.6,,-4.727,-8.476,90.8,-1.847,8.304,4.949,-4.649,-8.393,5,4.925,4.877,4.524,4.469,1.436,1.415,1.825,1.621,5,4.351,4.557,-10,31.8387917936,norm,0,14,14,14,337.475,337.481,337.482744676,337.483,337.486,337.49,down,1,1.26560100266,8.73439899734,001,007,800_600,Intel(R) Core(TM) i7-2670QM CPU @ 2.20GHz,orientation_search,GRVLAPTOP3,Intel(R) HD Graphics Family,2018_jun_07_1053,testMonitor,
140.7,127.9,122.9,133.9,36,-30,125.2,135.4,131.8,133.4,8.284,8.294,7.901,8.092,8.15,8.189,7.821,4.566,-4.411,-7.775,1.919,-1.837,7.984,4.945,-4.421,-8.191,134.1,136.0,-8.385,,134.2,127.5,128.7,122.1,36,131.8,5,5,probe,5,0,104,norm,36,-5.295,down,norm,130.707502467,129.1,131.2,1.393,120.7,1,138.8,131.2,139.1,10,5,8.328,4.455,2.035,-1.672,-5.261,-7.627,125.8,2,26.7,-7.712,-8.333,-10,-8.025,-7.813,-4.876,-4.47,-4.816,-4.34,4.454,7.67,31,-1.667,1.637,5.051,8.079,-8.415,-8.422,-1.829,1.118,124.1,134.5,125.3,123.2,131.6,139.0,125.4,129.4,127.0,131.1,1,norm,1.884,1.265,-1.655,-1.455,-5.101,-4.656,-1.649,-1.595,-1.219,-1.128,1.888,-1.6,124.7,128.6,-4.889,-8.425,130.6,-1.715,7.862,4.311,-4.582,-7.715,5,5.145,5.205,5.145,5.125,1.536,1.851,1.604,1.318,5,4.942,4.912,-10,31.8387917936,norm,0,15,15,15,338.764,338.769,338.770665413,338.771,338.774,338.778,down,1,1.39373937959,8.60626062041,001,007,800_600,Intel(R) Core(TM) i7-2670QM CPU @ 2.20GHz,orientation_search,GRVLAPTOP3,Intel(R) HD Graphics Family,2018_jun_07_1053,testMonitor,
17.6,33.3,35.3,26.7,36,40,30.4,16.0,23.4,30.2,8.308,8.283,8.165,8.46,7.999,7.677,7.822,4.41,-4.331,-7.988,1.803,-1.927,8.279,5.149,-4.323,-8.136,48.8,12.8,-7.71,24.6,8.8,17.0,40.6,25.3,36,28.5,0,5,prime,10,0,61,norm,36,-4.663,down,norm,28.7529086123,35.5,27.6,1.172,39.0,2,34.6,21.4,31.5,10,6,8.242,4.457,1.609,-1.146,-4.389,-8.352,15.4,6,89.8,-8.331,-7.772,40,-7.773,-7.609,-4.953,-4.728,-5.146,-4.325,5.148,7.667,2,-2.089,1.488,4.794,7.973,-8.454,-8.471,-1.871,1.356,44.3,20.9,33.8,,24.5,16.9,37.0,30.6,33.4,26.8,0,norm,1.229,1.621,-1.497,-1.904,-5.167,-5.297,-1.251,-1.802,-1.406,-1.323,1.872,-1.284,20.4,22.7,-4.504,-7.571,38.4,-1.706,7.539,4.856,-4.748,-8.279,6,4.523,5.03,4.749,4.403,1.563,2.063,1.356,1.106,6,4.559,4.945,-30,31.8387917936,norm,0,16,16,16,340.18,340.186,340.187329706,340.188,340.191,340.194,down,1,1.61127436537,8.38872563463,001,007,800_600,Intel(R) Core(TM) i7-2670QM CPU @ 2.20GHz,orientation_search,GRVLAPTOP3,Intel(R) HD Graphics Family,2018_jun_07_1053,testMonitor,
35.5,27.2,46.0,29.3,36,40,26.9,41.1,23.9,30.7,7.558,8.058,8.176,7.943,7.895,8.392,7.999,4.838,-4.457,-7.566,1.146,-2.075,8.067,4.763,-4.846,-8.011,33.0,27.4,-8.146,41.5,48.8,21.7,24.1,36.3,36,24.9,2,5,prime,10,0,100,norm,36,-4.598,up,norm,28.7529086123,,40.3,1.628,39.1,5,22.0,21.4,40.3,10,6,8.282,4.693,1.891,-1.232,-4.746,-7.883,36.8,6,128.8,-8.355,-7.824,40,-8.491,-8.317,-5.057,-4.909,-4.889,-5.061,4.633,7.709,17,-1.927,1.334,4.986,7.831,-7.772,-8.113,-1.467,1.817,16.1,37.1,19.3,37.4,8.8,26.1,16.1,29.2,18.2,20.1,1,norm,1.14,1.327,-1.164,-1.195,-4.304,-4.808,-1.561,-1.946,-1.579,-1.294,1.357,-1.208,17.1,31.6,-5.04,-8.225,36.1,-1.43,7.898,4.477,-5.162,-7.937,6,4.448,4.355,4.791,4.324,1.835,2.009,1.978,1.753,6,5.093,5.021,-30,31.8387917936,norm,0,17,17,17,341.815,341.821,341.822255107,341.823,341.826,341.829,up,1,1.34124144939,8.65875855061,001,007,800_600,Intel(R) Core(TM) i7-2670QM CPU @ 2.20GHz,orientation_search,GRVLAPTOP3,Intel(R) HD Graphics Family,2018_jun_07_1053,testMonitor,
44.4,32.9,32.9,27.1,36,40,46.9,37.7,42.3,16.0,8.3,8.346,8.237,8.439,8.071,7.726,7.957,4.801,-5.186,-7.761,2.02,-1.62,7.501,5.119,-5.08,-7.82,25.5,18.9,-7.605,30.8,44.2,31.6,28.0,44.3,36,30.9,1,5,prime,10,0,97,norm,36,-5.123,up,norm,28.7529086123,18.4,30.5,1.889,8.8,3,28.9,22.6,22.0,10,6,7.823,4.966,1.371,-1.852,-4.857,-7.62,32.5,6,125.8,-7.532,-8.424,40,-7.719,-8.45,-4.553,-5.283,-5.108,-5.07,4.352,8.124,9,-1.77,1.815,5.257,7.77,-8.068,-7.916,-1.474,1.322,,17.3,33.2,31.8,31.4,34.7,48.8,27.2,26.6,45.7,2,norm,1.844,1.342,-1.757,-1.149,-4.39,-4.602,-1.623,-1.693,-1.811,-1.118,1.279,-2.099,40.1,38.7,-4.319,-7.807,19.5,-1.969,7.646,4.764,-5.184,-8.264,6,4.643,4.705,4.386,4.31,1.383,1.765,1.771,1.228,6,4.708,4.977,-30,31.8387917936,norm,0,18,18,18,343.179,343.185,343.187213433,343.188,343.191,343.194,down,0,1.33432624504,-10,001,007,800_600,Intel(R) Core(TM) i7-2670QM CPU @ 2.20GHz,orientation_search,GRVLAPTOP3,Intel(R) HD Graphics Family,2018_jun_07_1053,testMonitor,
34.9,29.3,,25.8,36,40,19.1,22.6,11.5,30.3,8.081,7.903,7.702,8.26,7.73,8.343,8.166,5.014,-4.504,-7.627,1.381,-1.824,7.632,4.472,-4.494,-7.622,33.7,27.5,-8.146,23.4,43.0,20.0,22.5,42.4,36,33.9,3,5,prime,10,0,84,norm,36,-5.14,down,norm,28.7529086123,31.7,33.1,1.789,31.0,2,29.8,30.8,43.4,10,6,8.423,5.167,1.835,-1.49,-4.674,-8.455,29.6,6,112.8,-8.207,-8.317,40,-8.217,-8.06,-5.129,-4.393,-4.658,-4.451,4.553,8.007,20,-1.453,1.455,4.67,8.426,-8.425,-8.365,-1.54,1.704,18.7,32.5,34.7,37.8,8.8,38.4,35.3,38.2,19.7,48.8,3,norm,2.012,2.03,-1.392,-2.088,-4.946,-5.113,-1.423,-1.713,-1.986,-1.818,1.327,-1.262,22.3,22.6,-4.444,-8.147,30.5,-1.672,8.268,4.774,-5.259,-7.881,6,5.25,4.931,4.527,5.224,1.994,1.413,1.488,1.736,6,5.189,4.372,-30,31.8387917936,norm,0,19,19,19,345.539,345.545,345.546787715,345.547,345.55,345.554,up,0,0.915909919762,-10,001,007,800_600,Intel(R) Core(TM) i7-2670QM CPU @ 2.20GHz,orientation_search,GRVLAPTOP3,Intel(R) HD Graphics Family,2018_jun_07_1053,testMonitor,
32.2,,27.5,15.2,36,40,23.2,35.7,22.5,26.0,8.466,8.239,8.493,8.339,7.914,7.749,7.994,4.543,-4.716,-8.275,1.544,-1.238,7.529,4.999,-4.665,-7.962,29.5,15.8,-7.722,11.5,29.5,24.0,28.6,27.0,36,42.6,3,5,prime,10,0,114,norm,36,-4.407,up,norm,28.7529086123,37.2,27.6,1.573,34.6,5,35.7,32.8,32.3,10,6,7.841,5.159,1.255,-1.291,-4.433,-7.971,13.6,6,142.8,-8.43,-8.339,40,-8.237,-7.757,-4.876,-4.527,-4.776,-5.207,4.819,8.238,23,-1.535,1.226,4.749,7.894,-7.741,-8.369,-2.053,2.093,36.8,10.5,12.6,29.9,23.3,44.2,30.2,48.8,29.7,37.8,4,norm,1.106,1.946,-1.407,-1.123,-4.956,-4.679,-2.054,-1.5,-1.302,-1.722,2.086,-1.704,38.2,26.6,-4.765,-8.292,8.8,-1.707,7.591,4.869,-4.838,-7.664,6,4.692,4.682,4.894,4.793,1.597,1.764,1.694,1.991,6,5.134,5.117,-30,31.8387917936,norm,0,20,20,20,347.489,347.495,347.497079868,347.498,347.5,347.504,up,1,2.25840422169,7.74159577831,001,007,800_600,Intel(R) Core(TM) i7-2670QM CPU @ 2.20GHz,orientation_search,GRVLAPTOP3,Intel(R) HD Graphics Family,2018_jun_07_1053,testMonitor,
24.0,30.3,21.4,30.0,36,40,36.3,25.4,35.6,34.1,7.959,7.883,7.52,7.723,7.757,8.303,7.709,4.388,-4.941,-8.354,1.662,-1.168,7.878,4.951,-4.822,-8.488,28.9,20.4,-8.401,48.8,26.3,26.4,27.6,34.1,36,30.1,0,5,prime,10,0,65,norm,36,-5.153,down,norm,28.7529086123,27.7,27.3,1.836,13.4,0,27.5,43.7,15.8,10,6,7.69,4.543,1.443,-1.833,-4.551,-7.522,32.6,6,93.8,-8.078,-7.634,40,-7.768,-8.285,-4.731,-5.123,-4.819,-4.73,4.332,8.195,0,-1.993,1.681,5.151,8.048,-7.916,-8.434,-1.674,1.173,32.9,23.8,12.2,28.2,31.1,,28.7,19.9,26.2,25.3,5,norm,1.36,1.799,-1.207,-1.454,-5.031,-4.604,-2.078,-1.767,-1.262,-1.744,1.425,-1.263,8.8,45.9,-4.787,-8.146,46.3,-1.233,7.552,4.942,-5.118,-7.968,6,4.986,4.829,4.391,4.522,1.363,1.205,1.963,1.761,6,4.977,4.528,-30,31.8387917936,norm,0,21,21,21,349.771,349.776,349.777504036,349.778,349.781,349.784,down,1,1.46118702058,8.53881297942,001,007,800_600,Intel(R) Core(TM) i7-2670QM CPU @ 2.20GHz,orientation_search,GRVLAPTOP3,Intel(R) HD Graphics Family,2018_jun_07_1053,testMonitor,
136.8,141.4,145.6,,36,-80,142.4,138.1,138.4,136.4,7.53,8.34,8.14,7.978,8.42,8.4,7.667,4.403,-5.163,-8.073,1.821,-1.398,7.502,4.943,-4.365,-8.214,152.9,148.9,-8.341,144.9,151.7,140.4,132.9,144.1,36,143.0,3,5,probe,5,0,66,norm,36,-5.047,up,norm,142.858114226,140.4,133.7,1.293,143.3,3,141.6,148.3,138.8,10,6,8.06,4.942,1.38,-1.54,-4.608,-8.454,139.7,2,76.9,-8.079,-8.083,40,-7.932,-8.156,-4.522,-5.061,-5.157,-4.468,4.452,7.575,21,-1.854,1.846,4.926,8.273,-8.128,-8.247,-1.611,1.306,146.2,145.7,142.7,142.4,144.8,151.9,134.4,149.2,143.2,148.0,0,norm,1.82,1.594,-1.492,-1.969,-4.372,-4.915,-1.812,-1.474,-1.865,-1.993,1.302,-1.639,142.1,142.8,-4.894,-8.337,145.3,-1.657,7.592,4.42,-5.006,-8.172,7,4.495,5.164,5.262,4.634,1.962,1.815,1.116,1.953,7,4.565,4.339,40,28.7529086123,norm,0,22,22,22,351.254,351.259,351.260804861,351.261,351.264,351.268,up,1,1.75755225394,8.24244774606,001,007,800_600,Intel(R) Core(TM) i7-2670QM CPU @ 2.20GHz,orientation_search,GRVLAPTOP3,Intel(R) HD Graphics Family,2018_jun_07_1053,testMonitor,
162.0,164.9,162.5,151.9,36,-80,165.8,158.0,164.2,168.2,8.153,7.983,8.142,7.929,8.151,7.56,8.274,4.892,-5.143,-8.207,1.404,-2.097,8.116,4.722,-4.766,-7.533,167.9,161.0,-8.187,164.3,168.1,169.5,168.1,158.2,36,166.2,3,5,probe,5,0,85,norm,36,-4.325,down,norm,161.858114226,168.8,162.4,1.331,161.5,0,170.2,162.8,156.9,10,6,8.389,4.634,1.984,-1.23,-5.085,-8.077,171.9,2,76.9,-7.83,-8.352,40,-7.838,-7.658,-4.818,-5.025,-4.923,-4.898,4.43,8.301,18,-1.841,1.12,4.662,7.963,-8.039,-8.319,-1.539,1.379,162.4,163.3,152.1,153.2,162.8,164.3,162.2,161.7,161.8,162.3,1,norm,1.397,1.798,-2.072,-1.514,-5.026,-4.422,-1.929,-1.378,-1.552,-1.586,2.076,-1.954,166.0,,-4.777,-7.575,170.9,-1.208,7.574,4.832,-4.69,-8.097,7,5.248,4.326,4.986,4.628,1.271,1.738,1.693,1.82,7,4.417,4.54,40,28.7529086123,norm,0,23,23,23,353.034,353.04,353.041406706,353.042,353.045,353.048,down,1,0.931025401201,9.0689745988,001,007,800_600,Intel(R) Core(TM) i7-2670QM CPU @ 2.20GHz,orientation_search,GRVLAPTOP3,Intel(R) HD Graphics Family,2018_jun_07_1053,testMonitor,
169.0,165.2,171.9,166.7,36,80,167.2,189.4,173.5,149.4,7.764,8.239,8.375,7.626,7.619,7.525,8.342,4.685,-4.723,-7.827,1.286,-1.101,8.374,4.484,-4.706,-7.957,170.9,166.0,-7.779,182.5,176.0,171.8,173.3,164.0,36,179.1,3,5,prime,10,0,99,norm,36,-4.38,down,norm,169.44314637,161.5,158.9,1.129,162.1,0,151.6,165.5,184.5,10,2,7.94,4.546,1.418,-1.77,-4.667,-7.64,159.0,2,268.4,-7.641,-8.2,80,-7.893,-7.554,-4.352,-5.037,-5.247,-5.16,4.539,8.239,18,-1.731,1.332,4.797,8.455,-7.502,-8.033,-1.357,1.921,161.6,186.5,161.5,170.0,176.1,160.4,172.8,173.1,166.4,178.0,0,norm,1.763,1.201,-1.415,-1.483,-5.148,-4.812,-1.938,-2.097,-1.197,-1.516,1.57,-1.397,187.0,,-4.346,-7.746,164.0,-1.321,7.757,4.958,-5.055,-8.055,8,5.258,4.525,4.95,4.875,2.041,1.666,1.925,1.167,8,5.01,4.515,-80,28.7529086123,norm,0,24,24,24,353.988,353.993,353.994816749,353.996,353.999,354.002,down,1,1.31461354659,8.68538645341,001,007,800_600,Intel(R) Core(TM) i7-2670QM CPU @ 2.20GHz,orientation_search,GRVLAPTOP3,Intel(R) HD Graphics Family,2018_jun_07_1053,testMonitor,
189.4,172.2,172.3,173.6,36,80,173.8,189.4,174.6,175.5,8.243,8.279,8.354,8.205,7.889,8.423,8.489,4.912,-4.698,-7.547,1.308,-1.708,8.01,4.598,-5.205,-8.479,167.0,168.6,-7.608,185.8,174.0,159.2,185.2,163.2,36,175.9,2,5,prime,10,0,90,norm,36,-4.794,down,norm,169.44314637,159.9,185.0,2.005,171.1,0,182.7,184.0,,10,2,7.732,5.049,1.268,-1.982,-4.534,-7.569,164.3,2,259.4,-7.52,-7.811,80,-7.654,-8.171,-4.402,-4.789,-4.508,-4.663,4.767,7.897,12,-1.262,1.923,4.523,8.039,-7.899,-7.747,-1.224,1.691,167.8,170.3,166.3,163.1,175.9,161.7,149.4,182.5,168.8,165.8,1,norm,2.089,1.617,-1.511,-1.95,-5.215,-5.231,-1.437,-1.964,-1.218,-1.874,1.411,-1.163,173.2,161.6,-4.721,-8.48,165.1,-1.921,7.709,5.185,-5.068,-8.107,8,4.537,5.17,4.337,4.767,1.462,1.448,1.722,1.941,8,5.104,4.778,-80,28.7529086123,norm,0,25,25,25,355.325,355.331,355.332382292,355.333,355.336,355.339,down,1,1.12121803603,8.87878196397,001,007,800_600,Intel(R) Core(TM) i7-2670QM CPU @ 2.20GHz,orientation_search,GRVLAPTOP3,Intel(R) HD Graphics Family,2018_jun_07_1053,testMonitor,
,345.8,350.7,352.0,36,0,349.4,351.8,362.1,352.2,7.997,7.967,7.586,7.633,7.504,7.751,8.231,5.279,-4.875,-7.897,2.066,-1.242,7.825,4.8,-4.592,-8.427,349.3,348.0,-8.162,353.0,347.3,355.5,357.2,357.1,36,355.1,3,5,probe,5,0,100,norm,36,-4.676,up,norm,353.02709349,348.3,357.1,1.174,349.8,4,359.3,363.0,347.7,10,2,8.476,4.502,1.385,-1.86,-4.369,-8.397,357.1,2,253.0,-7.741,-7.629,80,-8.185,-7.681,-4.406,-4.699,-4.722,-4.713,4.554,8.083,22,-1.532,1.928,4.864,7.714,-7.662,-8.242,-1.255,1.456,352.5,356.4,348.3,343.0,360.5,353.1,348.7,350.5,356.8,354.4,0,norm,1.884,2.089,-1.231,-1.339,-4.824,-5.075,-1.336,-1.258,-1.787,-1.901,1.505,-1.255,360.9,350.5,-4.746,-7.613,353.4,-1.299,8.3,4.758,-4.342,-8.481,9,5.211,4.967,4.326,5.283,1.312,1.783,1.285,2.099,9,4.409,4.942,80,169.44314637,norm,0,26,26,26,356.469,356.475,356.476380951,356.477,356.48,356.484,up,1,1.05070200368,8.94929799632,001,007,800_600,Intel(R) Core(TM) i7-2670QM CPU @ 2.20GHz,orientation_search,GRVLAPTOP3,Intel(R) HD Graphics Family,2018_jun_07_1053,testMonitor,
370.9,371.5,366.7,369.0,36,0,377.2,370.9,366.0,371.2,8.371,7.59,7.72,7.837,7.903,7.561,8.119,4.709,-5.24,-8.293,1.24,-1.773,7.686,4.663,-4.475,-7.878,364.6,379.0,-7.959,370.1,369.8,359.0,369.6,368.9,36,,4,5,probe,5,0,116,norm,36,-4.366,up,norm,369.02709349,376.8,367.4,1.416,361.3,3,377.3,366.5,362.8,10,2,8.091,5.069,1.614,-1.93,-4.373,-7.811,375.4,2,253.0,-7.618,-8.411,80,-7.945,-7.922,-4.558,-4.684,-5.122,-4.302,4.733,7.845,27,-2.079,1.383,4.356,7.714,-7.633,-7.962,-1.642,1.174,362.6,362.0,373.9,367.6,362.6,376.2,369.1,372.1,367.0,359.4,1,norm,1.813,2.06,-1.842,-2.026,-5.215,-4.472,-1.181,-1.967,-1.403,-2.061,2.059,-1.745,362.5,374.9,-4.72,-7.669,369.9,-1.632,7.691,4.779,-4.881,-8.046,9,4.67,4.375,4.584,5.207,1.762,1.314,1.623,1.397,9,4.969,4.829,80,169.44314637,norm,0,27,27,27,357.543,357.548,357.55012274,357.551,357.553,357.557,down,0,1.03040373792,-10,001,007,800_600,Intel(R) Core(TM) i7-2670QM CPU @ 2.20GHz,orientation_search,GRVLAPTOP3,Intel(R) HD Graphics Family,2018_jun_07_1053,testMonitor,
57.2,52.5,38.8,32.6,36,-40,40.7,36.7,44.8,29.6,8.208,8.437,8.222,8.324,8.296,8.417,8.067,4.986,-4.628,-7.647,1.382,-1.701,7.547,4.971,-4.384,-8.197,32.7,47.3,-8.456,41.2,59.4,35.7,47.7,28.8,36,57.4,1,5,prime,10,0,94,norm,36,-4.858,down,norm,48.7607989836,53.0,43.3,1.69,52.1,2,56.6,68.8,34.8,10,2,8.48,4.751,2.064,-1.47,-4.984,-8.346,40.5,2,142.8,-7.751,-8.352,-40,-8.148,-8.006,-4.716,-4.964,-4.623,-4.346,4.466,8.418,8,-1.46,1.242,5.278,8.287,-7.895,-8.087,-1.388,1.981,66.6,,40.8,54.9,39.4,66.8,41.7,51.2,39.4,45.8,0,norm,1.15,1.138,-1.324,-1.375,-4.663,-4.399,-1.625,-1.995,-1.141,-1.791,1.796,-2.061,31.5,56.5,-4.678,-7.669,31.4,-1.825,8.317,4.448,-5.202,-7.878,10,4.828,4.504,4.793,4.812,1.463,2.084,1.751,1.568,10,5.075,4.773,0,169.44314637,norm,0,28,28,28,359.595,359.601,359.602506265,359.603,359.606,359.609,down,1,1.59182316428,8.40817683572,001,007,800_600,Intel(R) Core(TM) i7-2670QM CPU @ 2.20GHz,orientation_search,GRVLAPTOP3,Intel(R) HD Graphics Family,2018_jun_07_1053,testMonitor,
51.8,56.9,56.4,62.2,36,-40,46.1,51.6,47.9,51.9,8.465,7.864,8.226,7.855,8.16,8.479,7.958,4.707,-4.388,-7.561,2.02,-1.933,8.469,4.484,-5.152,-8.183,50.3,41.7,-7.702,42.2,42.3,59.9,51.9,63.8,36,46.9,2,5,prime,10,0,89,norm,36,-4.97,down,norm,48.7607989836,62.1,68.8,1.159,35.1,0,48.1,53.1,,10,2,8.192,5.204,1.138,-1.467,-4.828,-7.602,48.6,2,137.8,-7.598,-7.587,-40,-7.518,-8.282,-4.695,-4.723,-4.939,-4.437,4.393,7.798,12,-1.767,1.177,4.48,8.432,-8.372,-7.583,-1.386,1.841,36.0,32.3,68.2,37.0,48.3,47.5,44.5,52.1,43.3,45.8,1,norm,1.347,2.006,-1.476,-1.814,-4.889,-4.543,-1.416,-1.17,-1.935,-1.642,1.153,-1.562,44.8,28.8,-4.617,-7.648,54.6,-1.751,8.199,5.249,-5.002,-8.391,10,4.797,4.957,5.165,4.872,1.65,1.69,1.728,1.72,10,4.321,4.357,0,169.44314637,norm,0,29,29,29,361.212,361.22,361.222455339,361.223,361.227,361.232,down,1,0.914714036291,9.08528596371,001,007,800_600,Intel(R) Core(TM) i7-2670QM CPU @ 2.20GHz,orientation_search,GRVLAPTOP3,Intel(R) HD Graphics Family,2018_jun_07_1053,testMonitor,
120.0,111.3,118.8,117.5,36,-10,124.8,120.1,115.2,112.6,8.082,7.856,7.58,8.044,8.282,7.883,8.368,4.716,-5.047,-8.034,2.097,-1.886,7.617,4.545,-4.6,-8.073,115.9,114.7,-8.168,114.9,123.4,122.2,130.0,122.2,36,,4,5,probe,5,0,113,norm,36,-4.703,up,norm,121.004155488,120.2,117.8,1.153,125.1,3,123.5,119.1,123.9,10,2,7.656,4.762,1.721,-1.274,-5.124,-8.043,126.4,1,8.0,-7.721,-8.427,-40,-8.213,-7.571,-4.433,-4.956,-4.407,-5.101,4.318,7.704,27,-1.103,1.576,4.784,7.501,-7.818,-7.903,-1.349,1.894,122.4,121.0,113.0,121.0,116.0,116.0,126.7,120.1,111.0,131.0,0,norm,1.186,1.973,-1.429,-1.16,-4.583,-5.166,-1.967,-1.609,-1.59,-2.094,1.22,-1.673,120.6,124.8,-4.797,-8.031,129.5,-1.268,8.14,4.707,-4.982,-7.554,11,4.731,4.31,5.175,4.379,1.444,1.31,1.375,1.543,11,4.78,4.695,-40,48.7607989836,norm,0,30,30,30,362.158,362.165,362.167271924,362.168,362.172,362.177,up,1,1.5200332662,8.4799667338,001,007,800_600,Intel(R) Core(TM) i7-2670QM CPU @ 2.20GHz,orientation_search,GRVLAPTOP3,Intel(R) HD Graphics Family,2018_jun_07_1053,testMonitor,
269.2,269.0,286.5,266.0,36,30,286.2,275.3,287.1,293.4,7.671,7.905,8.048,7.966,7.53,8.234,7.742,4.695,-4.739,-8.038,2.051,-1.324,7.543,5.297,-4.742,-7.977,292.8,306.0,-8.316,288.4,286.0,293.8,277.4,282.6,36,298.8,2,5,prime,10,0,69,norm,36,-5.064,up,norm,286.041131674,281.5,280.6,1.772,283.8,3,291.4,286.1,294.0,10,3,7.914,5.212,1.935,-1.742,-4.993,-7.869,286.0,3,355.0,-7.675,-7.592,30,-7.562,-8.094,-4.421,-5.112,-4.739,-5.257,4.883,7.628,15,-1.717,1.733,4.696,7.689,-7.555,-7.704,-1.548,2.022,279.8,285.0,290.2,289.4,283.0,277.9,288.3,301.5,290.6,266.8,0,norm,1.118,1.945,-1.391,-1.864,-4.319,-4.968,-1.304,-1.308,-1.727,-2.024,1.515,-1.632,273.7,292.5,-4.789,-8.197,,-1.468,8.435,4.355,-5.123,-8.396,12,5.22,4.807,5.041,4.747,2.007,2.044,1.949,1.731,12,5.146,5.029,-10,48.7607989836,norm,0,31,31,31,363.708,363.715,363.717820999,363.718,363.722,363.727,down,0,3.79989894995,-10,001,007,800_600,Intel(R) Core(TM) i7-2670QM CPU @ 2.20GHz,orientation_search,GRVLAPTOP3,Intel(R) HD Graphics Family,2018_jun_07_1053,testMonitor,
293.2,284.7,288.1,276.0,36,30,290.7,279.4,290.1,299.5,8.095,8.101,7.615,7.646,8.001,7.96,8.393,4.879,-5.001,-7.539,1.18,-1.686,8.129,4.32,-5.249,-8.464,279.8,281.9,-8.066,293.1,306.0,292.8,299.4,284.4,36,287.3,1,5,prime,10,0,116,norm,36,-4.784,up,norm,286.041131674,267.3,299.4,1.937,280.3,4,273.4,273.1,290.0,10,3,8.3,4.41,2.059,-1.159,-5.01,-7.659,,3,402.0,-7.9,-8.367,30,-8.293,-8.186,-4.972,-4.521,-5.105,-5.101,4.784,8.49,10,-2.066,1.866,5.136,7.833,-8.003,-7.7,-1.995,1.368,283.8,270.7,266.0,295.1,282.6,296.3,282.9,287.4,292.8,276.5,1,norm,1.346,1.303,-1.243,-1.612,-4.721,-4.556,-1.124,-1.535,-1.329,-1.278,1.993,-2.06,274.5,290.3,-5.284,-7.867,291.7,-1.145,7.866,4.659,-4.342,-7.922,12,5.264,5.131,4.507,5.128,2.015,1.62,1.966,1.326,12,4.786,5.19,-10,48.7607989836,norm,0,32,32,32,368.55,368.56,368.561791126,368.562,368.566,368.571,down,0,1.71386304916,-10,001,007,800_600,Intel(R) Core(TM) i7-2670QM CPU @ 2.20GHz,orientation_search,GRVLAPTOP3,Intel(R) HD Graphics Family,2018_jun_07_1053,testMonitor,
294.1,296.1,274.3,306.0,36,30,277.3,274.9,291.2,292.3,7.978,7.687,7.597,8.148,8.375,7.71,7.832,4.753,-4.8,-7.608,2.088,-1.386,7.789,5.205,-4.542,-7.598,286.9,276.7,-8.045,286.8,278.6,285.2,283.5,300.7,36,270.8,0,5,prime,10,0,114,norm,36,-4.664,down,norm,286.041131674,290.9,288.1,1.566,304.3,1,285.4,276.9,298.2,10,3,7.513,5.267,1.42,-1.426,-4.636,-8.304,271.5,3,400.0,-7.566,-7.518,30,-7.7,-8.299,-4.774,-4.708,-4.883,-4.301,5.189,8.296,1,-1.633,2.053,4.811,8.007,-8.391,-8.197,-1.494,1.621,292.8,266.0,266.6,292.8,,279.0,288.8,275.3,281.7,281.0,2,norm,1.994,1.986,-1.523,-1.212,-4.623,-4.622,-1.356,-1.246,-1.611,-1.127,2.059,-2.079,283.5,282.7,-4.994,-7.852,303.4,-1.233,8.129,4.855,-4.324,-7.671,12,4.782,5.031,5.254,5.029,1.81,1.45,1.447,1.556,12,4.861,5.054,-10,48.7607989836,norm,0,33,33,33,371.295,371.303,371.305004452,371.306,371.309,371.314,up,0,1.25707665562,-10,001,007,800_600,Intel(R) Core(TM) i7-2670QM CPU @ 2.20GHz,orientation_search,GRVLAPTOP3,Intel(R) HD Graphics Family,2018_jun_07_1053,testMonitor,
414.8,408.3,408.1,,36,-30,409.2,404.1,408.1,409.6,8.019,8.34,7.645,7.612,8.277,8.05,7.995,4.69,-4.358,-8.277,1.101,-1.98,8.125,5.074,-4.313,-8.244,409.3,410.6,-8.398,412.7,410.1,401.2,412.7,411.9,36,412.0,3,5,probe,5,0,97,norm,36,-4.679,up,norm,411.234250009,409.4,411.1,2.028,407.5,3,419.7,406.7,415.9,10,3,7.859,4.35,1.336,-1.24,-4.745,-7.663,408.5,1,314.2,-7.701,-8.177,30,-7.757,-7.542,-4.578,-4.946,-4.935,-4.567,4.328,7.99,21,-1.3,1.754,4.424,7.52,-7.521,-8.475,-1.501,1.551,410.3,417.8,407.4,411.0,409.3,412.1,410.2,419.4,416.3,412.7,0,norm,1.798,1.363,-1.703,-1.789,-4.765,-4.789,-1.919,-1.302,-1.72,-1.604,1.415,-1.919,421.2,417.8,-4.82,-7.669,417.7,-2.043,7.875,5.121,-4.455,-7.812,13,5.216,5.189,4.632,5.264,1.366,2.039,1.37,1.894,13,4.428,4.447,30,286.041131674,norm,0,34,34,34,373.588,373.596,373.598318572,373.599,373.603,373.608,up,1,1.19794089506,8.80205910494,001,007,800_600,Intel(R) Core(TM) i7-2670QM CPU @ 2.20GHz,orientation_search,GRVLAPTOP3,Intel(R) HD Graphics Family,2018_jun_07_1053,testMonitor,
122.5,113.0,130.7,127.3,36,80,98.6,116.3,138.6,113.9,8.426,7.592,8.328,8.082,7.747,8.397,7.776,5.258,-4.637,-7.549,1.123,-1.688,8.191,4.695,-4.556,-7.545,111.0,115.2,-8.295,112.8,127.8,114.9,100.7,128.3,36,118.6,1,5,prime,10,0,97,norm,36,-5.218,up,norm,118.613302993,113.0,107.2,1.789,121.8,4,119.3,111.2,114.4,10,3,7.53,4.974,1.737,-1.208,-4.656,-7.518,,3,215.6,-7.77,-8.066,80,-7.697,-8.424,-4.633,-5.117,-4.565,-4.826,4.547,7.78,10,-1.52,1.949,4.586,7.671,-8.237,-7.504,-1.803,1.886,127.7,122.5,122.2,100.9,121.2,127.5,114.9,110.7,119.5,127.8,0,norm,1.417,1.692,-1.387,-1.846,-4.404,-5.288,-1.6,-1.495,-1.674,-1.511,1.946,-2.057,123.8,137.4,-5.08,-7.818,107.9,-1.239,8.219,5.034,-4.436,-8.237,14,4.552,5.055,5.085,5.255,1.998,2.074,1.509,1.585,14,4.675,4.85,-30,286.041131674,norm,0,35,35,35,374.817,374.824,374.826747725,374.827,374.831,374.836,up,1,1.58543422337,8.41456577663,001,007,800_600,Intel(R) Core(TM) i7-2670QM CPU @ 2.20GHz,orientation_search,GRVLAPTOP3,Intel(R) HD Graphics Family,2018_jun_07_1053,testMonitor,
126.3,,128.6,117.4,36,80,119.8,123.3,112.3,134.1,8.05,8.216,8.204,8.35,8.37,8.459,7.728,4.754,-4.692,-7.74,2.036,-1.99,7.541,4.423,-5.248,-8.207,128.3,116.8,-7.758,117.7,118.8,115.2,127.5,120.0,36,138.6,3,5,prime,10,0,87,norm,36,-5.159,up,norm,118.613302993,123.6,111.9,1.757,111.5,5,126.1,124.6,125.0,10,3,8.493,4.763,1.932,-1.741,-4.849,-8.118,106.0,3,205.6,-8.098,-7.614,80,-8.268,-8.051,-4.714,-4.43,-4.527,-4.542,4.651,8.451,23,-1.955,1.74,5.003,7.636,-7.992,-8.315,-1.678,1.125,136.1,129.8,130.5,120.5,122.2,128.3,115.8,98.6,124.6,110.2,1,norm,1.779,1.494,-1.931,-1.281,-4.416,-4.679,-1.421,-1.116,-1.594,-1.765,1.25,-1.883,119.1,109.3,-4.54,-8.154,130.1,-1.261,8.32,4.573,-5.156,-8.006,14,5.108,4.879,4.627,4.354,1.96,1.904,2.074,1.462,14,5.143,4.733,-30,286.041131674,norm,0,36,36,36,376.433,376.44,376.442682347,376.443,376.447,376.452,up,1,1.14122491902,8.85877508098,001,007,800_600,Intel(R) Core(TM) i7-2670QM CPU @ 2.20GHz,orientation_search,GRVLAPTOP3,Intel(R) HD Graphics Family,2018_jun_07_1053,testMonitor,
98.6,111.3,114.7,133.0,36,80,138.6,117.9,123.4,110.7,7.899,7.821,7.784,7.564,8.474,8.363,7.777,4.83,-4.755,-7.966,1.196,-1.591,7.965,5.211,-4.937,-7.845,113.3,123.7,-7.932,114.6,117.9,105.4,128.4,107.9,36,113.0,3,5,prime,10,0,101,norm,36,-4.412,down,norm,118.613302993,114.9,120.1,1.62,137.9,0,127.1,123.7,118.5,10,3,8.397,5.028,1.367,-1.563,-5.21,-7.632,130.6,3,219.6,-7.738,-7.515,80,-7.925,-7.786,-4.737,-4.943,-5.191,-4.801,5.261,7.562,18,-1.873,1.573,4.925,7.665,-8.289,-8.206,-1.105,1.159,121.5,134.6,126.3,112.0,105.7,121.8,116.0,110.2,120.3,111.7,2,norm,1.166,1.166,-1.823,-1.864,-5.206,-4.646,-1.213,-1.221,-1.871,-1.719,1.808,-1.723,104.1,,-4.615,-7.808,109.5,-1.888,8.13,4.983,-5.115,-8.21,14,4.65,4.961,4.977,4.675,1.67,1.347,1.238,2.093,14,4.505,5.02,-30,286.041131674,norm,0,37,37,37,377.604,377.611,377.613629709,377.614,377.618,377.623,down,1,1.28291866545,8.71708133455,001,007,800_600,Intel(R) Core(TM) i7-2670QM CPU @ 2.20GHz,orientation_search,GRVLAPTOP3,Intel(R) HD Graphics Family,2018_jun_07_1053,testMonitor,
281.7,284.6,277.9,285.0,36,10,283.0,286.3,285.6,291.7,7.724,8.151,7.51,8.155,7.67,7.719,7.942,5.024,-5.135,-8.026,1.537,-1.352,7.512,4.437,-4.867,-7.839,283.3,283.2,-8.163,272.9,281.6,271.7,277.0,287.7,36,281.9,1,5,probe,5,0,76,norm,36,-5.244,down,norm,281.705753541,283.4,283.9,1.534,282.3,2,277.1,285.7,279.1,10,3,7.734,5.207,1.931,-1.138,-4.717,-8.339,281.5,2,205.7,-7.548,-8.364,80,-8.397,-8.454,-4.735,-5.071,-4.935,-5.013,4.687,7.967,8,-2.06,1.742,5.019,8.436,-8.136,-8.219,-1.972,1.909,287.1,,281.9,280.9,285.2,271.8,277.8,279.3,280.3,276.6,0,norm,1.726,1.72,-1.306,-2.048,-4.338,-5.126,-1.205,-1.392,-1.778,-1.735,1.341,-1.985,281.8,281.1,-4.855,-7.562,285.9,-1.518,7.943,4.785,-4.691,-8.241,15,4.676,4.662,4.569,4.467,1.817,1.161,1.426,1.682,15,4.367,4.64,80,118.613302993,norm,0,38,38,38,378.917,378.924,378.926826968,378.927,378.931,378.936,up,0,0.848932507063,-10,001,007,800_600,Intel(R) Core(TM) i7-2670QM CPU @ 2.20GHz,orientation_search,GRVLAPTOP3,Intel(R) HD Graphics Family,2018_jun_07_1053,testMonitor,
284.6,292.2,290.1,283.9,36,10,284.0,290.0,283.3,278.1,7.535,7.779,8.094,7.947,7.719,8.468,8.453,4.509,-4.769,-7.673,1.833,-1.547,7.954,4.536,-4.915,-8.059,294.8,283.1,-7.674,296.4,284.8,285.4,286.0,,36,286.4,4,5,probe,5,0,81,norm,36,-4.904,down,norm,286.705753541,288.2,288.6,1.585,292.9,2,279.9,293.8,279.5,10,3,8.121,4.755,1.959,-1.763,-4.782,-8.485,293.2,2,205.7,-8.154,-8.068,80,-8.181,-7.732,-4.889,-5.0,-5.191,-4.501,4.377,7.554,26,-1.189,1.679,4.918,8.343,-8.176,-8.272,-1.994,2.083,290.5,284.0,281.7,293.6,284.2,286.3,296.7,290.4,276.7,289.7,1,norm,1.375,2.034,-2.039,-1.99,-4.313,-5.273,-1.895,-1.787,-1.188,-1.536,2.086,-1.931,290.1,290.8,-5.111,-8.157,286.0,-1.594,7.979,4.672,-5.041,-7.776,15,4.63,4.638,5.136,5.217,1.821,1.694,1.409,1.528,15,4.434,4.458,80,118.613302993,norm,0,39,39,39,380.795,380.803,380.805191937,380.806,380.81,380.815,down,1,1.11356737036,8.88643262964,001,007,800_600,Intel(R) Core(TM) i7-2670QM CPU @ 2.20GHz,orientation_search,GRVLAPTOP3,Intel(R) HD Graphics Family,2018_jun_07_1053,testMonitor,
247.4,242.2,238.7,226.2,36,-10,245.6,245.5,240.0,241.9,8.34,8.228,8.429,7.974,7.679,8.193,8.491,4.979,-4.697,-7.871,1.326,-1.29,7.701,4.925,-4.354,-7.92,244.2,251.3,-8.348,265.9,248.4,234.1,236.1,,36,240.0,4,5,prime,10,0,79,norm,36,-4.983,down,norm,246.229696381,265.3,252.9,1.528,244.8,2,244.9,251.2,266.2,10,2,8.364,4.951,2.008,-1.639,-4.783,-8.278,226.6,2,325.2,-8.342,-7.652,-10,-8.254,-7.689,-4.343,-4.778,-4.5,-5.019,5.076,7.83,26,-1.895,1.221,4.799,7.69,-8.277,-7.503,-1.213,1.584,236.2,242.4,243.7,256.4,239.9,253.1,253.5,258.3,245.2,254.1,0,norm,1.469,1.934,-1.177,-1.44,-4.46,-4.845,-1.493,-1.4,-1.763,-1.309,2.045,-1.229,251.6,254.2,-4.488,-7.687,248.7,-1.552,8.148,4.69,-4.653,-7.654,16,4.419,4.666,5.153,4.647,1.759,2.079,1.721,2.044,16,4.842,4.9,10,118.613302993,norm,0,40,40,40,381.939,381.946,381.948312245,381.949,381.953,381.958,down,1,1.94128450306,8.05871549694,001,007,800_600,Intel(R) Core(TM) i7-2670QM CPU @ 2.20GHz,orientation_search,GRVLAPTOP3,Intel(R) HD Graphics Family,2018_jun_07_1053,testMonitor,
249.6,232.5,246.7,242.4,36,-10,238.9,237.1,251.1,253.1,8.282,7.623,8.159,7.936,8.326,7.628,7.907,4.985,-4.501,-7.77,1.14,-1.148,8.069,4.382,-4.647,-7.96,242.4,242.8,-8.444,229.7,248.9,247.7,254.3,257.8,36,266.2,2,5,prime,10,0,70,norm,36,-4.685,down,norm,246.229696381,226.2,243.7,1.584,,2,248.6,259.1,246.9,10,2,8.074,5.245,1.964,-1.107,-4.639,-8.012,236.8,2,316.2,-7.95,-8.16,-10,-8.444,-8.137,-4.788,-4.431,-5.024,-5.144,5.108,8.071,14,-1.995,1.193,5.055,7.988,-8.006,-8.441,-1.154,1.935,258.4,239.3,250.1,261.5,253.6,251.9,252.4,240.0,239.9,232.3,1,norm,1.214,1.65,-1.234,-1.118,-5.299,-4.663,-1.373,-1.48,-2.024,-1.561,1.447,-1.134,252.5,243.7,-4.918,-8.039,251.4,-1.799,7.969,4.438,-5.216,-7.831,16,4.949,4.875,4.523,5.071,1.848,1.364,1.976,1.143,16,4.937,4.741,10,118.613302993,norm,0,41,41,41,383.91,383.918,383.920411877,383.921,383.925,383.93,down,1,1.16656821602,8.83343178398,001,007,800_600,Intel(R) Core(TM) i7-2670QM CPU @ 2.20GHz,orientation_search,GRVLAPTOP3,Intel(R) HD Graphics Family,2018_jun_07_1053,testMonitor,
336.9,334.4,338.1,345.0,36,-10,342.5,330.2,335.2,328.3,8.078,8.228,7.769,7.522,7.99,8.408,8.38,4.749,-5.135,-7.693,1.336,-1.275,7.688,4.857,-4.856,-7.864,337.8,343.0,-8.191,340.7,330.8,333.3,332.5,342.1,36,337.4,0,5,probe,5,0,100,norm,36,-5.238,down,norm,337.784951998,339.7,337.7,1.534,328.4,2,339.8,335.2,347.8,10,2,7.588,4.965,1.14,-1.63,-4.412,-7.876,327.8,1,237.8,-7.566,-7.801,-10,-7.561,-7.789,-4.915,-4.518,-4.435,-5.049,5.102,8.165,2,-1.439,1.563,5.239,8.496,-7.887,-8.199,-1.945,1.984,335.8,337.9,338.1,,331.9,334.9,342.8,335.1,343.8,333.6,0,norm,1.761,1.338,-1.884,-1.459,-5.134,-4.489,-1.638,-2.042,-2.093,-1.765,1.189,-1.861,337.6,331.2,-4.651,-7.949,340.8,-1.18,8.337,5.146,-4.601,-8.323,17,4.508,5.069,4.975,4.893,1.477,2.086,1.716,1.743,17,5.087,4.608,-10,246.229696381,norm,0,42,42,42,385.108,385.115,385.117319391,385.118,385.122,385.127,down,1,1.84219474736,8.15780525264,001,007,800_600,Intel(R) Core(TM) i7-2670QM CPU @ 2.20GHz,orientation_search,GRVLAPTOP3,Intel(R) HD Graphics Family,2018_jun_07_1053,testMonitor,
79.7,61.8,67.8,57.0,36,20,51.0,73.5,61.3,59.6,7.664,7.986,7.627,7.592,7.938,8.028,8.133,5.044,-5.192,-8.104,1.329,-1.489,8.345,4.625,-4.956,-7.513,49.9,69.6,-7.631,53.5,49.6,53.3,70.8,57.8,36,59.9,0,5,prime,10,0,84,norm,36,-4.768,up,norm,59.7287421086,58.6,74.7,1.538,70.8,4,64.1,46.8,46.0,10,6,8.32,4.599,1.943,-1.439,-4.372,-8.213,60.5,6,143.7,-7.869,-8.496,20,-8.263,-8.264,-4.757,-4.508,-4.704,-5.092,5.014,8.182,4,-1.593,1.231,4.838,8.419,-8.295,-8.36,-1.563,1.159,39.7,59.5,47.9,78.5,52.8,61.9,56.5,65.2,60.9,,0,norm,1.665,1.639,-1.906,-1.212,-4.882,-4.904,-1.883,-1.462,-1.385,-1.915,1.722,-1.923,40.5,74.2,-4.381,-7.903,61.6,-1.285,8.072,4.881,-4.358,-8.27,18,4.555,4.384,5.022,4.873,2.05,2.072,1.693,1.464,18,5.184,4.513,-10,246.229696381,norm,0,43,43,43,386.981,386.988,386.990008466,386.99,386.994,386.999,up,1,1.3902115,8.6097885,001,007,800_600,Intel(R) Core(TM) i7-2670QM CPU @ 2.20GHz,orientation_search,GRVLAPTOP3,Intel(R) HD Graphics Family,2018_jun_07_1053,testMonitor,
42.4,54.8,72.6,79.7,36,20,52.8,61.2,70.5,74.0,8.339,7.855,8.292,7.971,8.38,8.232,8.471,4.685,-4.651,-7.642,1.211,-1.111,8.277,4.872,-5.29,-8.172,52.3,58.6,-7.831,68.0,52.9,44.6,68.8,39.7,36,53.8,1,5,prime,10,0,71,norm,36,-4.92,up,norm,59.7287421086,60.5,58.8,1.815,63.1,4,59.0,40.8,57.0,10,6,7.576,4.912,1.468,-1.237,-4.61,-8.347,,6,130.7,-7.564,-7.687,20,-8.056,-7.827,-4.972,-4.896,-4.549,-4.972,4.729,7.638,10,-1.571,1.975,4.958,8.143,-8.251,-7.719,-1.233,1.419,56.2,69.9,69.8,47.0,74.3,59.6,68.1,66.3,55.3,70.0,1,norm,1.54,1.593,-1.196,-1.633,-5.21,-4.723,-1.26,-2.025,-1.32,-1.184,1.722,-1.526,59.2,55.4,-4.391,-8.151,53.2,-1.188,8.401,4.412,-4.56,-8.253,18,4.307,4.883,4.802,5.093,1.647,1.186,1.897,1.406,18,5.219,4.684,-10,246.229696381,norm,0,44,44,44,388.401,388.408,388.410566268,388.411,388.415,388.42,up,1,1.53395146329,8.46604853671,001,007,800_600,Intel(R) Core(TM) i7-2670QM CPU @ 2.20GHz,orientation_search,GRVLAPTOP3,Intel(R) HD Graphics Family,2018_jun_07_1053,testMonitor,
59.1,60.1,65.0,42.4,36,20,62.3,60.3,63.6,46.2,8.257,7.58,8.069,7.961,8.014,8.373,7.544,4.838,-5.177,-7.759,1.693,-1.944,8.192,4.91,-5.09,-7.607,44.2,79.7,-8.413,68.0,75.3,66.1,69.7,55.3,36,61.3,0,5,prime,10,0,84,norm,36,-4.805,up,norm,59.7287421086,61.2,50.6,2.013,45.6,3,66.3,65.6,57.1,10,6,8.448,4.912,1.793,-1.271,-4.541,-8.406,60.5,6,143.7,-8.002,-8.245,20,-7.761,-8.012,-4.708,-4.563,-4.384,-5.287,4.593,7.962,3,-1.312,1.909,4.949,7.979,-7.945,-7.579,-1.806,1.844,59.6,49.5,,60.5,66.5,74.5,66.0,56.9,57.4,54.4,2,norm,1.555,1.581,-1.903,-1.579,-5.163,-5.094,-1.236,-1.758,-2.053,-1.843,1.968,-1.827,71.6,63.3,-4.803,-7.865,58.7,-1.243,8.157,5.176,-4.866,-8.224,18,4.466,4.578,4.618,4.363,1.896,2.009,1.249,1.436,18,5.045,4.51,-10,246.229696381,norm,0,45,45,45,389.965,389.972,389.974256986,389.975,389.979,389.984,up,1,1.68805185866,8.31194814134,001,007,800_600,Intel(R) Core(TM) i7-2670QM CPU @ 2.20GHz,orientation_search,GRVLAPTOP3,Intel(R) HD Graphics Family,2018_jun_07_1053,testMonitor,
66.0,70.7,79.7,70.1,36,20,55.7,43.3,54.6,68.6,8.372,7.851,7.598,8.035,8.084,7.655,7.743,4.876,-5.155,-7.61,1.813,-1.528,7.779,5.07,-4.325,-8.423,42.5,57.2,-7.864,61.5,63.6,58.8,62.6,44.3,36,63.3,1,5,prime,10,0,117,norm,36,-4.618,down,norm,59.7287421086,69.0,54.2,1.262,77.7,2,76.5,67.3,52.7,10,6,8.33,4.788,1.765,-1.604,-4.921,-7.894,76.2,6,176.7,-8.213,-8.209,20,-8.222,-8.103,-4.584,-4.539,-5.097,-4.555,4.644,8.241,8,-1.532,1.918,5.13,8.171,-7.897,-8.357,-1.412,1.279,62.2,,78.4,39.7,69.5,69.1,44.4,67.2,70.7,60.2,3,norm,1.104,1.234,-1.254,-1.698,-4.446,-5.162,-1.544,-1.242,-1.312,-1.759,1.926,-1.964,75.1,66.2,-4.396,-7.942,50.9,-1.461,8.036,5.152,-4.691,-7.556,18,4.637,4.406,4.893,4.868,1.273,1.698,1.179,1.638,18,4.613,4.811,-10,246.229696381,norm,0,46,46,46,391.683,391.69,391.692101799,391.693,391.697,391.702,down,1,3.78309914532,6.21690085468,001,007,800_600,Intel(R) Core(TM) i7-2670QM CPU @ 2.20GHz,orientation_search,GRVLAPTOP3,Intel(R) HD Graphics Family,2018_jun_07_1053,testMonitor,
69.4,48.2,76.6,62.1,36,20,69.1,69.8,66.8,75.4,8.429,8.405,8.224,8.076,8.299,8.069,7.57,4.607,-4.692,-8.286,1.654,-1.725,8.384,5.107,-5.266,-8.256,39.7,66.6,-8.446,60.1,59.0,55.6,59.2,69.7,36,64.5,0,5,prime,10,0,92,norm,36,-4.685,up,norm,59.7287421086,66.8,44.2,1.803,54.7,3,50.4,57.2,66.3,10,6,7.815,4.743,1.861,-1.449,-4.852,-7.889,68.8,6,151.7,-8.021,-7.713,20,-8.25,-7.805,-5.019,-5.215,-4.951,-4.657,5.023,7.901,3,-1.947,1.693,4.93,8.235,-7.757,-7.531,-1.271,1.939,78.0,68.6,,59.8,51.2,60.9,79.7,57.6,68.4,62.4,4,norm,2.095,1.676,-1.78,-1.121,-5.136,-4.842,-1.806,-1.932,-1.99,-2.045,1.554,-1.129,50.3,41.1,-4.315,-8.043,64.4,-1.966,7.665,5.218,-5.024,-8.45,18,4.5,5.059,4.658,4.664,1.587,1.414,2.097,2.048,18,4.874,4.466,-10,246.229696381,norm,0,47,47,47,395.496,395.504,395.506067439,395.507,395.51,395.515,up,1,1.45576842167,8.54423157833,001,007,800_600,Intel(R) Core(TM) i7-2670QM CPU @ 2.20GHz,orientation_search,GRVLAPTOP3,Intel(R) HD Graphics Family,2018_jun_07_1053,testMonitor,
50.3,52.2,51.6,58.1,36,20,66.7,64.3,47.8,52.7,8.15,8.396,7.934,7.723,8.265,7.74,7.783,4.698,-4.993,-7.778,2.058,-1.832,7.809,4.608,-4.517,-7.969,53.7,55.0,-8.286,,55.4,39.7,60.3,56.7,36,52.8,5,5,prime,10,0,86,norm,36,-4.352,down,norm,59.7287421086,77.7,72.6,1.584,53.9,1,61.8,63.0,79.7,10,6,7.711,4.862,1.161,-1.491,-5.212,-8.244,70.9,6,145.7,-7.999,-8.495,20,-8.349,-7.992,-4.604,-4.878,-4.523,-4.652,4.532,8.258,31,-2.095,1.276,4.578,7.964,-8.471,-8.454,-1.575,1.975,55.4,60.0,54.0,66.1,56.8,47.7,57.4,62.4,61.1,45.2,5,norm,1.444,2.07,-1.979,-1.239,-4.669,-5.291,-1.273,-1.536,-1.345,-1.876,1.698,-1.861,54.6,53.6,-4.516,-7.511,63.4,-1.847,8.195,5.008,-5.129,-8.036,18,4.489,5.29,4.853,5.124,1.193,1.14,2.086,1.855,18,4.903,4.506,-10,246.229696381,norm,0,48,48,48,396.982,396.99,396.992056551,396.993,396.997,397.001,down,1,1.2365145577,8.7634854423,001,007,800_600,Intel(R) Core(TM) i7-2670QM CPU @ 2.20GHz,orientation_search,GRVLAPTOP3,Intel(R) HD Graphics Family,2018_jun_07_1053,testMonitor,
202.7,195.0,194.3,197.6,36,10,182.7,193.4,187.3,189.6,8.109,7.561,7.585,8.292,7.877,7.57,8.369,4.657,-4.502,-8.434,1.132,-1.254,7.738,5.075,-4.538,-7.693,192.3,198.3,-7.904,188.7,192.1,191.6,192.2,185.1,36,,4,5,probe,5,0,110,norm,36,-5.08,up,norm,192.70958307,189.9,194.5,1.402,198.3,3,193.7,190.2,196.9,10,6,7.53,5.256,1.975,-1.955,-5.037,-7.739,197.5,2,82.7,-7.527,-7.534,20,-8.426,-8.181,-4.636,-4.943,-5.084,-4.905,4.863,8.024,27,-1.567,1.228,4.406,8.262,-8.083,-7.946,-1.629,1.663,191.1,192.6,190.9,188.8,192.2,193.3,197.5,191.8,191.2,189.3,0,norm,1.838,1.382,-1.161,-1.819,-4.963,-4.882,-1.881,-1.293,-1.716,-1.148,1.948,-1.158,196.1,189.6,-4.406,-8.35,194.8,-1.428,8.467,5.229,-4.598,-8.365,19,4.797,4.481,4.394,4.992,1.433,1.783,1.757,1.987,19,4.355,4.589,20,59.7287421086,norm,0,49,49,49,398.249,398.256,398.258346319,398.259,398.263,398.268,up,1,1.14507500071,8.85492499929,001,007,800_600,Intel(R) Core(TM) i7-2670QM CPU @ 2.20GHz,orientation_search,GRVLAPTOP3,Intel(R) HD Graphics Family,2018_jun_07_1053,testMonitor,
146.0,144.9,147.1,140.3,36,10,145.8,150.5,151.6,143.0,7.914,7.637,8.246,7.615,7.596,7.969,8.087,5.073,-4.438,-8.162,1.245,-1.917,7.612,5.219,-5.024,-8.007,142.9,140.3,-7.663,,145.9,143.1,149.7,153.1,36,135.8,5,5,probe,5,0,61,norm,36,-4.856,down,norm,143.70958307,153.7,143.2,1.289,139.6,1,139.5,146.3,140.9,10,6,7.957,4.694,1.316,-1.35,-4.604,-8.119,140.8,2,82.7,-8.45,-8.489,20,-8.185,-8.275,-5.086,-4.631,-5.289,-5.26,5.098,8.313,31,-1.261,1.829,4.382,8.067,-7.813,-8.362,-1.467,1.872,138.2,146.2,142.9,133.7,137.4,141.3,142.1,152.2,140.6,148.9,1,norm,1.989,1.585,-1.569,-1.237,-4.575,-4.708,-1.765,-1.539,-1.117,-1.125,1.841,-1.646,150.3,134.5,-4.392,-7.778,138.2,-1.627,7.835,4.656,-4.625,-7.533,19,4.362,5.005,4.715,4.648,1.556,1.105,1.882,1.197,19,4.989,4.88,20,59.7287421086,norm,0,50,50,50,399.424,399.432,399.434245321,399.435,399.439,399.444,down,1,1.14124406436,8.85875593564,001,007,800_600,Intel(R) Core(TM) i7-2670QM CPU @ 2.20GHz,orientation_search,GRVLAPTOP3,Intel(R) HD Graphics Family,2018_jun_07_1053,testMonitor,
63.1,40.5,,55.9,36,-20,51.6,44.9,41.8,55.5,7.614,7.989,8.167,7.778,8.077,8.419,8.145,5.02,-5.047,-7.896,1.205,-1.246,8.091,4.402,-4.464,-7.956,43.1,53.6,-7.774,51.4,40.9,53.2,40.9,53.8,36,29.3,3,5,prime,10,0,99,norm,36,-4.392,down,norm,49.2937643394,57.2,52.0,1.368,61.0,2,45.3,63.0,40.2,10,3,7.668,4.465,1.847,-1.586,-4.823,-7.854,64.1,3,148.3,-7.703,-7.902,-20,-8.101,-8.349,-4.624,-4.435,-5.05,-4.738,5.29,7.916,20,-1.728,1.97,4.981,7.745,-8.432,-7.602,-1.648,1.25,35.3,56.4,50.2,30.3,55.6,41.0,36.3,52.4,55.8,48.4,0,norm,2.001,2.065,-1.235,-1.857,-5.202,-4.537,-1.844,-1.871,-2.009,-1.796,1.379,-1.903,51.9,53.8,-4.737,-8.247,37.5,-1.605,8.3,4.781,-4.797,-8.218,20,4.507,4.821,5.206,4.454,1.552,1.71,1.949,1.285,20,5.051,4.555,10,59.7287421086,norm,0,51,51,51,400.596,431.622,431.624396396,431.625,431.629,431.634,down,1,1.15590846285,8.84409153715,001,007,800_600,Intel(R) Core(TM) i7-2670QM CPU @ 2.20GHz,orientation_search,GRVLAPTOP3,Intel(R) HD Graphics Family,2018_jun_07_1053,testMonitor,
49.8,56.2,40.3,64.3,36,-20,52.2,,38.1,38.9,8.117,7.58,7.506,8.119,8.317,7.939,7.778,5.188,-4.308,-8.019,1.198,-1.867,8.234,4.904,-4.512,-8.223,43.7,41.4,-7.902,46.4,49.5,33.5,61.6,39.4,36,54.8,4,5,prime,10,0,100,norm,36,-4.463,down,norm,49.2937643394,49.1,38.4,1.958,29.3,1,69.1,50.7,61.9,10,3,8.22,4.806,1.611,-1.103,-4.531,-7.739,58.8,3,149.3,-8.043,-7.561,-20,-7.852,-7.873,-5.233,-4.714,-5.21,-4.921,4.91,7.92,25,-1.262,1.816,4.511,8.182,-7.592,-7.589,-2.008,1.682,69.3,65.7,47.4,57.8,46.7,58.9,57.2,37.2,40.4,51.1,1,norm,1.783,1.73,-2.017,-1.92,-5.196,-5.005,-1.965,-1.538,-1.635,-1.851,2.094,-1.487,44.8,40.6,-5.294,-8.055,62.2,-1.969,7.966,4.319,-5.01,-8.42,20,4.539,4.9,5.212,4.344,2.034,1.957,1.146,1.745,20,4.513,4.884,10,59.7287421086,norm,0,52,52,52,432.801,432.808,432.810583919,432.811,432.815,432.82,down,1,0.986264851065,9.01373514893,001,007,800_600,Intel(R) Core(TM) i7-2670QM CPU @ 2.20GHz,orientation_search,GRVLAPTOP3,Intel(R) HD Graphics Family,2018_jun_07_1053,testMonitor,
55.3,47.9,39.1,52.8,36,-20,33.8,66.3,45.6,54.8,8.187,8.497,7.565,7.505,8.402,7.819,7.519,4.363,-4.581,-8.094,1.932,-1.258,8.077,5.265,-4.667,-8.416,29.3,47.2,-7.507,55.4,51.1,46.5,50.8,51.3,36,54.9,2,5,prime,10,0,111,norm,36,-4.796,up,norm,49.2937643394,,57.7,1.886,58.1,5,47.4,56.5,49.8,10,3,7.815,4.942,1.126,-1.465,-4.963,-7.959,44.9,3,160.3,-7.554,-8.006,-20,-8.447,-7.905,-4.959,-5.173,-4.53,-4.916,4.355,7.53,17,-1.394,1.227,4.736,8.182,-8.385,-7.616,-1.876,1.19,60.7,51.2,44.1,50.9,57.6,69.3,38.8,58.9,41.0,44.5,2,norm,1.36,2.043,-1.86,-1.275,-5.047,-4.418,-1.813,-1.831,-1.61,-1.408,1.961,-1.725,56.3,52.3,-4.395,-8.427,44.6,-1.883,8.293,5.059,-5.042,-8.059,20,4.332,4.521,4.952,4.51,1.307,1.768,2.024,1.117,20,4.811,4.844,10,59.7287421086,norm,0,53,53,53,433.817,433.826,433.827951546,433.828,433.832,433.838,up,1,0.931686148999,9.068313851,001,007,800_600,Intel(R) Core(TM) i7-2670QM CPU @ 2.20GHz,orientation_search,GRVLAPTOP3,Intel(R) HD Graphics Family,2018_jun_07_1053,testMonitor,
142.2,140.9,139.1,135.8,36,40,148.1,142.4,134.6,142.3,8.449,7.641,8.446,7.571,8.319,7.924,8.446,4.773,-5.299,-7.972,1.722,-1.382,7.938,4.734,-5.059,-8.415,,141.6,-7.84,133.2,136.5,148.3,132.6,145.8,36,132.6,5,5,probe,5,0,106,norm,36,-4.8,up,norm,140.189994171,148.0,138.1,1.955,146.4,5,130.2,148.6,139.8,10,3,8.036,5.007,1.583,-1.982,-5.03,-8.459,150.2,1,34.2,-8.222,-8.272,-20,-7.639,-7.639,-4.94,-5.222,-4.604,-4.771,4.333,7.878,35,-2.089,1.825,4.941,8.254,-7.745,-8.114,-1.262,1.344,140.9,140.8,145.4,140.6,138.7,142.6,147.9,140.3,138.1,137.3,0,norm,1.76,1.35,-1.474,-2.079,-4.395,-4.895,-2.039,-1.333,-1.536,-1.405,1.881,-1.136,135.1,137.1,-4.973,-8.321,137.5,-1.473,7.799,5.074,-5.109,-8.187,21,5.142,4.58,5.286,4.383,1.629,2.097,1.929,1.284,21,4.458,4.444,-20,49.2937643394,norm,0,54,54,54,434.781,434.789,434.790927723,434.791,434.795,434.8,down,0,1.45368064541,-10,001,007,800_600,Intel(R) Core(TM) i7-2670QM CPU @ 2.20GHz,orientation_search,GRVLAPTOP3,Intel(R) HD Graphics Family,2018_jun_07_1053,testMonitor,
213.0,225.8,205.0,216.5,36,80,217.0,219.5,222.2,212.1,8.023,8.4,8.167,7.636,8.067,8.357,8.054,4.651,-4.694,-7.962,2.056,-1.213,8.479,4.375,-5.247,-7.877,215.5,218.6,-8.281,223.0,214.4,207.0,218.8,217.0,36,219.1,0,5,prime,10,0,74,norm,36,-5.121,down,norm,219.308900033,212.6,239.3,1.405,227.3,1,209.8,208.9,199.3,10,6,7.987,4.892,1.691,-1.729,-4.931,-7.711,209.6,6,293.3,-7.806,-8.45,80,-7.75,-8.234,-4.334,-4.621,-4.515,-5.278,4.786,8.207,1,-1.305,1.204,4.906,7.737,-8.16,-7.798,-2.041,1.95,217.1,233.5,222.6,215.0,,236.0,227.6,214.6,223.8,210.4,0,norm,1.859,1.175,-1.903,-1.607,-5.024,-4.399,-1.645,-1.679,-1.131,-1.154,2.015,-1.968,226.1,221.9,-4.993,-8.061,208.2,-1.274,8.419,4.656,-4.561,-7.977,22,5.129,4.867,4.51,4.997,2.014,2.052,1.306,1.996,22,5.221,4.329,40,49.2937643394,norm,0,55,55,55,437.267,437.274,437.276893486,437.277,437.281,437.286,down,1,1.96881410479,8.03118589521,001,007,800_600,Intel(R) Core(TM) i7-2670QM CPU @ 2.20GHz,orientation_search,GRVLAPTOP3,Intel(R) HD Graphics Family,2018_jun_07_1053,testMonitor,
212.6,229.1,215.0,220.7,36,80,221.6,232.0,199.3,215.0,8.11,8.015,7.953,8.382,7.832,8.436,7.737,4.794,-4.503,-8.241,2.006,-2.056,8.21,4.561,-4.771,-7.871,224.3,238.3,-7.877,207.6,210.6,226.5,229.6,224.2,36,227.0,1,5,prime,10,0,68,norm,36,-4.681,down,norm,219.308900033,227.8,202.7,1.71,215.4,2,231.2,206.1,218.5,10,6,8.337,4.378,1.196,-1.984,-5.056,-7.537,225.1,6,287.3,-7.771,-8.477,80,-7.763,-7.979,-4.765,-4.554,-5.214,-4.677,5.102,7.749,8,-2.022,1.708,5.083,7.77,-7.885,-7.992,-1.672,1.13,213.4,,213.2,201.6,239.3,223.7,211.3,211.0,214.8,228.3,1,norm,1.611,1.591,-1.197,-1.438,-5.254,-4.779,-1.415,-1.742,-1.558,-2.088,1.113,-1.872,218.2,217.8,-4.625,-8.125,223.7,-1.957,7.975,4.974,-5.044,-8.436,22,4.487,4.701,5.253,4.596,1.516,1.987,1.734,1.736,22,5.142,5.181,40,49.2937643394,norm,0,56,56,56,439.266,439.273,439.27562896,439.276,439.28,439.285,down,1,0.960045070938,9.03995492906,001,007,800_600,Intel(R) Core(TM) i7-2670QM CPU @ 2.20GHz,orientation_search,GRVLAPTOP3,Intel(R) HD Graphics Family,2018_jun_07_1053,testMonitor,
228.2,222.3,205.9,210.2,36,80,215.8,221.7,225.1,227.3,8.161,7.685,7.892,7.71,8.111,8.268,7.863,5.178,-4.592,-7.746,2.081,-1.838,7.941,5.038,-5.284,-8.196,207.2,202.1,-7.864,227.3,229.7,234.1,223.7,235.2,36,,4,5,prime,10,0,71,norm,36,-4.752,up,norm,219.308900033,225.4,224.0,1.334,199.3,3,203.9,215.6,214.5,10,6,7.535,4.912,2.023,-2.011,-4.474,-7.953,213.9,6,290.3,-8.365,-7.63,80,-7.534,-7.615,-4.557,-4.309,-4.643,-4.598,5.079,7.806,27,-1.215,1.695,4.994,7.879,-8.495,-8.098,-1.793,1.352,216.6,214.1,208.7,219.1,230.5,217.3,239.3,225.6,223.5,226.0,2,norm,1.979,1.451,-1.65,-1.255,-5.233,-4.542,-1.639,-1.739,-2.034,-2.043,1.967,-2.046,217.4,214.9,-4.47,-7.964,222.6,-1.841,7.7,5.244,-4.421,-8.065,22,4.609,4.304,4.936,5.06,1.979,1.976,1.246,1.267,22,4.873,4.608,40,49.2937643394,norm,0,57,57,57,440.256,440.264,440.266236068,440.267,440.271,440.276,up,1,0.964790314138,9.03520968586,001,007,800_600,Intel(R) Core(TM) i7-2670QM CPU @ 2.20GHz,orientation_search,GRVLAPTOP3,Intel(R) HD Graphics Family,2018_jun_07_1053,testMonitor,
211.5,218.4,222.0,228.9,36,80,216.6,208.6,199.3,226.6,8.201,7.526,7.766,7.876,8.367,8.12,8.003,4.593,-5.258,-8.013,1.155,-1.645,8.235,5.034,-4.985,-8.065,214.0,216.9,-8.087,217.8,203.7,230.3,230.3,229.6,36,219.3,3,5,prime,10,0,92,norm,36,-4.347,down,norm,219.308900033,214.6,219.5,2.04,211.5,1,205.8,200.1,213.2,10,6,7.724,5.113,1.392,-1.653,-4.632,-8.469,231.7,6,311.3,-7.53,-7.548,80,-7.761,-7.869,-5.117,-4.666,-4.309,-4.91,5.165,8.112,19,-1.662,1.198,5.099,7.808,-7.608,-8.34,-1.51,1.709,220.6,209.1,234.6,220.4,230.3,239.3,231.9,211.7,206.9,207.1,3,norm,1.609,1.657,-1.585,-1.745,-4.754,-4.388,-1.614,-1.2,-1.136,-1.494,1.76,-1.857,,226.6,-5.284,-7.806,208.8,-1.398,7.514,4.486,-5.156,-7.907,22,4.829,4.434,4.703,4.827,1.903,1.482,1.867,1.596,22,4.723,5.266,40,49.2937643394,norm,0,58,58,58,441.252,441.259,441.261272754,441.262,441.266,441.271,down,1,1.06161578286,8.93838421714,001,007,800_600,Intel(R) Core(TM) i7-2670QM CPU @ 2.20GHz,orientation_search,GRVLAPTOP3,Intel(R) HD Graphics Family,2018_jun_07_1053,testMonitor,
221.9,218.4,239.3,214.8,36,80,204.0,206.1,220.3,222.5,8.32,8.168,8.472,8.002,8.408,7.663,7.818,4.592,-4.432,-8.498,1.224,-1.855,8.132,4.43,-4.506,-8.263,220.3,228.6,-8.227,204.4,219.9,226.3,211.5,216.1,36,225.1,2,5,prime,10,0,109,norm,36,-4.329,up,norm,219.308900033,228.2,,1.477,221.8,4,199.3,204.4,217.5,10,6,8.382,5.295,1.388,-1.175,-5.024,-8.198,230.5,6,328.3,-7.951,-8.292,80,-7.592,-8.329,-4.834,-4.523,-4.611,-4.497,4.739,8.148,16,-2.052,1.99,5.236,8.269,-7.853,-8.482,-2.082,1.513,229.1,230.4,214.8,220.7,208.2,225.5,212.3,210.8,221.4,224.4,4,norm,1.788,1.79,-1.508,-1.502,-5.112,-4.394,-1.875,-1.97,-1.215,-1.312,1.17,-2.072,226.4,213.4,-4.859,-7.997,230.3,-1.754,7.931,4.693,-4.356,-8.258,22,4.674,4.689,4.908,4.565,1.165,1.885,1.968,1.808,22,5.088,5.095,40,49.2937643394,norm,0,59,59,59,442.344,442.354,442.355817593,442.356,442.36,442.365,up,1,0.856479974672,9.14352002533,001,007,800_600,Intel(R) Core(TM) i7-2670QM CPU @ 2.20GHz,orientation_search,GRVLAPTOP3,Intel(R) HD Graphics Family,2018_jun_07_1053,testMonitor,
207.8,224.8,218.8,216.5,36,80,222.4,222.1,221.2,218.0,8.456,8.45,8.2,8.356,8.194,8.46,8.424,4.531,-5.231,-8.093,1.951,-1.797,8.198,4.51,-5.112,-8.432,225.2,223.2,-7.906,237.1,228.1,202.8,219.3,199.3,36,237.3,0,5,prime,10,0,94,norm,36,-4.771,down,norm,219.308900033,216.0,201.0,1.481,227.8,0,236.7,220.0,206.7,10,6,8.263,5.206,1.11,-1.479,-4.735,-7.573,233.0,6,313.3,-7.528,-8.306,80,-8.09,-8.05,-5.107,-4.837,-5.265,-4.827,4.669,7.508,0,-1.504,1.214,5.268,7.604,-7.986,-7.895,-1.543,1.614,217.3,213.9,221.5,230.9,232.1,,228.9,208.8,213.5,226.3,5,norm,1.88,1.34,-1.705,-1.668,-4.441,-5.133,-1.342,-1.362,-1.793,-1.898,1.446,-1.334,239.3,227.6,-4.893,-8.093,220.3,-1.969,7.671,4.516,-5.118,-7.622,22,4.581,4.966,4.573,4.492,1.614,1.715,1.375,1.48,22,4.507,4.351,40,49.2937643394,norm,0,60,60,60,443.233,443.24,443.242216134,443.243,443.247,443.252,down,1,0.903394936196,9.0966050638,001,007,800_600,Intel(R) Core(TM) i7-2670QM CPU @ 2.20GHz,orientation_search,GRVLAPTOP3,Intel(R) HD Graphics Family,2018_jun_07_1053,testMonitor,
415.7,411.7,404.4,401.7,36,-20,404.2,396.0,409.0,407.2,7.523,7.776,8.002,7.772,8.092,7.988,7.705,4.389,-5.137,-8.167,1.676,-1.213,8.393,5.012,-4.91,-8.147,408.4,399.8,-8.199,402.7,398.3,401.2,410.1,410.5,36,409.4,2,5,probe,5,0,98,norm,36,-4.327,up,norm,405.984717518,,415.5,1.658,408.8,5,403.3,406.6,401.6,10,6,7.997,4.377,1.604,-1.936,-4.364,-8.288,407.4,1,308.0,-7.633,-7.516,80,-8.443,-7.661,-4.569,-4.717,-4.71,-5.195,5.077,8.084,17,-1.146,1.845,4.68,7.698,-7.727,-7.809,-2.092,1.116,409.2,405.5,405.8,405.2,405.8,406.5,410.4,414.9,408.0,412.5,0,norm,1.334,1.608,-1.603,-1.144,-5.035,-4.902,-1.878,-1.887,-1.95,-1.232,1.226,-1.853,409.8,403.8,-4.459,-7.828,407.3,-1.393,8.097,5.058,-4.398,-7.957,23,4.351,5.125,4.908,4.721,1.41,1.85,1.968,1.955,23,4.464,4.92,80,219.308900033,norm,0,61,61,61,444.166,444.174,444.176042826,444.177,444.18,444.185,up,1,0.662154280642,9.33784571936,001,007,800_600,Intel(R) Core(TM) i7-2670QM CPU @ 2.20GHz,orientation_search,GRVLAPTOP3,Intel(R) HD Graphics Family,2018_jun_07_1053,testMonitor,
,58.2,55.5,61.2,36,60,71.4,52.2,52.3,37.0,7.537,8.195,7.634,8.074,8.427,7.675,7.704,4.867,-4.447,-7.944,2.099,-1.986,7.904,4.971,-4.314,-8.026,56.9,53.9,-8.171,52.4,61.5,53.3,45.8,49.8,36,37.3,3,5,prime,10,0,110,norm,36,-4.712,up,norm,51.3610019312,41.8,53.9,1.411,42.4,4,38.4,41.7,65.0,10,6,8.163,4.535,1.981,-1.782,-4.708,-7.854,47.5,6,161.4,-8.318,-8.237,60,-7.67,-7.813,-4.697,-4.993,-4.994,-4.906,5.269,8.141,22,-1.176,1.436,4.803,8.407,-7.671,-8.093,-2.044,2.068,70.5,42.6,48.7,38.9,59.4,58.3,43.9,31.4,62.6,53.4,0,norm,1.517,1.516,-1.368,-1.243,-5.02,-4.877,-1.115,-1.479,-1.716,-1.163,1.431,-1.237,53.0,63.6,-4.417,-8.428,50.0,-1.831,7.955,5.28,-4.716,-8.494,24,4.785,4.82,5.248,4.983,2.041,1.981,1.701,2.049,24,4.426,4.917,-20,219.308900033,norm,0,62,62,62,444.859,444.867,444.869048659,444.869,444.873,444.878,up,1,2.08324861908,7.91675138092,001,007,800_600,Intel(R) Core(TM) i7-2670QM CPU @ 2.20GHz,orientation_search,GRVLAPTOP3,Intel(R) HD Graphics Family,2018_jun_07_1053,testMonitor,
60.7,52.9,66.9,39.9,36,60,38.3,61.1,62.1,44.1,8.278,7.896,8.058,7.58,8.303,7.795,7.54,5.107,-4.484,-8.471,1.484,-1.378,7.564,4.741,-4.964,-7.532,45.8,64.1,-8.434,46.9,52.6,31.4,71.4,57.1,36,65.8,0,5,prime,10,0,89,norm,36,-4.524,down,norm,51.3610019312,47.4,71.2,1.312,42.3,0,56.8,47.1,46.5,10,6,7.576,4.751,2.046,-2.089,-5.2,-7.747,35.0,6,140.4,-7.579,-8.086,60,-7.536,-7.897,-5.225,-5.182,-4.813,-4.684,5.259,7.52,0,-1.304,1.926,5.28,7.987,-8.421,-7.712,-1.748,1.199,48.9,64.2,42.1,60.4,33.6,,38.1,51.6,52.7,50.7,1,norm,2.012,1.52,-1.883,-1.994,-4.843,-5.291,-1.654,-1.815,-1.24,-1.29,1.549,-1.417,63.5,54.1,-4.635,-8.354,54.4,-1.683,7.531,5.059,-4.452,-7.563,24,5.087,4.794,5.297,5.135,1.42,1.67,1.851,1.272,24,5.088,4.305,-20,219.308900033,norm,0,63,63,63,446.973,446.98,446.982389554,446.983,446.987,446.992,down,1,0.984609479373,9.01539052063,001,007,800_600,Intel(R) Core(TM) i7-2670QM CPU @ 2.20GHz,orientation_search,GRVLAPTOP3,Intel(R) HD Graphics Family,2018_jun_07_1053,testMonitor,
62.1,47.1,56.7,55.8,36,60,71.4,34.2,41.7,38.6,7.74,8.432,7.8,8.162,8.211,7.993,8.322,5.065,-4.874,-7.683,1.123,-1.53,8.413,4.478,-4.379,-8.141,54.4,53.7,-8.432,62.1,54.5,34.8,56.2,58.0,36,58.7,3,5,prime,10,0,87,norm,36,-4.93,down,norm,51.3610019312,46.9,43.1,1.289,31.4,0,50.3,58.1,40.6,10,6,7.561,4.343,1.413,-1.188,-5.192,-8.042,40.8,6,138.4,-8.056,-8.428,60,-7.68,-8.376,-4.657,-4.823,-5.009,-4.739,5.226,7.713,18,-2.099,1.304,5.241,8.162,-8.072,-8.411,-1.679,1.135,44.1,59.6,54.8,59.8,39.0,54.8,51.8,42.0,51.3,41.9,2,norm,1.659,1.503,-1.752,-1.143,-5.224,-5.188,-1.93,-2.073,-2.06,-1.762,1.675,-1.775,53.6,,-4.764,-8.202,49.7,-1.579,7.822,5.036,-5.266,-8.388,24,5.044,5.283,4.506,5.018,1.434,1.588,1.679,1.406,24,5.157,4.916,-20,219.308900033,norm,0,64,64,64,447.988,447.995,447.997569475,447.998,448.002,448.007,down,1,0.921479813571,9.07852018643,001,007,800_600,Intel(R) Core(TM) i7-2670QM CPU @ 2.20GHz,orientation_search,GRVLAPTOP3,Intel(R) HD Graphics Family,2018_jun_07_1053,testMonitor,
60.0,71.4,56.4,48.6,36,60,69.5,54.9,34.0,48.6,8.446,8.327,7.845,7.522,8.209,8.211,8.22,4.423,-4.883,-8.126,2.032,-1.16,8.392,4.339,-4.553,-7.572,61.9,59.2,-7.7,57.4,,66.3,45.3,60.9,36,44.5,5,5,prime,10,0,111,norm,36,-5.202,down,norm,51.3610019312,60.3,54.6,1.455,60.1,0,31.4,50.3,51.9,10,6,7.709,4.886,1.926,-1.182,-4.536,-8.06,37.4,6,162.4,-7.998,-8.394,60,-8.099,-7.92,-4.674,-4.709,-4.708,-4.582,5.067,7.631,30,-1.224,1.357,4.987,7.613,-7.866,-7.678,-2.01,1.885,54.6,49.9,41.5,49.7,54.3,58.8,60.8,43.6,40.3,44.7,3,norm,1.387,1.528,-1.2,-1.47,-4.807,-5.017,-1.119,-2.011,-1.187,-1.88,1.68,-1.738,59.0,47.6,-5.28,-7.774,59.1,-1.687,8.101,4.537,-4.664,-8.498,24,4.628,4.352,4.388,4.561,1.252,1.28,1.283,1.961,24,4.303,4.648,-20,219.308900033,norm,0,65,65,65,448.94,448.948,448.950281413,448.951,448.955,448.96,down,1,0.928647643044,9.07135235696,001,007,800_600,Intel(R) Core(TM) i7-2670QM CPU @ 2.20GHz,orientation_search,GRVLAPTOP3,Intel(R) HD Graphics Family,2018_jun_07_1053,testMonitor,
36.7,46.8,56.0,50.3,36,60,52.1,53.2,50.9,56.4,7.595,7.679,8.316,8.062,7.553,7.67,7.544,5.056,-4.78,-7.89,1.259,-1.544,7.988,5.156,-4.797,-8.33,49.6,44.1,-7.669,52.9,49.3,31.4,46.8,38.8,36,52.8,1,5,prime,10,0,79,norm,36,-5.213,down,norm,51.3610019312,43.8,46.4,1.478,34.6,0,62.5,45.2,50.1,10,6,7.665,5.045,1.137,-1.56,-5.295,-7.807,46.5,6,130.4,-8.257,-8.435,60,-8.161,-8.134,-4.975,-5.2,-4.456,-4.462,4.718,7.63,6,-1.271,1.531,4.507,8.372,-8.215,-7.522,-1.566,1.531,46.4,47.6,45.4,59.5,46.0,48.2,52.6,,59.8,66.6,4,norm,1.852,1.245,-1.549,-2.03,-5.116,-5.221,-1.365,-1.698,-1.65,-1.68,2.036,-1.208,37.4,47.1,-4.769,-8.316,71.4,-1.197,8.385,5.267,-4.387,-8.169,24,4.587,4.603,4.316,5.137,1.139,1.191,1.885,1.352,24,4.589,4.722,-20,219.308900033,norm,0,66,66,66,449.899,449.907,449.908851826,449.909,449.913,449.918,down,1,0.747415028533,9.25258497147,001,007,800_600,Intel(R) Core(TM) i7-2670QM CPU @ 2.20GHz,orientation_search,GRVLAPTOP3,Intel(R) HD Graphics Family,2018_jun_07_1053,testMonitor,
55.3,65.0,71.4,40.2,36,60,37.0,31.4,57.3,55.0,8.027,8.309,7.583,8.284,8.004,8.279,7.83,5.079,-5.228,-7.516,1.929,-1.136,8.457,4.481,-4.318,-8.325,41.1,65.5,-8.072,42.1,61.9,36.1,48.4,52.2,36,66.7,3,5,prime,10,0,111,norm,36,-5.251,down,norm,51.3610019312,35.8,42.3,1.264,48.4,1,42.2,61.0,51.9,10,6,8.219,4.451,1.322,-1.724,-4.504,-8.489,65.0,6,162.4,-8.409,-7.928,60,-7.903,-7.934,-5.248,-5.194,-4.836,-5.214,4.833,8.031,19,-1.73,1.406,4.956,8.123,-8.47,-8.0,-1.604,2.035,49.3,56.8,56.2,61.6,43.2,52.2,60.5,54.2,39.1,69.8,5,norm,2.071,1.323,-1.466,-1.513,-5.24,-4.395,-1.111,-1.63,-1.752,-1.437,1.148,-1.998,,56.6,-4.959,-8.138,47.4,-1.271,8.238,4.564,-4.393,-8.038,24,4.602,4.668,4.755,4.748,1.356,1.225,1.528,1.887,24,4.363,4.978,-20,219.308900033,norm,0,67,67,67,450.676,450.684,450.686169545,450.687,450.691,450.696,down,1,0.854871298937,9.14512870106,001,007,800_600,Intel(R) Core(TM) i7-2670QM CPU @ 2.20GHz,orientation_search,GRVLAPTOP3,Intel(R) HD Graphics Family,2018_jun_07_1053,testMonitor,
179.5,181.9,182.2,173.0,36,20,,177.8,185.9,175.0,7.821,7.972,7.909,7.916,8.416,8.426,7.97,4.538,-4.64,-7.656,2.083,-1.868,7.912,4.377,-4.508,-7.742,179.4,188.8,-8.159,188.8,169.9,170.3,172.9,176.8,36,180.4,4,5,probe,5,0,70,norm,36,-5.171,down,norm,179.855372627,182.4,179.9,1.935,176.4,0,184.2,174.5,189.9,10,6,8.135,5.199,1.811,-2.038,-4.914,-7.66,182.4,1,109.9,-7.764,-7.661,60,-7.936,-7.703,-4.321,-5.258,-5.299,-4.32,4.301,7.664,24,-1.286,1.538,5.15,7.595,-8.054,-8.032,-2.059,1.132,179.9,184.7,174.1,176.0,181.1,178.5,174.5,181.4,183.3,181.4,0,norm,1.424,1.942,-1.252,-1.947,-5.134,-4.747,-1.137,-1.183,-1.415,-2.017,1.852,-1.854,185.4,181.0,-4.391,-7.734,179.1,-1.729,7.534,4.569,-4.467,-8.374,25,5.021,4.918,5.037,4.394,1.933,1.965,2.087,1.395,25,5.096,5.119,60,51.3610019312,norm,0,68,68,68,451.562,451.572,451.574193106,451.575,451.579,451.584,down,1,0.934419263391,9.06558073661,001,007,800_600,Intel(R) Core(TM) i7-2670QM CPU @ 2.20GHz,orientation_search,GRVLAPTOP3,Intel(R) HD Graphics Family,2018_jun_07_1053,testMonitor,
301.8,302.2,290.6,309.1,36,0,308.6,300.2,290.2,318.1,8.007,8.073,8.001,8.192,7.677,8.217,8.037,4.319,-5.262,-7.803,2.054,-1.432,8.446,4.847,-4.308,-7.513,,287.2,-8.159,292.6,301.0,296.7,287.3,297.9,36,298.9,5,5,prime,10,0,93,norm,36,-4.363,up,norm,298.066884302,295.3,303.5,1.638,302.5,5,289.9,292.5,302.9,10,3,8.043,4.988,1.129,-1.283,-5.154,-8.085,304.8,3,391.1,-7.549,-8.058,0,-8.101,-8.194,-4.585,-5.286,-4.947,-5.129,4.877,7.829,35,-2.084,1.277,4.793,7.742,-7.963,-7.891,-1.616,1.64,317.5,302.6,305.7,291.0,308.4,278.1,305.3,316.3,292.9,312.7,0,norm,1.356,1.251,-2.088,-2.041,-4.578,-4.391,-1.474,-1.656,-1.545,-1.889,1.958,-1.17,279.9,309.8,-4.73,-8.141,308.3,-1.54,7.898,4.367,-5.224,-8.218,26,4.67,4.965,5.265,4.346,1.209,1.123,1.774,1.706,26,4.845,4.538,20,51.3610019312,norm,0,69,69,69,452.529,452.536,452.538310998,452.539,452.543,452.548,up,1,2.23981362709,7.76018637291,001,007,800_600,Intel(R) Core(TM) i7-2670QM CPU @ 2.20GHz,orientation_search,GRVLAPTOP3,Intel(R) HD Graphics Family,2018_jun_07_1053,testMonitor,
295.1,283.2,311.9,298.4,36,0,294.6,305.3,282.7,304.9,8.42,7.79,7.928,8.453,8.247,7.82,8.083,5.156,-5.067,-7.619,1.428,-1.874,7.851,5.152,-5.035,-7.887,292.8,306.8,-8.42,295.9,308.1,290.1,304.5,290.9,36,292.4,0,5,prime,10,0,109,norm,36,-4.753,down,norm,298.066884302,305.1,291.2,2.082,312.8,1,287.4,303.9,304.8,10,3,7.729,4.485,1.871,-2.037,-5.154,-8.495,286.1,3,407.1,-7.755,-7.969,0,-7.929,-7.663,-4.458,-4.615,-5.111,-4.715,4.754,7.624,1,-1.399,1.711,4.373,8.378,-8.13,-7.584,-1.992,1.215,294.1,281.1,295.4,302.3,,295.1,278.1,286.7,300.4,301.3,1,norm,1.287,2.053,-1.189,-1.55,-4.492,-4.336,-1.828,-1.164,-1.136,-1.719,1.137,-1.994,298.0,293.9,-4.842,-8.184,318.1,-1.141,7.879,4.806,-4.705,-7.787,26,5.13,4.734,4.446,4.889,1.142,1.598,1.956,1.693,26,4.881,4.979,20,51.3610019312,norm,0,70,70,70,454.798,454.806,454.808036654,454.809,454.812,454.817,down,1,0.918217633981,9.08178236602,001,007,800_600,Intel(R) Core(TM) i7-2670QM CPU @ 2.20GHz,orientation_search,GRVLAPTOP3,Intel(R) HD Graphics Family,2018_jun_07_1053,testMonitor,
294.5,299.1,298.9,306.7,36,0,290.3,318.1,291.7,309.2,8.204,8.221,8.072,7.836,8.062,8.419,7.686,4.587,-4.481,-7.816,1.106,-1.378,8.354,5.072,-4.515,-7.846,294.3,283.8,-8.297,311.8,309.1,288.3,,305.4,36,299.6,5,5,prime,10,0,93,norm,36,-4.784,down,norm,298.066884302,300.4,283.6,1.52,278.1,2,292.8,288.8,314.6,10,3,7.73,4.517,2.053,-1.285,-4.379,-8.372,308.8,3,391.1,-8.308,-8.304,0,-8.148,-8.41,-5.051,-4.366,-4.427,-5.109,5.29,8.396,32,-1.761,1.658,5.053,7.743,-7.66,-8.078,-1.309,1.942,294.9,300.4,297.2,290.9,293.7,313.8,309.3,302.0,286.8,285.6,2,norm,1.762,1.862,-1.696,-1.591,-4.332,-4.518,-1.691,-1.966,-1.598,-1.722,1.918,-2.052,282.1,309.0,-5.034,-7.505,307.0,-2.006,7.832,4.598,-4.39,-8.0,26,4.56,4.479,4.422,4.902,1.289,1.911,2.029,1.46,26,4.856,5.145,20,51.3610019312,norm,0,71,71,71,455.747,455.755,455.757219312,455.758,455.762,455.767,down,1,1.02218384852,8.97781615148,001,007,800_600,Intel(R) Core(TM) i7-2670QM CPU @ 2.20GHz,orientation_search,GRVLAPTOP3,Intel(R) HD Graphics Family,2018_jun_07_1053,testMonitor,
396.2,398.9,404.0,390.9,36,-20,403.3,407.8,396.5,399.8,8.465,8.233,8.24,7.785,8.238,8.251,8.39,5.018,-4.882,-7.724,1.32,-1.522,8.462,5.219,-5.026,-7.925,401.8,404.1,-7.564,403.1,390.5,400.1,404.4,401.0,36,396.4,1,5,probe,5,0,98,norm,36,-4.347,down,norm,400.54314736,399.1,405.5,1.203,401.4,1,401.5,404.9,400.3,10,3,8.301,4.953,1.572,-1.371,-5.232,-7.551,403.0,2,302.5,-7.905,-8.083,0,-8.214,-8.417,-4.522,-5.015,-4.332,-5.029,4.416,7.548,7,-1.151,1.139,4.887,8.2,-7.872,-7.722,-1.574,1.219,407.4,405.7,401.7,410.5,400.3,395.2,,403.7,403.7,399.8,0,norm,1.627,1.427,-1.322,-1.841,-4.517,-5.163,-1.451,-1.798,-1.551,-1.289,1.859,-1.914,400.2,401.9,-4.354,-8.311,402.3,-1.123,7.973,4.309,-5.222,-7.591,27,5.041,4.419,4.57,4.59,1.898,1.718,1.513,1.835,27,5.298,4.604,0,298.066884302,norm,0,72,72,72,456.8,456.808,456.809795224,456.81,456.814,456.819,down,1,1.16860229193,8.83139770807,001,007,800_600,Intel(R) Core(TM) i7-2670QM CPU @ 2.20GHz,orientation_search,GRVLAPTOP3,Intel(R) HD Graphics Family,2018_jun_07_1053,testMonitor,
380.4,392.5,384.2,375.8,36,-20,374.9,388.9,390.0,391.7,8.235,7.924,8.411,8.115,7.855,7.844,8.471,4.61,-5.103,-7.553,1.331,-1.493,8.258,4.911,-5.287,-7.959,377.3,384.4,-8.466,386.7,372.5,386.2,390.4,382.4,36,380.1,0,5,probe,5,0,80,norm,36,-4.816,up,norm,382.54314736,389.2,385.3,1.285,379.6,3,382.1,385.7,378.4,10,3,8.337,4.779,2.006,-1.713,-5.225,-8.338,375.6,2,302.5,-7.811,-8.445,0,-7.799,-7.677,-5.15,-4.955,-4.529,-4.48,5.058,8.072,3,-1.71,1.968,4.802,7.548,-8.461,-8.295,-2.09,1.804,389.7,379.5,,389.6,388.3,377.9,376.0,389.9,389.7,390.3,1,norm,1.487,2.085,-1.908,-1.262,-4.976,-4.99,-1.785,-1.968,-1.946,-1.737,1.974,-2.042,381.5,377.4,-4.94,-7.683,385.9,-1.815,8.127,5.024,-4.44,-7.764,27,5.014,4.542,5.045,4.594,1.369,1.272,1.603,1.154,27,5.093,4.535,0,298.066884302,norm,0,73,73,73,457.999,458.006,458.008465977,458.009,458.013,458.018,down,0,0.945569791077,-10,001,007,800_600,Intel(R) Core(TM) i7-2670QM CPU @ 2.20GHz,orientation_search,GRVLAPTOP3,Intel(R) HD Graphics Family,2018_jun_07_1053,testMonitor,
208.3,213.2,220.6,238.5,36,10,210.4,212.5,224.0,208.7,7.634,7.647,7.835,8.472,7.885,8.125,7.718,5.079,-4.666,-7.953,1.411,-2.05,8.149,4.491,-4.64,-7.832,221.7,220.7,-7.865,218.7,236.4,240.5,217.8,214.6,36,221.2,0,5,prime,10,0,110,norm,36,-5.298,up,norm,220.484488473,213.8,218.9,1.967,220.3,5,226.0,211.6,200.5,10,6,8.244,5.09,1.239,-1.629,-5.16,-8.086,216.6,6,330.5,-8.29,-8.454,10,-8.248,-7.738,-5.103,-4.419,-5.293,-4.554,5.27,7.843,5,-2.048,1.188,5.138,8.016,-7.868,-8.05,-1.945,1.786,227.9,212.5,205.1,219.0,204.7,229.1,239.9,223.9,,231.7,0,norm,1.71,1.124,-1.773,-1.611,-4.836,-4.592,-1.523,-1.97,-1.659,-1.998,1.562,-1.218,240.0,233.6,-4.804,-7.981,222.2,-1.434,7.559,4.561,-4.84,-8.411,28,5.239,5.126,5.206,4.74,1.97,1.607,1.739,1.926,28,4.402,4.743,-20,298.066884302,norm,0,74,74,74,459.98,459.988,459.989763312,459.99,459.994,459.999,up,1,1.63319531565,8.36680468435,001,007,800_600,Intel(R) Core(TM) i7-2670QM CPU @ 2.20GHz,orientation_search,GRVLAPTOP3,Intel(R) HD Graphics Family,2018_jun_07_1053,testMonitor,
214.7,229.4,222.2,232.6,36,10,218.2,223.2,214.7,210.7,8.424,7.657,8.355,8.311,8.219,7.667,7.572,4.661,-4.812,-8.495,1.374,-1.429,7.709,4.366,-4.611,-7.908,226.3,209.3,-8.326,215.0,224.5,211.6,229.2,223.6,36,223.7,1,5,prime,10,0,60,norm,36,-4.794,down,norm,220.484488473,227.6,231.3,1.484,226.7,1,206.2,211.0,213.7,10,6,7.86,5.149,1.725,-1.58,-4.545,-8.198,212.5,6,280.5,-8.389,-7.531,10,-7.529,-7.905,-4.674,-4.377,-4.501,-5.152,4.3,8.245,7,-1.648,2.044,4.497,8.225,-8.144,-7.839,-2.001,1.789,211.9,216.6,200.5,228.9,221.2,234.4,,240.5,215.4,226.1,1,norm,2.078,1.328,-1.484,-2.039,-5.188,-5.192,-1.968,-1.944,-1.76,-1.861,1.801,-1.47,231.6,221.7,-4.926,-8.12,233.5,-1.378,8.416,4.918,-4.561,-7.855,28,4.763,5.103,4.707,4.418,1.406,1.277,1.194,1.702,28,4.497,4.499,-20,298.066884302,norm,0,75,75,75,461.643,461.651,461.653214807,461.654,461.658,461.663,down,1,0.890404587785,9.10959541221,001,007,800_600,Intel(R) Core(TM) i7-2670QM CPU @ 2.20GHz,orientation_search,GRVLAPTOP3,Intel(R) HD Graphics Family,2018_jun_07_1053,testMonitor,
217.0,218.6,223.2,209.6,36,10,232.9,221.6,233.1,218.4,7.516,7.813,7.957,7.723,8.177,7.775,8.312,4.761,-5.084,-8.048,1.801,-2.097,7.729,5.248,-4.832,-7.587,225.6,221.5,-8.322,216.6,240.5,219.9,200.5,223.2,36,239.5,0,5,prime,10,0,109,norm,36,-4.605,up,norm,220.484488473,206.4,211.9,1.93,222.5,4,229.4,212.8,218.8,10,6,7.702,5.117,1.927,-1.717,-4.994,-7.773,213.8,6,329.5,-8.186,-8.063,10,-8.21,-8.306,-4.574,-4.498,-4.374,-4.977,4.878,7.905,4,-1.782,1.559,5.242,7.913,-7.854,-8.378,-1.852,1.706,219.0,211.2,226.5,228.6,205.4,219.1,210.3,212.8,225.7,,2,norm,1.586,1.175,-1.504,-1.561,-4.59,-5.254,-1.708,-1.143,-1.344,-1.977,1.241,-1.967,211.3,221.5,-4.403,-8.018,229.3,-1.255,7.866,5.251,-4.426,-8.273,28,5.115,4.365,4.613,4.987,1.588,1.603,1.984,1.472,28,4.935,4.886,-20,298.066884302,norm,0,76,76,76,462.564,462.571,462.573333433,462.574,462.578,462.583,up,1,1.06760453941,8.93239546059,001,007,800_600,Intel(R) Core(TM) i7-2670QM CPU @ 2.20GHz,orientation_search,GRVLAPTOP3,Intel(R) HD Graphics Family,2018_jun_07_1053,testMonitor,
229.5,221.6,217.7,212.4,36,10,232.5,221.5,240.5,217.0,7.908,7.503,7.915,7.545,8.322,8.289,7.949,5.003,-5.027,-7.9,1.351,-1.896,7.805,4.922,-4.739,-8.228,230.3,231.0,-8.325,207.0,221.2,219.2,211.2,226.9,36,215.2,1,5,prime,10,0,96,norm,36,-4.301,up,norm,220.484488473,230.8,228.3,1.783,220.5,3,213.6,218.4,210.8,10,6,7.725,4.322,1.9,-1.343,-4.749,-8.165,221.4,6,316.5,-8.173,-8.37,10,-7.884,-7.869,-4.444,-4.614,-4.831,-4.819,4.75,7.78,9,-1.624,1.183,4.441,8.134,-7.754,-8.144,-1.428,1.372,,228.2,217.0,210.8,236.7,208.2,235.4,200.5,228.0,228.4,3,norm,1.198,1.84,-1.806,-1.739,-4.717,-4.607,-2.06,-1.786,-1.745,-1.862,1.499,-2.076,201.4,217.9,-5.251,-8.068,226.0,-1.862,7.828,5.141,-4.443,-8.472,28,5.02,4.532,5.178,4.481,1.665,1.201,1.143,1.175,28,4.967,5.041,-20,298.066884302,norm,0,77,77,77,463.662,463.669,463.671577992,463.672,463.676,463.681,down,0,0.726092253467,-10,001,007,800_600,Intel(R) Core(TM) i7-2670QM CPU @ 2.20GHz,orientation_search,GRVLAPTOP3,Intel(R) HD Graphics Family,2018_jun_07_1053,testMonitor,
231.7,213.0,225.5,226.2,36,10,214.1,226.8,218.4,211.7,8.028,8.056,7.917,7.692,7.879,8.497,7.881,4.75,-4.374,-8.112,1.965,-1.805,8.485,4.948,-5.257,-8.48,228.2,213.1,-8.383,222.5,234.2,218.7,214.9,215.8,36,223.8,0,5,prime,10,0,75,norm,36,-4.362,up,norm,220.484488473,217.5,209.0,1.676,200.5,4,229.7,209.2,219.2,10,6,8.133,4.747,2.037,-1.203,-4.48,-7.657,233.2,6,295.5,-7.696,-7.667,10,-7.877,-8.408,-4.429,-4.425,-4.769,-5.299,4.688,8.161,4,-1.938,1.259,4.97,8.158,-8.0,-8.257,-2.044,1.175,225.5,219.3,237.6,221.4,229.0,213.9,214.0,235.3,240.5,,4,norm,1.98,1.235,-1.985,-1.943,-4.304,-4.592,-2.081,-1.18,-1.959,-1.944,2.056,-1.212,227.8,226.3,-4.981,-7.694,220.5,-1.593,7.853,4.403,-4.333,-7.721,28,4.742,4.961,4.601,4.443,1.738,1.662,2.033,1.832,28,5.044,5.195,-20,298.066884302,norm,0,78,78,78,465.424,465.432,465.434098229,465.435,465.438,465.444,up,1,0.818006708341,9.18199329166,001,007,800_600,Intel(R) Core(TM) i7-2670QM CPU @ 2.20GHz,orientation_search,GRVLAPTOP3,Intel(R) HD Graphics Family,2018_jun_07_1053,testMonitor,
236.9,219.5,218.9,218.3,36,10,209.6,226.0,237.6,218.2,7.624,7.571,8.036,8.356,8.09,7.96,8.364,4.752,-5.123,-7.946,1.613,-1.394,7.828,4.349,-4.391,-8.386,222.7,229.5,-8.454,221.5,235.0,234.4,,200.5,36,232.2,5,5,prime,10,0,105,norm,36,-4.719,down,norm,220.484488473,240.5,210.6,1.688,219.9,2,226.3,221.7,211.5,10,6,8.044,4.463,1.551,-1.113,-5.086,-8.043,221.4,6,325.5,-8.472,-7.931,10,-8.146,-8.243,-4.828,-4.972,-5.214,-4.628,5.258,8.428,32,-1.44,1.14,4.577,8.223,-7.84,-8.115,-1.385,1.666,216.0,214.8,233.2,219.1,215.0,211.5,216.7,214.6,230.7,216.6,5,norm,1.641,1.835,-1.111,-1.37,-4.452,-4.849,-2.015,-1.565,-1.519,-1.543,1.451,-1.424,224.2,207.7,-5.015,-8.258,223.4,-1.899,8.353,5.274,-4.401,-7.953,28,5.002,4.87,4.934,4.56,1.714,1.396,1.313,1.199,28,4.697,5.289,-20,298.066884302,norm,0,79,79,79,466.273,466.28,466.282074869,466.282,466.286,466.291,down,1,1.30094330504,8.69905669496,001,007,800_600,Intel(R) Core(TM) i7-2670QM CPU @ 2.20GHz,orientation_search,GRVLAPTOP3,Intel(R) HD Graphics Family,2018_jun_07_1053,testMonitor,
326.5,335.5,326.1,328.2,36,-60,331.2,328.6,340.8,327.3,7.705,7.934,8.126,7.842,8.473,7.726,8.137,4.802,-4.43,-7.998,1.221,-1.474,8.032,4.955,-4.811,-7.716,333.4,324.6,-7.604,,337.1,331.8,333.8,326.3,36,324.5,5,5,probe,5,0,98,norm,36,-4.609,down,norm,330.752519522,338.7,324.0,1.559,320.8,1,330.4,332.2,333.1,10,6,7.618,5.173,1.334,-1.448,-4.315,-8.189,334.5,1,232.8,-7.934,-8.272,10,-7.847,-7.899,-4.879,-4.349,-4.849,-4.926,4.504,7.585,31,-1.582,1.431,4.966,7.576,-7.971,-7.829,-1.659,1.202,325.2,335.4,331.9,334.1,329.9,333.4,326.4,327.2,333.7,337.9,0,norm,2.037,1.71,-1.982,-2.089,-4.427,-4.826,-1.244,-1.963,-1.623,-1.996,1.227,-2.03,333.6,332.9,-4.832,-8.257,330.4,-1.297,8.278,5.147,-5.298,-8.105,29,5.221,5.235,4.315,4.478,1.63,1.97,2.087,1.551,29,4.688,4.577,10,220.484488473,norm,0,80,80,80,467.603,467.611,467.612967094,467.614,467.617,467.622,down,1,1.05440032351,8.94559967649,001,007,800_600,Intel(R) Core(TM) i7-2670QM CPU @ 2.20GHz,orientation_search,GRVLAPTOP3,Intel(R) HD Graphics Family,2018_jun_07_1053,testMonitor,
271.9,272.2,279.2,269.6,36,10,275.4,279.6,256.9,,7.854,7.529,8.133,7.83,8.334,7.64,7.652,4.881,-5.107,-8.399,1.149,-1.705,8.001,5.216,-4.962,-7.914,274.5,259.5,-8.226,280.5,271.0,274.1,253.3,267.4,36,271.2,4,5,prime,10,0,101,norm,36,-5.243,up,norm,269.561886599,277.3,282.9,1.102,256.7,5,272.2,268.1,264.3,10,3,8.213,5.049,2.039,-1.713,-5.219,-7.954,277.5,3,370.6,-7.871,-8.333,10,-8.221,-7.926,-4.796,-4.919,-4.784,-4.89,4.525,8.495,29,-1.93,1.893,5.063,8.1,-8.089,-8.432,-1.749,1.139,267.3,274.4,289.6,278.0,260.6,255.3,249.6,261.0,261.8,258.3,0,norm,1.899,1.788,-1.568,-1.906,-5.154,-4.638,-1.487,-1.883,-1.583,-1.475,1.283,-1.627,271.0,274.4,-4.994,-8.232,268.4,-1.471,8.087,4.304,-4.696,-7.636,30,4.475,5.12,4.914,4.312,1.454,1.114,1.236,1.228,30,4.329,4.314,-60,220.484488473,norm,0,81,81,81,468.688,468.695,468.696980593,468.697,468.701,468.707,up,1,1.44268187959,8.55731812041,001,007,800_600,Intel(R) Core(TM) i7-2670QM CPU @ 2.20GHz,orientation_search,GRVLAPTOP3,Intel(R) HD Graphics Family,2018_jun_07_1053,testMonitor,
283.6,289.6,,258.2,36,10,270.4,281.3,277.4,284.5,7.886,8.074,7.931,8.418,8.012,7.589,7.823,5.068,-5.096,-7.783,1.595,-2.085,7.788,5.247,-4.386,-8.447,278.4,256.3,-7.533,283.4,275.2,259.7,265.6,280.7,36,281.4,3,5,prime,10,0,96,norm,36,-5.171,down,norm,269.561886599,264.3,260.3,1.612,275.7,2,289.3,275.6,282.8,10,3,8.409,4.463,1.743,-1.557,-5.124,-8.241,268.2,3,365.6,-8.196,-8.184,10,-7.745,-8.425,-4.901,-5.218,-4.889,-5.128,5.012,7.506,20,-1.537,1.787,4.637,8.115,-8.211,-8.312,-1.73,1.1,255.3,255.7,267.6,249.6,268.2,270.3,278.0,256.3,277.2,268.7,1,norm,1.114,1.398,-1.536,-1.51,-5.28,-4.917,-1.391,-1.701,-1.359,-1.661,1.451,-2.067,278.8,273.6,-4.953,-7.857,273.5,-1.449,7.961,4.943,-4.353,-8.018,30,5.156,5.291,4.713,5.241,1.878,1.719,1.839,2.06,30,4.722,4.456,-60,220.484488473,norm,0,82,82,82,470.161,470.168,470.170365998,470.171,470.175,470.18,down,1,1.04323765487,8.95676234513,001,007,800_600,Intel(R) Core(TM) i7-2670QM CPU @ 2.20GHz,orientation_search,GRVLAPTOP3,Intel(R) HD Graphics Family,2018_jun_07_1053,testMonitor,
265.2,277.0,276.2,252.9,36,10,267.9,283.3,272.6,286.3,8.155,8.277,7.857,7.806,7.88,8.169,7.774,4.716,-4.922,-7.858,1.296,-1.131,8.326,4.451,-4.537,-8.048,271.8,271.5,-7.969,289.6,263.1,259.6,285.1,255.2,36,267.5,1,5,prime,10,0,92,norm,36,-4.64,down,norm,269.561886599,275.5,270.9,1.477,249.6,1,280.0,263.4,270.7,10,3,7.705,5.244,2.079,-1.215,-5.188,-7.882,253.3,3,361.6,-8.16,-7.672,10,-8.144,-8.323,-4.821,-5.252,-4.945,-4.588,4.843,8.26,7,-1.369,1.135,4.373,8.435,-8.301,-7.95,-1.663,1.624,272.3,276.8,256.0,272.4,278.4,270.9,,287.0,282.7,256.8,2,norm,1.168,1.781,-1.553,-1.973,-4.531,-4.751,-1.95,-1.748,-1.177,-1.975,2.067,-1.557,281.3,265.3,-5.249,-7.504,264.8,-1.816,8.288,4.559,-4.901,-7.874,30,4.487,4.933,4.58,4.433,1.325,1.139,1.312,1.362,30,5.195,4.748,-60,220.484488473,norm,0,83,83,83,471.234,471.242,471.24377251,471.244,471.249,471.254,down,1,1.0666874308,8.9333125692,001,007,800_600,Intel(R) Core(TM) i7-2670QM CPU @ 2.20GHz,orientation_search,GRVLAPTOP3,Intel(R) HD Graphics Family,2018_jun_07_1053,testMonitor,
389.4,385.5,383.3,380.8,36,-60,379.2,388.7,377.7,382.0,7.766,7.959,8.112,7.766,8.032,8.354,8.129,5.237,-5.062,-7.622,1.189,-1.953,7.842,4.612,-4.509,-8.258,,378.6,-8.105,379.9,388.6,382.4,381.5,383.6,36,382.2,5,5,probe,5,0,101,norm,36,-5.3,up,norm,382.461076359,392.5,379.5,2.05,385.9,5,386.6,384.6,372.5,10,3,8.0,4.362,1.924,-2.063,-4.445,-7.648,378.9,2,281.5,-8.077,-8.23,10,-7.568,-7.911,-4.662,-5.284,-4.719,-4.958,4.54,8.149,35,-1.971,1.205,4.867,8.486,-8.072,-7.721,-1.249,1.954,388.8,390.4,384.0,379.1,381.6,384.9,385.6,380.6,388.1,382.3,0,norm,1.656,1.502,-1.905,-1.738,-4.728,-4.408,-1.13,-1.807,-1.542,-2.061,1.442,-1.21,379.8,388.5,-4.59,-7.918,381.0,-1.634,7.579,5.128,-4.389,-8.119,31,4.941,4.88,5.086,4.451,1.589,1.193,1.216,1.906,31,5.077,5.236,10,269.561886599,norm,0,84,84,84,472.331,472.338,472.3408436,472.341,472.345,472.35,up,1,1.25338487322,8.74661512678,001,007,800_600,Intel(R) Core(TM) i7-2670QM CPU @ 2.20GHz,orientation_search,GRVLAPTOP3,Intel(R) HD Graphics Family,2018_jun_07_1053,testMonitor,
403.9,399.8,396.7,393.4,36,-60,390.3,394.2,401.4,395.0,7.658,7.725,8.179,8.441,7.552,8.16,7.62,5.202,-4.824,-8.226,1.935,-1.245,7.992,4.632,-4.56,-7.983,396.9,394.5,-7.544,397.6,398.2,398.2,386.5,401.6,36,391.8,2,5,probe,5,0,115,norm,36,-4.571,down,norm,396.461076359,391.3,397.7,1.433,406.5,1,392.3,,395.5,10,3,8.382,4.671,1.452,-1.635,-4.486,-7.692,397.5,2,281.5,-8.188,-8.439,10,-8.272,-8.305,-4.311,-5.277,-4.791,-4.934,4.31,7.683,13,-1.326,1.226,5.194,7.725,-8.464,-7.754,-1.189,1.273,394.4,393.4,395.8,394.6,402.6,390.1,391.5,398.3,394.8,401.5,1,norm,1.952,1.282,-1.195,-1.233,-4.541,-5.249,-1.732,-1.14,-1.258,-1.9,1.488,-1.304,406.2,399.5,-5.067,-8.478,388.9,-1.317,8.397,5.081,-4.406,-7.859,31,4.759,4.831,4.593,4.833,1.542,1.124,1.87,1.951,31,5.21,4.712,10,269.561886599,norm,0,85,85,85,473.614,473.622,473.623962124,473.625,473.628,473.633,down,1,0.774951634662,9.22504836534,001,007,800_600,Intel(R) Core(TM) i7-2670QM CPU @ 2.20GHz,orientation_search,GRVLAPTOP3,Intel(R) HD Graphics Family,2018_jun_07_1053,testMonitor,
187.0,192.7,191.7,204.0,36,-60,187.7,191.6,171.0,179.8,7.831,8.253,7.88,7.972,7.654,8.167,7.69,4.373,-4.58,-8.396,1.453,-1.825,7.782,4.674,-4.328,-7.887,206.7,197.9,-8.285,188.5,179.7,205.6,185.1,185.2,36,191.5,1,5,prime,10,0,111,norm,36,-4.56,down,norm,191.037627783,194.0,200.8,1.247,198.5,0,185.9,180.6,205.6,10,2,7.888,5.009,1.557,-1.541,-5.095,-7.752,184.8,2,302.0,-8.368,-7.6,-60,-7.573,-8.119,-4.751,-4.325,-5.132,-4.75,4.396,7.606,6,-1.991,1.885,5.012,7.846,-8.07,-7.741,-1.293,1.156,176.4,195.9,193.4,192.6,185.7,211.0,196.9,,200.6,185.3,0,norm,1.192,1.891,-1.981,-1.596,-5.038,-5.282,-1.695,-2.046,-1.884,-1.831,1.723,-1.487,186.0,207.6,-4.827,-7.764,193.1,-1.161,7.953,4.998,-4.496,-8.16,32,5.271,5.059,5.248,4.703,1.511,1.439,1.716,1.516,32,5.284,4.763,-60,269.561886599,norm,0,86,86,86,474.419,474.428,474.42968406,474.43,474.434,474.439,down,1,1.00467800102,8.99532199898,001,007,800_600,Intel(R) Core(TM) i7-2670QM CPU @ 2.20GHz,orientation_search,GRVLAPTOP3,Intel(R) HD Graphics Family,2018_jun_07_1053,testMonitor,
198.0,186.3,171.0,192.7,36,-60,201.0,178.3,211.0,179.7,7.718,8.411,8.435,7.951,7.782,8.466,7.806,5.148,-4.701,-7.881,1.301,-1.62,7.645,5.097,-4.361,-8.489,187.0,184.9,-7.894,199.9,203.9,193.1,197.5,190.8,36,183.9,1,5,prime,10,0,93,norm,36,-4.587,up,norm,191.037627783,187.5,179.0,2.02,199.2,4,187.2,185.8,186.9,10,2,7.621,5.065,1.85,-1.209,-5.003,-7.569,,2,284.0,-8.31,-7.665,-60,-7.959,-7.941,-4.532,-4.59,-4.478,-5.224,4.94,8.484,10,-1.593,1.985,5.12,8.033,-8.307,-8.366,-1.827,1.604,183.9,191.0,190.7,179.6,199.5,180.3,186.5,208.0,190.1,178.9,1,norm,1.218,1.353,-1.712,-1.95,-4.765,-5.277,-2.043,-1.248,-1.289,-2.045,1.339,-1.374,185.8,199.7,-4.671,-7.806,191.9,-1.191,7.589,4.602,-5.099,-8.35,32,4.495,5.186,4.504,5.026,1.891,1.393,1.792,1.233,32,5.248,4.557,-60,269.561886599,norm,0,87,87,87,475.454,475.462,475.464055086,475.465,475.468,475.473,up,1,1.54028670384,8.45971329616,001,007,800_600,Intel(R) Core(TM) i7-2670QM CPU @ 2.20GHz,orientation_search,GRVLAPTOP3,Intel(R) HD Graphics Family,2018_jun_07_1053,testMonitor,
,219.1,224.6,219.8,36,20,229.9,220.2,228.6,229.1,8.084,7.946,8.358,7.751,7.649,7.727,7.902,4.519,-5.179,-7.514,1.916,-1.527,8.076,5.094,-4.697,-8.186,226.5,233.3,-8.038,221.7,225.7,226.3,233.2,223.9,36,231.0,3,5,probe,5,0,98,norm,36,-4.988,up,norm,226.566757127,229.1,222.8,1.97,225.1,4,225.3,227.2,216.6,10,2,8.395,4.328,1.129,-2.071,-5.214,-8.234,233.9,2,128.6,-8.239,-7.568,-60,-8.363,-7.692,-4.782,-4.814,-5.051,-4.801,5.131,7.939,22,-1.76,2.072,5.1,7.781,-8.217,-7.945,-1.286,1.645,226.1,225.6,227.4,236.6,225.4,228.3,226.5,229.4,227.6,224.0,0,norm,1.795,1.654,-1.835,-1.216,-4.78,-5.294,-1.647,-1.104,-1.86,-1.228,1.472,-1.317,228.2,232.2,-4.306,-7.664,224.2,-1.604,7.62,5.28,-4.438,-8.075,33,4.839,4.78,4.465,4.304,1.879,1.784,1.332,1.705,33,4.725,4.927,-60,191.037627783,norm,0,88,88,88,477.025,477.033,477.034989748,477.036,477.039,477.044,up,1,0.967081217812,9.03291878219,001,007,800_600,Intel(R) Core(TM) i7-2670QM CPU @ 2.20GHz,orientation_search,GRVLAPTOP3,Intel(R) HD Graphics Family,2018_jun_07_1053,testMonitor,
197.8,198.2,194.5,195.2,36,20,194.8,195.0,190.6,183.3,7.927,7.799,7.656,7.967,7.521,8.196,7.825,4.909,-4.605,-8.283,1.102,-1.943,8.145,4.692,-5.04,-8.27,187.0,194.1,-7.776,191.1,181.6,189.4,188.3,,36,185.1,4,5,probe,5,0,63,norm,36,-4.307,down,norm,191.566757127,191.0,192.4,1.738,186.8,2,185.6,186.6,191.2,10,2,7.891,4.417,1.549,-1.784,-4.865,-8.127,190.2,2,128.6,-7.883,-7.867,-60,-7.814,-7.659,-5.081,-4.862,-4.721,-4.766,5.24,8.446,26,-1.49,1.117,4.603,8.42,-7.697,-8.471,-1.123,2.028,188.8,189.9,194.2,194.0,199.6,192.8,195.1,197.0,201.6,196.6,1,norm,2.099,1.669,-1.907,-1.696,-4.94,-5.034,-1.105,-1.642,-1.847,-1.578,2.091,-1.674,193.8,185.0,-4.999,-8.169,188.3,-1.611,8.311,5.218,-4.7,-8.364,33,4.667,5.11,4.635,4.857,1.109,1.117,1.982,1.415,33,4.416,4.453,-60,191.037627783,norm,0,89,89,89,478.023,478.031,478.032980421,478.033,478.037,478.042,down,1,1.01819601375,8.98180398625,001,007,800_600,Intel(R) Core(TM) i7-2670QM CPU @ 2.20GHz,orientation_search,GRVLAPTOP3,Intel(R) HD Graphics Family,2018_jun_07_1053,testMonitor,
282.5,295.1,278.7,311.4,36,0,289.8,304.6,290.5,296.0,8.325,7.593,8.21,7.764,7.991,8.06,7.636,4.564,-4.393,-7.752,1.489,-1.539,7.711,4.567,-4.791,-8.076,289.7,293.0,-7.723,294.8,284.1,286.7,306.7,287.9,36,285.0,2,5,prime,10,0,86,norm,36,-4.626,up,norm,291.422263475,,271.4,1.872,283.6,5,301.7,279.5,287.9,10,6,7.535,5.229,1.602,-1.536,-4.568,-8.184,296.3,6,377.4,-8.125,-7.64,0,-8.172,-7.738,-4.572,-4.472,-4.864,-4.424,4.968,8.022,17,-2.002,1.246,4.48,8.045,-8.104,-8.208,-1.582,1.913,291.7,305.6,286.2,300.7,297.1,291.5,284.7,285.2,296.7,274.0,0,norm,1.792,2.066,-1.297,-1.864,-4.762,-5.191,-2.015,-1.817,-1.721,-1.56,1.966,-1.841,276.5,300.2,-5.136,-7.756,290.2,-1.933,7.551,5.115,-5.141,-8.174,34,4.608,4.997,4.908,4.952,1.651,1.552,1.655,1.589,34,4.693,4.849,20,191.037627783,norm,0,90,90,90,479.071,479.079,479.080836306,479.081,479.085,479.09,up,1,1.45556902993,8.54443097007,001,007,800_600,Intel(R) Core(TM) i7-2670QM CPU @ 2.20GHz,orientation_search,GRVLAPTOP3,Intel(R) HD Graphics Family,2018_jun_07_1053,testMonitor,
310.0,293.6,271.4,274.6,36,0,305.7,,292.9,297.6,7.623,8.234,7.757,7.909,7.54,7.611,8.052,4.65,-5.066,-7.725,1.656,-1.217,8.043,5.178,-4.435,-8.201,304.2,282.2,-8.242,292.6,281.0,292.8,283.4,278.0,36,289.4,4,5,prime,10,0,65,norm,36,-4.67,down,norm,291.422263475,279.6,295.9,1.377,290.9,1,306.7,287.7,281.2,10,6,7.753,5.222,1.567,-1.707,-4.351,-7.947,287.3,6,356.4,-7.811,-8.452,0,-8.259,-8.231,-5.092,-4.39,-5.29,-4.835,5.138,7.505,25,-1.559,1.511,4.524,8.483,-7.788,-7.763,-1.975,1.846,289.5,292.1,289.7,294.5,288.8,281.1,302.0,279.8,281.5,284.8,1,norm,1.122,2.052,-1.622,-1.557,-5.022,-4.85,-1.794,-1.85,-1.441,-1.372,1.449,-1.133,311.4,292.1,-4.556,-7.907,285.6,-1.565,8.185,5.218,-5.268,-7.561,34,4.407,5.213,4.6,4.67,1.21,1.297,1.764,1.448,34,5.239,4.671,20,191.037627783,norm,0,91,91,91,480.557,480.565,480.566910404,480.567,480.571,480.576,down,1,1.04893269385,8.95106730615,001,007,800_600,Intel(R) Core(TM) i7-2670QM CPU @ 2.20GHz,orientation_search,GRVLAPTOP3,Intel(R) HD Graphics Family,2018_jun_07_1053,testMonitor,
306.8,289.6,289.5,288.0,36,0,,297.9,284.5,306.7,7.766,7.523,7.961,7.515,8.362,8.029,8.323,4.815,-4.58,-7.901,1.976,-1.387,7.644,5.027,-4.39,-7.617,271.4,293.1,-8.304,296.9,273.0,286.2,277.5,297.4,36,294.5,4,5,prime,10,0,61,norm,36,-4.661,down,norm,291.422263475,301.4,306.6,1.645,281.7,0,299.2,297.1,288.7,10,6,8.089,4.524,2.007,-1.252,-4.426,-7.611,274.1,6,352.4,-7.935,-7.841,0,-7.6,-7.582,-4.509,-5.125,-4.449,-4.806,5.084,7.993,24,-1.883,1.199,5.006,7.554,-7.613,-8.371,-2.07,2.049,296.4,287.2,298.4,299.2,284.1,288.5,278.1,297.6,307.2,290.1,2,norm,1.366,1.795,-1.451,-1.855,-4.983,-5.082,-1.301,-1.128,-1.912,-2.092,1.355,-1.838,290.8,311.4,-4.59,-8.445,288.1,-1.834,7.752,4.954,-5.062,-8.377,34,4.44,4.653,4.46,4.881,1.674,1.587,1.331,2.001,34,4.975,4.552,20,191.037627783,norm,0,92,92,92,481.636,481.644,481.645855524,481.646,481.65,481.655,up,0,1.08662707161,-10,001,007,800_600,Intel(R) Core(TM) i7-2670QM CPU @ 2.20GHz,orientation_search,GRVLAPTOP3,Intel(R) HD Graphics Family,2018_jun_07_1053,testMonitor,
,287.2,280.7,293.5,36,0,272.5,286.4,286.1,278.0,8.498,8.326,7.523,7.968,8.495,8.381,7.626,4.842,-4.413,-7.795,1.467,-1.808,7.698,5.036,-5.089,-7.749,291.8,301.2,-8.342,284.4,311.4,297.3,290.0,297.1,36,294.8,3,5,prime,10,0,114,norm,36,-4.905,up,norm,291.422263475,307.6,302.3,1.572,294.7,4,296.2,276.8,287.1,10,6,8.321,4.806,1.664,-1.431,-4.782,-8.199,288.4,6,405.4,-8.372,-8.354,0,-8.227,-8.499,-4.423,-5.083,-4.49,-4.875,4.364,8.005,22,-1.214,2.065,4.39,7.892,-8.097,-7.868,-2.081,1.877,271.4,293.5,294.5,282.3,301.9,301.6,286.1,303.3,293.0,285.9,3,norm,1.464,2.09,-1.255,-1.241,-4.477,-5.068,-1.801,-1.184,-1.755,-1.778,2.069,-1.886,303.3,278.4,-4.461,-8.134,276.3,-1.366,8.055,4.754,-4.831,-8.044,34,4.882,4.898,4.779,5.074,2.06,2.021,1.337,1.362,34,5.131,4.317,20,191.037627783,norm,0,93,93,93,483.754,483.761,483.76365775,483.764,483.768,483.773,up,1,1.42833548057,8.57166451943,001,007,800_600,Intel(R) Core(TM) i7-2670QM CPU @ 2.20GHz,orientation_search,GRVLAPTOP3,Intel(R) HD Graphics Family,2018_jun_07_1053,testMonitor,
296.8,291.3,305.7,285.5,36,0,285.0,,297.2,285.0,7.764,7.597,7.621,8.321,8.341,7.716,8.222,4.805,-4.907,-8.244,1.353,-1.738,8.052,4.313,-4.308,-7.709,271.4,290.5,-8.088,284.4,290.1,288.8,295.7,288.6,36,281.5,4,5,prime,10,0,76,norm,36,-4.992,down,norm,291.422263475,285.8,304.4,1.503,290.0,1,311.4,280.0,298.1,10,6,8.109,5.212,1.149,-1.95,-4.761,-7.99,294.6,6,367.4,-8.419,-8.04,0,-7.983,-7.502,-4.574,-4.72,-5.08,-5.054,4.978,7.833,25,-1.68,1.326,5.166,7.667,-8.381,-7.862,-1.45,1.629,288.6,294.7,295.2,293.1,282.2,293.8,289.8,298.5,295.3,294.7,4,norm,2.03,1.164,-1.773,-1.95,-5.151,-4.357,-1.586,-1.686,-1.674,-1.897,1.629,-1.609,310.4,285.9,-4.546,-8.383,300.9,-1.829,7.647,4.952,-4.954,-8.268,34,4.342,4.528,4.656,4.768,1.679,1.914,1.823,1.241,34,4.783,5.026,20,191.037627783,norm,0,94,94,94,485.212,485.219,485.22178245,485.222,485.226,485.231,down,1,0.84477423205,9.15522576795,001,007,800_600,Intel(R) Core(TM) i7-2670QM CPU @ 2.20GHz,orientation_search,GRVLAPTOP3,Intel(R) HD Graphics Family,2018_jun_07_1053,testMonitor,
282.8,311.4,291.5,308.9,36,0,282.0,287.8,290.5,277.8,7.845,8.498,7.77,7.617,7.864,8.109,8.479,4.963,-4.744,-8.079,1.769,-1.798,8.161,4.925,-4.755,-8.368,,284.1,-7.782,294.4,276.5,309.3,284.2,280.7,36,271.4,5,5,prime,10,0,103,norm,36,-4.55,up,norm,291.422263475,303.5,287.8,1.942,305.1,5,293.9,293.0,279.1,10,6,7.805,4.819,2.005,-1.745,-4.393,-8.19,287.6,6,394.4,-8.466,-8.229,0,-7.602,-8.486,-4.493,-5.273,-4.894,-5.072,4.935,7.959,35,-1.884,1.954,5.091,8.386,-8.242,-7.836,-2.094,1.446,289.1,278.6,285.8,279.1,271.5,284.3,306.2,311.4,302.1,291.8,5,norm,1.355,1.197,-1.682,-1.912,-5.007,-4.895,-1.542,-1.179,-1.413,-1.839,1.781,-2.059,288.8,298.4,-4.962,-8.468,283.4,-1.726,8.289,4.895,-5.001,-7.936,34,4.804,4.316,4.527,4.922,2.03,1.748,1.373,1.526,34,4.929,4.501,20,191.037627783,norm,0,95,95,95,486.087,486.095,486.098844602,486.099,486.103,486.108,up,1,0.887375887982,9.11262411202,001,007,800_600,Intel(R) Core(TM) i7-2670QM CPU @ 2.20GHz,orientation_search,GRVLAPTOP3,Intel(R) HD Graphics Family,2018_jun_07_1053,testMonitor,
