d_ori_22,d_ori_23,d_ori_20,d_ori_21,set_size,ctpd,d_ori_24,d_ori_25,d_ori_28,d_ori_29,stim_pos_x_30,stim_pos_x_31,stim_pos_x_32,stim_pos_x_33,stim_pos_x_34,stim_pos_x_35,stim_pos_y_11,stim_pos_y_10,stim_pos_y_13,stim_pos_y_12,stim_pos_y_15,stim_pos_y_14,stim_pos_y_17,stim_pos_y_16,stim_pos_y_19,stim_pos_y_18,d_ori_35,d_ori_34,stim_pos_x_3,d_ori_31,d_ori_30,d_ori_33,d_ori_32,d_ori_26,test_set_size,d_ori_27,targetCol,dsd_test,seq_type,dsd,blockRepN,targetDist,dtype_test,prime_set_size,stim_pos_y_25,correctResponse,dtype,distrMean,d_ori_17,d_ori_16,stim_pos_y_3,d_ori_14,targetRow,d_ori_11,d_ori_13,d_ori_12,dsd_prime,streak_length_prime,stim_pos_y_35,stim_pos_y_34,stim_pos_y_33,stim_pos_y_32,stim_pos_y_31,stim_pos_y_30,d_ori_10,nextProbe,targetOri,stim_pos_x_1,stim_pos_x_2,ctpd_prime,stim_pos_x_4,stim_pos_x_5,stim_pos_x_6,stim_pos_x_7,stim_pos_x_8,stim_pos_x_9,stim_pos_y_28,stim_pos_y_29,targetPos,stim_pos_y_20,stim_pos_y_21,stim_pos_y_22,stim_pos_y_23,stim_pos_y_24,stim_pos_x_0,stim_pos_y_26,stim_pos_y_27,d_ori_9,d_ori_8,d_ori_3,d_ori_2,d_ori_1,d_ori_0,d_ori_7,d_ori_6,d_ori_5,d_ori_4,trialN,dtype_prime,stim_pos_x_18,stim_pos_x_19,stim_pos_x_12,stim_pos_x_13,stim_pos_x_10,stim_pos_x_11,stim_pos_x_16,stim_pos_x_17,stim_pos_x_14,stim_pos_x_15,stim_pos_y_9,stim_pos_y_8,d_ori_19,d_ori_18,stim_pos_y_1,stim_pos_y_0,d_ori_15,stim_pos_y_2,stim_pos_y_5,stim_pos_y_4,stim_pos_y_7,stim_pos_y_6,totBlockN,stim_pos_x_27,stim_pos_x_26,stim_pos_x_25,stim_pos_x_24,stim_pos_x_23,stim_pos_x_22,stim_pos_x_21,stim_pos_x_20,blockN,stim_pos_x_29,stim_pos_x_28,prevDistrCTPD,prevDistrMean,prevDistrType,trials.thisRepN,trials.thisTrialN,trials.thisN,trials.thisIndex,timeStart,timeBeforeDraw,timeDraw,timeAfterSaving,timeAfterWritingToTemp,timeAfterPreparingNext,answer,correct,rt,trialScore,session,participant,resolution,cpu_info,expName,pc_name,graphic_card,date,monitorName,
172.9,144.9,163.5,145.2,36,40,159.7,121.5,125.6,146.5,8.477,7.56,7.858,8.18,7.548,8.201,7.622,5.275,-5.21,-7.528,2.048,-2.028,7.628,4.915,-5.007,-8.07,125.1,146.0,-7.597,147.6,134.0,132.4,146.1,164.8,36,146.2,2,10,prime,15,0,68,norm,36,-4.304,down,norm,142.871056,149.8,160.7,1.629,,2,127.5,154.2,150.0,15,2,7.87,4.515,1.813,-2.069,-4.974,-8.423,151.3,2,210.9,-8.395,-8.115,40,-7.741,-7.963,-4.571,-5.208,-5.045,-5.045,4.468,7.822,14,-1.557,1.86,4.973,7.987,-8.289,-8.492,-1.745,1.531,121.2,145.5,160.8,122.0,146.8,155.4,112.9,155.6,122.5,119.7,0,norm,1.427,1.268,-1.971,-2.088,-4.713,-4.463,-1.739,-1.387,-1.882,-1.937,1.679,-1.434,145.2,137.6,-4.58,-7.992,147.2,-1.395,8.048,4.654,-4.915,-7.871,0,4.671,4.845,4.929,4.615,1.904,1.482,1.34,1.245,0,4.798,4.718,,,,0,0,0,0,270.516,270.529,270.538496848,270.539,270.539,270.544,down,1,2.57636680235,-6.0,001,003,800_600,Intel(R) Core(TM) i7-2670QM CPU @ 2.20GHz,orientation_search,GRVLAPTOP3,Intel(R) HD Graphics Family,2018_mei_31_1453,testMonitor,
160.3,137.5,148.5,124.1,36,40,130.3,159.7,135.5,141.9,8.365,7.913,8.077,8.119,8.183,8.016,8.376,5.023,-5.097,-7.708,1.87,-2.081,8.284,4.805,-4.6,-7.613,149.8,129.8,-7.65,155.4,135.4,129.9,112.9,148.9,36,164.5,2,10,prime,15,0,116,norm,36,-4.632,down,norm,142.871056,163.0,145.1,1.336,132.0,0,136.2,147.7,,15,2,7.753,4.562,1.933,-1.458,-5.131,-7.827,137.4,2,258.9,-7.533,-7.698,40,-8.404,-8.216,-5.011,-4.417,-5.268,-4.546,4.401,7.908,12,-1.975,1.998,4.93,8.102,-7.746,-7.669,-1.151,1.725,129.3,153.0,172.9,168.7,135.9,142.1,158.9,170.4,125.9,151.4,1,norm,1.428,1.573,-1.198,-2.003,-5.296,-4.618,-1.514,-1.52,-1.436,-1.27,1.998,-1.729,130.7,163.6,-4.751,-8.01,163.1,-1.372,7.887,4.425,-4.652,-8.419,0,4.359,5.079,5.199,4.535,1.327,1.495,1.297,1.337,0,5.205,4.632,,,,0,1,1,1,273.133,273.139,273.141625103,273.142,273.144,273.149,up,0,1.8651233964,-11.0,001,003,800_600,Intel(R) Core(TM) i7-2670QM CPU @ 2.20GHz,orientation_search,GRVLAPTOP3,Intel(R) HD Graphics Family,2018_mei_31_1453,testMonitor,
271.6,278.1,291.2,271.9,36,-40,272.6,274.4,292.4,,8.297,8.329,7.682,8.16,8.498,8.297,7.732,4.498,-5.025,-7.757,1.807,-1.69,8.409,4.342,-4.846,-7.576,252.4,288.4,-8.358,263.6,265.4,284.3,280.6,268.8,36,275.6,4,10,probe,10,0,86,norm,36,-4.335,up,norm,272.404621922,279.3,261.2,1.86,280.8,5,258.0,268.3,263.4,15,2,7.783,4.689,1.606,-1.179,-4.883,-7.858,265.9,1,186.4,-7.561,-8.168,40,-7.538,-7.683,-4.491,-5.013,-4.325,-5.074,4.657,8.253,29,-1.636,1.796,4.945,7.911,-7.928,-8.435,-1.379,1.57,276.4,270.4,288.8,277.2,280.9,262.3,273.1,281.1,259.5,276.4,0,norm,1.483,1.104,-1.385,-1.267,-4.803,-4.551,-1.845,-1.56,-1.907,-1.181,1.572,-1.532,272.9,281.0,-4.689,-7.767,275.3,-1.714,7.983,5.025,-4.581,-8.19,1,5.142,4.778,5.135,5.212,1.746,1.925,2.034,1.488,1,4.836,5.212,40,142.871056,norm,0,2,2,2,276.034,276.041,276.043724694,276.044,276.048,276.052,down,0,2.3019878936,-13.0,001,003,800_600,Intel(R) Core(TM) i7-2670QM CPU @ 2.20GHz,orientation_search,GRVLAPTOP3,Intel(R) HD Graphics Family,2018_mei_31_1453,testMonitor,
69.0,70.7,73.0,,36,80,95.8,50.5,46.5,87.4,8.359,7.886,7.536,7.538,7.804,7.582,7.519,4.894,-5.032,-7.862,1.771,-1.743,8.254,4.713,-5.046,-7.644,75.4,66.4,-7.764,60.5,65.1,80.0,35.8,51.7,36,61.0,3,10,prime,15,0,112,norm,36,-4.425,up,norm,65.8455496817,61.3,60.6,1.657,73.8,3,48.9,55.0,84.9,15,3,7.976,5.158,2.009,-1.26,-5.228,-7.598,70.2,3,177.8,-8.473,-7.802,80,-7.836,-8.315,-4.671,-4.978,-4.818,-4.702,5.121,7.874,21,-1.643,1.998,4.6,7.898,-7.67,-7.541,-1.912,1.313,61.3,82.7,60.4,81.1,74.7,69.1,70.3,51.5,60.3,38.7,0,norm,1.518,1.695,-2.057,-1.237,-5.099,-4.357,-1.192,-1.823,-1.79,-1.232,1.895,-1.366,60.2,94.2,-4.382,-8.278,79.5,-1.22,7.868,4.374,-4.939,-7.569,2,4.333,4.951,4.749,4.428,1.897,1.741,1.603,1.555,2,4.399,5.076,-40,142.871056,norm,0,3,3,3,279.372,279.381,279.383066085,279.384,279.387,279.392,down,0,4.39068079437,-34.0,001,003,800_600,Intel(R) Core(TM) i7-2670QM CPU @ 2.20GHz,orientation_search,GRVLAPTOP3,Intel(R) HD Graphics Family,2018_mei_31_1453,testMonitor,
50.7,65.6,88.4,35.8,36,80,51.2,59.4,76.6,77.9,8.387,7.714,7.997,7.89,8.298,7.607,8.231,4.614,-5.085,-7.965,1.613,-2.016,7.702,5.101,-4.839,-8.353,92.6,40.9,-8.398,89.5,,36.0,90.0,63.6,36,68.8,5,10,prime,15,0,72,norm,36,-5.227,down,norm,65.8455496817,59.9,83.9,1.512,46.3,0,53.4,54.7,71.1,15,3,7.714,4.99,1.428,-1.648,-4.51,-7.784,78.8,3,137.8,-7.706,-8.121,80,-7.755,-7.676,-4.751,-4.88,-5.201,-4.994,4.814,7.75,30,-1.381,1.895,5.018,7.829,-7.913,-8.17,-1.605,1.289,66.9,95.8,79.5,51.7,68.6,82.2,79.6,67.4,85.5,37.4,1,norm,1.964,1.538,-1.134,-1.154,-4.731,-4.952,-1.759,-1.125,-1.486,-1.554,2.087,-1.596,36.8,47.9,-4.871,-7.642,63.4,-1.307,8.422,4.853,-5.087,-7.707,2,4.349,4.775,4.822,4.745,1.754,1.156,1.556,1.248,2,4.584,5.285,-40,142.871056,norm,0,4,4,4,284.8,284.807,284.808724019,284.809,284.812,284.815,up,0,5.27057552301,-43.0,001,003,800_600,Intel(R) Core(TM) i7-2670QM CPU @ 2.20GHz,orientation_search,GRVLAPTOP3,Intel(R) HD Graphics Family,2018_mei_31_1453,testMonitor,
86.4,64.8,45.1,85.7,36,80,58.7,80.3,76.9,68.3,8.333,8.034,8.315,8.329,7.776,7.692,7.62,5.128,-5.182,-8.07,1.27,-1.246,8.31,4.426,-4.918,-8.231,46.3,73.2,-8.086,85.6,64.5,58.3,70.1,41.0,36,84.0,2,10,prime,15,0,114,norm,36,-4.861,down,norm,65.8455496817,87.5,37.1,1.995,,2,65.7,41.6,79.1,15,3,7.787,4.749,1.271,-1.774,-4.778,-8.115,81.6,3,179.8,-7.649,-8.132,80,-8.398,-8.331,-4.817,-4.444,-4.587,-4.3,4.555,8.231,14,-1.112,1.261,4.893,7.69,-8.123,-7.929,-1.742,1.824,95.8,52.0,51.2,61.2,67.5,39.1,66.9,35.8,58.6,79.2,2,norm,1.804,1.885,-2.025,-1.5,-4.491,-4.922,-1.321,-1.116,-1.285,-2.052,2.09,-1.639,60.6,79.6,-4.5,-7.533,71.0,-1.343,7.948,4.644,-4.607,-8.307,2,5.129,4.52,5.246,4.665,2.081,1.414,1.865,1.827,2,5.23,5.156,-40,142.871056,norm,0,5,5,5,291.103,291.108,291.110067975,291.111,291.113,291.117,up,0,1.81630557461,-12.0,001,003,800_600,Intel(R) Core(TM) i7-2670QM CPU @ 2.20GHz,orientation_search,GRVLAPTOP3,Intel(R) HD Graphics Family,2018_mei_31_1453,testMonitor,
254.7,262.5,246.4,247.9,36,30,252.9,251.7,,243.9,8.111,8.277,7.709,8.142,8.105,7.69,7.667,4.978,-5.083,-8.388,1.994,-1.524,7.967,4.454,-4.802,-8.109,245.7,256.0,-8.041,276.9,271.4,259.3,258.6,262.6,36,252.3,4,10,probe,10,0,114,norm,36,-4.925,up,norm,256.941262828,243.3,261.8,1.601,244.9,4,258.8,251.7,250.4,15,3,7.552,4.568,1.912,-1.513,-4.838,-7.591,252.0,1,142.9,-8.354,-7.874,80,-7.87,-8.083,-4.44,-4.688,-5.102,-5.087,4.479,8.161,28,-1.756,1.312,4.89,8.102,-8.154,-7.869,-1.834,1.896,259.0,238.4,260.9,264.1,264.5,261.6,256.0,256.2,268.8,257.5,0,norm,1.953,2.09,-1.329,-1.402,-5.272,-4.813,-1.801,-1.727,-1.268,-2.005,1.347,-1.63,254.5,236.9,-5.271,-7.776,265.4,-1.301,8.491,4.922,-4.5,-8.142,3,4.718,4.452,5.06,4.549,1.16,1.399,1.67,1.115,3,4.35,5.206,80,65.8455496817,norm,0,6,6,6,293.942,293.949,293.951029949,293.951,293.954,293.958,up,1,3.98129873599,-20.0,001,003,800_600,Intel(R) Core(TM) i7-2670QM CPU @ 2.20GHz,orientation_search,GRVLAPTOP3,Intel(R) HD Graphics Family,2018_mei_31_1453,testMonitor,
150.8,154.1,172.3,147.8,36,-60,112.3,133.9,159.2,140.7,8.401,7.782,8.219,8.332,7.951,8.042,7.64,4.721,-4.78,-7.892,1.63,-1.979,7.562,5.279,-4.391,-7.842,159.3,132.1,-7.517,141.9,147.8,,121.5,158.3,36,129.5,5,10,prime,15,0,97,norm,36,-4.308,up,norm,142.266588452,118.0,156.4,1.273,140.7,3,147.4,143.0,143.0,15,3,7.831,4.767,1.474,-1.498,-5.193,-8.484,149.1,3,239.3,-8.078,-7.626,-60,-8.321,-7.73,-4.628,-4.587,-4.53,-4.39,5.101,7.953,33,-1.225,1.222,4.423,8.341,-7.936,-8.496,-1.321,2.042,138.5,153.8,166.0,163.9,145.6,171.2,168.1,132.7,146.0,138.0,0,norm,1.254,1.42,-1.425,-1.643,-4.684,-4.778,-1.86,-1.282,-1.71,-1.357,1.69,-2.001,141.6,134.1,-4.388,-7.836,127.6,-1.276,7.942,4.719,-4.999,-8.43,4,4.803,4.813,5.114,5.253,1.935,1.371,1.881,1.916,4,4.836,5.262,30,65.8455496817,norm,0,7,7,7,297.947,297.953,297.954672701,297.955,297.959,297.962,down,0,6.9718404698,-60.0,001,003,800_600,Intel(R) Core(TM) i7-2670QM CPU @ 2.20GHz,orientation_search,GRVLAPTOP3,Intel(R) HD Graphics Family,2018_mei_31_1453,testMonitor,
141.8,138.7,162.3,121.8,36,-60,169.2,150.8,122.7,129.4,8.114,7.771,8.259,8.203,7.561,7.803,7.98,4.7,-4.915,-7.827,1.727,-1.806,7.713,5.014,-4.478,-8.351,130.4,143.5,-8.113,139.0,136.8,132.5,148.1,158.2,36,155.1,2,10,prime,15,0,116,norm,36,-4.795,down,norm,142.266588452,152.4,158.0,1.399,134.5,0,160.7,157.0,,15,3,8.033,5.052,1.552,-1.482,-5.016,-8.362,153.9,3,258.3,-7.852,-8.0,-60,-8.179,-8.142,-4.584,-4.44,-5.137,-4.459,4.303,8.251,12,-1.772,1.532,4.902,8.188,-8.326,-7.792,-1.224,1.496,148.6,142.1,112.3,124.1,139.9,148.8,172.3,138.6,138.6,127.1,1,norm,1.48,1.444,-1.985,-1.862,-4.333,-4.891,-1.637,-1.793,-1.981,-1.562,1.43,-2.01,134.0,132.8,-4.851,-8.142,121.0,-1.702,7.803,4.876,-4.403,-8.461,4,5.259,5.05,5.16,5.117,1.108,1.81,1.588,2.057,4,4.428,5.022,30,65.8455496817,norm,0,8,8,8,305.954,305.961,305.962316829,305.963,305.966,305.969,down,1,3.1558547625,-12.0,001,003,800_600,Intel(R) Core(TM) i7-2670QM CPU @ 2.20GHz,orientation_search,GRVLAPTOP3,Intel(R) HD Graphics Family,2018_mei_31_1453,testMonitor,
140.7,138.9,172.3,159.5,36,-60,130.4,138.4,123.9,169.9,7.672,7.883,7.822,7.811,8.261,8.468,7.669,4.847,-4.792,-7.769,1.642,-1.478,7.722,4.913,-4.92,-7.688,159.7,169.3,-8.246,134.5,128.3,135.6,112.3,165.3,36,141.8,1,10,prime,15,0,113,norm,36,-5.132,down,norm,142.266588452,141.9,142.3,1.962,134.5,1,147.3,146.6,126.4,15,3,7.902,4.477,1.656,-1.238,-5.221,-7.938,129.9,3,255.3,-8.492,-7.771,-60,-8.239,-7.818,-4.463,-4.409,-4.748,-4.926,4.966,7.694,7,-1.426,1.371,4.77,8.025,-8.216,-8.073,-1.774,2.081,141.0,148.3,155.0,124.8,132.9,133.8,,141.1,129.4,125.7,2,norm,1.295,2.093,-1.948,-1.644,-4.388,-4.368,-2.054,-1.442,-1.838,-1.769,2.082,-1.249,148.9,123.9,-5.168,-7.706,119.0,-1.658,7.585,4.921,-4.45,-8.223,4,4.623,5.07,5.093,4.889,1.984,1.717,1.234,1.247,4,4.626,5.128,30,65.8455496817,norm,0,9,9,9,309.134,309.139,309.140847149,309.141,309.144,309.148,down,1,2.31768473972,-3.0,001,003,800_600,Intel(R) Core(TM) i7-2670QM CPU @ 2.20GHz,orientation_search,GRVLAPTOP3,Intel(R) HD Graphics Family,2018_mei_31_1453,testMonitor,
131.2,148.2,158.0,151.6,36,-60,156.0,142.3,150.3,143.9,7.719,8.271,8.29,7.766,7.574,7.919,8.175,4.448,-5.076,-8.233,2.079,-1.503,7.59,5.173,-5.249,-7.529,136.5,154.9,-7.57,151.5,146.6,141.5,133.7,154.1,36,167.2,3,10,probe,10,0,72,norm,36,-4.752,down,norm,150.017286368,170.0,161.2,1.449,151.9,0,142.8,156.5,140.8,15,3,7.55,5.059,1.244,-2.007,-4.615,-7.826,153.0,1,78.0,-8.157,-8.45,-60,-7.51,-7.614,-5.032,-4.38,-4.972,-4.771,5.095,7.876,18,-1.515,1.897,4.862,8.158,-8.34,-8.011,-1.851,2.082,143.3,162.3,139.5,169.6,149.1,148.9,152.4,143.0,137.6,141.7,0,norm,1.122,1.748,-1.826,-1.291,-4.516,-5.241,-1.494,-1.941,-1.323,-1.743,1.142,-1.687,139.3,,-5.019,-8.457,153.7,-1.251,8.045,4.924,-5.043,-7.64,5,4.502,4.897,5.044,4.37,1.915,1.278,1.219,1.83,5,4.793,4.984,-60,142.266588452,norm,0,10,10,10,311.474,311.48,311.481578678,311.482,311.485,311.489,down,1,1.02436921933,10.0,001,003,800_600,Intel(R) Core(TM) i7-2670QM CPU @ 2.20GHz,orientation_search,GRVLAPTOP3,Intel(R) HD Graphics Family,2018_mei_31_1453,testMonitor,
345.9,345.1,335.3,360.2,36,60,362.8,358.4,339.7,336.3,7.697,7.732,8.102,7.862,7.678,7.67,7.83,4.666,-5.039,-7.824,1.671,-2.035,8.478,4.68,-4.573,-7.787,,325.0,-7.871,338.2,342.8,339.8,344.9,326.8,36,331.2,5,10,prime,15,0,82,norm,36,-4.674,up,norm,339.914021937,330.5,350.5,1.745,363.1,5,369.9,339.4,311.9,15,5,7.911,5.269,1.84,-1.911,-5.091,-8.24,353.1,5,421.9,-7.626,-8.054,60,-8.118,-7.791,-4.901,-4.729,-5.052,-5.3,4.707,8.124,35,-2.003,1.975,5.034,7.56,-7.998,-7.546,-1.255,1.282,327.0,328.0,334.4,317.9,358.8,368.2,344.2,364.3,321.9,319.5,0,norm,1.433,1.547,-1.112,-1.728,-4.792,-4.584,-2.012,-2.091,-1.842,-1.835,1.393,-1.929,309.9,358.8,-4.487,-8.232,341.7,-2.056,7.557,4.923,-5.189,-7.566,6,4.667,4.671,4.958,4.789,2.013,1.107,1.624,1.481,6,5.22,5.203,-60,142.266588452,norm,0,11,11,11,312.523,312.529,312.530831706,312.531,312.534,312.538,up,1,2.1291680228,-1.0,001,003,800_600,Intel(R) Core(TM) i7-2670QM CPU @ 2.20GHz,orientation_search,GRVLAPTOP3,Intel(R) HD Graphics Family,2018_mei_31_1453,testMonitor,
357.2,,338.2,348.0,36,60,355.2,334.7,337.6,344.1,7.72,8.188,8.046,8.266,7.775,8.042,7.947,5.033,-4.76,-8.236,1.565,-2.072,8.284,4.35,-4.742,-7.872,335.4,318.1,-8.443,332.1,325.2,337.8,311.0,317.3,36,335.9,3,10,prime,15,0,104,norm,36,-4.317,up,norm,339.914021937,335.1,326.9,1.623,334.6,5,354.0,346.3,357.5,15,5,8.084,4.613,1.814,-1.5,-4.732,-8.268,367.2,5,443.9,-8.371,-8.319,60,-7.631,-8.314,-4.502,-4.594,-4.488,-4.865,4.881,7.645,23,-1.132,1.473,4.958,8.319,-7.737,-8.025,-2.038,1.672,323.1,369.9,342.4,362.8,359.6,348.8,309.9,335.1,316.2,336.6,1,norm,1.646,1.558,-1.574,-2.055,-5.135,-4.999,-1.105,-1.192,-1.694,-1.311,1.604,-1.343,345.9,361.9,-4.463,-8.236,344.8,-1.509,8.152,4.606,-4.562,-7.501,6,5.2,4.959,5.222,4.869,1.573,1.562,2.062,2.012,6,4.762,5.008,-60,142.266588452,norm,0,12,12,12,314.675,314.681,314.682723383,314.683,314.686,314.689,down,0,4.57616227406,-36.0,001,003,800_600,Intel(R) Core(TM) i7-2670QM CPU @ 2.20GHz,orientation_search,GRVLAPTOP3,Intel(R) HD Graphics Family,2018_mei_31_1453,testMonitor,
327.2,309.9,369.9,316.7,36,60,348.5,349.0,356.7,352.2,8.485,7.792,8.062,7.63,7.641,8.044,7.975,4.347,-5.166,-8.304,1.374,-1.779,7.698,5.222,-4.959,-8.323,353.2,329.3,-7.571,347.5,,345.6,327.3,339.0,36,340.3,5,10,prime,15,0,62,norm,36,-4.707,down,norm,339.914021937,344.1,343.0,1.543,340.2,0,339.1,319.4,349.4,15,5,7.875,5.186,1.588,-1.545,-4.935,-8.338,328.7,5,401.9,-7.796,-8.437,60,-7.928,-8.324,-4.753,-4.318,-5.244,-4.982,4.726,8.41,30,-1.571,1.561,4.772,8.084,-7.633,-8.439,-1.185,1.738,334.0,357.4,332.1,329.3,358.8,364.2,334.3,333.5,365.7,344.6,2,norm,1.816,1.435,-1.201,-1.2,-5.227,-4.979,-1.296,-1.291,-1.825,-1.342,1.271,-1.881,350.2,338.9,-4.482,-7.515,362.7,-1.25,8.014,4.829,-5.218,-8.14,6,4.809,5.133,4.818,4.935,1.845,1.103,1.322,1.133,6,5.261,4.627,-60,142.266588452,norm,0,13,13,13,320.274,320.28,320.281380501,320.282,320.285,320.288,down,1,2.30028909467,-3.0,001,003,800_600,Intel(R) Core(TM) i7-2670QM CPU @ 2.20GHz,orientation_search,GRVLAPTOP3,Intel(R) HD Graphics Family,2018_mei_31_1453,testMonitor,
340.6,333.4,323.1,317.4,36,60,322.6,330.7,341.4,327.0,7.612,8.348,8.265,7.806,7.931,7.61,8.177,5.234,-5.187,-8.224,1.563,-1.804,8.46,4.556,-4.305,-8.307,329.9,351.9,-7.662,334.7,339.9,335.9,,325.6,36,332.4,5,10,prime,15,0,108,norm,36,-4.663,down,norm,339.914021937,312.0,337.1,1.667,315.9,2,331.5,346.5,315.6,15,5,7.546,4.331,2.025,-1.42,-5.025,-8.356,354.1,5,447.9,-7.637,-7.603,60,-7.526,-7.531,-4.838,-4.535,-5.217,-4.614,4.693,7.828,32,-1.362,2.08,4.822,8.091,-8.242,-7.694,-1.165,1.817,353.8,322.6,335.1,344.2,369.9,354.3,354.0,309.9,326.3,323.3,3,norm,1.173,1.881,-1.638,-1.708,-4.68,-4.905,-1.81,-1.163,-1.608,-1.396,1.503,-1.788,343.6,338.7,-5.289,-8.381,342.9,-1.806,8.391,4.784,-4.883,-7.749,6,4.336,4.573,5.2,4.972,1.569,1.831,1.526,1.499,6,5.26,4.752,-60,142.266588452,norm,0,14,14,14,322.598,322.603,322.605346781,322.606,322.609,322.612,down,1,4.34965325917,-23.0,001,003,800_600,Intel(R) Core(TM) i7-2670QM CPU @ 2.20GHz,orientation_search,GRVLAPTOP3,Intel(R) HD Graphics Family,2018_mei_31_1453,testMonitor,
368.8,356.0,334.7,328.7,36,60,328.8,349.0,339.4,357.7,7.592,8.353,7.753,7.77,8.49,8.213,7.508,4.453,-4.597,-7.837,1.372,-1.465,8.191,4.999,-4.814,-7.843,333.9,333.4,-7.959,357.6,344.8,360.6,332.7,321.7,36,352.3,1,10,prime,15,0,105,norm,36,-4.371,up,norm,339.914021937,351.7,323.6,1.8,332.7,5,,338.1,345.2,15,5,7.966,5.084,1.417,-1.958,-4.445,-7.95,314.1,5,444.9,-8.013,-8.383,60,-8.03,-8.272,-4.755,-4.326,-5.012,-5.148,5.132,7.736,11,-1.213,1.422,4.504,7.776,-7.588,-8.341,-1.584,1.625,338.3,327.0,323.6,338.5,331.9,320.1,335.2,311.0,316.4,323.3,4,norm,1.892,1.324,-1.756,-1.653,-4.53,-4.429,-1.949,-1.38,-1.155,-2.028,1.995,-2.083,369.9,309.9,-4.892,-8.165,335.0,-1.895,7.552,4.851,-4.781,-7.838,6,4.59,4.796,4.475,5.129,1.162,1.423,1.135,1.585,6,5.134,4.852,-60,142.266588452,norm,0,15,15,15,326.973,326.98,326.982568866,326.983,326.987,326.992,up,1,3.07130192532,-11.0,001,003,800_600,Intel(R) Core(TM) i7-2670QM CPU @ 2.20GHz,orientation_search,GRVLAPTOP3,Intel(R) HD Graphics Family,2018_mei_31_1453,testMonitor,
518.6,506.9,503.1,494.5,36,10,517.8,482.2,478.6,,8.185,7.774,8.049,7.685,7.625,8.481,8.245,5.268,-4.449,-8.162,1.818,-1.778,8.197,5.014,-4.852,-8.015,508.2,512.4,-7.856,507.0,489.8,515.2,498.2,496.7,36,512.0,4,10,probe,10,0,92,norm,36,-5.219,up,norm,498.615474891,503.0,516.8,1.314,488.8,5,487.7,498.4,491.1,15,5,8.443,4.754,1.503,-1.23,-5.275,-7.557,497.0,2,406.6,-7.621,-8.478,60,-8.4,-7.733,-4.536,-4.335,-4.985,-4.885,4.39,7.86,29,-1.838,1.655,4.491,8.137,-8.021,-8.422,-1.535,1.232,501.5,493.3,503.9,486.6,494.5,490.7,488.9,502.4,489.4,507.0,0,norm,1.922,1.749,-1.455,-1.502,-5.166,-4.44,-1.828,-1.617,-1.825,-1.445,1.989,-1.849,498.3,517.6,-4.41,-8.086,514.0,-1.455,7.541,5.202,-4.421,-7.589,7,4.631,4.54,4.734,4.76,1.757,1.17,2.083,2.009,7,4.823,4.962,60,339.914021937,norm,0,16,16,16,330.074,330.082,330.084508476,330.085,330.089,330.094,up,1,1.74477764086,3.0,001,003,800_600,Intel(R) Core(TM) i7-2670QM CPU @ 2.20GHz,orientation_search,GRVLAPTOP3,Intel(R) HD Graphics Family,2018_mei_31_1453,testMonitor,
474.9,486.7,485.5,473.5,36,10,457.6,491.6,464.1,476.0,8.443,7.557,8.079,8.065,8.131,8.458,8.061,4.948,-5.073,-7.646,1.981,-1.699,8.487,4.367,-4.425,-7.538,479.4,484.1,-8.245,461.9,475.2,474.8,484.3,478.1,36,467.8,2,10,probe,10,0,71,norm,36,-4.502,down,norm,477.615474891,482.7,488.7,1.845,487.3,0,473.2,459.6,,15,5,8.466,4.836,1.279,-1.639,-5.049,-7.942,492.4,2,406.6,-7.695,-8.015,60,-8.233,-8.134,-5.071,-4.487,-4.575,-4.949,4.399,8.101,12,-1.725,1.463,5.083,7.504,-8.311,-8.49,-1.657,1.618,483.4,463.5,480.0,472.5,493.5,481.2,472.5,477.2,463.7,473.6,1,norm,1.382,1.697,-1.287,-1.264,-4.755,-4.956,-1.622,-1.331,-1.258,-1.908,1.489,-1.517,497.6,490.3,-5.237,-7.808,471.2,-1.582,7.935,4.637,-4.323,-8.106,7,4.842,4.831,4.304,4.441,1.366,1.539,1.847,1.359,7,4.595,5.149,60,339.914021937,norm,0,17,17,17,331.85,331.858,331.860003185,331.861,331.864,331.869,down,1,1.05103401193,9.0,001,003,800_600,Intel(R) Core(TM) i7-2670QM CPU @ 2.20GHz,orientation_search,GRVLAPTOP3,Intel(R) HD Graphics Family,2018_mei_31_1453,testMonitor,
312.4,309.9,308.0,312.9,36,20,340.5,302.9,345.7,326.4,7.554,7.783,8.178,7.668,7.873,8.089,8.17,4.976,-5.117,-7.576,1.508,-1.118,8.033,4.757,-5.04,-7.607,358.3,311.5,-8.17,342.6,327.8,344.2,362.9,321.3,36,333.8,2,10,prime,15,0,73,norm,36,-4.808,down,norm,332.899074101,311.1,313.3,1.466,335.8,0,325.3,318.8,,15,2,7.633,5.297,1.976,-1.585,-4.78,-8.283,333.5,2,405.9,-7.751,-8.388,20,-8.263,-7.543,-4.723,-4.681,-5.242,-4.928,5.166,8.229,12,-2.078,1.594,4.906,7.602,-8.09,-8.252,-1.202,2.002,329.7,332.3,343.5,331.8,330.8,336.5,335.2,322.9,337.7,321.9,0,norm,1.728,1.553,-1.558,-2.039,-5.07,-4.729,-1.82,-1.964,-1.145,-2.094,1.678,-1.33,341.1,333.7,-4.611,-7.819,327.5,-2.092,7.569,4.823,-5.121,-7.97,8,4.458,5.123,5.092,5.171,1.699,1.425,2.067,1.292,8,4.595,5.178,10,339.914021937,norm,0,18,18,18,332.932,332.939,332.941612776,332.942,332.946,332.951,down,1,1.30123842349,7.0,001,003,800_600,Intel(R) Core(TM) i7-2670QM CPU @ 2.20GHz,orientation_search,GRVLAPTOP3,Intel(R) HD Graphics Family,2018_mei_31_1453,testMonitor,
341.9,352.5,340.7,322.7,36,20,347.6,319.6,335.9,303.8,7.995,7.935,8.022,7.992,8.28,8.457,7.761,5.263,-5.056,-7.922,1.755,-1.982,7.717,5.252,-4.516,-7.739,320.1,339.0,-7.894,303.6,317.8,319.2,331.3,331.9,36,362.9,2,10,prime,15,0,80,norm,36,-5.092,down,norm,332.899074101,323.1,329.9,1.489,,2,324.6,312.2,335.1,15,2,8.441,4.941,1.289,-1.435,-4.58,-8.241,316.8,2,412.9,-7.749,-7.669,20,-8.056,-8.278,-4.866,-5.229,-4.783,-4.581,4.634,8.051,14,-1.361,1.592,4.972,8.292,-7.681,-7.585,-1.634,1.873,320.9,352.7,334.3,331.2,311.6,340.4,328.2,319.1,343.1,329.4,1,norm,1.426,1.27,-1.505,-2.015,-4.759,-4.804,-1.95,-1.86,-1.271,-1.233,1.465,-1.371,316.5,338.6,-4.716,-7.905,302.9,-1.832,8.036,4.987,-5.133,-8.098,8,4.358,4.788,4.39,5.133,1.145,1.856,1.578,2.07,8,5.263,5.169,10,339.914021937,norm,0,19,19,19,334.263,334.271,334.273241395,334.274,334.278,334.283,down,1,1.87743852127,1.0,001,003,800_600,Intel(R) Core(TM) i7-2670QM CPU @ 2.20GHz,orientation_search,GRVLAPTOP3,Intel(R) HD Graphics Family,2018_mei_31_1453,testMonitor,
470.9,464.8,471.3,470.3,36,-10,470.1,477.6,467.2,473.7,7.607,7.61,8.262,7.656,8.386,7.68,8.411,5.033,-4.68,-7.902,1.449,-1.291,7.66,5.141,-4.59,-8.197,447.0,464.3,-8.068,469.3,475.9,485.5,481.0,,36,474.8,4,10,probe,10,0,114,norm,36,-4.335,down,norm,467.046772669,457.1,469.6,1.806,459.8,2,478.3,471.7,454.1,15,2,8.029,4.56,1.281,-1.942,-5.058,-7.759,467.0,1,353.0,-7.72,-8.424,20,-7.737,-7.553,-4.379,-4.541,-4.734,-4.911,4.372,8.452,26,-1.432,1.217,5.13,7.602,-8.132,-7.791,-1.207,1.21,447.6,458.3,463.7,462.7,472.6,459.1,456.5,460.9,479.2,473.8,0,norm,1.941,1.639,-1.874,-1.859,-4.744,-4.968,-1.552,-1.483,-1.563,-1.191,1.433,-1.571,467.7,475.6,-4.404,-7.911,487.0,-1.511,7.911,5.156,-4.737,-8.421,9,5.047,4.359,4.549,4.467,1.623,1.678,2.02,1.238,9,4.4,4.793,20,332.899074101,norm,0,20,20,20,336.171,336.18,336.182088084,336.183,336.187,336.192,down,1,4.68900492316,-27.0,001,003,800_600,Intel(R) Core(TM) i7-2670QM CPU @ 2.20GHz,orientation_search,GRVLAPTOP3,Intel(R) HD Graphics Family,2018_mei_31_1453,testMonitor,
,104.5,75.6,102.9,36,-10,88.8,97.8,77.9,103.8,8.454,7.53,8.057,7.795,7.863,8.358,8.08,5.243,-4.586,-8.453,1.407,-1.291,8.049,4.595,-4.899,-7.939,84.5,106.3,-8.0,108.3,103.5,97.6,110.0,106.7,36,118.5,3,10,prime,15,0,117,norm,36,-5.058,up,norm,102.805756234,112.7,110.9,1.382,92.0,4,122.3,107.8,95.4,15,2,8.429,4.957,1.108,-1.869,-4.668,-8.462,129.4,2,219.8,-7.611,-8.178,-10,-8.233,-7.63,-5.267,-4.541,-4.429,-5.286,4.995,8.114,22,-1.777,1.377,4.675,7.81,-8.025,-7.809,-1.465,1.763,102.6,99.5,121.3,132.8,82.5,72.8,87.8,120.9,94.5,75.8,0,norm,1.671,1.564,-2.034,-1.645,-5.073,-5.139,-1.935,-1.399,-1.885,-1.812,1.767,-1.601,114.6,100.7,-4.562,-7.617,78.2,-1.725,8.334,4.761,-5.113,-7.914,10,5.271,5.202,4.834,4.625,1.914,1.62,1.255,2.011,10,5.299,4.951,-10,332.899074101,norm,0,21,21,21,340.892,340.899,340.901699873,340.902,340.906,340.911,down,0,2.20479399378,-12.0,001,003,800_600,Intel(R) Core(TM) i7-2670QM CPU @ 2.20GHz,orientation_search,GRVLAPTOP3,Intel(R) HD Graphics Family,2018_mei_31_1453,testMonitor,
121.5,72.8,120.8,107.4,36,-10,90.7,113.6,76.7,104.8,8.5,7.568,8.241,8.204,7.528,7.662,8.172,5.031,-4.9,-8.014,1.579,-1.594,8.308,4.461,-4.384,-7.618,107.6,112.6,-8.37,77.7,109.6,130.5,96.9,130.7,36,82.2,0,10,prime,15,0,61,norm,36,-5.016,down,norm,102.805756234,107.8,107.6,1.579,100.8,2,99.5,108.9,94.2,15,2,7.796,4.672,1.506,-1.786,-4.617,-7.983,105.7,2,163.8,-8.031,-7.711,-10,-7.533,-8.145,-4.371,-4.728,-4.526,-4.302,4.896,8.253,2,-1.931,1.477,4.587,7.543,-8.088,-8.39,-1.191,1.992,105.6,93.1,106.3,,115.1,87.7,106.9,80.8,104.1,100.6,1,norm,1.637,1.747,-1.788,-2.051,-4.761,-4.789,-1.185,-2.093,-1.98,-1.934,2.087,-1.232,131.2,132.8,-4.31,-8.076,98.1,-1.974,7.742,5.236,-5.058,-7.525,10,4.815,5.081,4.556,4.387,2.081,1.462,1.76,1.307,10,5.044,4.443,-10,332.899074101,norm,0,22,22,22,344.127,344.134,344.136808415,344.137,344.141,344.146,up,0,2.95894024458,-20.0,001,003,800_600,Intel(R) Core(TM) i7-2670QM CPU @ 2.20GHz,orientation_search,GRVLAPTOP3,Intel(R) HD Graphics Family,2018_mei_31_1453,testMonitor,
172.7,177.3,194.7,194.5,36,20,193.4,178.6,183.6,178.8,7.906,7.703,7.676,8.01,7.804,8.213,7.737,5.024,-5.131,-8.097,1.712,-1.268,7.814,4.598,-5.214,-7.744,188.1,181.2,-8.174,189.0,206.4,188.9,204.4,187.0,36,195.2,2,10,probe,10,0,90,norm,36,-5.055,up,norm,186.354399562,187.1,,1.387,197.8,4,182.8,171.3,179.3,15,2,7.823,4.834,1.361,-1.815,-5.063,-7.97,190.8,2,96.4,-7.976,-8.233,-10,-8.311,-7.607,-4.753,-4.737,-4.749,-4.355,4.908,8.181,16,-1.519,1.765,5.199,8.261,-7.953,-8.287,-1.725,1.456,167.9,192.4,176.2,204.6,195.0,187.6,184.1,185.3,184.9,197.2,0,norm,1.542,1.871,-1.569,-1.25,-5.145,-4.991,-1.63,-1.858,-1.341,-1.705,1.479,-1.946,166.4,181.4,-4.74,-8.219,196.0,-1.654,7.595,4.855,-4.438,-8.211,11,4.846,4.318,5.258,5.032,1.359,1.41,1.719,1.876,11,5.215,5.07,-10,102.805756234,norm,0,23,23,23,348.12,348.128,348.130614197,348.131,348.135,348.14,down,0,4.31112208985,-33.0,001,003,800_600,Intel(R) Core(TM) i7-2670QM CPU @ 2.20GHz,orientation_search,GRVLAPTOP3,Intel(R) HD Graphics Family,2018_mei_31_1453,testMonitor,
166.6,170.6,170.7,178.1,36,20,146.4,151.3,176.1,183.1,8.319,8.153,7.589,8.387,8.396,8.233,8.245,4.65,-4.39,-8.48,1.205,-2.061,8.473,4.666,-4.419,-7.986,159.5,165.5,-7.856,153.6,161.5,177.3,173.3,159.6,36,160.1,0,10,probe,10,0,70,norm,36,-5.164,down,norm,166.354399562,164.6,167.0,1.129,174.8,0,162.5,167.1,171.6,15,2,7.512,5.158,1.96,-1.494,-4.588,-7.971,164.9,2,96.4,-8.109,-7.954,-10,-8.133,-8.499,-4.857,-5.169,-4.859,-4.823,4.688,7.697,0,-1.236,1.483,4.924,8.058,-7.883,-8.338,-1.68,1.602,151.9,167.7,156.2,185.5,186.2,,158.4,170.3,172.0,157.6,1,norm,2.089,1.323,-1.984,-1.392,-4.912,-4.472,-1.672,-1.317,-2.055,-1.23,1.274,-1.508,160.3,174.4,-5.014,-8.366,186.4,-1.317,8.174,4.535,-4.467,-8.015,11,4.492,5.157,4.896,4.909,1.559,1.299,2.02,1.637,11,5.052,5.221,-10,102.805756234,norm,0,24,24,24,353.471,353.478,353.480633085,353.481,353.485,353.49,down,1,4.72265683187,-27.0,001,003,800_600,Intel(R) Core(TM) i7-2670QM CPU @ 2.20GHz,orientation_search,GRVLAPTOP3,Intel(R) HD Graphics Family,2018_mei_31_1453,testMonitor,
54.3,31.2,44.8,74.1,36,-30,14.1,25.3,27.8,35.5,7.821,8.134,7.917,8.063,8.137,8.032,8.454,4.741,-4.82,-8.468,1.597,-1.218,8.388,5.022,-5.166,-7.743,25.4,29.5,-7.518,47.9,41.5,33.9,23.1,41.0,36,65.5,1,10,prime,15,0,85,norm,36,-5.158,down,norm,44.0940564653,39.6,59.8,2.06,43.0,0,69.1,62.2,41.1,15,6,8.391,4.617,1.763,-1.268,-5.074,-8.449,29.5,6,129.1,-7.654,-8.397,-30,-8.355,-8.433,-4.887,-4.777,-4.652,-4.657,4.976,8.212,6,-1.522,1.806,4.4,7.619,-7.912,-7.503,-1.187,1.663,29.7,38.1,41.8,48.9,44.5,27.0,49.9,,58.1,51.4,0,norm,1.997,1.617,-1.381,-1.938,-5.002,-4.397,-1.35,-2.04,-1.981,-1.2,1.114,-1.842,33.1,28.5,-4.858,-7.954,48.6,-1.967,7.919,4.781,-4.503,-8.141,12,5.096,4.731,4.86,4.85,1.553,1.204,1.497,1.215,12,4.613,5.102,20,102.805756234,norm,0,25,25,25,358.223,358.231,358.2331277,358.234,358.237,358.242,down,1,2.54154702773,-5.0,001,003,800_600,Intel(R) Core(TM) i7-2670QM CPU @ 2.20GHz,orientation_search,GRVLAPTOP3,Intel(R) HD Graphics Family,2018_mei_31_1453,testMonitor,
74.1,37.6,51.8,53.5,36,-30,30.3,,63.8,57.7,8.112,8.329,7.738,7.67,8.388,7.846,7.865,4.378,-4.816,-7.824,1.151,-2.052,7.561,5.128,-4.528,-7.585,31.5,56.9,-8.228,74.1,33.5,42.5,37.2,52.8,36,40.2,4,10,prime,15,0,98,norm,36,-4.316,down,norm,44.0940564653,27.8,49.3,1.688,57.3,1,55.7,54.1,20.5,15,6,7.566,4.857,1.572,-1.216,-4.649,-7.957,47.1,6,142.1,-7.851,-7.947,-30,-7.642,-7.762,-4.589,-4.516,-5.076,-4.763,4.476,7.555,25,-1.99,1.517,4.371,7.592,-8.2,-7.973,-2.074,1.824,35.5,52.4,28.3,36.5,25.5,47.2,28.9,14.1,30.8,63.7,1,norm,1.236,1.542,-1.776,-2.066,-4.586,-5.287,-1.707,-1.904,-1.537,-1.295,1.44,-1.303,52.1,40.3,-4.463,-7.976,61.1,-1.569,8.182,4.35,-5.121,-8.053,12,4.746,4.569,4.847,4.869,1.277,1.795,1.183,1.302,12,5.064,4.848,20,102.805756234,norm,0,26,26,26,360.795,360.803,360.804817435,360.805,360.809,360.814,down,1,2.1100726449,-1.0,001,003,800_600,Intel(R) Core(TM) i7-2670QM CPU @ 2.20GHz,orientation_search,GRVLAPTOP3,Intel(R) HD Graphics Family,2018_mei_31_1453,testMonitor,
57.9,26.8,43.5,24.4,36,-30,36.8,69.1,44.0,29.2,7.738,7.811,8.424,7.774,8.44,7.576,7.986,5.289,-5.011,-7.948,1.243,-1.833,8.302,5.064,-4.978,-7.712,16.1,36.2,-7.887,30.8,30.4,49.1,37.2,39.0,36,25.8,2,10,prime,15,0,84,norm,36,-5.092,up,norm,44.0940564653,18.3,50.2,1.443,18.7,3,67.1,58.3,46.5,15,6,7.934,5.177,1.428,-1.366,-5.058,-8.414,74.1,6,128.1,-7.697,-8.06,-30,-8.395,-7.937,-4.72,-4.606,-5.072,-5.133,4.552,8.146,15,-1.234,1.523,5.046,8.363,-7.974,-8.074,-1.457,1.568,50.1,41.4,49.4,63.4,33.6,14.1,52.2,48.1,46.9,49.3,2,norm,1.939,1.34,-1.152,-1.766,-5.149,-4.486,-1.166,-1.17,-2.049,-2.086,1.586,-1.55,42.6,22.5,-5.08,-8.167,,-2.049,8.39,4.467,-4.705,-8.462,12,4.339,5.234,4.632,4.304,1.536,1.241,1.951,1.341,12,5.133,4.954,20,102.805756234,norm,0,27,27,27,362.936,362.943,362.945117307,362.946,362.949,362.954,up,1,1.44551118765,6.0,001,003,800_600,Intel(R) Core(TM) i7-2670QM CPU @ 2.20GHz,orientation_search,GRVLAPTOP3,Intel(R) HD Graphics Family,2018_mei_31_1453,testMonitor,
21.0,56.7,36.6,,36,-30,51.3,26.2,49.5,42.8,7.752,8.438,8.338,8.315,8.367,8.04,8.142,4.656,-4.875,-8.273,1.676,-2.088,7.564,4.79,-4.731,-8.054,40.4,62.5,-7.504,30.7,61.4,29.3,65.1,62.9,36,29.1,3,10,prime,15,0,99,norm,36,-4.935,up,norm,44.0940564653,30.5,50.1,1.116,38.9,3,28.3,14.1,36.1,15,6,7.696,5.2,1.926,-1.894,-5.236,-8.061,74.1,6,143.1,-8.153,-7.859,-30,-8.303,-7.842,-5.203,-4.823,-4.624,-4.897,4.601,8.16,21,-1.583,1.695,5.08,7.551,-7.618,-8.397,-1.118,1.84,32.0,31.9,54.4,34.5,61.9,51.3,61.6,38.5,15.6,45.5,3,norm,1.623,1.93,-1.238,-1.583,-4.458,-4.304,-2.029,-1.398,-1.405,-1.541,1.186,-1.855,72.4,49.2,-4.755,-7.844,51.7,-1.895,8.322,4.375,-5.277,-7.7,12,4.759,4.997,5.289,4.944,1.613,1.316,1.87,1.646,12,5.181,5.054,20,102.805756234,norm,0,28,28,28,364.411,364.418,364.420210851,364.421,364.425,364.43,up,1,0.959638816108,10.0,001,003,800_600,Intel(R) Core(TM) i7-2670QM CPU @ 2.20GHz,orientation_search,GRVLAPTOP3,Intel(R) HD Graphics Family,2018_mei_31_1453,testMonitor,
35.5,62.6,35.8,64.2,36,-30,59.7,25.7,26.0,22.2,7.722,8.137,8.197,8.026,7.533,8.256,8.355,5.002,-5.123,-8.05,1.262,-2.077,8.448,5.231,-4.519,-8.234,55.4,61.6,-7.749,28.8,30.3,38.7,57.1,,36,37.1,4,10,prime,15,0,83,norm,36,-5.176,down,norm,44.0940564653,14.1,42.1,1.941,32.8,2,57.5,36.9,38.2,15,6,8.293,5.009,1.533,-1.897,-4.906,-7.615,41.4,6,127.1,-8.239,-7.844,-30,-8.219,-7.736,-4.805,-5.035,-4.611,-4.754,4.539,8.448,26,-1.211,1.653,4.715,8.191,-7.925,-8.43,-1.246,2.074,56.5,33.6,38.2,55.7,30.4,62.9,22.9,32.0,74.1,58.9,4,norm,1.682,1.81,-2.066,-1.891,-4.941,-5.282,-1.744,-1.875,-1.494,-1.566,1.587,-2.086,50.7,53.4,-4.878,-8.148,50.5,-1.994,8.438,5.151,-4.849,-8.025,12,4.616,5.08,4.504,5.252,1.846,1.387,1.231,1.662,12,4.374,4.495,20,102.805756234,norm,0,29,29,29,365.4,365.408,365.409702393,365.41,365.414,365.419,down,1,1.17734797781,8.0,001,003,800_600,Intel(R) Core(TM) i7-2670QM CPU @ 2.20GHz,orientation_search,GRVLAPTOP3,Intel(R) HD Graphics Family,2018_mei_31_1453,testMonitor,
41.4,62.9,33.7,52.8,36,-30,27.8,,58.5,48.3,7.728,8.28,7.716,7.932,8.32,7.699,8.001,5.081,-4.513,-7.597,1.231,-1.42,8.085,4.409,-5.1,-7.572,38.0,38.0,-8.043,51.8,40.6,68.5,14.1,51.2,36,57.5,4,10,prime,15,0,97,norm,36,-4.395,down,norm,44.0940564653,31.7,57.6,1.443,62.9,1,62.0,31.0,26.6,15,6,7.752,4.824,1.149,-1.41,-4.417,-8.049,25.9,6,141.1,-7.675,-7.961,-30,-7.96,-8.369,-4.988,-5.292,-4.986,-4.738,4.666,7.74,25,-1.538,1.838,5.154,8.119,-7.549,-8.106,-1.822,2.09,49.8,44.8,54.4,19.9,33.6,57.6,56.5,46.2,36.7,74.1,5,norm,1.976,1.226,-1.1,-1.216,-4.343,-5.032,-1.757,-1.892,-1.616,-1.188,1.774,-1.959,55.9,48.8,-4.987,-7.52,43.3,-2.054,7.843,4.927,-4.997,-7.507,12,4.797,4.632,5.158,4.934,1.144,1.155,1.831,1.479,12,4.575,4.572,20,102.805756234,norm,0,30,30,30,366.608,366.616,366.617699729,366.618,366.622,366.627,down,1,0.913739491658,11.0,001,003,800_600,Intel(R) Core(TM) i7-2670QM CPU @ 2.20GHz,orientation_search,GRVLAPTOP3,Intel(R) HD Graphics Family,2018_mei_31_1453,testMonitor,
117.4,113.1,106.1,118.2,36,-20,133.6,117.5,129.0,108.0,7.878,8.458,7.717,7.556,7.824,7.613,8.307,4.791,-4.638,-7.929,2.051,-1.94,8.323,4.405,-5.19,-7.777,106.2,120.0,-8.147,121.8,,106.9,113.1,113.7,36,95.5,5,10,probe,10,0,103,norm,36,-4.85,down,norm,113.550250387,112.6,111.6,1.82,94.1,0,114.5,117.4,115.2,15,6,8.015,4.63,1.899,-1.837,-4.374,-7.737,116.3,1,10.6,-8.417,-8.15,-30,-7.689,-8.312,-4.689,-5.179,-4.676,-5.183,5.195,7.566,30,-2.081,1.816,5.106,8.205,-8.145,-8.463,-1.899,1.457,93.6,120.5,100.5,107.4,114.8,100.3,110.9,113.0,111.8,104.8,0,norm,1.827,1.344,-2.093,-2.07,-5.202,-4.835,-1.806,-1.82,-1.784,-1.486,1.59,-1.866,114.1,113.5,-4.577,-8.308,114.9,-2.022,7.611,4.951,-5.02,-7.597,13,5.191,4.551,5.21,4.95,1.297,1.448,1.929,1.853,13,4.629,4.385,-30,44.0940564653,norm,0,31,31,31,367.552,367.56,367.561758439,367.562,367.566,367.571,down,1,0.679470542555,13.0,001,003,800_600,Intel(R) Core(TM) i7-2670QM CPU @ 2.20GHz,orientation_search,GRVLAPTOP3,Intel(R) HD Graphics Family,2018_mei_31_1453,testMonitor,
179.4,156.6,132.7,140.4,36,10,134.1,155.1,166.1,129.2,8.149,7.754,8.046,7.747,7.75,8.44,8.494,5.266,-4.717,-8.2,1.553,-1.103,7.876,4.697,-4.352,-8.242,146.0,149.6,-8.446,160.3,,159.8,175.7,163.8,36,134.8,5,10,prime,15,0,83,norm,36,-4.56,down,norm,154.976765297,146.4,142.4,1.732,172.7,0,150.4,167.7,164.0,15,5,8.355,4.369,1.308,-1.165,-4.393,-8.155,125.0,5,238.0,-8.456,-8.32,10,-7.85,-8.255,-4.434,-4.316,-5.093,-5.084,4.361,8.371,30,-1.254,2.043,4.852,7.725,-7.639,-8.448,-1.494,1.146,127.8,169.5,142.1,160.1,161.6,173.5,148.9,139.5,152.6,165.3,0,norm,1.176,1.978,-1.73,-1.725,-4.458,-4.511,-1.377,-1.12,-1.399,-1.165,2.049,-1.813,133.1,185.0,-4.323,-7.771,184.1,-1.139,8.032,4.735,-4.795,-7.807,14,4.723,4.897,4.433,4.445,1.38,1.973,1.607,1.742,14,4.591,5.123,-20,44.0940564653,norm,0,32,32,32,368.262,368.269,368.271661204,368.272,368.276,368.281,down,1,0.834681834758,12.0,001,003,800_600,Intel(R) Core(TM) i7-2670QM CPU @ 2.20GHz,orientation_search,GRVLAPTOP3,Intel(R) HD Graphics Family,2018_mei_31_1453,testMonitor,
142.1,163.6,134.3,136.6,36,10,162.7,135.0,166.2,172.4,8.304,8.033,8.005,7.752,8.375,7.533,8.293,5.006,-4.896,-7.786,1.547,-1.177,7.995,4.349,-4.94,-8.414,170.8,143.9,-7.797,152.1,172.0,146.3,149.6,155.5,36,,4,10,prime,15,0,69,norm,36,-4.731,up,norm,154.976765297,125.0,156.1,1.698,173.6,3,167.6,138.7,158.2,15,5,7.517,4.363,1.456,-1.589,-4.837,-7.91,150.6,5,224.0,-8.154,-7.988,10,-8.126,-7.828,-5.198,-4.36,-5.246,-4.416,4.574,7.527,27,-1.439,1.972,4.803,8.32,-8.497,-7.514,-1.103,1.457,146.3,147.7,161.7,152.4,157.7,159.7,169.8,165.3,150.4,185.0,1,norm,2.098,1.145,-1.177,-1.121,-5.165,-4.622,-1.216,-1.138,-1.365,-2.058,1.566,-1.756,153.4,162.0,-5.163,-7.834,166.0,-1.426,8.05,4.47,-4.443,-7.804,14,5.149,4.48,4.872,4.461,1.79,1.426,1.311,1.738,14,5.055,4.872,-20,44.0940564653,norm,0,33,33,33,369.129,369.137,369.139139945,369.14,369.144,369.149,up,1,3.32384673826,-13.0,001,003,800_600,Intel(R) Core(TM) i7-2670QM CPU @ 2.20GHz,orientation_search,GRVLAPTOP3,Intel(R) HD Graphics Family,2018_mei_31_1453,testMonitor,
154.3,141.5,147.8,150.8,36,10,159.0,165.0,132.3,161.3,7.77,8.059,7.832,8.069,7.729,7.876,8.079,5.248,-4.811,-8.496,1.697,-1.951,8.112,4.553,-4.962,-8.104,158.6,179.7,-8.499,130.3,138.4,,160.2,157.8,36,155.5,5,10,prime,15,0,65,norm,36,-5.039,up,norm,154.976765297,159.9,153.0,1.151,173.8,3,155.9,171.9,125.0,15,5,7.719,4.866,1.963,-1.378,-4.906,-8.13,160.3,5,220.0,-8.422,-8.304,10,-7.969,-7.574,-5.139,-5.292,-5.253,-5.052,5.278,7.762,33,-1.97,1.413,5.042,8.324,-8.383,-7.997,-1.226,1.266,175.1,148.9,138.4,185.0,152.5,160.2,153.4,131.8,181.4,169.3,2,norm,1.432,1.122,-1.877,-1.547,-4.335,-4.377,-1.685,-1.953,-1.198,-1.866,1.419,-1.421,165.1,150.5,-4.702,-7.923,164.2,-1.389,8.004,4.953,-5.057,-8.242,14,4.625,4.709,4.545,5.027,1.316,1.869,1.421,1.667,14,4.593,5.086,-20,44.0940564653,norm,0,34,34,34,372.483,372.491,372.492899179,372.493,372.497,372.502,up,1,1.72921574606,3.0,001,003,800_600,Intel(R) Core(TM) i7-2670QM CPU @ 2.20GHz,orientation_search,GRVLAPTOP3,Intel(R) HD Graphics Family,2018_mei_31_1453,testMonitor,
142.1,169.3,141.0,141.0,36,10,125.0,151.4,143.3,133.9,8.444,7.818,7.943,8.21,7.55,8.131,7.68,4.824,-4.53,-8.223,1.232,-1.376,8.046,4.517,-4.866,-8.087,170.6,145.5,-7.883,171.6,162.1,143.8,154.0,148.0,36,150.4,1,10,prime,15,0,111,norm,36,-5.068,up,norm,154.976765297,166.1,144.2,1.985,171.4,5,,162.7,159.4,15,5,7.871,4.392,1.2,-1.991,-4.424,-7.817,157.2,5,266.0,-7.88,-8.434,10,-7.855,-8.048,-5.166,-4.696,-4.743,-5.277,4.697,7.53,11,-1.22,1.104,5.162,8.021,-7.695,-7.544,-1.886,2.033,136.6,168.3,130.4,158.4,145.7,144.1,176.9,160.3,125.7,185.0,3,norm,2.074,1.452,-1.617,-1.665,-4.859,-4.89,-1.13,-1.411,-1.255,-1.987,1.563,-1.448,182.5,156.2,-5.138,-7.731,155.6,-2.093,8.237,5.118,-4.653,-7.613,14,4.639,5.247,4.597,4.323,1.748,1.51,1.979,1.97,14,4.697,4.581,-20,44.0940564653,norm,0,35,35,35,374.242,374.249,374.251292427,374.252,374.256,374.261,up,1,5.81959857353,-38.0,001,003,800_600,Intel(R) Core(TM) i7-2670QM CPU @ 2.20GHz,orientation_search,GRVLAPTOP3,Intel(R) HD Graphics Family,2018_mei_31_1453,testMonitor,
154.0,128.0,142.0,170.7,36,10,156.3,130.7,175.2,168.7,7.651,8.458,7.707,8.499,7.622,8.313,7.968,5.227,-4.785,-8.1,2.038,-1.192,8.368,4.404,-4.655,-8.122,165.6,163.4,-7.907,154.7,151.9,164.4,185.0,163.4,36,129.0,2,10,prime,15,0,103,norm,36,-5.096,up,norm,154.976765297,,139.7,2.092,172.1,5,172.4,141.6,125.0,15,5,7.946,5.185,1.599,-1.916,-4.681,-8.248,129.6,5,258.0,-8.382,-8.409,10,-7.803,-8.292,-5.136,-4.935,-5.004,-4.419,4.38,8.346,17,-1.711,1.824,4.743,8.115,-8.256,-8.371,-1.788,1.629,147.1,167.3,147.9,153.9,138.4,169.2,143.0,152.6,151.7,157.6,4,norm,1.958,1.169,-2.002,-1.208,-4.947,-4.549,-1.453,-1.341,-1.36,-1.137,1.807,-1.172,167.1,137.2,-4.939,-8.003,147.4,-1.777,8.211,4.828,-4.994,-8.485,14,4.859,4.577,4.311,4.752,1.776,1.696,1.155,1.373,14,4.575,4.485,-20,44.0940564653,norm,0,36,36,36,380.092,380.099,380.101951751,380.103,380.106,380.111,up,1,3.40797090655,-14.0,001,003,800_600,Intel(R) Core(TM) i7-2670QM CPU @ 2.20GHz,orientation_search,GRVLAPTOP3,Intel(R) HD Graphics Family,2018_mei_31_1453,testMonitor,
242.2,244.8,245.3,224.1,36,-30,226.5,244.6,249.4,228.7,8.115,7.745,8.138,7.695,7.772,8.317,8.214,4.866,-4.493,-8.439,1.282,-1.541,8.29,4.702,-4.311,-7.946,233.4,249.9,-8.277,237.7,234.1,238.2,219.8,,36,226.6,4,10,probe,10,0,74,norm,36,-4.981,down,norm,239.773013811,256.9,251.7,1.86,259.8,2,240.9,237.5,233.1,15,5,7.564,5.072,1.408,-1.863,-5.093,-7.932,253.8,2,165.8,-8.036,-7.532,10,-7.782,-7.596,-4.996,-4.866,-4.399,-4.781,4.715,8.087,26,-1.279,1.742,4.914,7.594,-7.824,-8.114,-2.003,2.087,243.0,220.6,237.9,241.9,247.5,248.5,251.0,247.1,239.1,244.1,0,norm,2.039,1.31,-1.974,-1.69,-4.867,-4.42,-1.344,-1.676,-1.207,-1.869,1.55,-1.412,244.1,250.0,-4.806,-8.263,235.8,-1.728,8.19,4.445,-4.472,-7.765,15,4.897,4.71,5.264,5.159,1.42,1.911,1.472,1.843,15,4.71,4.83,10,154.976765297,norm,0,37,37,37,383.53,383.538,383.540308184,383.541,383.545,383.55,down,1,2.21282850022,-2.0,001,003,800_600,Intel(R) Core(TM) i7-2670QM CPU @ 2.20GHz,orientation_search,GRVLAPTOP3,Intel(R) HD Graphics Family,2018_mei_31_1453,testMonitor,
247.8,224.9,232.9,230.4,36,-30,212.5,238.2,226.2,,8.484,7.873,8.334,8.048,8.42,8.025,7.546,5.248,-5.17,-8.163,1.996,-1.576,8.15,4.563,-4.681,-8.229,215.8,238.0,-8.246,229.3,232.3,210.9,243.3,231.6,36,222.8,4,10,probe,10,0,62,norm,36,-4.987,up,norm,227.773013811,246.3,229.2,1.23,233.0,5,237.1,219.3,229.5,15,5,7.754,4.797,2.088,-1.264,-4.428,-8.449,209.0,2,165.8,-7.941,-7.68,10,-7.723,-8.126,-4.963,-4.547,-4.559,-5.064,4.676,8.325,29,-1.434,1.585,4.31,7.549,-7.67,-7.724,-1.21,1.188,207.8,238.4,225.4,221.8,242.8,214.3,228.7,216.4,237.1,223.2,1,norm,1.711,1.616,-1.177,-1.77,-4.797,-4.934,-1.316,-2.037,-1.636,-1.823,1.801,-1.323,230.9,208.5,-5.259,-7.714,228.1,-1.693,8.16,4.352,-4.806,-8.47,15,5.034,5.269,4.91,4.515,1.426,1.683,1.447,2.086,15,4.837,5.048,10,154.976765297,norm,0,38,38,38,385.773,385.781,385.78275593,385.783,385.787,385.792,up,1,1.41022351954,6.0,001,003,800_600,Intel(R) Core(TM) i7-2670QM CPU @ 2.20GHz,orientation_search,GRVLAPTOP3,Intel(R) HD Graphics Family,2018_mei_31_1453,testMonitor,
46.2,39.3,24.3,27.2,36,-80,68.2,43.0,43.7,64.7,7.909,7.899,7.962,7.528,8.175,7.564,7.951,4.358,-4.968,-8.441,1.867,-1.232,8.328,5.144,-4.472,-7.866,59.7,31.2,-8.06,43.6,10.4,46.8,24.9,8.2,36,44.9,1,10,prime,15,0,102,norm,36,-4.393,down,norm,38.1534612202,37.3,53.0,1.989,36.7,1,23.0,42.9,43.6,15,6,8.326,5.157,1.191,-1.29,-5.218,-7.571,24.3,6,140.2,-8.022,-7.548,-80,-8.239,-8.099,-5.203,-4.472,-4.66,-5.254,4.977,8.195,7,-1.685,1.451,4.707,8.39,-7.978,-8.186,-1.253,1.951,39.4,49.4,36.8,32.7,43.0,46.0,,34.4,29.7,42.3,0,norm,1.429,1.674,-1.117,-1.167,-4.35,-4.318,-1.33,-1.155,-1.371,-1.595,1.921,-1.888,24.3,56.2,-4.706,-8.415,19.7,-1.832,8.085,4.732,-4.995,-7.887,16,5.126,4.537,4.415,4.945,1.373,1.375,1.79,1.465,16,5.139,5.019,-30,154.976765297,norm,0,39,39,39,387.213,387.221,387.223284659,387.224,387.228,387.233,down,1,1.02101644959,10.0,001,003,800_600,Intel(R) Core(TM) i7-2670QM CPU @ 2.20GHz,orientation_search,GRVLAPTOP3,Intel(R) HD Graphics Family,2018_mei_31_1453,testMonitor,
30.4,27.8,40.2,44.6,36,-80,12.7,40.7,32.7,40.6,8.151,7.504,8.41,7.556,8.081,8.162,8.434,4.681,-5.22,-8.243,1.73,-1.53,7.678,4.487,-4.848,-8.205,35.9,62.6,-7.538,8.8,31.4,49.2,36.0,42.5,36,30.9,1,10,prime,15,0,63,norm,36,-4.578,down,norm,38.1534612202,52.2,27.2,1.274,8.2,1,46.4,55.6,24.2,15,6,8.402,5.04,1.692,-2.053,-4.771,-7.521,30.6,6,101.2,-8.223,-7.903,-80,-7.963,-7.82,-4.99,-4.616,-4.841,-5.192,4.535,8.488,7,-1.691,1.51,4.93,7.794,-7.705,-7.998,-1.909,1.411,47.0,31.0,30.7,48.8,42.5,44.4,,22.8,68.2,50.6,1,norm,1.346,1.86,-1.99,-1.775,-5.16,-4.996,-1.64,-1.543,-1.922,-1.92,1.556,-1.16,32.5,22.4,-4.899,-8.225,46.8,-1.101,7.731,4.512,-5.06,-8.232,16,5.134,4.43,4.399,4.813,1.29,2.073,2.046,1.589,16,5.244,4.882,-30,154.976765297,norm,0,40,40,40,388.264,388.272,388.273799412,388.274,388.278,388.283,down,1,1.81315499836,2.0,001,003,800_600,Intel(R) Core(TM) i7-2670QM CPU @ 2.20GHz,orientation_search,GRVLAPTOP3,Intel(R) HD Graphics Family,2018_mei_31_1453,testMonitor,
14.1,41.9,50.8,55.7,36,-80,61.3,55.7,27.8,56.9,7.929,8.042,7.531,8.082,7.66,8.454,8.122,4.626,-4.738,-8.478,1.807,-1.791,7.684,4.353,-4.945,-7.552,23.4,55.5,-7.695,41.6,48.8,28.0,,45.7,36,55.4,5,10,prime,15,0,89,norm,36,-4.833,down,norm,38.1534612202,37.7,28.0,1.83,46.0,2,23.0,43.1,31.4,15,6,7.567,4.468,1.288,-1.549,-5.01,-8.49,43.3,6,127.2,-7.983,-8.279,-80,-8.371,-7.51,-4.358,-4.484,-4.846,-4.527,4.869,8.31,32,-1.787,1.553,4.541,7.528,-8.347,-8.199,-1.355,1.234,56.0,45.4,68.2,41.1,39.4,8.2,26.7,52.4,62.8,36.2,2,norm,1.44,1.163,-1.515,-1.755,-4.414,-5.081,-1.712,-1.358,-1.899,-1.5,1.949,-1.995,45.1,18.9,-5.3,-7.761,32.6,-1.21,8.092,5.265,-5.002,-8.331,16,5.049,4.941,5.155,5.065,1.556,1.211,1.781,1.438,16,4.91,5.182,-30,154.976765297,norm,0,41,41,41,390.107,390.115,390.116790325,390.117,390.121,390.126,down,1,1.65889583673,3.0,001,003,800_600,Intel(R) Core(TM) i7-2670QM CPU @ 2.20GHz,orientation_search,GRVLAPTOP3,Intel(R) HD Graphics Family,2018_mei_31_1453,testMonitor,
25.0,67.8,46.5,23.9,36,-80,,22.0,9.1,39.0,8.397,8.326,8.12,7.755,7.916,8.143,8.315,5.047,-5.187,-8.456,1.849,-1.132,8.13,4.723,-5.076,-8.279,43.6,48.6,-8.341,13.1,52.0,28.9,45.1,38.7,36,27.7,4,10,prime,15,0,70,norm,36,-5.007,down,norm,38.1534612202,66.1,40.5,1.959,28.5,0,24.8,65.4,22.7,15,6,7.62,4.33,1.593,-2.046,-4.879,-7.545,40.3,6,108.2,-7.908,-7.736,-80,-7.554,-7.819,-4.353,-5.049,-5.088,-4.329,4.767,8.058,24,-1.528,1.277,4.714,8.064,-7.82,-7.607,-2.046,1.256,44.7,56.7,41.2,8.2,68.2,42.1,46.7,35.5,18.5,33.2,3,norm,1.509,1.173,-1.978,-1.804,-5.155,-5.251,-1.725,-1.622,-2.089,-2.073,1.829,-1.872,60.6,56.9,-4.775,-8.034,48.2,-1.892,8.145,5.185,-5.25,-8.075,16,4.632,5.127,5.082,4.37,1.706,1.531,1.244,1.438,16,4.422,4.31,-30,154.976765297,norm,0,42,42,42,391.796,391.804,391.806470472,391.807,391.811,391.816,down,1,1.37750366213,6.0,001,003,800_600,Intel(R) Core(TM) i7-2670QM CPU @ 2.20GHz,orientation_search,GRVLAPTOP3,Intel(R) HD Graphics Family,2018_mei_31_1453,testMonitor,
49.0,54.3,,43.4,36,-80,10.0,53.7,10.2,30.5,7.611,8.055,7.797,7.622,7.772,7.774,8.39,4.326,-4.406,-7.949,1.317,-1.5,7.773,4.328,-4.916,-7.661,37.8,45.6,-8.054,38.2,61.5,43.6,46.5,67.7,36,24.3,3,10,prime,15,0,91,norm,36,-4.42,down,norm,38.1534612202,51.2,8.2,1.699,39.4,2,53.7,15.7,17.5,15,6,7.895,5.237,1.299,-1.566,-4.667,-8.269,10.7,6,129.2,-7.864,-7.514,-80,-8.28,-7.667,-4.36,-4.45,-4.832,-4.954,5.298,8.086,20,-1.312,1.358,4.31,7.703,-7.606,-7.782,-1.388,1.935,29.8,36.0,31.8,27.0,35.5,34.3,21.8,16.5,48.4,30.7,4,norm,1.951,1.949,-1.951,-1.465,-5.228,-4.444,-1.322,-1.134,-1.822,-2.042,1.906,-1.694,68.2,32.7,-4.701,-7.933,34.7,-1.411,7.848,4.852,-4.488,-8.115,16,4.971,5.29,4.596,4.348,1.405,1.258,1.887,1.976,16,5.026,4.86,-30,154.976765297,norm,0,43,43,43,393.204,393.211,393.21313109,393.214,393.217,393.223,down,1,2.47425955388,-5.0,001,003,800_600,Intel(R) Core(TM) i7-2670QM CPU @ 2.20GHz,orientation_search,GRVLAPTOP3,Intel(R) HD Graphics Family,2018_mei_31_1453,testMonitor,
9.6,52.1,41.6,51.6,36,-80,8.2,29.4,50.5,45.1,8.309,8.16,8.014,7.55,7.958,7.594,7.758,4.647,-4.999,-7.762,1.303,-1.725,7.509,4.839,-4.86,-8.356,62.8,66.3,-7.918,13.0,40.1,68.2,26.4,29.0,36,61.6,0,10,prime,15,0,97,norm,36,-4.667,down,norm,38.1534612202,9.7,43.7,1.479,34.4,0,32.3,28.3,30.2,15,6,8.491,4.897,1.149,-1.715,-4.743,-8.022,26.2,6,135.2,-8.381,-8.204,-80,-7.801,-8.303,-4.836,-4.841,-4.649,-4.473,4.715,7.655,0,-1.795,1.377,5.138,8.38,-7.892,-8.17,-1.199,1.535,43.7,43.9,47.3,50.8,31.5,,37.9,14.7,28.2,19.4,5,norm,1.1,1.484,-1.956,-2.038,-4.88,-4.316,-2.003,-1.482,-2.045,-1.642,1.133,-1.913,43.2,21.6,-4.736,-7.582,32.5,-1.808,8.213,4.744,-4.963,-7.939,16,5.248,4.334,4.908,4.712,1.276,1.643,1.786,1.617,16,4.483,5.263,-30,154.976765297,norm,0,44,44,44,395.707,395.715,395.716846921,395.717,395.721,395.727,down,1,0.920629480184,11.0,001,003,800_600,Intel(R) Core(TM) i7-2670QM CPU @ 2.20GHz,orientation_search,GRVLAPTOP3,Intel(R) HD Graphics Family,2018_mei_31_1453,testMonitor,
10.7,10.2,10.5,-0.7,36,-40,18.9,0.8,17.3,12.6,7.706,7.856,7.825,8.106,8.162,7.724,8.217,4.606,-4.878,-8.35,1.183,-1.491,8.151,5.112,-4.59,-8.25,-7.2,6.0,-8.068,25.5,12.9,20.8,5.2,0.0,36,,4,10,probe,10,0,64,norm,36,-4.698,up,norm,12.753744351,17.5,17.1,1.493,-0.6,3,32.8,12.2,5.3,15,6,7.788,4.968,1.397,-2.078,-4.878,-8.204,18.5,2,-51.2,-8.344,-7.641,-80,-8.173,-8.155,-4.479,-5.068,-4.466,-4.649,4.62,7.509,27,-1.25,1.796,4.513,7.757,-7.957,-7.808,-1.237,1.633,15.1,11.3,3.8,11.9,7.1,17.0,21.3,14.5,1.1,20.2,0,norm,1.295,1.574,-1.954,-1.854,-4.812,-5.216,-1.376,-1.481,-1.981,-1.173,1.464,-1.383,26.0,16.5,-5.012,-7.925,13.3,-1.263,8.07,4.979,-4.47,-8.406,17,4.364,4.816,5.104,4.411,1.144,1.842,1.883,1.13,17,5.085,4.923,-80,38.1534612202,norm,0,45,45,45,396.658,396.666,396.668254641,396.669,396.673,396.678,up,1,1.4746947602,5.0,001,003,800_600,Intel(R) Core(TM) i7-2670QM CPU @ 2.20GHz,orientation_search,GRVLAPTOP3,Intel(R) HD Graphics Family,2018_mei_31_1453,testMonitor,
55.3,40.1,53.3,47.3,36,-40,61.5,41.0,69.8,41.5,7.639,8.446,7.678,8.209,8.209,7.83,7.522,5.072,-4.928,-7.553,1.502,-1.449,8.316,4.739,-4.704,-7.51,47.7,64.1,-8.114,45.2,44.0,59.5,57.2,54.8,36,30.3,2,10,probe,10,0,101,norm,36,-4.746,down,norm,49.753744351,41.6,29.8,1.903,,2,35.2,55.8,42.8,15,6,8.392,4.503,2.042,-1.4,-4.882,-8.288,54.6,2,-51.2,-7.581,-8.404,-80,-8.077,-8.43,-5.256,-4.745,-4.957,-5.228,4.807,8.085,14,-1.55,1.638,5.113,8.022,-7.735,-8.47,-1.343,1.128,43.7,50.9,43.9,40.9,45.7,50.4,47.7,29.9,51.9,47.0,1,norm,2.003,1.409,-1.42,-2.056,-4.711,-5.215,-1.388,-1.148,-1.368,-1.9,1.562,-1.496,59.3,39.2,-5.007,-7.978,62.3,-1.572,7.857,4.496,-5.044,-7.828,17,5.142,4.867,4.357,5.126,1.607,1.46,1.543,1.141,17,4.305,5.08,-80,38.1534612202,norm,0,46,46,46,398.163,398.171,398.17272788,398.173,398.177,398.182,down,1,1.29694799892,7.0,001,003,800_600,Intel(R) Core(TM) i7-2670QM CPU @ 2.20GHz,orientation_search,GRVLAPTOP3,Intel(R) HD Graphics Family,2018_mei_31_1453,testMonitor,
283.3,271.2,266.0,296.4,36,30,280.4,290.0,284.2,287.5,8.196,7.951,7.866,7.857,8.049,8.489,8.289,5.133,-4.858,-7.76,1.218,-2.015,7.511,4.885,-4.69,-7.916,299.6,271.7,-8.103,262.0,288.4,271.5,269.3,275.5,36,274.0,0,10,prime,15,0,84,norm,36,-4.356,up,norm,272.265350335,302.3,266.5,1.923,289.6,3,276.9,275.5,257.9,15,6,8.328,4.795,1.406,-1.477,-4.34,-8.23,270.2,6,356.3,-7.729,-8.398,30,-8.419,-7.844,-4.656,-4.643,-4.432,-4.889,4.94,7.724,3,-1.879,1.573,4.55,7.749,-8.49,-7.641,-1.524,1.715,258.5,268.3,,275.2,269.9,269.0,272.2,287.3,277.4,258.6,0,norm,1.552,1.479,-1.483,-1.43,-4.348,-4.951,-1.243,-1.811,-1.765,-1.116,1.336,-1.861,242.3,254.1,-5.014,-8.372,290.3,-1.612,7.579,4.5,-5.198,-8.119,18,4.749,5.228,4.646,5.021,1.809,1.449,1.473,1.847,18,5.169,4.441,-40,38.1534612202,norm,0,47,47,47,399.49,399.498,399.499918049,399.5,399.504,399.509,down,0,5.11101356844,-41.0,001,003,800_600,Intel(R) Core(TM) i7-2670QM CPU @ 2.20GHz,orientation_search,GRVLAPTOP3,Intel(R) HD Graphics Family,2018_mei_31_1453,testMonitor,
260.4,295.9,251.8,261.6,36,30,274.8,274.8,286.6,271.8,7.796,7.855,8.211,7.501,7.934,8.459,8.059,4.952,-4.307,-7.779,1.755,-2.04,7.787,4.851,-5.125,-8.064,272.3,264.0,-8.114,251.5,266.7,265.7,269.6,,36,287.2,4,10,prime,15,0,68,norm,36,-5.121,down,norm,272.265350335,243.2,289.8,2.007,302.3,2,275.0,282.4,284.2,15,6,8.465,4.542,2.002,-1.756,-5.019,-8.411,269.3,6,340.3,-8.489,-7.598,30,-8.316,-8.105,-4.614,-4.309,-4.882,-4.724,4.772,8.142,26,-1.949,1.466,4.736,7.747,-8.305,-8.294,-1.631,1.991,289.1,301.8,280.3,274.3,242.3,284.8,293.7,267.0,294.9,277.2,1,norm,2.084,2.018,-1.919,-1.488,-5.012,-4.986,-1.568,-1.995,-1.99,-1.814,1.636,-1.813,264.1,284.4,-4.59,-8.265,273.2,-1.812,7.796,4.589,-4.507,-7.532,18,5.221,4.317,4.939,4.389,1.328,1.782,1.251,1.922,18,5.086,4.791,-40,38.1534612202,norm,0,48,48,48,405.637,405.645,405.646857152,405.647,405.651,405.656,up,0,1.46384962408,-15.0,001,003,800_600,Intel(R) Core(TM) i7-2670QM CPU @ 2.20GHz,orientation_search,GRVLAPTOP3,Intel(R) HD Graphics Family,2018_mei_31_1453,testMonitor,
267.5,279.7,284.6,274.3,36,30,256.9,287.6,242.3,302.3,8.344,8.342,8.128,8.349,8.277,8.32,7.772,5.066,-4.811,-7.861,1.84,-2.072,8.098,4.812,-4.56,-8.03,291.1,281.1,-8.076,278.6,256.0,268.4,261.4,278.8,36,278.3,0,10,prime,15,0,101,norm,36,-5.101,up,norm,272.265350335,288.8,291.2,1.849,275.1,5,272.2,270.2,289.2,15,6,8.25,4.605,1.322,-1.224,-5.147,-8.157,259.7,6,373.3,-8.029,-8.054,30,-8.374,-7.689,-4.585,-4.832,-5.126,-4.631,4.553,7.999,5,-1.16,1.837,4.562,8.383,-7.663,-7.675,-1.322,2.041,272.2,276.5,246.6,272.3,261.0,282.7,267.8,296.2,,273.8,2,norm,1.326,2.052,-1.904,-1.209,-5.268,-5.1,-2.058,-2.029,-1.885,-1.323,1.589,-1.457,252.2,268.9,-4.609,-8.317,274.5,-2.013,8.357,5.018,-5.109,-7.763,18,5.281,4.84,4.79,4.39,1.304,1.197,1.899,1.894,18,4.653,4.444,-40,38.1534612202,norm,0,49,49,49,408.133,408.14,408.142586573,408.143,408.147,408.152,down,0,1.21909509772,-18.0,001,003,800_600,Intel(R) Core(TM) i7-2670QM CPU @ 2.20GHz,orientation_search,GRVLAPTOP3,Intel(R) HD Graphics Family,2018_mei_31_1453,testMonitor,
266.2,274.6,286.9,301.6,36,30,,272.1,273.5,247.5,8.109,7.708,7.732,7.905,8.011,8.074,7.99,4.926,-4.864,-7.624,1.547,-1.154,8.084,4.663,-4.654,-8.165,287.9,245.9,-8.331,297.4,286.0,242.3,288.4,279.6,36,264.9,4,10,prime,15,0,109,norm,36,-4.787,down,norm,272.265350335,299.3,302.3,1.863,275.7,0,253.8,282.7,282.6,15,6,7.648,4.351,2.047,-1.542,-4.549,-7.908,275.4,6,381.3,-7.617,-8.482,30,-7.504,-8.169,-4.413,-4.715,-4.575,-4.936,4.604,8.315,24,-1.484,2.001,5.283,7.948,-7.719,-8.174,-1.628,1.914,280.3,267.9,266.9,285.7,298.4,265.6,279.2,266.7,260.4,276.1,3,norm,1.216,1.622,-1.248,-1.586,-4.753,-5.093,-1.547,-1.837,-1.865,-1.8,1.503,-1.738,262.7,255.1,-5.056,-7.992,294.7,-1.835,8.238,4.315,-4.974,-8.196,18,4.558,5.12,4.37,5.255,2.044,1.867,1.337,1.62,18,4.425,5.07,-40,38.1534612202,norm,0,50,50,50,410.395,410.402,410.404465908,410.405,410.409,410.414,up,0,1.81698500079,-12.0,001,003,800_600,Intel(R) Core(TM) i7-2670QM CPU @ 2.20GHz,orientation_search,GRVLAPTOP3,Intel(R) HD Graphics Family,2018_mei_31_1453,testMonitor,
273.6,279.0,282.4,284.7,36,30,264.7,261.0,255.4,296.5,7.55,7.785,7.83,8.407,8.145,7.799,7.958,4.508,-4.436,-8.458,1.606,-1.959,8.06,4.482,-5.288,-8.136,291.5,242.5,-7.549,261.8,275.1,278.2,289.0,270.7,36,289.7,1,10,prime,15,0,67,norm,36,-4.659,down,norm,272.265350335,284.4,282.4,1.984,248.7,1,290.6,264.8,263.0,15,6,7.55,4.578,1.978,-1.122,-4.771,-8.191,275.7,6,339.3,-8.292,-8.096,30,-7.814,-8.414,-5.035,-5.017,-5.263,-5.195,4.517,8.461,7,-1.467,1.777,5.226,7.95,-8.087,-7.517,-1.513,1.336,244.9,272.8,293.1,294.1,289.9,260.3,,261.4,242.3,273.5,4,norm,1.207,1.24,-1.251,-1.583,-4.526,-5.183,-1.592,-1.559,-1.722,-1.679,1.314,-1.829,266.9,287.2,-4.47,-8.224,250.1,-1.432,8.183,4.896,-5.267,-8.305,18,4.438,4.909,5.08,4.502,2.062,1.431,1.833,1.705,18,5.239,4.891,-40,38.1534612202,norm,0,51,51,51,413.25,413.257,413.259624854,413.26,413.264,413.269,down,1,2.58702468769,-6.0,001,003,800_600,Intel(R) Core(TM) i7-2670QM CPU @ 2.20GHz,orientation_search,GRVLAPTOP3,Intel(R) HD Graphics Family,2018_mei_31_1453,testMonitor,
258.5,279.1,288.6,287.6,36,30,293.9,294.5,280.3,270.8,7.782,8.482,8.181,7.989,7.889,7.523,7.833,4.689,-4.722,-8.198,1.291,-1.929,8.046,4.911,-4.887,-7.932,302.3,283.0,-8.314,295.3,264.2,298.7,247.7,275.1,36,286.5,3,10,prime,15,0,103,norm,36,-5.106,down,norm,272.265350335,263.3,283.0,1.828,278.8,1,259.3,282.6,290.1,15,6,8.272,4.554,1.403,-1.833,-4.463,-7.791,260.9,6,375.3,-7.981,-7.968,30,-7.966,-8.104,-4.346,-4.307,-4.512,-5.193,4.372,8.062,19,-1.506,2.079,5.163,7.743,-7.514,-8.095,-1.398,1.607,257.0,263.8,268.1,285.0,259.6,287.9,295.4,271.5,256.9,242.3,5,norm,1.729,1.483,-1.499,-1.591,-4.396,-4.843,-1.684,-1.909,-2.027,-1.196,2.05,-1.244,,290.2,-4.946,-8.496,263.5,-1.921,8.041,4.685,-4.868,-8.015,18,5.02,5.227,5.275,4.904,2.017,1.383,1.97,1.281,18,4.59,5.239,-40,38.1534612202,norm,0,52,52,52,415.866,415.874,415.87646958,415.877,415.881,415.886,down,1,2.5396044759,-5.0,001,003,800_600,Intel(R) Core(TM) i7-2670QM CPU @ 2.20GHz,orientation_search,GRVLAPTOP3,Intel(R) HD Graphics Family,2018_mei_31_1453,testMonitor,
402.6,411.5,413.0,404.3,36,-10,397.4,409.7,395.2,402.8,7.874,8.461,7.6,8.238,8.491,8.365,8.402,5.191,-4.909,-7.857,1.474,-1.949,7.832,4.555,-4.944,-7.568,394.0,399.2,-7.661,401.6,419.4,402.8,384.7,400.2,36,,4,10,probe,10,0,99,norm,36,-4.624,up,norm,404.66781084,424.7,409.0,1.997,402.6,3,397.8,411.3,415.8,15,6,8.109,4.416,1.75,-1.579,-4.688,-7.509,419.8,2,305.7,-7.59,-8.428,30,-8.072,-8.083,-5.115,-4.599,-5.109,-5.269,4.541,7.658,27,-1.603,1.72,4.732,7.881,-8.053,-8.072,-1.68,1.99,391.8,402.3,408.1,399.0,397.3,388.0,397.7,416.0,419.9,416.0,0,norm,1.394,1.717,-1.976,-1.951,-5.172,-4.668,-2.042,-1.626,-1.581,-1.324,1.21,-1.834,409.3,414.6,-4.31,-7.767,409.5,-1.865,8.018,5.011,-5.033,-8.162,19,4.68,5.276,4.999,5.228,1.503,1.691,1.85,1.489,19,4.698,4.672,30,272.265350335,norm,0,53,53,53,418.437,418.444,418.446403547,418.447,418.451,418.456,up,1,1.55763145029,4.0,001,003,800_600,Intel(R) Core(TM) i7-2670QM CPU @ 2.20GHz,orientation_search,GRVLAPTOP3,Intel(R) HD Graphics Family,2018_mei_31_1453,testMonitor,
406.1,401.2,405.0,389.7,36,-10,420.3,412.0,420.4,417.3,7.866,8.056,7.638,8.203,8.278,8.291,7.946,5.181,-4.464,-8.036,1.197,-1.638,7.727,4.822,-5.27,-7.949,414.8,429.7,-8.194,421.0,413.4,396.1,405.3,420.1,36,402.3,0,10,probe,10,0,104,norm,36,-5.23,down,norm,409.66781084,407.6,403.9,1.423,410.6,1,411.0,390.7,419.2,15,6,7.792,4.96,1.882,-1.206,-5.117,-8.046,409.5,2,305.7,-7.718,-8.027,30,-8.166,-7.883,-4.389,-5.26,-5.118,-4.575,4.839,7.816,1,-1.451,1.128,4.518,8.366,-8.103,-7.64,-1.982,1.34,404.9,413.0,410.8,412.5,,396.5,412.2,410.6,401.6,416.0,1,norm,1.678,1.821,-1.617,-1.624,-4.741,-5.018,-2.1,-1.703,-1.898,-1.513,1.895,-1.406,425.3,420.3,-4.928,-8.301,403.7,-1.28,7.685,4.908,-5.227,-8.053,19,4.341,4.77,4.687,4.982,1.467,1.187,1.64,1.975,19,4.331,4.687,30,272.265350335,norm,0,54,54,54,420.025,420.033,420.034740858,420.035,420.039,420.044,down,1,0.929603042336,11.0,001,003,800_600,Intel(R) Core(TM) i7-2670QM CPU @ 2.20GHz,orientation_search,GRVLAPTOP3,Intel(R) HD Graphics Family,2018_mei_31_1453,testMonitor,
52.9,,31.3,56.2,36,-80,49.8,49.3,69.2,46.6,7.625,8.058,8.304,8.169,7.787,7.518,8.061,4.77,-4.772,-7.66,2.018,-1.868,8.131,4.709,-4.305,-8.355,32.1,51.8,-7.993,24.5,44.0,47.5,38.9,18.2,36,37.0,3,10,prime,15,0,113,norm,36,-5.009,up,norm,39.1723551046,45.5,33.1,1.725,58.4,5,57.2,52.3,47.6,15,3,8.325,4.701,1.127,-2.089,-4.702,-8.079,28.0,3,152.2,-8.255,-7.937,-80,-8.337,-7.774,-4.852,-5.11,-5.282,-4.901,4.669,7.785,23,-1.799,1.606,4.467,8.247,-8.304,-8.201,-1.95,1.942,33.1,44.2,26.7,43.3,39.7,28.5,9.2,35.2,12.3,43.1,0,norm,1.14,1.87,-1.15,-1.349,-4.534,-5.009,-1.786,-1.565,-1.248,-1.272,1.224,-1.326,34.6,16.7,-4.607,-8.459,46.7,-1.922,8.453,4.776,-4.3,-8.128,20,4.517,5.041,4.919,4.737,1.565,1.716,1.721,1.642,20,4.442,5.092,-10,272.265350335,norm,0,55,55,55,420.985,439.632,439.634132037,439.635,439.639,439.644,up,1,4.75994121913,-28.0,001,003,800_600,Intel(R) Core(TM) i7-2670QM CPU @ 2.20GHz,orientation_search,GRVLAPTOP3,Intel(R) HD Graphics Family,2018_mei_31_1453,testMonitor,
19.4,16.3,22.0,43.4,36,-80,,46.4,39.5,41.6,7.701,7.801,8.168,7.833,7.744,7.814,8.288,4.436,-4.714,-7.826,1.243,-2.074,8.374,4.661,-5.0,-7.758,9.2,21.4,-8.161,45.4,55.3,63.4,27.4,53.5,36,26.4,4,10,prime,15,0,89,norm,36,-4.45,down,norm,39.1723551046,44.0,32.7,1.817,31.2,0,54.2,30.8,32.1,15,3,8.386,4.412,1.343,-1.911,-5.136,-7.781,27.5,3,128.2,-8.301,-8.117,-80,-7.83,-7.947,-4.61,-4.755,-4.512,-4.786,4.819,8.183,24,-1.702,1.928,4.639,7.854,-7.988,-8.261,-1.52,1.935,31.4,42.9,31.4,45.9,43.7,24.4,69.2,23.9,41.2,13.0,1,norm,1.794,1.254,-1.879,-1.445,-4.681,-5.029,-2.037,-1.5,-1.898,-1.94,1.635,-1.863,21.4,43.5,-4.377,-7.54,25.2,-1.494,7.908,4.778,-4.356,-7.525,20,5.085,5.267,5.268,5.089,1.469,1.19,1.8,1.89,20,4.387,4.89,-10,272.265350335,norm,0,56,56,56,444.414,444.422,444.423899365,444.425,444.428,444.433,down,1,0.912214868646,11.0,001,003,800_600,Intel(R) Core(TM) i7-2670QM CPU @ 2.20GHz,orientation_search,GRVLAPTOP3,Intel(R) HD Graphics Family,2018_mei_31_1453,testMonitor,
42.7,55.6,34.2,51.1,36,-80,68.2,54.7,25.5,42.8,8.116,7.836,7.734,8.325,7.698,8.105,7.643,5.112,-5.215,-8.183,1.711,-1.808,8.287,5.239,-4.483,-7.99,44.9,64.2,-7.981,21.1,47.3,31.7,53.5,23.2,36,10.6,0,10,prime,15,0,94,norm,36,-5.121,down,norm,39.1723551046,27.7,37.4,1.354,45.1,0,27.2,47.1,40.3,15,3,7.604,4.603,1.93,-1.21,-4.377,-8.271,38.8,3,133.2,-8.4,-8.416,-80,-7.942,-7.955,-4.713,-5.136,-5.221,-4.444,4.908,8.075,0,-1.369,1.479,4.366,7.545,-8.27,-8.314,-1.829,1.864,59.5,57.5,23.4,36.1,16.1,,16.9,69.2,38.8,63.5,2,norm,2.033,1.675,-1.565,-1.285,-4.643,-4.645,-1.406,-1.247,-1.712,-1.28,1.615,-1.793,9.2,42.3,-4.474,-8.201,41.8,-1.18,8.384,4.801,-4.917,-7.566,20,4.719,4.798,4.664,4.972,1.368,1.307,1.249,1.733,20,4.404,4.336,-10,272.265350335,norm,0,57,57,57,445.356,445.364,445.366477346,445.367,445.371,445.376,down,1,0.778468774181,12.0,001,003,800_600,Intel(R) Core(TM) i7-2670QM CPU @ 2.20GHz,orientation_search,GRVLAPTOP3,Intel(R) HD Graphics Family,2018_mei_31_1453,testMonitor,
22.2,2.7,12.0,15.5,36,-40,13.1,6.9,11.5,29.3,7.801,8.208,7.959,8.148,7.619,7.961,7.7,5.15,-5.243,-8.352,1.674,-1.293,8.331,5.091,-5.164,-8.345,4.6,26.5,-8.165,10.0,18.7,-4.9,10.7,31.5,36,20.0,1,10,probe,10,0,62,norm,36,-4.928,up,norm,15.0963874714,10.3,8.0,1.747,22.9,4,3.0,14.0,8.5,15,3,8.206,5.028,1.809,-1.942,-4.862,-8.306,,1,-46.9,-7.818,-7.845,-80,-8.391,-8.412,-4.882,-4.56,-4.994,-5.105,4.912,7.784,10,-1.357,2.057,5.226,7.536,-7.924,-7.968,-2.009,1.381,16.2,6.6,2.8,4.9,16.6,35.1,11.1,13.0,18.6,12.1,0,norm,1.782,1.122,-1.661,-1.587,-4.799,-4.357,-1.735,-1.608,-2.072,-1.175,1.284,-1.884,-1.3,2.6,-4.632,-7.874,6.3,-1.567,7.621,4.536,-5.011,-8.428,21,4.997,4.549,4.435,4.825,1.612,1.912,1.189,1.479,21,4.605,4.936,-80,39.1723551046,norm,0,58,58,58,446.165,446.173,446.175644509,446.176,446.18,446.185,up,1,1.07804155287,9.0,001,003,800_600,Intel(R) Core(TM) i7-2670QM CPU @ 2.20GHz,orientation_search,GRVLAPTOP3,Intel(R) HD Graphics Family,2018_mei_31_1453,testMonitor,
44.1,41.8,35.4,13.5,36,80,4.7,26.4,-10.1,19.5,8.237,7.844,8.335,7.522,8.433,8.083,8.016,5.128,-4.802,-7.92,1.955,-1.955,7.775,4.383,-4.78,-8.366,18.7,-2.7,-8.464,22.6,32.0,11.5,8.7,,36,22.4,4,10,prime,15,0,99,norm,36,-4.501,down,norm,19.8661371228,26.6,39.3,1.219,3.7,2,19.2,-6.2,34.4,15,6,7.548,4.707,1.499,-1.261,-4.982,-7.66,28.6,6,118.9,-7.662,-8.038,80,-7.6,-8.296,-4.969,-4.566,-4.879,-5.049,5.022,7.609,26,-1.739,1.953,4.346,7.787,-7.75,-8.42,-1.718,1.322,6.6,49.9,-2.5,10.1,26.4,7.5,3.8,8.9,38.0,30.3,0,norm,1.185,1.268,-1.304,-1.241,-5.225,-4.902,-1.738,-1.193,-1.263,-2.022,2.022,-1.152,14.3,36.1,-4.954,-7.529,15.5,-2.045,8.039,4.851,-5.062,-8.338,22,5.046,5.168,4.494,5.041,2.027,1.513,1.645,1.665,22,4.95,4.331,-40,39.1723551046,norm,0,59,59,59,447.273,447.281,447.283656462,447.284,447.288,447.293,down,1,0.993369174039,10.0,001,003,800_600,Intel(R) Core(TM) i7-2670QM CPU @ 2.20GHz,orientation_search,GRVLAPTOP3,Intel(R) HD Graphics Family,2018_mei_31_1453,testMonitor,
15.2,14.7,14.2,8.8,36,80,17.8,27.2,35.5,34.4,7.526,8.204,8.017,7.735,7.796,7.808,7.735,5.014,-5.265,-7.868,1.842,-1.819,8.352,4.815,-4.743,-7.765,30.0,12.3,-8.412,34.7,20.3,15.0,42.0,20.1,36,49.9,1,10,prime,15,0,115,norm,36,-4.592,up,norm,19.8661371228,21.6,11.5,1.95,-10.1,5,,-2.9,30.4,15,6,8.062,4.484,1.873,-1.834,-4.521,-8.271,2.9,6,134.9,-7.899,-7.806,80,-7.676,-8.384,-4.484,-4.45,-5.216,-4.671,5.018,7.798,11,-1.8,1.667,4.966,8.079,-8.369,-7.983,-1.684,1.769,21.2,6.3,44.1,10.9,37.5,21.0,44.1,14.2,17.1,22.3,1,norm,1.81,1.713,-1.207,-1.673,-5.226,-4.944,-1.123,-1.438,-1.54,-1.711,1.832,-1.764,2.7,10.1,-4.85,-8.285,48.4,-2.061,7.839,4.583,-4.515,-8.014,22,4.581,4.729,5.214,5.171,1.934,1.821,1.901,1.998,22,4.543,5.006,-40,39.1723551046,norm,0,60,60,60,448.297,448.305,448.307830025,448.308,448.313,448.317,up,1,1.12821869398,9.0,001,003,800_600,Intel(R) Core(TM) i7-2670QM CPU @ 2.20GHz,orientation_search,GRVLAPTOP3,Intel(R) HD Graphics Family,2018_mei_31_1453,testMonitor,
33.3,5.4,28.8,30.8,36,80,12.6,31.5,,19.3,7.845,8.409,7.9,8.059,8.47,8.473,7.739,5.271,-4.378,-7.631,1.126,-1.107,8.229,4.867,-4.675,-7.562,-1.9,26.2,-7.592,49.9,6.8,3.5,0.0,11.5,36,23.6,4,10,prime,15,0,99,norm,36,-4.822,up,norm,19.8661371228,36.5,5.2,1.329,22.9,4,28.4,7.0,1.1,15,6,7.54,4.433,1.352,-1.38,-5.101,-8.36,14.2,6,118.9,-7.795,-8.391,80,-8.423,-8.364,-4.475,-5.045,-4.736,-4.851,5.033,8.191,28,-1.402,1.13,4.333,8.136,-7.824,-7.557,-1.179,1.796,4.4,18.3,19.5,9.5,6.5,-10.1,38.2,26.6,26.9,26.1,2,norm,2.068,1.777,-2.05,-1.478,-5.196,-4.516,-1.362,-1.102,-2.081,-2.072,1.177,-1.497,19.1,15.8,-4.453,-8.382,39.6,-1.352,8.349,5.174,-5.053,-7.639,22,5.007,4.623,4.915,4.695,1.429,1.738,1.508,1.279,22,5.11,5.061,-40,39.1723551046,norm,0,61,61,61,449.457,449.464,449.466241858,449.467,449.471,449.476,down,0,0.929668883635,-21.0,001,003,800_600,Intel(R) Core(TM) i7-2670QM CPU @ 2.20GHz,orientation_search,GRVLAPTOP3,Intel(R) HD Graphics Family,2018_mei_31_1453,testMonitor,
11.6,24.9,19.3,12.8,36,80,39.4,43.1,20.3,39.7,8.343,7.877,8.067,8.429,8.44,8.24,7.675,5.106,-4.685,-8.038,1.467,-1.357,8.494,4.554,-4.829,-8.107,40.0,18.2,-7.816,-1.0,18.2,4.3,19.7,,36,13.9,4,10,prime,15,0,114,norm,36,-4.706,down,norm,19.8661371228,25.0,24.7,1.202,38.1,2,34.4,2.6,17.9,15,6,8.273,4.778,1.36,-1.925,-4.393,-8.187,6.8,6,133.9,-8.129,-7.747,80,-7.616,-7.614,-4.804,-4.519,-4.323,-4.361,5.243,8.055,26,-2.009,1.299,5.299,7.857,-7.566,-8.172,-1.806,1.586,44.5,-10.1,34.1,5.6,17.6,-7.6,36.0,49.9,-8.6,10.4,3,norm,1.132,2.094,-2.045,-1.339,-4.756,-4.602,-2.053,-1.825,-2.037,-2.088,1.161,-1.538,11.3,-0.2,-5.088,-8.401,29.3,-1.961,8.381,4.469,-4.536,-7.63,22,4.493,4.387,5.06,4.917,1.571,1.166,1.267,1.936,22,5.298,4.85,-40,39.1723551046,norm,0,62,62,62,451.422,451.43,451.432082831,451.433,451.436,451.441,down,1,0.983536406269,10.0,001,003,800_600,Intel(R) Core(TM) i7-2670QM CPU @ 2.20GHz,orientation_search,GRVLAPTOP3,Intel(R) HD Graphics Family,2018_mei_31_1453,testMonitor,
49.9,16.4,28.0,0.4,36,80,2.8,21.6,20.1,7.9,8.194,8.188,8.275,8.17,8.302,8.34,8.464,4.962,-5.241,-7.613,1.49,-1.609,7.915,4.468,-5.239,-7.906,15.6,4.8,-7.618,24.2,33.0,39.1,19.0,39.7,36,39.0,2,10,prime,15,0,65,norm,36,-5.054,up,norm,19.8661371228,18.0,,1.998,11.7,4,25.4,39.2,30.7,15,6,8.15,5.263,1.832,-1.738,-4.944,-8.309,21.6,6,84.9,-8.026,-7.745,80,-7.622,-7.766,-4.837,-4.421,-4.682,-4.429,5.249,8.497,16,-1.762,1.264,4.494,7.504,-7.937,-8.297,-1.316,1.628,42.4,19.5,10.9,18.7,27.4,29.8,43.9,11.3,-8.0,19.0,4,norm,1.56,1.736,-1.859,-1.659,-4.678,-5.285,-1.377,-1.796,-1.95,-1.408,1.69,-1.321,-10.1,13.7,-4.757,-7.613,25.3,-1.369,8.357,4.824,-5.163,-7.735,22,4.782,5.159,4.436,4.673,1.123,1.484,1.628,1.633,22,4.36,5.154,-40,39.1723551046,norm,0,63,63,63,452.436,452.444,452.446115433,452.447,452.451,452.456,up,1,3.0524124766,-11.0,001,003,800_600,Intel(R) Core(TM) i7-2670QM CPU @ 2.20GHz,orientation_search,GRVLAPTOP3,Intel(R) HD Graphics Family,2018_mei_31_1453,testMonitor,
46.5,7.3,9.0,32.4,36,80,10.6,21.6,5.4,31.2,8.217,7.665,8.052,8.289,7.843,7.884,8.209,5.23,-4.381,-8.375,1.111,-1.177,7.886,5.159,-4.94,-7.772,,29.9,-7.607,4.9,-3.0,29.7,49.9,1.6,36,8.9,5,10,prime,15,0,84,norm,36,-5.001,up,norm,19.8661371228,18.0,28.8,1.224,37.0,5,42.2,20.5,33.2,15,6,7.626,4.689,1.16,-1.456,-4.655,-7.507,2.8,6,103.9,-8.255,-7.882,80,-7.576,-8.259,-4.828,-5.3,-4.519,-4.881,4.645,8.401,35,-1.816,1.402,5.059,8.332,-7.889,-7.921,-1.104,1.614,48.2,21.4,14.1,13.3,13.0,-8.4,18.9,21.4,6.8,25.7,5,norm,1.548,1.234,-2.01,-1.82,-4.583,-5.007,-1.854,-1.406,-1.325,-1.201,1.222,-1.469,33.2,42.7,-5.127,-7.96,45.7,-1.921,7.832,4.632,-4.621,-7.75,22,4.308,4.659,4.363,5.272,1.95,1.37,1.707,1.5,22,5.152,4.537,-40,39.1723551046,norm,0,64,64,64,455.519,455.527,455.528889155,455.529,455.533,455.538,up,1,1.82620465064,2.0,001,003,800_600,Intel(R) Core(TM) i7-2670QM CPU @ 2.20GHz,orientation_search,GRVLAPTOP3,Intel(R) HD Graphics Family,2018_mei_31_1453,testMonitor,
201.4,196.8,181.8,185.4,36,-80,190.2,188.8,192.5,192.4,7.6,8.405,8.499,8.131,8.296,8.087,7.507,4.943,-4.475,-7.662,1.558,-1.586,8.171,5.118,-4.619,-8.027,175.6,171.8,-8.481,206.1,176.3,179.3,208.8,,36,181.4,4,10,probe,10,0,93,norm,36,-4.837,down,norm,189.652700395,209.2,189.7,1.555,178.1,2,189.6,200.2,178.9,15,6,7.989,4.573,1.925,-1.557,-4.374,-8.2,189.0,1,96.7,-7.765,-7.929,80,-7.915,-8.34,-4.467,-4.973,-5.239,-5.195,5.158,7.923,26,-1.933,2.008,4.649,8.316,-7.863,-7.822,-2.024,2.072,191.9,189.3,187.2,202.3,174.3,187.4,179.3,188.7,169.7,203.8,0,norm,1.531,1.65,-1.413,-2.002,-4.902,-4.383,-1.981,-1.981,-1.382,-1.104,1.381,-1.809,187.2,193.4,-4.662,-7.726,209.7,-1.783,8.211,5.119,-4.53,-8.202,23,4.879,4.57,4.816,4.41,2.071,1.706,1.287,1.999,23,4.651,4.305,80,19.8661371228,norm,0,65,65,65,457.376,457.383,457.385554045,457.386,457.39,457.395,down,1,1.17322098909,8.0,001,003,800_600,Intel(R) Core(TM) i7-2670QM CPU @ 2.20GHz,orientation_search,GRVLAPTOP3,Intel(R) HD Graphics Family,2018_mei_31_1453,testMonitor,
212.7,216.3,243.6,220.8,36,60,217.7,196.7,227.8,207.9,8.121,7.833,7.64,7.587,7.94,7.502,7.856,5.287,-5.143,-8.465,1.153,-1.831,8.058,5.163,-4.707,-8.458,219.3,183.6,-8.369,202.2,219.0,229.4,196.9,204.8,36,215.5,2,10,prime,15,0,96,norm,36,-5.085,down,norm,213.643436231,203.1,202.5,1.822,223.8,0,195.7,226.0,,15,3,8.121,5.245,1.222,-1.86,-5.04,-8.304,222.1,3,309.6,-7.933,-7.826,60,-8.487,-8.312,-4.734,-4.494,-5.095,-5.281,4.81,7.989,12,-1.144,1.636,4.97,8.138,-7.769,-7.613,-1.584,1.396,213.4,227.0,208.5,203.3,234.7,206.0,234.7,197.2,214.5,183.9,0,norm,1.526,1.888,-1.94,-1.487,-4.845,-4.534,-1.684,-1.579,-1.643,-2.06,1.999,-1.553,198.3,191.5,-5.294,-8.069,210.5,-1.285,7.91,5.087,-4.81,-7.625,24,5.014,5.077,5.121,4.391,1.948,1.711,1.84,1.314,24,4.593,5.124,-80,19.8661371228,norm,0,66,66,66,458.58,458.588,458.590306013,458.591,458.595,458.6,down,1,1.03388305371,10.0,001,003,800_600,Intel(R) Core(TM) i7-2670QM CPU @ 2.20GHz,orientation_search,GRVLAPTOP3,Intel(R) HD Graphics Family,2018_mei_31_1453,testMonitor,
225.5,183.6,221.6,191.0,36,60,228.1,212.7,243.6,209.2,7.566,7.877,7.6,8.064,7.82,7.545,7.943,4.511,-4.658,-8.034,1.275,-1.951,7.591,4.855,-4.706,-7.863,215.0,211.8,-7.973,222.9,207.9,227.4,195.8,220.2,36,221.7,0,10,prime,15,0,98,norm,36,-4.777,up,norm,213.643436231,197.1,217.7,1.894,191.9,3,208.1,209.0,211.7,15,3,8.248,4.517,1.732,-1.412,-5.186,-8.014,223.6,3,311.6,-7.967,-8.33,60,-8.2,-7.573,-5.044,-4.615,-5.055,-4.572,5.221,7.517,3,-1.551,1.694,5.136,7.666,-7.555,-8.107,-1.634,1.529,196.0,228.6,,209.7,199.1,200.7,236.0,213.0,240.3,215.2,1,norm,1.83,1.807,-1.119,-1.627,-4.563,-5.053,-2.027,-1.765,-1.309,-1.44,2.015,-1.732,208.9,228.2,-4.949,-8.482,207.4,-1.514,7.712,5.019,-4.504,-7.531,24,4.768,4.518,4.591,4.695,2.021,1.126,1.606,1.109,24,4.748,4.846,-80,19.8661371228,norm,0,67,67,67,459.645,459.652,459.654653976,459.655,459.659,459.664,up,1,1.48943480614,5.0,001,003,800_600,Intel(R) Core(TM) i7-2670QM CPU @ 2.20GHz,orientation_search,GRVLAPTOP3,Intel(R) HD Graphics Family,2018_mei_31_1453,testMonitor,
235.5,221.3,183.6,218.7,36,60,233.4,,199.9,227.9,7.757,7.643,7.639,8.375,8.28,8.23,7.849,5.112,-4.639,-7.915,2.082,-1.989,8.107,4.469,-4.848,-7.668,198.7,221.6,-8.149,229.2,231.2,211.1,228.7,235.9,36,207.1,4,10,prime,15,0,65,norm,36,-4.306,down,norm,213.643436231,218.7,233.6,1.257,213.0,1,209.3,211.4,226.9,15,3,8.023,4.739,1.71,-2.001,-4.605,-8.372,204.4,3,278.6,-7.67,-8.374,60,-8.409,-8.168,-4.375,-4.406,-5.142,-4.844,4.492,7.835,25,-1.264,1.917,4.707,7.947,-7.922,-8.343,-1.844,1.587,210.4,212.5,231.5,198.6,200.7,228.4,243.6,207.5,217.7,190.4,2,norm,1.388,1.192,-1.668,-1.747,-5.112,-4.575,-1.637,-1.609,-1.104,-1.401,1.23,-1.42,200.5,208.4,-4.467,-8.117,234.5,-1.163,8.378,4.645,-4.745,-8.102,24,5.183,4.626,5.283,4.86,1.727,1.569,1.242,2.083,24,4.435,5.124,-80,19.8661371228,norm,0,68,68,68,461.164,461.172,461.173851385,461.174,461.178,461.183,down,1,1.48621138419,5.0,001,003,800_600,Intel(R) Core(TM) i7-2670QM CPU @ 2.20GHz,orientation_search,GRVLAPTOP3,Intel(R) HD Graphics Family,2018_mei_31_1453,testMonitor,
409.9,401.3,392.1,405.0,36,30,408.7,400.6,392.7,405.1,7.931,7.995,8.032,7.841,8.021,8.149,8.315,5.277,-5.242,-8.231,1.882,-1.679,8.4,4.754,-4.973,-7.644,,412.1,-7.603,384.4,386.2,392.7,379.9,396.4,36,395.4,5,10,probe,10,0,111,norm,36,-4.539,up,norm,392.065177125,392.4,379.3,1.92,386.8,5,408.0,398.4,393.7,15,3,8.43,4.564,1.421,-1.771,-4.887,-8.011,401.4,2,281.1,-8.429,-8.267,60,-7.89,-7.953,-5.253,-4.594,-4.317,-5.117,5.097,7.801,35,-1.468,1.475,4.905,8.489,-7.822,-7.981,-1.862,1.128,394.8,387.9,391.3,387.8,390.2,395.9,397.6,372.1,409.3,396.6,0,norm,1.364,1.995,-2.077,-1.661,-4.41,-5.108,-1.784,-1.771,-1.177,-1.328,1.46,-1.614,401.3,400.2,-4.816,-8.016,386.6,-1.152,8.008,5.157,-5.283,-8.224,25,4.759,4.707,4.565,5.169,1.433,2.098,1.788,1.484,25,5.069,4.312,60,213.643436231,norm,0,69,69,69,462.674,462.681,462.6831231,462.684,462.688,462.693,up,1,1.27461659117,7.0,001,003,800_600,Intel(R) Core(TM) i7-2670QM CPU @ 2.20GHz,orientation_search,GRVLAPTOP3,Intel(R) HD Graphics Family,2018_mei_31_1453,testMonitor,
394.4,377.5,,390.8,36,30,382.3,382.5,371.5,370.0,7.607,8.054,8.138,7.513,7.614,7.777,8.347,4.799,-5.03,-8.108,1.553,-1.941,7.897,4.757,-4.994,-8.424,403.3,373.7,-7.606,368.0,381.0,387.6,378.3,372.8,36,392.2,3,10,probe,10,0,104,norm,36,-4.509,down,norm,385.065177125,386.8,384.4,1.806,393.4,2,402.8,382.7,396.3,15,3,7.555,4.459,1.642,-1.475,-5.229,-7.797,377.8,2,281.1,-7.839,-7.728,60,-8.074,-8.469,-4.45,-5.219,-4.765,-4.789,4.893,7.945,20,-1.171,1.207,4.682,7.658,-8.165,-8.016,-1.567,1.398,378.4,376.3,405.1,396.4,386.3,383.9,388.0,365.1,377.9,400.9,1,norm,1.165,1.37,-1.422,-1.998,-5.238,-5.034,-2.05,-1.132,-1.296,-1.53,1.173,-1.41,388.8,371.5,-5.269,-7.572,386.9,-1.221,8.042,4.803,-5.089,-7.766,25,5.201,4.992,4.938,4.439,2.03,1.886,1.856,1.353,25,4.987,4.892,60,213.643436231,norm,0,70,70,70,463.98,463.988,463.990163964,463.991,463.995,463.999,down,1,0.734328486449,13.0,001,003,800_600,Intel(R) Core(TM) i7-2670QM CPU @ 2.20GHz,orientation_search,GRVLAPTOP3,Intel(R) HD Graphics Family,2018_mei_31_1453,testMonitor,
167.1,164.5,179.7,180.0,36,20,197.0,195.6,160.2,174.7,7.668,8.449,8.333,8.077,8.342,7.806,7.779,4.858,-5.059,-7.677,1.282,-1.538,7.726,4.615,-5.252,-8.488,184.9,202.6,-7.54,176.2,171.2,183.5,178.4,208.0,36,167.4,2,10,prime,15,0,114,norm,36,-5.091,down,norm,178.022672618,178.1,163.1,1.708,,2,163.1,169.3,178.7,15,5,8.005,5.114,1.311,-1.923,-4.828,-7.964,156.9,5,292.0,-8.153,-7.709,20,-8.476,-8.408,-4.673,-5.055,-4.412,-5.006,4.649,8.294,14,-1.147,1.435,4.834,8.165,-7.843,-8.231,-1.613,1.62,173.0,188.9,197.4,174.1,185.7,182.9,167.5,189.1,182.2,187.5,0,norm,1.728,1.923,-1.272,-1.127,-5.127,-5.18,-1.277,-1.496,-1.592,-1.336,1.298,-2.022,148.0,185.5,-5.276,-7.714,193.5,-1.539,7.824,5.068,-4.929,-8.254,26,4.61,5.186,5.098,5.281,1.823,1.404,1.194,1.237,26,5.032,4.319,30,213.643436231,norm,0,71,71,71,464.745,464.753,464.754764505,464.755,464.759,464.764,down,1,2.31758574428,-3.0,001,003,800_600,Intel(R) Core(TM) i7-2670QM CPU @ 2.20GHz,orientation_search,GRVLAPTOP3,Intel(R) HD Graphics Family,2018_mei_31_1453,testMonitor,
171.1,175.1,148.0,168.6,36,20,179.1,186.3,179.2,197.6,7.82,8.097,7.714,8.063,7.558,8.39,8.304,4.866,-4.959,-8.399,2.085,-1.836,7.815,4.799,-5.273,-7.624,208.0,192.5,-8.27,176.2,177.2,,195.3,163.8,36,168.8,5,10,prime,15,0,112,norm,36,-5.288,up,norm,178.022672618,173.3,194.3,1.55,157.9,3,169.3,159.1,196.8,15,5,7.744,4.543,1.673,-1.969,-5.055,-7.682,161.0,5,290.0,-8.137,-7.557,20,-7.644,-8.457,-4.363,-4.7,-4.642,-4.372,4.539,7.562,33,-1.614,1.288,4.471,7.555,-7.749,-8.35,-1.269,1.601,179.2,185.6,170.3,156.6,155.9,191.2,202.4,199.6,175.1,178.6,1,norm,1.393,1.106,-1.37,-1.686,-4.831,-4.378,-1.477,-1.976,-1.982,-1.773,1.619,-2.097,171.8,181.0,-4.762,-7.505,192.6,-1.779,7.645,4.702,-5.203,-8.051,26,4.875,5.096,4.894,4.612,1.17,1.812,1.338,1.293,26,5.095,4.348,30,213.643436231,norm,0,72,72,72,467.093,467.1,467.102485019,467.103,467.107,467.112,down,0,1.65959254041,-13.0,001,003,800_600,Intel(R) Core(TM) i7-2670QM CPU @ 2.20GHz,orientation_search,GRVLAPTOP3,Intel(R) HD Graphics Family,2018_mei_31_1453,testMonitor,
159.8,180.5,192.4,175.7,36,20,208.0,166.3,172.0,204.1,7.618,7.642,8.18,8.442,7.523,8.081,8.205,4.861,-4.498,-7.856,1.108,-1.218,8.238,5.227,-5.106,-7.876,180.3,184.7,-7.762,175.8,148.0,191.5,178.5,171.5,36,177.3,2,10,prime,15,0,114,norm,36,-4.595,down,norm,178.022672618,175.1,166.1,1.125,200.7,0,179.3,171.1,,15,5,8.394,4.412,1.794,-1.737,-5.157,-7.54,199.6,5,292.0,-8.195,-7.755,20,-7.915,-8.248,-4.616,-4.67,-4.334,-5.243,4.784,7.604,12,-1.495,1.178,5.107,8.23,-7.795,-7.526,-1.226,1.97,201.2,191.3,173.5,160.1,148.1,167.4,185.0,169.5,194.5,190.0,2,norm,1.634,1.915,-1.432,-1.944,-4.312,-4.71,-1.523,-1.25,-1.52,-1.83,1.927,-1.936,184.1,179.9,-4.307,-7.655,180.1,-1.243,7.983,4.64,-5.245,-8.009,26,4.456,4.977,4.775,4.82,1.301,1.777,1.191,1.107,26,4.409,4.396,30,213.643436231,norm,0,73,73,73,469.783,469.791,469.793345172,469.794,469.798,469.803,up,0,0.628721375962,-24.0,001,003,800_600,Intel(R) Core(TM) i7-2670QM CPU @ 2.20GHz,orientation_search,GRVLAPTOP3,Intel(R) HD Graphics Family,2018_mei_31_1453,testMonitor,
173.5,181.7,172.5,151.8,36,20,164.1,162.1,149.5,159.8,8.048,8.491,8.346,7.739,7.652,8.102,7.501,4.56,-4.486,-8.408,1.129,-1.261,7.735,4.507,-4.748,-8.161,153.4,165.0,-7.784,189.9,186.3,208.0,196.5,184.2,36,,4,10,prime,15,0,104,norm,36,-5.011,up,norm,178.022672618,164.0,154.2,1.826,195.2,3,152.1,176.0,181.4,15,5,8.44,4.824,1.873,-1.984,-5.014,-7.868,173.7,5,282.0,-7.962,-7.584,20,-7.523,-8.472,-4.623,-5.159,-4.745,-4.466,5.262,8.467,27,-1.305,1.549,5.193,7.79,-8.487,-7.666,-2.082,1.851,186.3,197.9,168.8,172.8,198.2,175.1,199.8,160.0,179.1,183.3,3,norm,1.326,1.663,-1.589,-1.951,-5.166,-5.052,-1.389,-1.693,-1.298,-1.565,1.657,-1.807,194.2,148.0,-4.306,-7.986,161.7,-1.515,8.122,4.529,-5.257,-8.285,26,4.413,4.404,5.147,5.085,1.581,2.008,1.664,1.748,26,4.379,4.692,30,213.643436231,norm,0,74,74,74,471.452,471.46,471.461903804,471.462,471.466,471.471,down,0,0.440878481708,-26.0,001,003,800_600,Intel(R) Core(TM) i7-2670QM CPU @ 2.20GHz,orientation_search,GRVLAPTOP3,Intel(R) HD Graphics Family,2018_mei_31_1453,testMonitor,
171.1,199.0,150.6,200.0,36,20,172.0,180.3,192.9,166.0,7.725,8.495,7.685,7.885,7.857,7.761,8.48,4.553,-4.81,-7.595,1.395,-1.299,8.458,4.414,-4.619,-8.098,178.7,154.8,-7.821,196.5,163.8,182.9,172.0,177.1,36,181.7,0,10,prime,15,0,118,norm,36,-4.806,up,norm,178.022672618,181.2,177.5,1.14,182.0,3,154.6,189.6,177.1,15,5,7.641,4.341,1.596,-1.179,-4.607,-8.165,180.9,5,296.0,-7.744,-8.093,20,-8.203,-7.686,-4.422,-5.207,-4.588,-4.961,4.448,8.151,3,-1.667,1.905,5.061,7.87,-8.334,-8.158,-1.883,1.797,177.4,170.9,,189.3,166.0,171.5,194.2,180.2,148.0,170.0,4,norm,2.065,1.567,-1.784,-1.728,-5.193,-4.964,-1.668,-1.777,-1.496,-1.27,2.061,-1.877,203.3,189.0,-4.786,-8.393,208.0,-1.263,8.289,4.323,-5.092,-8.043,26,4.693,4.447,4.937,4.607,1.965,1.765,1.903,1.452,26,4.556,4.96,30,213.643436231,norm,0,75,75,75,472.935,472.942,472.944165177,472.945,472.949,472.954,up,1,0.629545092652,14.0,001,003,800_600,Intel(R) Core(TM) i7-2670QM CPU @ 2.20GHz,orientation_search,GRVLAPTOP3,Intel(R) HD Graphics Family,2018_mei_31_1453,testMonitor,
335.5,300.6,314.1,327.1,36,10,307.3,323.0,295.5,309.9,7.705,7.75,8.105,7.898,8.082,8.154,7.574,4.96,-4.377,-8.229,1.698,-1.521,7.573,5.06,-4.792,-8.456,316.0,317.9,-8.325,321.8,321.6,305.3,310.6,306.8,36,318.2,0,10,probe,10,0,113,norm,36,-4.346,down,norm,315.5279786,334.6,316.3,1.879,305.3,1,317.4,300.2,304.2,15,5,8.157,4.507,2.067,-1.914,-4.586,-8.206,311.1,1,202.5,-8.433,-7.602,20,-8.063,-8.407,-4.602,-4.823,-4.315,-4.386,4.549,8.117,1,-1.699,1.48,4.935,8.197,-8.407,-8.332,-1.995,1.341,297.8,310.5,310.8,317.7,,316.8,299.2,318.3,303.5,296.6,0,norm,1.425,1.647,-1.148,-1.112,-4.833,-4.505,-1.36,-2.031,-1.864,-1.609,2.074,-1.497,322.9,312.1,-5.235,-7.713,298.8,-1.594,7.607,4.538,-4.518,-7.734,27,5.183,4.529,4.619,4.659,1.524,1.348,1.959,1.93,27,4.923,4.858,20,178.022672618,norm,0,76,76,76,473.594,473.602,473.604249892,473.605,473.609,473.614,down,1,1.10343714934,9.0,001,003,800_600,Intel(R) Core(TM) i7-2670QM CPU @ 2.20GHz,orientation_search,GRVLAPTOP3,Intel(R) HD Graphics Family,2018_mei_31_1453,testMonitor,
140.6,128.8,110.5,138.4,36,30,112.4,128.2,120.8,162.2,7.522,8.374,7.682,7.923,8.001,7.514,7.59,5.167,-4.621,-7.885,1.907,-1.951,8.251,4.619,-4.728,-8.499,133.7,156.3,-8.287,123.9,151.5,148.2,126.4,127.5,36,136.4,0,10,prime,15,0,97,norm,36,-5.282,up,norm,132.209413864,136.9,145.7,1.737,152.1,3,123.8,105.5,122.1,15,3,7.634,4.547,1.226,-1.412,-4.434,-8.408,131.1,3,229.2,-8.167,-7.758,30,-8.066,-7.942,-5.228,-4.332,-4.398,-5.259,4.796,7.752,3,-1.693,1.941,4.994,7.792,-8.131,-8.292,-1.529,1.704,129.7,145.8,,149.0,144.2,135.9,138.9,136.4,133.1,158.2,0,norm,1.278,1.427,-1.117,-1.206,-4.788,-4.324,-1.591,-1.559,-1.478,-1.392,1.282,-1.275,102.2,131.7,-5.013,-7.548,124.6,-1.31,8.46,4.853,-4.706,-8.341,28,4.659,5.254,4.757,4.675,1.558,1.196,1.484,1.994,28,4.404,4.363,10,178.022672618,norm,0,77,77,77,474.728,474.736,474.737870375,474.738,474.742,474.747,up,1,1.16054210271,8.0,001,003,800_600,Intel(R) Core(TM) i7-2670QM CPU @ 2.20GHz,orientation_search,GRVLAPTOP3,Intel(R) HD Graphics Family,2018_mei_31_1453,testMonitor,
130.1,151.6,132.3,143.1,36,30,156.9,144.5,136.4,139.4,7.746,7.637,8.456,8.231,8.252,7.606,8.009,4.704,-5.168,-8.217,1.218,-1.798,8.08,4.502,-5.27,-8.178,147.4,133.7,-8.21,127.3,117.1,,111.5,123.2,36,134.9,5,10,prime,15,0,96,norm,36,-4.993,up,norm,132.209413864,102.2,116.6,1.848,140.5,3,148.8,123.1,144.9,15,3,7.618,4.396,1.237,-1.764,-4.605,-7.532,141.8,3,228.2,-8.187,-7.608,30,-8.36,-8.454,-4.866,-4.873,-5.052,-4.913,4.666,8.266,33,-1.234,1.198,5.122,7.502,-8.0,-8.393,-1.142,1.242,115.9,162.2,124.2,135.3,134.9,128.5,125.8,124.9,120.7,119.8,1,norm,1.379,2.042,-1.691,-1.364,-5.078,-5.089,-1.328,-1.335,-1.96,-2.022,1.571,-1.851,116.2,136.5,-4.985,-8.004,136.7,-1.735,7.925,5.067,-4.834,-8.436,28,5.225,4.995,4.52,4.384,1.89,1.604,1.754,1.271,28,4.33,4.389,10,178.022672618,norm,0,78,78,78,475.919,475.926,475.928278278,475.929,475.933,475.938,down,0,0.871186866481,-21.0,001,003,800_600,Intel(R) Core(TM) i7-2670QM CPU @ 2.20GHz,orientation_search,GRVLAPTOP3,Intel(R) HD Graphics Family,2018_mei_31_1453,testMonitor,
127.6,136.1,120.0,128.7,36,30,113.6,129.3,124.2,157.3,8.067,7.869,7.627,8.096,8.382,8.295,7.856,5.211,-5.005,-7.685,1.847,-1.463,8.428,4.996,-4.938,-8.386,122.0,157.2,-8.018,122.1,112.1,113.4,139.9,114.0,36,134.7,0,10,prime,15,0,117,norm,36,-4.978,down,norm,132.209413864,134.9,151.0,1.797,138.5,1,131.3,153.6,120.9,15,3,8.248,4.323,2.078,-1.944,-4.59,-7.918,145.9,3,249.2,-7.776,-8.23,30,-7.534,-8.064,-4.622,-4.473,-4.663,-4.873,5.17,7.663,1,-1.827,2.034,4.445,7.703,-7.731,-7.975,-1.4,2.035,138.4,108.0,137.4,112.2,,102.2,133.3,121.8,134.4,138.3,2,norm,1.202,1.548,-1.344,-1.755,-5.073,-4.919,-1.459,-1.472,-1.553,-1.964,2.001,-1.33,147.3,109.5,-4.762,-8.052,130.7,-1.284,7.567,5.11,-4.591,-8.301,28,5.174,5.146,4.428,5.236,1.684,1.237,1.245,1.694,28,5.088,4.399,10,178.022672618,norm,0,79,79,79,477.833,477.84,477.842550571,477.843,477.847,477.852,up,0,1.41996756499,-16.0,001,003,800_600,Intel(R) Core(TM) i7-2670QM CPU @ 2.20GHz,orientation_search,GRVLAPTOP3,Intel(R) HD Graphics Family,2018_mei_31_1453,testMonitor,
226.3,245.5,213.1,230.9,36,80,235.8,235.3,232.0,235.7,8.489,8.347,7.793,7.819,7.696,7.633,7.612,5.183,-4.368,-7.876,1.748,-2.076,8.379,4.359,-5.205,-7.701,232.9,211.8,-8.153,214.1,237.4,217.1,227.3,242.3,36,223.8,2,10,probe,10,0,65,norm,36,-4.903,up,norm,231.763625342,237.3,,1.389,231.3,4,233.9,225.8,227.1,15,3,8.173,4.497,1.957,-1.707,-4.465,-8.004,221.0,2,166.8,-8.348,-7.558,30,-7.577,-8.0,-4.458,-5.039,-4.696,-4.512,4.779,8.056,16,-1.815,1.573,5.085,8.109,-7.555,-8.304,-1.857,1.418,227.6,224.9,215.1,230.3,220.0,251.8,221.1,242.7,251.7,236.8,0,norm,1.754,1.693,-1.123,-2.014,-4.581,-4.482,-1.144,-2.014,-1.485,-1.625,1.905,-1.424,241.7,232.6,-4.332,-8.287,215.2,-2.089,7.548,4.58,-5.19,-8.263,29,5.073,4.345,4.715,4.762,1.141,2.044,1.736,1.189,29,5.25,4.81,30,132.209413864,norm,0,80,80,80,480.298,480.305,480.307107171,480.308,480.312,480.317,down,0,1.0705767371,-19.0,001,003,800_600,Intel(R) Core(TM) i7-2670QM CPU @ 2.20GHz,orientation_search,GRVLAPTOP3,Intel(R) HD Graphics Family,2018_mei_31_1453,testMonitor,
238.5,246.5,247.5,232.2,36,80,264.4,,270.8,234.9,7.759,8.36,7.807,8.076,7.813,8.047,8.082,4.961,-4.766,-8.139,1.245,-1.658,8.347,4.394,-4.735,-7.83,253.1,230.8,-7.652,251.9,264.6,250.6,262.2,256.9,36,245.0,4,10,probe,10,0,84,norm,36,-4.897,down,norm,250.763625342,259.2,232.9,1.28,238.9,1,245.8,261.5,244.9,15,3,8.436,4.727,1.798,-1.417,-5.105,-8.038,259.7,2,166.8,-8.287,-7.85,30,-7.589,-7.747,-4.9,-5.215,-5.22,-5.017,4.857,7.514,25,-1.779,1.902,4.372,7.679,-8.293,-8.177,-1.635,1.993,262.1,264.6,248.1,259.6,245.2,242.7,242.0,233.5,246.0,253.1,1,norm,1.119,1.818,-1.782,-1.913,-4.642,-4.604,-1.554,-2.054,-2.025,-1.839,1.268,-1.523,257.4,240.3,-4.947,-7.923,262.2,-1.286,8.353,4.89,-4.809,-8.132,29,4.368,4.392,4.72,4.595,1.528,1.704,1.163,1.224,29,5.051,4.923,30,132.209413864,norm,0,81,81,81,482.404,482.411,482.413598236,482.414,482.418,482.423,up,0,2.73096357575,-17.0,001,003,800_600,Intel(R) Core(TM) i7-2670QM CPU @ 2.20GHz,orientation_search,GRVLAPTOP3,Intel(R) HD Graphics Family,2018_mei_31_1453,testMonitor,
145.0,126.8,106.7,133.2,36,-30,122.8,122.3,151.0,136.5,8.484,7.721,7.972,7.937,8.09,8.053,7.997,4.689,-4.369,-7.559,1.367,-1.193,8.255,4.647,-5.104,-8.467,150.5,131.0,-8.135,158.7,140.1,159.9,,128.3,36,128.6,5,10,prime,15,0,72,norm,36,-4.381,down,norm,136.698820871,127.5,130.4,2.093,108.0,2,137.1,133.8,117.9,15,5,8.267,4.53,2.006,-1.486,-4.891,-8.371,143.2,5,208.7,-8.337,-8.31,-30,-7.511,-7.877,-4.569,-4.956,-4.814,-4.777,4.334,7.845,32,-1.225,1.888,4.934,8.211,-7.623,-8.384,-1.912,1.898,146.2,147.1,115.7,133.2,138.8,126.0,140.6,151.8,166.7,126.6,0,norm,1.936,1.733,-1.405,-1.529,-4.567,-4.977,-1.627,-2.033,-1.57,-1.499,2.024,-1.893,133.5,139.0,-4.455,-7.767,137.7,-2.063,8.016,4.464,-5.206,-8.289,30,4.789,5.091,4.59,4.656,1.828,1.425,1.692,1.892,30,4.659,5.246,80,132.209413864,norm,0,82,82,82,486.179,486.186,486.188721712,486.189,486.193,486.198,down,1,1.43275291815,6.0,001,003,800_600,Intel(R) Core(TM) i7-2670QM CPU @ 2.20GHz,orientation_search,GRVLAPTOP3,Intel(R) HD Graphics Family,2018_mei_31_1453,testMonitor,
166.7,132.5,142.8,116.8,36,-30,135.2,134.3,115.0,123.9,7.668,8.246,7.641,7.581,7.568,8.003,8.148,4.51,-4.402,-8.21,1.328,-1.547,7.527,4.754,-4.845,-8.427,151.7,124.5,-7.967,161.9,123.0,141.2,139.6,152.9,36,123.1,2,10,prime,15,0,94,norm,36,-4.862,up,norm,136.698820871,131.1,149.6,1.592,112.3,3,115.4,122.4,151.1,15,5,7.522,4.903,1.839,-1.424,-5.079,-7.993,111.6,5,230.7,-8.493,-7.715,-30,-8.281,-8.027,-4.624,-4.499,-5.016,-4.413,4.324,7.631,15,-1.916,1.921,4.505,7.553,-7.666,-8.32,-2.082,1.653,139.5,109.9,153.2,130.5,135.8,154.0,141.4,126.3,133.0,106.7,1,norm,2.04,1.188,-1.231,-1.875,-4.335,-4.899,-1.892,-1.177,-1.558,-1.855,1.766,-1.812,133.1,149.2,-4.606,-8.284,,-1.501,7.948,4.362,-4.706,-8.032,30,4.684,4.325,4.687,5.192,1.15,1.94,1.658,1.874,30,4.958,5.182,80,132.209413864,norm,0,83,83,83,487.642,487.649,487.651734078,487.652,487.656,487.661,up,1,1.59051054091,4.0,001,003,800_600,Intel(R) Core(TM) i7-2670QM CPU @ 2.20GHz,orientation_search,GRVLAPTOP3,Intel(R) HD Graphics Family,2018_mei_31_1453,testMonitor,
134.0,150.1,134.5,148.7,36,-30,133.0,129.4,110.1,,7.799,7.74,7.744,7.662,7.829,7.506,8.485,5.22,-5.192,-7.995,1.141,-1.569,8.198,4.647,-5.095,-7.892,129.4,160.4,-7.888,106.7,118.7,127.3,143.9,152.6,36,132.7,4,10,prime,15,0,102,norm,36,-4.734,up,norm,136.698820871,137.9,149.7,1.354,144.7,5,157.9,146.1,135.4,15,5,8.129,5.019,1.855,-1.204,-4.301,-8.461,127.1,5,238.7,-7.837,-8.075,-30,-7.758,-7.963,-5.161,-5.168,-4.43,-5.091,4.607,7.635,29,-1.926,1.653,4.851,7.545,-7.658,-7.521,-1.648,1.734,131.9,114.1,138.9,156.0,109.2,160.9,165.9,166.7,142.6,135.9,2,norm,2.027,1.527,-1.913,-1.152,-5.197,-4.336,-1.126,-2.099,-1.434,-1.1,1.613,-1.142,136.6,120.6,-4.872,-7.788,149.8,-1.993,7.638,5.259,-5.005,-8.343,30,4.99,4.598,4.563,4.51,1.771,1.604,1.447,1.298,30,4.846,4.814,80,132.209413864,norm,0,84,84,84,489.262,489.27,489.272024966,489.272,489.276,489.281,up,1,1.99534114432,0.0,001,003,800_600,Intel(R) Core(TM) i7-2670QM CPU @ 2.20GHz,orientation_search,GRVLAPTOP3,Intel(R) HD Graphics Family,2018_mei_31_1453,testMonitor,
130.8,115.2,148.3,150.2,36,-30,162.0,132.0,126.6,128.6,8.447,7.838,7.705,7.608,7.99,8.067,8.494,5.13,-5.066,-8.076,1.137,-1.124,8.458,4.548,-4.716,-8.424,131.8,118.7,-8.431,149.8,130.1,122.9,148.0,144.5,36,130.3,3,10,prime,15,0,72,norm,36,-4.738,down,norm,136.698820871,141.7,139.4,1.368,135.3,0,151.3,162.4,152.2,15,5,8.084,4.735,1.121,-1.304,-4.529,-8.086,166.7,5,208.7,-8.292,-8.08,-30,-8.496,-8.468,-5.174,-4.413,-4.802,-4.876,4.685,7.752,18,-1.429,2.07,5.198,8.092,-8.142,-7.534,-1.986,1.335,143.4,139.3,157.0,130.1,106.7,134.6,124.2,120.2,110.2,137.2,3,norm,1.691,2.003,-1.189,-1.573,-4.427,-5.282,-2.078,-1.393,-1.86,-1.177,1.559,-1.165,124.2,,-4.321,-8.184,135.4,-1.919,8.12,5.269,-4.841,-7.521,30,5.221,4.422,5.118,5.061,1.27,1.989,2.034,1.856,30,4.779,4.759,80,132.209413864,norm,0,85,85,85,491.288,491.295,491.297297285,491.298,491.302,491.307,down,1,1.33396248353,7.0,001,003,800_600,Intel(R) Core(TM) i7-2670QM CPU @ 2.20GHz,orientation_search,GRVLAPTOP3,Intel(R) HD Graphics Family,2018_mei_31_1453,testMonitor,
138.6,117.3,116.6,156.3,36,-30,134.9,110.5,156.3,123.4,8.395,8.212,7.979,8.166,8.145,7.577,7.967,4.416,-5.033,-7.716,1.536,-1.968,8.018,4.893,-4.484,-7.682,156.8,114.3,-7.678,106.7,148.2,138.8,131.0,132.3,36,123.6,2,10,prime,15,0,117,norm,36,-4.752,down,norm,136.698820871,150.4,147.0,1.923,134.8,0,135.7,112.5,,15,5,8.173,5.232,1.33,-1.693,-5.115,-8.039,135.6,5,253.7,-7.825,-8.431,-30,-8.389,-8.214,-4.331,-5.169,-5.105,-5.148,4.378,7.749,12,-1.552,1.494,5.297,8.212,-8.412,-8.064,-1.576,1.244,166.7,147.6,130.2,136.0,130.5,152.0,130.9,133.9,135.3,131.0,4,norm,1.671,1.372,-1.19,-1.599,-4.761,-4.681,-1.529,-1.709,-1.874,-1.452,1.153,-1.464,143.8,133.5,-4.997,-8.066,123.2,-1.113,8.47,4.339,-4.728,-8.156,30,4.681,5.116,4.682,4.694,2.099,1.389,2.0,2.064,30,4.883,5.272,80,132.209413864,norm,0,86,86,86,492.651,492.659,492.661044785,492.662,492.665,492.67,down,1,0.952570449024,10.0,001,003,800_600,Intel(R) Core(TM) i7-2670QM CPU @ 2.20GHz,orientation_search,GRVLAPTOP3,Intel(R) HD Graphics Family,2018_mei_31_1453,testMonitor,
154.6,163.1,,163.2,36,10,168.2,179.2,177.0,158.4,7.714,8.478,7.962,8.333,8.112,8.31,7.547,4.342,-4.604,-8.381,2.026,-2.02,8.287,4.94,-5.101,-7.866,153.0,173.6,-8.359,167.8,170.1,170.1,157.3,167.4,36,167.2,3,10,probe,10,0,62,norm,36,-5.008,down,norm,167.760945607,176.5,163.0,1.582,152.0,2,170.9,154.2,160.0,15,5,7.774,4.815,1.358,-1.11,-5.114,-7.748,171.1,1,105.8,-8.335,-7.868,-30,-7.706,-8.226,-5.176,-4.712,-4.742,-4.754,4.37,8.029,20,-2.087,1.281,5.149,8.273,-8.444,-7.836,-2.004,1.461,165.9,181.6,147.8,165.6,170.4,159.5,173.2,171.4,177.1,150.5,0,norm,1.217,1.799,-1.844,-1.237,-5.056,-5.118,-1.596,-2.016,-1.165,-1.476,1.619,-1.532,154.9,187.8,-5.112,-8.294,176.9,-1.871,7.953,5.264,-4.325,-7.922,31,4.747,4.887,5.087,5.25,2.023,1.589,1.938,1.22,31,4.424,4.733,-30,136.698820871,norm,0,87,87,87,493.634,493.641,493.643520259,493.644,493.648,493.653,down,1,2.55959828402,-6.0,001,003,800_600,Intel(R) Core(TM) i7-2670QM CPU @ 2.20GHz,orientation_search,GRVLAPTOP3,Intel(R) HD Graphics Family,2018_mei_31_1453,testMonitor,
90.6,77.9,91.6,76.4,36,40,80.3,89.1,58.6,74.0,8.037,8.348,8.01,8.301,8.025,7.735,7.931,4.838,-5.025,-7.954,1.785,-1.847,7.928,4.309,-4.95,-7.702,92.3,110.9,-7.808,116.8,87.7,111.8,69.0,97.5,36,88.4,1,10,prime,15,0,72,norm,36,-4.629,down,norm,86.801693945,90.7,88.2,1.871,98.1,0,85.9,103.1,85.5,15,3,8.392,4.784,1.645,-1.551,-5.181,-7.962,70.3,3,158.8,-8.468,-8.358,40,-7.683,-8.158,-4.551,-4.854,-5.171,-4.898,4.994,8.383,6,-1.844,1.212,4.889,7.692,-7.554,-7.644,-1.313,1.613,101.2,83.0,98.9,114.0,111.8,68.6,82.3,,72.8,74.5,0,norm,1.418,1.953,-1.196,-1.293,-4.991,-5.156,-1.346,-1.826,-1.243,-1.186,1.198,-1.532,70.5,86.8,-5.132,-7.869,56.8,-2.064,7.936,5.059,-4.382,-7.908,32,5.191,5.094,5.299,4.516,1.777,1.497,1.704,1.148,32,5.022,4.893,10,136.698820871,norm,0,88,88,88,496.223,496.231,496.232882546,496.233,496.237,496.242,up,0,2.59817428145,-16.0,001,003,800_600,Intel(R) Core(TM) i7-2670QM CPU @ 2.20GHz,orientation_search,GRVLAPTOP3,Intel(R) HD Graphics Family,2018_mei_31_1453,testMonitor,
109.6,83.5,103.9,88.2,36,40,83.6,74.7,68.7,116.8,8.211,8.0,8.28,8.207,8.302,7.83,8.157,4.865,-4.976,-8.214,1.207,-1.829,8.197,4.428,-4.455,-8.288,89.6,58.9,-8.153,77.1,74.0,112.0,87.3,75.6,36,86.2,0,10,prime,15,0,111,norm,36,-4.622,down,norm,86.801693945,91.8,56.8,1.564,114.9,2,93.3,86.2,68.7,15,3,8.049,4.34,1.153,-1.322,-4.723,-8.35,114.3,3,197.8,-7.732,-8.425,40,-7.868,-8.236,-4.35,-5.231,-4.616,-4.794,4.5,7.894,2,-1.401,1.494,4.85,7.993,-7.591,-7.662,-1.352,1.325,79.0,85.7,113.7,,85.1,66.9,112.1,60.2,85.8,69.3,1,norm,1.548,1.177,-1.478,-1.54,-5.072,-5.277,-1.415,-1.824,-1.466,-1.347,1.371,-2.08,93.6,77.1,-5.127,-7.788,79.2,-1.317,8.201,4.745,-5.284,-8.135,32,4.487,4.963,4.916,4.944,1.286,1.838,2.089,1.875,32,4.551,4.832,10,136.698820871,norm,0,89,89,89,499.86,499.867,499.869673451,499.87,499.874,499.879,down,1,1.92849774902,1.0,001,003,800_600,Intel(R) Core(TM) i7-2670QM CPU @ 2.20GHz,orientation_search,GRVLAPTOP3,Intel(R) HD Graphics Family,2018_mei_31_1453,testMonitor,
93.9,116.8,80.5,89.6,36,40,82.2,89.8,92.1,86.0,8.452,8.287,8.479,7.762,7.799,7.583,7.639,4.995,-4.39,-7.501,1.716,-1.148,8.152,5.283,-5.119,-7.752,,88.4,-7.872,85.5,75.2,82.8,89.1,72.1,36,94.1,5,10,prime,15,0,81,norm,36,-4.784,up,norm,86.801693945,82.3,90.4,1.838,91.6,5,85.3,82.5,85.7,15,3,8.125,4.628,1.177,-1.131,-4.53,-8.187,88.4,3,167.8,-7.939,-8.4,40,-7.761,-7.837,-4.587,-4.794,-5.229,-5.07,4.623,7.945,35,-2.048,1.231,4.468,8.249,-8.058,-7.557,-1.942,2.066,95.8,56.8,92.8,103.2,98.3,65.4,91.6,97.8,102.9,103.2,2,norm,1.888,1.711,-2.064,-1.291,-5.179,-4.749,-1.29,-1.668,-1.932,-1.996,2.057,-1.182,85.8,84.3,-4.319,-8.248,92.4,-1.572,7.67,5.295,-5.063,-8.269,32,4.767,4.426,5.209,5.15,1.691,1.24,1.895,1.835,32,4.697,4.455,10,136.698820871,norm,0,90,90,90,501.818,501.826,501.827837141,501.828,501.832,501.837,down,0,1.61918606144,-14.0,001,003,800_600,Intel(R) Core(TM) i7-2670QM CPU @ 2.20GHz,orientation_search,GRVLAPTOP3,Intel(R) HD Graphics Family,2018_mei_31_1453,testMonitor,
234.2,233.0,230.1,230.8,36,-10,229.5,246.5,237.3,222.2,8.29,8.086,7.881,8.299,7.663,7.626,7.653,4.378,-4.397,-8.465,1.327,-1.477,8.261,4.636,-4.536,-7.592,257.9,236.7,-7.951,235.3,248.5,222.3,235.2,254.1,36,240.5,1,10,probe,10,0,103,norm,36,-4.75,down,norm,237.936872683,238.7,218.4,1.644,245.0,2,237.4,243.3,239.6,15,3,8.149,5.286,1.938,-1.678,-4.994,-7.967,238.2,2,134.9,-8.384,-7.956,40,-8.406,-7.947,-4.375,-4.874,-4.997,-4.873,5.018,8.428,8,-1.354,1.271,4.413,7.609,-8.256,-8.185,-1.86,2.019,241.6,,249.1,246.6,220.4,235.7,246.2,246.3,240.3,245.7,0,norm,1.995,1.24,-1.846,-2.046,-4.622,-4.719,-2.072,-1.226,-2.05,-1.559,1.455,-1.688,241.4,241.0,-4.598,-8.44,230.4,-1.387,7.902,5.215,-4.848,-8.19,33,4.687,4.301,4.924,4.643,1.739,1.864,1.11,1.383,33,4.728,4.911,40,86.801693945,norm,0,91,91,91,504.477,504.485,504.487293796,504.488,504.492,504.497,down,1,1.48679508366,5.0,001,003,800_600,Intel(R) Core(TM) i7-2670QM CPU @ 2.20GHz,orientation_search,GRVLAPTOP3,Intel(R) HD Graphics Family,2018_mei_31_1453,testMonitor,
217.8,223.7,211.2,220.2,36,-10,206.9,226.8,214.4,213.0,7.931,8.043,7.528,8.445,7.86,7.79,7.562,5.199,-4.451,-8.498,1.103,-1.354,7.732,4.514,-4.692,-8.477,212.4,220.9,-7.755,211.0,197.0,210.2,215.4,232.9,36,225.3,2,10,probe,10,0,78,norm,36,-5.047,down,norm,212.936872683,214.5,219.5,1.436,222.0,0,217.9,210.5,,15,3,7.65,5.111,1.788,-1.928,-4.793,-7.582,207.2,2,134.9,-8.006,-7.596,40,-8.156,-8.277,-5.079,-5.211,-5.26,-5.022,5.217,7.686,12,-1.423,1.802,4.707,7.693,-8.091,-8.43,-1.764,1.682,216.6,213.4,222.2,221.3,215.1,217.7,192.9,225.8,211.8,221.4,1,norm,1.43,1.793,-1.646,-1.107,-4.798,-5.074,-1.251,-1.397,-2.011,-1.837,1.654,-1.8,197.3,214.9,-4.837,-7.938,205.2,-1.185,8.067,4.424,-5.153,-8.247,33,4.417,5.207,4.961,5.032,1.252,1.714,1.185,1.362,33,4.73,4.861,40,86.801693945,norm,0,92,92,92,505.994,506.002,506.003868293,506.004,506.008,506.013,down,1,0.82356492816,12.0,001,003,800_600,Intel(R) Core(TM) i7-2670QM CPU @ 2.20GHz,orientation_search,GRVLAPTOP3,Intel(R) HD Graphics Family,2018_mei_31_1453,testMonitor,
27.3,55.8,48.1,72.2,36,-60,12.2,57.5,41.2,43.6,7.85,8.208,8.287,8.298,8.312,8.304,7.925,4.776,-5.158,-8.094,1.299,-1.802,8.472,4.357,-5.217,-7.729,22.7,65.3,-7.97,47.3,50.5,61.4,13.9,32.5,36,56.8,2,10,prime,15,0,102,norm,36,-4.795,down,norm,42.2454788505,61.6,35.1,1.277,27.9,1,26.5,,30.8,15,5,7.766,4.732,1.502,-1.727,-4.776,-7.563,47.0,5,144.2,-7.849,-7.74,-60,-7.703,-8.068,-4.883,-5.111,-4.344,-4.94,4.91,7.551,13,-1.196,1.309,4.823,7.592,-8.408,-7.566,-1.456,2.038,68.4,33.6,60.5,27.5,27.8,42.5,40.2,43.0,22.2,35.4,0,norm,1.717,1.91,-1.484,-1.134,-4.979,-5.243,-1.588,-1.348,-1.707,-1.841,1.916,-1.276,50.1,68.0,-4.911,-8.343,34.6,-1.207,8.245,5.229,-5.098,-7.513,34,4.369,4.688,4.645,4.858,1.969,1.892,1.261,1.655,34,4.858,4.83,-10,86.801693945,norm,0,93,93,93,506.848,506.856,506.857961637,506.858,506.863,506.867,down,1,0.753374833588,12.0,001,003,800_600,Intel(R) Core(TM) i7-2670QM CPU @ 2.20GHz,orientation_search,GRVLAPTOP3,Intel(R) HD Graphics Family,2018_mei_31_1453,testMonitor,
37.8,63.0,24.8,39.3,36,-60,,59.9,39.6,48.1,7.987,7.657,7.777,7.967,8.277,8.135,8.123,4.379,-5.267,-7.686,1.175,-1.472,7.552,4.65,-5.074,-8.315,24.1,28.4,-7.833,35.3,57.1,72.2,52.5,68.4,36,34.9,4,10,prime,15,0,109,norm,36,-4.893,down,norm,42.2454788505,16.9,25.6,1.255,34.9,0,26.7,30.8,58.3,15,5,8.103,4.887,1.292,-1.4,-5.046,-7.628,40.0,5,151.2,-7.946,-7.681,-60,-8.391,-7.712,-5.269,-4.971,-4.327,-4.398,4.534,8.378,24,-1.881,1.643,4.396,7.645,-8.443,-8.419,-1.98,1.669,56.9,36.1,46.4,46.4,26.9,25.7,37.7,46.5,43.3,13.4,1,norm,1.87,1.926,-1.844,-1.309,-5.246,-4.329,-2.047,-1.841,-2.079,-1.98,1.183,-1.124,55.5,12.2,-5.064,-7.868,30.5,-1.888,7.923,5.066,-4.366,-7.756,34,5.06,4.74,5.106,5.261,2.05,1.512,1.26,1.528,34,4.74,5.264,-10,86.801693945,norm,0,94,94,94,507.624,507.632,507.634113358,507.635,507.639,507.644,down,1,0.977485544099,10.0,001,003,800_600,Intel(R) Core(TM) i7-2670QM CPU @ 2.20GHz,orientation_search,GRVLAPTOP3,Intel(R) HD Graphics Family,2018_mei_31_1453,testMonitor,
29.2,28.8,42.3,54.8,36,-60,52.8,44.5,24.1,62.7,8.124,8.289,8.299,8.293,8.288,7.68,8.464,4.39,-4.852,-7.616,1.39,-1.618,8.137,4.739,-4.468,-8.349,42.6,35.8,-8.048,51.9,68.7,12.2,50.8,51.4,36,62.7,1,10,prime,15,0,88,norm,36,-4.556,down,norm,42.2454788505,12.9,63.1,1.992,58.4,2,32.1,47.6,22.7,15,5,8.418,5.257,1.473,-1.59,-4.659,-8.025,41.2,5,130.2,-8.318,-8.453,-60,-8.229,-8.347,-4.896,-4.886,-4.713,-4.656,5.028,8.105,8,-1.517,1.736,5.237,7.712,-7.667,-7.885,-1.117,1.946,37.9,,50.7,43.4,44.0,23.6,72.2,51.2,31.6,13.8,2,norm,1.534,1.973,-1.297,-2.082,-5.251,-4.992,-1.794,-1.295,-1.867,-1.631,1.741,-1.356,32.7,54.1,-4.874,-8.096,55.6,-1.259,8.222,4.89,-4.947,-8.268,34,4.401,4.793,4.608,5.263,1.559,1.779,1.868,1.238,34,4.388,4.74,-10,86.801693945,norm,0,95,95,95,508.633,508.641,508.643028083,508.644,508.647,508.652,down,1,1.50381202449,5.0,001,003,800_600,Intel(R) Core(TM) i7-2670QM CPU @ 2.20GHz,orientation_search,GRVLAPTOP3,Intel(R) HD Graphics Family,2018_mei_31_1453,testMonitor,
50.2,72.2,24.0,35.4,36,-60,31.8,36.1,40.0,40.9,8.05,7.768,8.116,8.052,7.606,7.842,7.501,5.238,-5.162,-8.386,1.412,-1.904,8.01,4.706,-4.759,-8.33,46.0,63.2,-7.714,49.7,36.2,35.1,22.6,12.2,36,51.6,1,10,prime,15,0,110,norm,36,-4.642,up,norm,42.2454788505,39.4,42.9,2.06,25.0,4,36.7,36.7,32.9,15,5,7.54,4.301,1.509,-1.488,-4.481,-8.359,,5,152.2,-8.062,-8.056,-60,-7.833,-7.743,-5.073,-4.931,-4.793,-4.644,5.03,7.679,10,-2.007,1.872,4.595,8.172,-8.436,-7.718,-1.749,1.766,66.7,24.5,48.3,70.8,41.3,46.0,64.3,50.0,50.1,25.6,3,norm,1.476,1.544,-1.299,-1.785,-5.105,-4.892,-1.812,-1.578,-1.688,-1.817,1.101,-1.567,50.2,71.0,-4.975,-7.794,31.7,-1.99,7.709,4.453,-4.367,-8.01,34,4.808,4.503,5.121,4.824,2.049,1.766,1.353,1.378,34,5.149,4.51,-10,86.801693945,norm,0,96,96,96,510.167,510.174,510.176829186,510.177,510.181,510.186,up,1,1.43005949532,6.0,001,003,800_600,Intel(R) Core(TM) i7-2670QM CPU @ 2.20GHz,orientation_search,GRVLAPTOP3,Intel(R) HD Graphics Family,2018_mei_31_1453,testMonitor,
