d_ori_22,d_ori_23,d_ori_20,d_ori_21,set_size,ctpd,d_ori_24,d_ori_25,d_ori_28,d_ori_29,stim_pos_x_30,stim_pos_x_31,stim_pos_x_32,stim_pos_x_33,stim_pos_x_34,stim_pos_x_35,stim_pos_y_11,stim_pos_y_10,stim_pos_y_13,stim_pos_y_12,stim_pos_y_15,stim_pos_y_14,stim_pos_y_17,stim_pos_y_16,stim_pos_y_19,stim_pos_y_18,d_ori_35,d_ori_34,stim_pos_x_3,d_ori_31,d_ori_30,d_ori_33,d_ori_32,d_ori_26,test_set_size,d_ori_27,targetCol,dsd_test,seq_type,dsd,blockRepN,targetDist,dtype_test,prime_set_size,stim_pos_y_25,correctResponse,dtype,distrMean,d_ori_17,d_ori_16,stim_pos_y_3,d_ori_14,targetRow,d_ori_11,d_ori_13,d_ori_12,dsd_prime,streak_length_prime,stim_pos_y_35,stim_pos_y_34,stim_pos_y_33,stim_pos_y_32,stim_pos_y_31,stim_pos_y_30,d_ori_10,nextProbe,targetOri,stim_pos_x_1,stim_pos_x_2,ctpd_prime,stim_pos_x_4,stim_pos_x_5,stim_pos_x_6,stim_pos_x_7,stim_pos_x_8,stim_pos_x_9,stim_pos_y_28,stim_pos_y_29,targetPos,stim_pos_y_20,stim_pos_y_21,stim_pos_y_22,stim_pos_y_23,stim_pos_y_24,stim_pos_x_0,stim_pos_y_26,stim_pos_y_27,d_ori_9,d_ori_8,d_ori_3,d_ori_2,d_ori_1,d_ori_0,d_ori_7,d_ori_6,d_ori_5,d_ori_4,trialN,dtype_prime,stim_pos_x_18,stim_pos_x_19,stim_pos_x_12,stim_pos_x_13,stim_pos_x_10,stim_pos_x_11,stim_pos_x_16,stim_pos_x_17,stim_pos_x_14,stim_pos_x_15,stim_pos_y_9,stim_pos_y_8,d_ori_19,d_ori_18,stim_pos_y_1,stim_pos_y_0,d_ori_15,stim_pos_y_2,stim_pos_y_5,stim_pos_y_4,stim_pos_y_7,stim_pos_y_6,totBlockN,stim_pos_x_27,stim_pos_x_26,stim_pos_x_25,stim_pos_x_24,stim_pos_x_23,stim_pos_x_22,stim_pos_x_21,stim_pos_x_20,blockN,stim_pos_x_29,stim_pos_x_28,prevDistrCTPD,prevDistrMean,prevDistrType,trials.thisRepN,trials.thisTrialN,trials.thisN,trials.thisIndex,timeStart,timeBeforeDraw,timeDraw,timeAfterSaving,timeAfterWritingToTemp,timeAfterPreparingNext,answer,correct,rt,trialScore,session,participant,resolution,cpu_info,expName,pc_name,graphic_card,date,monitorName,
173.8,,146.2,151.1,36,-60,160.1,167.0,145.2,150.9,7.73,7.858,7.922,8.217,7.668,7.844,8.149,4.303,-5.25,-7.569,1.478,-1.986,8.253,4.377,-4.971,-7.914,146.8,166.1,-8.46,161.0,165.4,165.6,168.8,140.0,36,167.8,3,5,prime,10,0,111,norm,36,-4.531,up,norm,160.001501964,151.8,180.0,1.7,159.6,5,156.9,159.5,154.6,10,3,8.335,5.038,1.202,-1.855,-5.09,-7.508,155.3,3,271.0,-8.235,-8.444,-60,-8.202,-8.097,-4.64,-4.391,-4.867,-4.475,4.613,8.194,23,-1.136,1.487,5.25,7.697,-7.763,-8.413,-2.085,1.904,172.5,158.6,165.9,168.5,166.3,149.7,148.5,162.5,154.7,158.5,0,norm,1.552,1.105,-1.327,-1.526,-4.997,-5.086,-1.868,-1.783,-1.356,-2.0,1.276,-1.239,153.7,160.8,-4.865,-8.062,170.0,-1.996,7.702,4.684,-4.93,-7.906,0,4.405,4.66,4.98,4.456,1.177,1.632,1.667,1.268,0,5.151,4.702,,,,0,0,0,0,373.877,373.888,373.895619125,373.896,373.896,373.9,up,1,4.38893203077,5.61106796923,001,008,800_600,Intel(R) Core(TM) i7-2670QM CPU @ 2.20GHz,orientation_search,GRVLAPTOP3,Intel(R) HD Graphics Family,2018_jun_07_1123,testMonitor,
149.1,161.7,164.9,140.0,36,-60,147.1,154.6,177.0,154.8,8.155,7.618,8.314,8.361,8.009,7.55,7.524,4.802,-4.313,-8.034,1.838,-1.572,7.737,4.961,-4.415,-8.129,167.5,157.7,-7.958,169.7,159.3,160.4,156.0,167.0,36,180.0,0,5,prime,10,0,86,norm,36,-4.544,up,norm,160.001501964,154.2,164.8,1.882,155.3,3,172.4,152.5,159.1,10,3,7.983,5.125,1.954,-2.064,-4.716,-7.704,144.5,3,246.0,-7.742,-8.022,-60,-8.031,-7.58,-4.384,-4.953,-4.958,-4.485,4.452,8.437,3,-2.064,1.64,4.664,8.247,-7.758,-8.493,-1.567,2.039,160.0,155.7,,153.3,150.0,151.7,148.0,154.5,153.1,146.9,1,norm,1.943,1.609,-1.571,-1.636,-5.291,-5.159,-1.409,-1.977,-1.1,-1.432,1.94,-2.061,149.3,144.4,-4.414,-8.496,163.4,-1.525,8.102,4.916,-4.74,-7.852,0,4.596,4.325,5.115,4.683,1.626,1.406,1.557,1.747,0,4.441,4.732,,,,0,1,1,1,378.301,378.307,378.30881671,378.309,378.312,378.315,up,1,5.86378275546,4.13621724454,001,008,800_600,Intel(R) Core(TM) i7-2670QM CPU @ 2.20GHz,orientation_search,GRVLAPTOP3,Intel(R) HD Graphics Family,2018_jun_07_1123,testMonitor,
177.1,151.2,170.5,171.8,36,-60,162.3,160.2,158.0,166.2,7.69,8.197,7.907,8.115,8.385,8.412,7.923,4.41,-4.919,-8.335,1.363,-1.753,8.321,4.713,-4.586,-7.587,169.9,162.8,-7.737,162.7,144.3,156.5,154.0,146.7,36,161.8,0,5,prime,10,0,92,norm,36,-5.285,down,norm,160.001501964,143.1,165.1,1.515,164.8,2,155.2,163.2,140.0,10,3,8.481,4.42,1.819,-2.061,-4.626,-8.346,166.4,3,252.0,-7.818,-7.857,-60,-7.832,-8.205,-4.572,-4.344,-4.579,-4.844,5.14,7.945,2,-1.688,1.644,4.355,8.212,-8.079,-8.45,-1.165,1.388,156.3,159.9,180.0,,163.4,149.3,173.6,160.5,179.5,155.3,2,norm,2.092,1.815,-1.78,-1.971,-4.521,-4.677,-1.68,-1.645,-2.039,-1.613,1.446,-1.509,169.5,165.2,-4.698,-7.969,160.5,-1.513,8.206,4.699,-4.79,-7.844,0,4.995,5.182,4.492,4.983,2.069,1.608,1.541,1.716,0,4.314,5.107,,,,0,2,2,2,384.189,384.194,384.195395498,384.196,384.199,384.202,down,1,5.43840452988,4.56159547012,001,008,800_600,Intel(R) Core(TM) i7-2670QM CPU @ 2.20GHz,orientation_search,GRVLAPTOP3,Intel(R) HD Graphics Family,2018_jun_07_1123,testMonitor,
167.6,170.5,168.7,165.6,36,40,163.8,167.6,168.8,163.1,8.093,8.422,8.03,8.463,7.662,7.518,7.625,4.966,-4.342,-8.121,1.36,-1.755,7.599,4.757,-5.111,-8.175,159.0,160.3,-7.744,152.0,166.6,162.7,161.5,158.6,36,160.8,1,5,probe,5,0,67,norm,36,-4.505,up,norm,161.958517691,165.2,170.1,1.477,157.8,4,159.2,156.7,161.7,10,3,7.559,4.493,1.571,-1.637,-4.427,-8.236,,1,95.0,-8.361,-8.348,-60,-8.265,-8.159,-4.76,-4.775,-4.517,-4.705,4.686,8.429,10,-1.934,1.658,4.963,8.003,-8.114,-7.729,-1.136,1.181,170.4,165.2,157.6,163.9,154.9,167.3,171.4,160.6,165.7,163.5,0,norm,1.575,1.873,-1.889,-2.066,-4.86,-4.543,-1.391,-1.918,-1.41,-1.613,1.911,-1.634,169.1,157.6,-5.287,-8.384,158.2,-1.189,7.641,4.938,-5.063,-7.899,1,5.097,4.527,4.346,4.917,2.027,1.829,1.583,1.56,1,5.168,4.423,-60,160.001501964,norm,0,3,3,3,389.65,389.655,389.656494264,389.657,389.66,389.663,up,1,1.79388731238,8.20611268762,001,008,800_600,Intel(R) Core(TM) i7-2670QM CPU @ 2.20GHz,orientation_search,GRVLAPTOP3,Intel(R) HD Graphics Family,2018_jun_07_1123,testMonitor,
196.5,208.8,198.8,,36,20,200.9,200.7,207.7,196.6,7.972,8.219,8.411,7.942,7.802,8.476,7.557,4.832,-4.982,-7.786,1.649,-1.273,8.283,5.157,-5.119,-8.36,198.7,190.6,-7.527,204.2,196.9,194.2,199.8,211.8,36,197.4,3,5,prime,10,0,89,norm,36,-4.561,up,norm,196.877574529,204.4,208.7,1.924,199.5,3,189.0,202.3,193.0,10,6,7.885,5.04,1.221,-2.054,-4.306,-8.425,185.6,6,285.9,-8.102,-7.559,20,-7.512,-7.897,-4.31,-4.955,-4.532,-5.085,5.112,7.688,21,-1.794,1.472,4.534,7.884,-7.852,-7.775,-1.102,1.385,210.3,188.3,192.5,199.9,180.6,194.7,187.0,192.0,176.9,189.4,0,norm,1.454,1.33,-1.201,-1.62,-5.256,-5.254,-1.287,-1.893,-1.906,-2.083,1.494,-1.551,216.9,209.8,-4.502,-8.44,199.5,-1.206,8.269,5.15,-4.657,-8.219,2,4.913,5.287,4.691,5.07,2.091,1.279,2.008,1.506,2,4.658,4.433,40,160.001501964,norm,0,4,4,4,391.465,391.471,391.472470165,391.473,391.476,391.48,down,0,3.67232139146,-10,001,008,800_600,Intel(R) Core(TM) i7-2670QM CPU @ 2.20GHz,orientation_search,GRVLAPTOP3,Intel(R) HD Graphics Family,2018_jun_07_1123,testMonitor,
196.4,202.8,204.8,198.4,36,20,208.8,197.1,216.9,198.6,8.036,7.84,7.894,8.08,7.984,7.64,7.73,4.792,-4.31,-7.594,1.148,-1.278,8.126,5.011,-4.455,-7.757,199.8,188.4,-8.034,193.0,213.1,201.5,,186.0,36,176.9,5,5,prime,10,0,87,norm,36,-4.319,down,norm,196.877574529,187.7,188.5,1.129,203.2,2,196.3,187.8,210.3,10,6,7.527,4.433,1.394,-1.262,-4.603,-7.662,192.1,6,283.9,-8.137,-7.801,20,-7.679,-8.179,-4.534,-4.604,-4.76,-4.711,4.928,8.348,32,-1.418,1.752,4.405,7.659,-8.269,-8.423,-1.975,1.617,204.5,196.4,190.4,189.8,199.0,196.0,188.3,196.4,191.8,198.4,1,norm,1.626,1.119,-1.805,-1.429,-4.661,-4.675,-1.436,-1.128,-1.306,-1.841,1.976,-1.952,216.1,182.1,-4.729,-7.799,197.1,-1.568,7.548,4.732,-4.974,-7.976,2,4.392,4.618,4.554,4.77,1.547,1.196,1.202,1.427,2,5.118,4.353,40,160.001501964,norm,0,5,5,5,396.173,396.179,396.180457462,396.181,396.184,396.187,down,1,2.64282402208,7.35717597792,001,008,800_600,Intel(R) Core(TM) i7-2670QM CPU @ 2.20GHz,orientation_search,GRVLAPTOP3,Intel(R) HD Graphics Family,2018_jun_07_1123,testMonitor,
185.3,206.0,196.6,216.9,36,20,196.0,182.7,188.1,199.9,8.141,8.065,7.614,8.473,8.464,8.22,7.864,4.792,-4.913,-8.182,1.644,-1.997,7.839,5.005,-4.776,-8.465,209.0,197.2,-7.684,188.0,199.5,176.9,204.2,184.7,36,201.9,1,5,prime,10,0,69,norm,36,-4.877,up,norm,196.877574529,206.8,186.5,1.989,192.9,3,216.4,212.8,196.2,10,6,8.105,4.706,1.648,-1.328,-5.058,-7.862,208.0,6,265.9,-7.975,-8.278,20,-7.726,-8.046,-4.329,-4.858,-4.89,-5.286,5.081,8.242,9,-1.345,1.134,4.826,8.242,-8.445,-8.147,-1.963,2.022,,198.6,211.9,187.1,193.3,192.9,191.6,185.5,187.6,185.6,2,norm,1.128,1.621,-1.478,-1.952,-4.332,-5.014,-1.884,-1.517,-1.561,-1.903,1.312,-1.348,206.5,207.2,-4.501,-8.016,194.5,-1.728,7.696,4.682,-5.194,-8.01,2,4.433,4.94,5.242,5.107,2.049,1.967,1.821,1.423,2,5.032,4.8,40,160.001501964,norm,0,6,6,6,398.839,398.845,398.846874149,398.847,398.85,398.854,up,1,8.30808311694,1.69191688306,001,008,800_600,Intel(R) Core(TM) i7-2670QM CPU @ 2.20GHz,orientation_search,GRVLAPTOP3,Intel(R) HD Graphics Family,2018_jun_07_1123,testMonitor,
200.8,206.4,205.4,180.3,36,20,195.9,201.3,186.8,176.9,7.502,7.612,7.821,7.658,7.729,7.718,7.915,4.81,-5.182,-8.151,1.342,-1.751,8.376,4.319,-4.502,-7.561,191.2,214.0,-8.379,,207.0,184.4,188.3,193.3,36,198.7,5,5,prime,10,0,62,norm,36,-4.711,down,norm,196.877574529,184.3,182.4,1.133,192.6,1,195.1,192.3,193.8,10,6,7.692,4.398,1.643,-2.02,-4.943,-7.528,186.6,6,258.9,-7.887,-7.675,20,-7.653,-7.664,-5.199,-4.975,-4.831,-4.692,5.087,8.244,31,-1.246,1.199,4.677,8.214,-8.036,-7.803,-1.854,1.833,197.5,195.4,197.3,193.0,198.6,190.9,202.5,200.4,210.6,216.9,3,norm,2.075,1.818,-1.585,-1.556,-5.141,-5.101,-1.4,-1.582,-1.917,-1.505,1.477,-1.991,181.9,209.7,-4.706,-7.923,201.8,-1.552,7.634,5.192,-4.515,-8.495,2,5.211,4.55,5.116,4.921,1.836,1.192,1.39,2.083,2,5.163,4.327,40,160.001501964,norm,0,7,7,7,407.17,407.176,407.177612744,407.178,407.181,407.185,up,0,5.44992535651,-10,001,008,800_600,Intel(R) Core(TM) i7-2670QM CPU @ 2.20GHz,orientation_search,GRVLAPTOP3,Intel(R) HD Graphics Family,2018_jun_07_1123,testMonitor,
178.4,198.1,211.3,182.7,36,20,176.9,194.4,191.1,212.4,8.449,7.603,8.016,7.518,7.992,8.394,7.526,5.29,-4.741,-8.252,1.637,-1.814,7.557,4.543,-4.796,-8.153,196.3,191.4,-8.329,213.1,203.0,194.8,197.4,207.6,36,197.5,2,5,prime,10,0,83,norm,36,-4.387,down,norm,196.877574529,196.8,205.7,2.065,193.3,0,214.3,205.5,,10,6,8.407,4.589,1.693,-1.919,-4.412,-7.889,187.2,6,279.9,-8.144,-7.505,20,-8.164,-7.658,-4.61,-4.507,-5.146,-5.221,4.53,7.876,12,-1.666,1.998,4.701,8.013,-8.394,-7.889,-1.185,1.425,188.8,212.1,197.6,214.8,185.2,178.6,194.2,204.5,195.2,191.9,4,norm,2.029,2.095,-1.26,-1.439,-4.839,-5.091,-1.159,-1.373,-1.485,-1.619,1.653,-1.16,196.4,216.9,-4.743,-8.08,192.0,-1.12,7.987,4.978,-4.948,-8.295,2,4.643,4.992,5.248,5.092,1.427,1.488,1.872,1.139,2,4.908,5.056,40,160.001501964,norm,0,8,8,8,413.645,413.652,413.654513421,413.655,413.659,413.664,down,1,4.85810172527,5.14189827473,001,008,800_600,Intel(R) Core(TM) i7-2670QM CPU @ 2.20GHz,orientation_search,GRVLAPTOP3,Intel(R) HD Graphics Family,2018_jun_07_1123,testMonitor,
211.9,192.5,211.3,196.1,36,20,196.2,196.9,176.9,188.4,8.433,7.626,8.444,7.557,7.781,8.204,8.125,4.973,-5.117,-8.041,1.126,-1.344,8.101,4.423,-5.257,-7.538,189.7,213.7,-7.71,197.0,196.2,185.2,180.5,199.2,36,205.8,2,5,prime,10,0,75,norm,36,-4.634,up,norm,196.877574529,194.2,216.8,1.801,208.7,3,195.6,197.6,191.3,10,6,7.915,4.391,1.796,-1.397,-4.484,-7.885,193.8,6,271.9,-8.429,-7.737,20,-7.519,-7.58,-5.277,-4.421,-4.709,-5.235,5.094,8.387,15,-1.279,2.083,4.456,8.031,-7.678,-7.866,-1.736,1.968,186.2,213.0,209.1,190.8,182.9,202.1,206.8,183.8,206.0,187.9,5,norm,1.646,1.729,-1.399,-1.446,-4.529,-5.068,-2.094,-1.721,-1.871,-1.86,1.203,-1.408,216.9,215.7,-5.038,-7.799,,-2.003,7.54,4.592,-4.752,-8.297,2,4.73,4.551,5.057,4.488,1.786,1.101,1.353,1.295,2,4.913,4.382,40,160.001501964,norm,0,9,9,9,418.534,418.541,418.542968453,418.544,418.547,418.553,up,1,4.18331291942,5.81668708058,001,008,800_600,Intel(R) Core(TM) i7-2670QM CPU @ 2.20GHz,orientation_search,GRVLAPTOP3,Intel(R) HD Graphics Family,2018_jun_07_1123,testMonitor,
276.5,280.1,272.2,277.1,36,-60,280.9,274.5,281.1,272.0,8.266,7.55,8.274,8.389,7.736,7.843,7.732,4.355,-4.989,-8.252,1.872,-2.057,7.679,4.812,-4.771,-8.256,284.4,270.3,-8.188,287.5,275.1,279.0,284.5,284.7,36,277.3,0,5,probe,5,0,61,norm,36,-4.818,up,norm,279.140175393,277.3,283.9,1.108,283.4,3,280.9,279.2,284.7,10,6,7.547,4.44,2.09,-1.803,-4.948,-8.403,280.0,1,218.1,-8.283,-7.6,20,-8.188,-7.966,-4.521,-4.548,-5.143,-5.143,4.977,7.708,3,-1.76,1.558,4.591,7.963,-7.771,-7.62,-1.728,1.636,276.6,285.8,,274.8,269.1,276.7,285.5,285.4,289.1,275.8,0,norm,1.543,1.64,-1.985,-1.201,-5.188,-4.691,-1.495,-1.555,-1.844,-1.572,2.049,-1.764,287.1,276.4,-4.966,-7.794,278.1,-1.749,8.325,4.41,-5.028,-7.728,3,4.504,4.596,5.164,4.915,1.253,1.466,1.993,1.178,3,4.451,5.083,20,196.877574529,norm,0,10,10,10,422.747,422.756,422.758142958,422.759,422.762,422.767,down,0,2.88687577428,-10,001,008,800_600,Intel(R) Core(TM) i7-2670QM CPU @ 2.20GHz,orientation_search,GRVLAPTOP3,Intel(R) HD Graphics Family,2018_jun_07_1123,testMonitor,
206.8,195.0,188.4,203.1,36,-10,186.8,185.0,181.5,209.0,7.745,8.252,7.789,7.93,7.547,7.901,7.964,4.829,-5.093,-7.941,1.566,-1.206,8.158,4.883,-4.459,-8.384,196.0,181.9,-8.1,202.8,215.9,187.5,188.2,199.5,36,216.0,2,5,prime,10,0,112,norm,36,-4.693,up,norm,196.009184064,177.1,208.2,1.253,190.4,3,193.3,197.0,184.4,10,6,8.127,4.875,1.902,-2.016,-4.987,-7.863,176.0,6,308.0,-8.36,-7.849,-10,-8.431,-8.345,-4.735,-4.335,-5.108,-5.287,4.627,7.862,15,-1.522,1.664,4.885,8.058,-7.593,-8.42,-1.767,1.413,199.8,186.5,185.7,198.1,192.5,200.5,191.2,196.3,189.6,199.7,0,norm,1.425,1.293,-2.042,-1.161,-5.05,-4.842,-1.499,-2.086,-1.925,-1.244,1.847,-1.115,183.6,195.5,-4.814,-8.103,,-1.188,8.305,4.761,-4.582,-7.918,4,4.648,4.334,5.23,4.453,1.864,1.337,1.492,1.655,4,4.977,4.338,-60,196.877574529,norm,0,11,11,11,426.671,426.678,426.680622532,426.681,426.685,426.69,up,1,3.16397238775,6.83602761225,001,008,800_600,Intel(R) Core(TM) i7-2670QM CPU @ 2.20GHz,orientation_search,GRVLAPTOP3,Intel(R) HD Graphics Family,2018_jun_07_1123,testMonitor,
202.1,193.2,198.9,210.1,36,-10,215.2,196.7,193.2,191.3,8.273,7.902,8.393,7.565,8.325,7.993,7.878,4.404,-4.578,-7.964,1.897,-1.811,7.642,4.454,-4.371,-7.54,189.2,192.0,-7.555,190.7,193.5,183.0,189.0,193.2,36,194.9,2,5,prime,10,0,71,norm,36,-4.732,up,norm,196.009184064,,182.5,1.253,183.2,5,185.8,203.0,186.2,10,6,7.604,4.635,2.066,-1.346,-4.615,-8.182,195.6,6,267.0,-8.019,-7.585,-10,-8.37,-8.02,-5.126,-5.292,-4.377,-4.54,5.079,7.929,17,-2.018,1.99,4.312,8.105,-8.372,-7.764,-1.565,1.48,186.1,193.1,192.1,211.3,187.7,214.3,193.1,208.2,176.0,216.0,1,norm,1.493,1.917,-2.061,-1.109,-4.441,-5.118,-1.638,-1.39,-1.902,-1.449,1.792,-1.92,188.8,204.3,-4.67,-7.607,204.6,-1.854,7.954,5.268,-5.077,-8.252,4,4.452,4.619,5.028,5.203,2.056,1.171,1.459,1.765,4,5.09,4.935,-60,196.877574529,norm,0,12,12,12,429.865,429.873,429.875163494,429.876,429.88,429.885,up,1,6.02665872213,3.97334127787,001,008,800_600,Intel(R) Core(TM) i7-2670QM CPU @ 2.20GHz,orientation_search,GRVLAPTOP3,Intel(R) HD Graphics Family,2018_jun_07_1123,testMonitor,
197.0,191.4,204.9,206.9,36,-10,196.9,182.5,182.3,188.6,8.222,8.144,7.533,7.653,7.895,7.527,7.541,4.596,-4.649,-7.9,2.09,-1.789,8.051,4.433,-4.505,-7.864,183.8,,-8.268,205.4,184.8,207.1,199.4,176.0,36,201.0,5,5,prime,10,0,84,norm,36,-4.374,up,norm,196.009184064,203.7,201.7,1.532,193.2,4,191.3,199.0,192.4,10,6,7.801,4.765,2.051,-1.42,-4.366,-7.612,189.0,6,280.0,-7.812,-7.771,-10,-7.692,-7.767,-5.188,-4.674,-4.855,-4.53,4.382,7.917,34,-1.119,1.686,4.949,8.176,-8.009,-8.003,-1.986,1.794,216.0,189.4,203.7,199.0,192.8,198.2,195.8,193.7,193.0,196.4,2,norm,1.397,2.048,-1.64,-1.524,-4.751,-4.623,-2.034,-1.842,-1.283,-1.645,1.389,-1.833,190.1,177.2,-5.259,-8.0,191.3,-1.249,7.668,4.39,-4.453,-7.825,4,5.141,4.808,4.636,4.969,1.684,1.619,1.611,2.031,4,4.389,5.273,-60,196.877574529,norm,0,13,13,13,435.922,435.93,435.931845382,435.932,435.936,435.941,up,1,3.2089186477,6.7910813523,001,008,800_600,Intel(R) Core(TM) i7-2670QM CPU @ 2.20GHz,orientation_search,GRVLAPTOP3,Intel(R) HD Graphics Family,2018_jun_07_1123,testMonitor,
200.8,185.1,197.2,191.9,36,-10,212.9,203.5,200.0,186.1,8.103,7.683,8.271,7.883,7.835,7.64,8.389,4.913,-4.958,-7.886,1.926,-1.131,8.49,5.181,-4.923,-7.787,179.7,210.7,-8.459,215.0,209.7,209.5,191.2,201.0,36,194.7,0,5,prime,10,0,66,norm,36,-4.978,up,norm,196.009184064,195.8,185.0,1.568,190.3,3,200.4,195.4,196.9,10,6,7.692,4.778,1.438,-2.064,-4.617,-7.837,203.3,6,262.0,-8.091,-8.252,-10,-7.972,-8.075,-4.769,-5.279,-5.116,-5.097,4.326,7.582,3,-2.057,1.335,5.049,8.235,-8.091,-7.846,-1.835,1.889,176.0,211.3,,191.9,191.3,194.5,200.0,183.9,178.7,188.9,3,norm,1.597,1.172,-1.243,-1.927,-4.427,-5.2,-1.105,-1.337,-1.269,-1.467,2.052,-1.587,182.6,216.0,-4.712,-7.819,198.7,-1.176,8.322,5.237,-4.957,-7.967,4,4.465,5.148,4.424,4.982,1.799,1.473,1.236,1.834,4,5.006,5.07,-60,196.877574529,norm,0,14,14,14,439.162,439.169,439.171508181,439.172,439.176,439.181,down,0,3.67940049862,-10,001,008,800_600,Intel(R) Core(TM) i7-2670QM CPU @ 2.20GHz,orientation_search,GRVLAPTOP3,Intel(R) HD Graphics Family,2018_jun_07_1123,testMonitor,
209.7,209.0,195.2,186.5,36,-10,189.0,184.3,198.6,,8.127,7.846,8.106,7.53,8.164,7.621,8.327,4.492,-4.662,-7.76,1.378,-1.96,7.824,4.646,-4.729,-7.946,201.9,194.1,-8.344,191.9,185.8,206.8,191.5,193.1,36,200.5,4,5,prime,10,0,105,norm,36,-4.898,up,norm,196.009184064,176.0,206.3,1.463,193.3,5,184.9,188.4,185.6,10,6,7.602,4.783,1.342,-2.015,-5.178,-7.711,216.0,6,301.0,-8.21,-8.461,-10,-8.212,-8.439,-4.627,-4.646,-4.588,-4.404,5.28,7.522,29,-1.242,1.5,5.268,7.515,-7.551,-7.828,-1.663,1.949,198.8,210.2,204.8,188.3,199.4,181.9,191.2,206.9,207.5,187.2,4,norm,1.716,1.949,-1.848,-1.988,-5.19,-4.579,-2.004,-1.761,-1.442,-1.636,1.401,-1.291,186.8,208.8,-5.015,-8.259,198.4,-1.218,8.101,5.272,-4.552,-7.606,4,4.94,4.327,5.148,5.056,1.608,1.959,1.761,2.027,4,5.11,5.147,-60,196.877574529,norm,0,15,15,15,443.877,443.885,443.887090576,443.888,443.891,443.896,up,1,1.42645736916,8.57354263084,001,008,800_600,Intel(R) Core(TM) i7-2670QM CPU @ 2.20GHz,orientation_search,GRVLAPTOP3,Intel(R) HD Graphics Family,2018_jun_07_1123,testMonitor,
192.9,184.0,216.0,183.3,36,-10,178.8,200.9,187.9,200.8,7.989,8.209,8.242,7.524,7.697,7.834,7.61,4.385,-4.335,-7.655,2.032,-1.561,8.209,5.095,-4.327,-7.879,209.6,203.6,-8.177,,200.7,213.1,176.0,201.4,36,189.7,5,5,prime,10,0,86,norm,36,-4.956,down,norm,196.009184064,187.7,186.8,1.708,199.8,1,199.5,183.9,193.3,10,6,7.884,4.321,1.846,-1.982,-4.823,-8.244,183.6,6,282.0,-7.642,-8.054,-10,-8.452,-8.107,-4.336,-4.454,-4.779,-4.766,5.297,8.078,31,-1.874,1.192,4.374,8.135,-7.706,-7.741,-1.111,1.867,184.3,205.2,199.4,201.6,199.3,193.7,202.6,196.4,198.0,185.5,5,norm,1.626,1.293,-1.431,-1.213,-5.175,-4.702,-1.988,-1.805,-1.689,-1.268,1.434,-2.074,186.8,180.5,-5.104,-8.312,195.5,-1.517,8.153,4.979,-4.996,-8.384,4,4.338,4.849,5.267,4.833,1.329,1.434,2.004,1.643,4,5.122,4.655,-60,196.877574529,norm,0,16,16,16,445.334,445.341,445.343280662,445.344,445.348,445.353,down,1,5.86506736125,4.13493263875,001,008,800_600,Intel(R) Core(TM) i7-2670QM CPU @ 2.20GHz,orientation_search,GRVLAPTOP3,Intel(R) HD Graphics Family,2018_jun_07_1123,testMonitor,
267.8,261.7,265.0,267.6,36,40,272.3,268.1,269.4,269.3,7.841,7.891,7.815,7.602,8.277,7.509,7.693,5.141,-5.031,-8.004,1.408,-1.494,8.065,4.758,-4.914,-7.635,266.5,274.2,-7.758,264.3,262.9,277.5,263.8,264.7,36,266.7,1,5,probe,5,0,87,norm,36,-4.332,up,norm,268.287117037,275.3,264.6,1.524,264.5,5,,272.4,269.7,10,6,7.835,5.06,1.794,-1.634,-4.582,-7.946,260.8,2,181.3,-8.497,-7.585,-10,-7.527,-7.701,-4.403,-5.081,-4.375,-4.901,4.313,7.744,11,-1.756,1.509,4.996,8.422,-8.366,-7.565,-1.392,1.385,265.6,270.0,275.9,278.3,266.5,274.8,268.0,258.3,262.6,269.6,0,norm,1.769,1.178,-1.267,-1.918,-4.484,-4.459,-1.878,-1.946,-1.597,-1.964,1.419,-1.209,267.9,264.8,-4.622,-8.227,258.8,-1.503,8.222,4.495,-4.431,-7.885,5,5.087,4.702,4.791,5.284,1.548,1.974,1.561,1.574,5,4.35,4.845,-10,196.009184064,norm,0,17,17,17,451.23,451.237,451.239199108,451.24,451.244,451.249,up,1,2.35376670606,7.64623329394,001,008,800_600,Intel(R) Core(TM) i7-2670QM CPU @ 2.20GHz,orientation_search,GRVLAPTOP3,Intel(R) HD Graphics Family,2018_jun_07_1123,testMonitor,
255.6,253.4,261.6,265.4,36,40,260.2,267.3,260.9,261.1,8.366,8.295,7.765,8.113,8.32,7.747,8.329,5.205,-4.993,-8.372,1.696,-1.451,7.814,4.345,-4.676,-8.18,255.9,253.7,-7.745,249.9,255.9,251.0,265.7,260.9,36,252.8,2,5,probe,5,0,76,norm,36,-4.472,down,norm,257.287117037,251.5,256.9,1.321,,2,255.0,256.7,261.0,10,6,7.743,4.808,1.179,-1.37,-4.643,-8.18,247.3,2,181.3,-7.965,-8.307,-10,-8.028,-8.171,-4.927,-4.404,-5.074,-4.768,5.266,7.544,14,-1.881,1.44,4.532,7.667,-8.306,-8.204,-1.663,1.638,263.1,263.3,263.7,254.6,258.3,252.4,247.3,255.6,265.6,253.9,1,norm,1.805,2.074,-1.309,-2.034,-5.081,-4.608,-1.605,-2.071,-2.091,-1.514,1.817,-1.102,255.3,264.0,-4.792,-8.279,263.7,-1.606,7.808,4.932,-4.949,-8.488,5,5.147,4.542,4.631,5.184,1.672,1.432,1.245,1.933,5,5.244,5.287,-10,196.009184064,norm,0,18,18,18,453.614,453.622,453.62420541,453.625,453.629,453.634,down,1,1.28713110777,8.71286889223,001,008,800_600,Intel(R) Core(TM) i7-2670QM CPU @ 2.20GHz,orientation_search,GRVLAPTOP3,Intel(R) HD Graphics Family,2018_jun_07_1123,testMonitor,
161.4,154.5,146.5,149.6,36,30,150.9,142.7,142.3,135.6,7.642,8.27,7.988,8.126,8.319,8.336,8.026,5.293,-4.639,-8.336,1.514,-1.3,7.863,5.179,-5.214,-8.145,137.8,,-8.416,152.8,130.8,145.2,157.9,142.6,36,142.4,5,5,prime,10,0,113,norm,36,-4.371,up,norm,142.668396333,129.9,141.0,1.229,140.8,4,123.9,149.6,162.7,10,6,7.648,5.064,1.427,-1.579,-4.837,-8.159,153.4,6,255.7,-7.953,-7.934,30,-7.946,-7.733,-4.692,-4.741,-4.709,-4.727,4.657,8.381,34,-1.515,2.096,4.644,7.647,-7.526,-8.199,-1.373,1.765,140.7,129.0,132.6,130.1,150.0,148.3,142.5,157.9,127.1,140.5,0,norm,1.422,2.082,-1.225,-1.564,-4.853,-4.609,-1.191,-1.382,-1.734,-1.833,1.684,-1.613,146.7,122.7,-4.804,-7.672,154.0,-1.872,7.77,4.73,-4.429,-7.8,6,4.899,5.055,5.167,4.969,1.54,1.301,1.379,1.198,6,4.731,5.02,40,196.009184064,norm,0,19,19,19,454.938,454.946,454.948371082,454.949,454.953,454.958,up,1,1.29398654129,8.70601345871,001,008,800_600,Intel(R) Core(TM) i7-2670QM CPU @ 2.20GHz,orientation_search,GRVLAPTOP3,Intel(R) HD Graphics Family,2018_jun_07_1123,testMonitor,
134.4,147.7,158.5,144.2,36,30,136.3,157.4,,136.4,8.174,8.487,8.293,8.427,7.904,8.056,7.639,4.887,-4.883,-8.107,1.538,-1.893,8.08,5.056,-4.961,-7.878,122.7,140.4,-8.46,147.5,137.4,153.4,138.2,127.1,36,154.6,4,5,prime,10,0,74,norm,36,-5.145,up,norm,142.668396333,147.8,150.6,1.499,153.9,4,133.6,137.4,138.4,10,6,8.139,4.55,1.916,-1.298,-5.263,-7.74,149.6,6,216.7,-8.373,-8.251,30,-8.003,-7.927,-5.072,-5.203,-4.965,-4.738,4.999,8.262,28,-2.071,2.015,4.367,8.073,-7.987,-8.366,-2.065,1.211,148.1,142.8,128.0,138.5,152.0,140.6,134.5,148.7,125.3,162.7,1,norm,1.767,1.948,-1.139,-1.6,-4.575,-4.31,-1.315,-2.002,-1.626,-1.982,1.418,-1.679,130.3,136.1,-5.17,-8.371,132.0,-1.535,8.063,5.015,-5.227,-8.335,6,4.382,5.284,4.694,4.618,1.782,1.166,1.805,1.863,6,4.526,4.78,40,196.009184064,norm,0,20,20,20,456.263,456.271,456.273148937,456.274,456.278,456.283,up,1,1.86439260467,8.13560739533,001,008,800_600,Intel(R) Core(TM) i7-2670QM CPU @ 2.20GHz,orientation_search,GRVLAPTOP3,Intel(R) HD Graphics Family,2018_jun_07_1123,testMonitor,
127.3,158.4,142.5,150.3,36,30,154.6,145.1,135.2,131.1,7.807,7.597,7.75,8.12,8.137,8.428,8.019,4.474,-4.994,-8.227,1.286,-1.303,8.476,4.366,-4.846,-8.413,155.6,149.4,-7.91,150.2,138.5,135.4,135.0,136.5,36,142.9,3,5,prime,10,0,74,norm,36,-4.432,down,norm,142.668396333,142.9,132.0,1.456,162.7,0,151.1,149.9,122.7,10,6,7.95,4.874,1.663,-2.099,-4.506,-7.748,142.0,6,216.7,-8.001,-7.929,30,-8.098,-7.596,-4.946,-4.93,-4.648,-5.111,5.204,8.398,18,-1.847,1.374,4.805,8.343,-7.908,-8.018,-1.306,2.07,159.5,140.4,137.1,127.9,128.4,145.4,137.5,150.6,125.0,150.0,2,norm,1.948,1.167,-1.989,-1.276,-4.456,-4.947,-1.511,-1.662,-1.133,-1.532,1.248,-1.855,142.9,,-4.738,-8.472,132.4,-2.061,7.507,4.43,-5.242,-7.529,6,5.262,4.74,5.159,5.158,1.875,1.662,1.259,2.095,6,4.475,4.58,40,196.009184064,norm,0,21,21,21,458.158,458.166,458.168145139,458.169,458.173,458.178,down,1,1.38994253128,8.61005746872,001,008,800_600,Intel(R) Core(TM) i7-2670QM CPU @ 2.20GHz,orientation_search,GRVLAPTOP3,Intel(R) HD Graphics Family,2018_jun_07_1123,testMonitor,
147.0,141.0,140.0,142.9,36,30,146.6,125.4,130.0,144.8,7.522,8.162,7.994,8.183,8.125,8.214,7.943,4.405,-4.756,-8.121,1.399,-1.29,7.696,4.56,-5.283,-7.812,151.4,149.0,-7.713,145.2,122.7,158.4,150.7,150.1,36,158.0,0,5,prime,10,0,114,norm,36,-4.463,down,norm,142.668396333,142.4,146.7,1.386,160.1,0,156.2,161.4,142.0,10,6,7.548,4.936,1.9,-1.834,-4.573,-7.718,141.1,6,256.7,-8.267,-8.035,30,-7.788,-8.36,-4.91,-4.782,-4.704,-5.018,5.107,7.82,0,-1.719,1.722,4.398,7.525,-7.774,-7.906,-1.354,1.942,148.5,157.5,128.9,162.7,142.6,,153.0,147.9,139.8,152.0,3,norm,2.016,1.169,-1.842,-1.496,-4.577,-4.357,-1.529,-1.89,-1.986,-1.224,1.553,-1.398,143.1,152.5,-4.776,-8.254,160.8,-1.659,7.786,4.871,-4.348,-7.525,6,4.93,4.809,5.024,5.087,1.455,1.178,1.761,1.437,6,4.42,5.135,40,196.009184064,norm,0,22,22,22,459.579,459.586,459.589077442,459.59,459.594,459.599,down,1,1.57658814119,8.42341185881,001,008,800_600,Intel(R) Core(TM) i7-2670QM CPU @ 2.20GHz,orientation_search,GRVLAPTOP3,Intel(R) HD Graphics Family,2018_jun_07_1123,testMonitor,
137.5,125.9,131.5,135.2,36,30,152.8,156.4,124.6,135.9,8.199,8.107,8.12,8.275,7.569,8.284,7.521,4.637,-4.354,-7.895,1.95,-1.77,8.242,4.715,-5.232,-7.847,157.4,139.3,-8.22,148.0,140.2,135.4,160.1,,36,146.4,4,5,prime,10,0,84,norm,36,-5.076,down,norm,142.668396333,147.3,122.7,1.409,155.6,2,144.2,145.7,149.4,10,6,7.854,4.456,1.273,-1.684,-4.844,-7.737,151.0,6,226.7,-8.21,-7.504,30,-8.361,-7.866,-4.973,-5.136,-5.166,-5.168,5.193,8.032,26,-1.536,1.74,4.766,7.981,-8.078,-8.1,-1.359,1.431,147.5,143.1,142.6,162.7,136.2,132.1,148.3,136.2,133.4,122.8,4,norm,2.029,1.362,-1.835,-2.017,-4.69,-5.127,-1.275,-1.457,-1.964,-1.624,1.602,-1.776,136.5,143.0,-4.834,-7.541,144.2,-1.927,8.23,4.96,-4.534,-8.419,6,4.704,4.56,4.34,5.184,1.811,1.148,1.944,1.604,6,4.502,4.952,40,196.009184064,norm,0,23,23,23,461.187,461.194,461.196615664,461.197,461.201,461.206,down,1,1.723001915,8.276998085,001,008,800_600,Intel(R) Core(TM) i7-2670QM CPU @ 2.20GHz,orientation_search,GRVLAPTOP3,Intel(R) HD Graphics Family,2018_jun_07_1123,testMonitor,
136.2,148.2,138.7,122.7,36,30,147.5,153.7,136.7,153.5,8.402,7.59,8.491,7.823,8.061,8.418,7.736,4.351,-4.874,-8.181,1.275,-1.25,8.426,5.15,-4.564,-7.86,151.5,125.2,-7.769,154.2,129.9,127.5,159.4,131.4,36,138.8,1,5,prime,10,0,84,norm,36,-4.567,down,norm,142.668396333,150.1,137.7,1.57,148.5,2,150.9,159.3,145.0,10,6,8.131,4.754,1.372,-1.51,-5.006,-8.3,132.9,6,226.7,-7.629,-8.007,30,-8.192,-7.734,-4.902,-5.033,-5.282,-4.659,4.788,8.224,8,-1.397,2.062,5.14,7.635,-8.384,-8.225,-1.631,2.027,152.8,,134.7,132.2,142.8,138.3,159.1,162.1,138.0,155.6,5,norm,2.03,1.742,-1.597,-1.111,-4.584,-4.396,-1.114,-1.234,-1.962,-1.525,1.303,-1.218,142.5,127.6,-4.559,-7.726,162.7,-1.803,8.108,5.181,-4.863,-7.633,6,4.437,4.389,4.535,4.85,1.246,2.014,1.838,1.146,6,4.358,4.514,40,196.009184064,norm,0,24,24,24,462.94,462.948,462.949862083,462.95,462.954,462.959,down,1,1.08249074369,8.91750925631,001,008,800_600,Intel(R) Core(TM) i7-2670QM CPU @ 2.20GHz,orientation_search,GRVLAPTOP3,Intel(R) HD Graphics Family,2018_jun_07_1123,testMonitor,
239.7,253.9,250.4,245.6,36,40,243.1,245.4,238.7,245.5,8.169,7.812,7.942,7.576,8.151,8.175,7.917,4.708,-4.665,-8.295,1.856,-1.381,7.945,4.687,-4.67,-7.767,240.3,238.4,-7.637,234.0,253.1,239.7,238.4,244.4,36,251.9,2,5,probe,5,0,67,norm,36,-4.771,down,norm,243.889407219,233.9,250.6,1.28,,2,244.4,242.8,240.8,10,6,8.471,4.773,1.825,-1.242,-4.422,-7.768,238.1,1,176.9,-8.027,-8.098,30,-7.687,-8.126,-5.022,-4.782,-4.464,-4.477,4.431,7.587,14,-1.965,1.574,4.764,8.407,-8.487,-8.41,-1.541,1.83,249.1,240.3,242.3,243.1,249.1,242.7,245.6,240.2,245.3,248.3,0,norm,1.754,2.021,-1.253,-1.242,-4.347,-5.243,-2.045,-1.932,-1.477,-1.472,1.14,-1.39,240.0,245.8,-5.292,-7.702,246.1,-2.005,7.711,4.928,-4.561,-8.14,7,5.147,4.665,4.682,5.001,1.986,1.674,1.172,1.351,7,4.586,4.673,30,142.668396333,norm,0,25,25,25,464.053,464.061,464.062824741,464.063,464.068,464.073,down,1,2.05496908027,7.94503091973,001,008,800_600,Intel(R) Core(TM) i7-2670QM CPU @ 2.20GHz,orientation_search,GRVLAPTOP3,Intel(R) HD Graphics Family,2018_jun_07_1123,testMonitor,
233.6,231.3,217.1,221.7,36,-20,218.6,226.3,223.4,,8.352,8.069,7.926,8.145,8.431,7.76,7.945,4.788,-5.014,-7.917,1.453,-1.316,8.186,4.406,-5.034,-7.636,219.0,233.7,-7.531,224.4,213.6,200.5,222.5,199.6,36,213.3,4,5,prime,10,0,73,norm,36,-4.538,up,norm,219.296068632,222.9,225.9,1.717,205.1,5,218.0,220.3,216.3,10,5,8.179,4.979,1.812,-1.508,-4.512,-8.046,226.3,5,292.3,-8.323,-8.473,-20,-7.527,-7.936,-4.607,-4.499,-4.416,-5.207,4.515,7.714,29,-1.449,1.155,4.465,7.929,-8.222,-8.373,-1.985,1.685,199.3,220.6,220.4,211.7,227.5,211.4,225.3,209.1,222.6,233.3,0,norm,1.284,1.308,-2.079,-1.643,-4.627,-4.405,-1.941,-1.999,-1.493,-1.221,2.096,-1.566,239.3,222.9,-4.633,-7.994,226.9,-1.902,8.275,4.827,-4.761,-7.993,8,4.549,4.611,5.259,4.411,1.487,1.604,1.274,1.102,8,4.946,4.909,40,142.668396333,norm,0,26,26,26,466.139,466.147,466.148999796,466.15,466.153,466.158,up,1,1.7313903768,8.2686096232,001,008,800_600,Intel(R) Core(TM) i7-2670QM CPU @ 2.20GHz,orientation_search,GRVLAPTOP3,Intel(R) HD Graphics Family,2018_jun_07_1123,testMonitor,
,204.7,212.8,227.7,36,-20,226.2,223.3,212.3,210.8,8.025,7.646,7.896,7.726,8.215,7.735,7.915,5.079,-5.261,-8.326,1.497,-1.479,8.153,4.897,-4.391,-7.561,222.1,207.0,-7.871,203.7,223.1,219.5,223.4,213.0,36,227.5,3,5,prime,10,0,106,norm,36,-4.637,up,norm,219.296068632,236.2,199.3,1.412,215.9,4,200.1,219.8,227.9,10,5,8.209,5.042,1.477,-1.874,-5.206,-7.763,226.0,5,325.3,-8.149,-7.961,-20,-8.27,-8.357,-5.098,-4.763,-5.031,-5.145,5.057,8.099,22,-2.077,1.867,4.622,7.855,-8.034,-8.14,-1.375,1.856,220.2,209.5,239.3,213.8,213.1,216.1,215.0,220.5,214.9,217.7,1,norm,2.017,2.098,-1.907,-1.624,-4.979,-4.404,-2.008,-1.329,-1.27,-1.15,1.232,-1.119,223.1,213.8,-5.038,-7.779,220.0,-1.118,8.461,4.905,-5.126,-8.12,8,4.957,4.303,4.758,4.817,1.793,2.024,1.843,1.474,8,5.23,4.312,40,142.668396333,norm,0,27,27,27,467.901,467.909,467.910787373,467.911,467.915,467.92,up,1,1.50967843763,8.49032156237,001,008,800_600,Intel(R) Core(TM) i7-2670QM CPU @ 2.20GHz,orientation_search,GRVLAPTOP3,Intel(R) HD Graphics Family,2018_jun_07_1123,testMonitor,
209.4,229.4,212.0,211.7,36,-20,225.4,,225.3,226.7,7.521,8.161,7.819,7.945,7.6,7.858,8.225,4.841,-5.137,-7.762,2.033,-1.769,8.033,4.926,-4.817,-7.875,216.1,223.0,-7.685,218.6,224.6,200.2,231.1,221.2,36,239.3,4,5,prime,10,0,117,norm,36,-4.63,down,norm,219.296068632,233.8,213.2,1.63,227.9,1,210.4,219.3,229.2,10,5,7.859,4.821,1.853,-1.674,-4.964,-7.962,202.2,5,336.3,-7.753,-8.206,-20,-8.379,-8.067,-4.957,-5.042,-5.053,-4.843,4.548,8.095,25,-1.656,1.457,4.873,8.041,-8.35,-7.857,-1.255,1.61,215.8,212.9,216.2,214.2,235.4,216.0,230.2,228.1,224.0,199.3,2,norm,1.149,1.474,-2.048,-1.698,-4.414,-5.186,-1.463,-1.589,-1.535,-1.223,1.783,-1.296,215.7,206.2,-4.644,-7.866,219.3,-1.55,8.186,5.031,-4.315,-7.928,8,4.601,4.798,4.563,4.705,1.876,1.662,1.913,1.73,8,5.128,5.256,40,142.668396333,norm,0,28,28,28,469.441,469.449,469.450915311,469.451,469.456,469.461,down,1,1.16959784974,8.83040215026,001,008,800_600,Intel(R) Core(TM) i7-2670QM CPU @ 2.20GHz,orientation_search,GRVLAPTOP3,Intel(R) HD Graphics Family,2018_jun_07_1123,testMonitor,
218.4,215.3,200.5,229.2,36,-20,228.6,227.7,224.3,,8.277,8.407,8.044,8.298,7.929,7.774,8.081,4.779,-4.805,-8.417,1.174,-1.86,7.905,4.344,-5.094,-7.787,236.9,223.9,-7.909,230.4,216.8,212.1,239.3,225.6,36,225.2,4,5,prime,10,0,95,norm,36,-4.371,up,norm,219.296068632,208.9,225.6,1.857,225.7,5,207.1,232.3,209.5,10,5,7.961,4.976,2.031,-1.269,-4.702,-8.43,222.7,5,314.3,-8.342,-7.653,-20,-8.484,-7.796,-4.91,-5.128,-5.197,-4.637,5.273,7.679,29,-1.184,1.78,4.406,8.182,-7.597,-8.019,-1.449,1.11,225.2,207.7,231.2,202.9,207.6,216.8,232.6,199.3,226.8,207.9,3,norm,1.218,1.633,-1.514,-1.362,-4.918,-4.338,-1.324,-1.147,-1.53,-2.094,1.327,-1.942,211.0,234.1,-4.407,-7.6,216.6,-1.504,7.773,4.682,-5.166,-7.937,8,5.275,5.167,4.385,4.548,1.272,1.966,1.838,1.408,8,5.224,4.693,40,142.668396333,norm,0,29,29,29,470.641,470.649,470.650997216,470.652,470.656,470.661,up,1,1.1612803658,8.8387196342,001,008,800_600,Intel(R) Core(TM) i7-2670QM CPU @ 2.20GHz,orientation_search,GRVLAPTOP3,Intel(R) HD Graphics Family,2018_jun_07_1123,testMonitor,
221.0,221.7,215.8,210.9,36,-20,218.7,218.6,212.6,230.2,7.723,7.502,7.782,7.723,7.533,7.763,7.649,4.321,-4.536,-7.812,1.726,-1.813,8.214,4.676,-4.676,-8.418,215.4,204.8,-7.794,212.3,199.3,214.6,221.6,213.9,36,219.6,2,5,prime,10,0,70,norm,36,-5.268,up,norm,219.296068632,209.2,212.4,1.264,229.8,3,207.8,217.3,213.9,10,5,8.358,4.756,1.675,-1.163,-4.331,-7.961,224.5,5,289.3,-8.233,-7.829,-20,-7.584,-7.905,-4.306,-5.053,-4.802,-4.308,5.212,8.393,15,-1.797,1.223,4.669,8.303,-7.862,-8.143,-1.492,1.743,211.5,228.0,239.3,219.2,205.1,228.5,226.6,212.5,220.0,203.9,4,norm,1.949,1.267,-1.864,-1.218,-5.064,-5.083,-1.301,-1.746,-1.471,-1.352,1.819,-1.961,219.1,202.2,-5.259,-8.264,,-1.774,7.981,5.29,-4.658,-8.5,8,5.173,4.585,4.364,5.208,1.732,1.855,1.303,2.071,8,4.351,5.091,40,142.668396333,norm,0,30,30,30,471.834,471.841,471.84335234,471.844,471.848,471.853,down,0,1.64938340323,-10,001,008,800_600,Intel(R) Core(TM) i7-2670QM CPU @ 2.20GHz,orientation_search,GRVLAPTOP3,Intel(R) HD Graphics Family,2018_jun_07_1123,testMonitor,
269.6,264.2,268.9,267.9,36,30,267.6,267.7,262.0,267.0,8.139,7.657,7.711,8.062,7.532,8.248,7.522,5.166,-5.002,-7.747,1.138,-1.806,8.276,4.504,-5.266,-8.09,260.7,266.1,-8.431,270.6,265.1,261.7,266.1,268.6,36,269.3,2,5,probe,5,0,69,norm,36,-5.021,up,norm,269.489495319,271.1,268.2,1.49,269.8,3,271.1,269.3,278.2,10,5,8.458,5.063,1.592,-1.383,-4.959,-7.628,262.3,1,200.5,-7.77,-8.222,-20,-8.071,-8.006,-5.045,-4.705,-4.665,-4.6,4.668,8.066,15,-1.309,1.306,4.321,8.088,-7.989,-7.819,-1.679,1.582,264.6,273.0,271.2,262.6,271.3,269.2,279.5,259.5,279.3,277.0,0,norm,1.12,1.669,-2.059,-2.082,-5.174,-5.029,-1.291,-1.703,-1.456,-1.74,1.909,-1.729,267.7,268.4,-4.683,-7.705,,-1.159,7.774,4.358,-5.261,-7.812,9,4.489,5.165,5.033,4.896,1.547,1.968,1.387,1.229,9,4.33,4.489,-20,219.296068632,norm,0,31,31,31,474.515,474.522,474.524668774,474.525,474.529,474.534,up,1,1.21759802532,8.78240197468,001,008,800_600,Intel(R) Core(TM) i7-2670QM CPU @ 2.20GHz,orientation_search,GRVLAPTOP3,Intel(R) HD Graphics Family,2018_jun_07_1123,testMonitor,
275.5,287.9,292.8,286.0,36,10,262.8,264.3,268.9,276.6,8.466,8.433,8.24,8.127,7.676,8.301,7.963,4.895,-5.117,-8.365,1.328,-1.61,7.668,4.624,-4.838,-7.961,273.9,,-8.152,259.9,287.5,258.3,266.7,272.5,36,282.2,5,5,prime,10,0,83,norm,36,-4.421,up,norm,272.839328644,252.8,258.8,1.638,281.0,4,267.1,264.4,277.9,10,6,8.1,5.201,1.924,-1.233,-4.677,-8.134,274.1,6,355.8,-7.647,-8.399,10,-8.167,-7.642,-4.402,-4.439,-4.971,-4.453,4.378,7.862,34,-1.952,1.474,4.633,7.947,-8.125,-7.913,-1.403,1.256,281.7,283.1,273.2,262.2,266.9,264.4,290.4,274.3,256.9,256.8,0,norm,1.816,1.883,-1.982,-1.258,-5.007,-4.368,-1.498,-1.237,-1.805,-1.814,1.14,-2.05,279.7,282.6,-4.861,-8.132,286.9,-1.935,7.894,4.908,-4.958,-8.417,10,4.904,5.059,4.363,4.458,1.712,2.021,2.041,1.671,10,5.151,4.927,30,219.296068632,norm,0,32,32,32,475.763,475.77,475.772191904,475.773,475.777,475.782,up,1,5.48052288265,4.51947711735,001,008,800_600,Intel(R) Core(TM) i7-2670QM CPU @ 2.20GHz,orientation_search,GRVLAPTOP3,Intel(R) HD Graphics Family,2018_jun_07_1123,testMonitor,
283.3,272.7,292.8,277.0,36,10,276.8,272.8,252.8,281.5,8.092,8.412,8.019,8.055,7.778,7.844,8.159,5.235,-4.87,-7.601,1.151,-1.845,8.024,4.309,-5.107,-7.795,274.4,263.5,-7.957,269.8,278.8,274.3,279.1,271.6,36,283.7,1,5,prime,10,0,102,norm,36,-5.086,up,norm,272.839328644,260.8,279.5,1.509,278.5,4,274.7,272.4,276.5,10,6,7.995,5.045,2.004,-1.678,-4.729,-7.668,,6,374.8,-7.967,-7.765,10,-8.422,-8.374,-4.883,-4.397,-4.824,-4.328,4.323,8.152,10,-1.738,1.658,4.85,7.963,-8.12,-8.112,-1.785,1.74,274.5,272.5,256.4,285.1,257.0,266.6,278.0,283.0,272.5,276.3,1,norm,1.272,1.463,-2.04,-1.104,-4.573,-4.792,-1.306,-1.782,-1.204,-1.462,1.138,-1.133,260.9,278.1,-4.647,-7.721,263.4,-1.686,7.602,4.455,-4.47,-7.521,10,4.518,4.383,4.97,5.189,1.555,1.448,1.187,1.104,10,4.316,5.028,30,219.296068632,norm,0,33,33,33,481.276,481.283,481.285374406,481.286,481.29,481.295,up,1,1.72417631833,8.27582368167,001,008,800_600,Intel(R) Core(TM) i7-2670QM CPU @ 2.20GHz,orientation_search,GRVLAPTOP3,Intel(R) HD Graphics Family,2018_jun_07_1123,testMonitor,
252.8,279.0,,263.2,36,10,288.4,273.0,287.5,268.0,7.989,8.053,8.351,7.992,7.64,8.182,7.798,4.455,-4.84,-7.844,2.046,-1.29,8.164,5.222,-5.242,-8.3,277.2,264.2,-7.708,267.5,275.7,285.7,275.7,261.1,36,264.8,3,5,prime,10,0,80,norm,36,-4.747,down,norm,272.839328644,269.3,279.5,1.318,291.2,2,275.2,262.0,260.3,10,6,7.821,4.961,2.074,-1.775,-4.474,-8.426,292.8,6,352.8,-7.532,-7.782,10,-7.549,-8.475,-4.948,-5.292,-5.239,-4.512,4.438,8.027,20,-1.804,1.892,4.569,7.608,-7.807,-7.689,-1.497,1.718,266.6,280.5,280.8,261.0,265.5,258.5,274.4,260.8,277.4,271.1,2,norm,2.071,1.976,-1.714,-1.279,-4.737,-4.978,-1.515,-1.329,-1.79,-1.303,1.438,-1.528,282.7,286.4,-5.006,-7.747,267.2,-1.825,8.364,4.812,-4.508,-8.347,10,4.511,5.152,4.603,4.609,1.436,1.886,2.072,2.053,10,5.155,5.063,30,219.296068632,norm,0,34,34,34,483.03,483.037,483.039703705,483.04,483.044,483.049,up,0,2.99194448037,-10,001,008,800_600,Intel(R) Core(TM) i7-2670QM CPU @ 2.20GHz,orientation_search,GRVLAPTOP3,Intel(R) HD Graphics Family,2018_jun_07_1123,testMonitor,
263.4,267.5,287.3,268.0,36,10,269.0,266.4,285.4,267.0,7.51,8.016,8.435,8.409,7.688,8.34,7.599,4.97,-4.893,-7.577,1.4,-2.052,7.561,5.258,-4.896,-8.248,279.1,261.2,-7.663,292.8,255.4,268.1,256.2,266.3,36,269.6,0,5,prime,10,0,70,norm,36,-4.691,down,norm,272.839328644,262.2,267.8,1.565,263.7,2,276.0,261.7,275.9,10,6,8.464,5.235,1.167,-1.432,-4.804,-7.788,271.8,6,342.8,-8.484,-8.382,10,-8.237,-8.195,-4.505,-5.074,-4.943,-5.014,4.551,8.376,2,-2.001,1.124,4.659,7.939,-8.073,-8.216,-1.892,1.946,287.6,271.1,289.3,,279.3,264.8,268.3,252.8,282.1,282.3,3,norm,1.41,1.376,-1.971,-1.66,-4.721,-5.078,-1.98,-1.794,-1.815,-1.756,1.233,-1.698,269.8,274.7,-4.971,-8.423,258.2,-1.244,7.73,4.546,-5.176,-7.946,10,4.734,4.407,5.025,5.076,2.016,1.815,1.317,1.847,10,4.575,4.443,30,219.296068632,norm,0,35,35,35,487.058,487.065,487.067218831,487.068,487.072,487.077,down,1,5.98533279976,4.01466720024,001,008,800_600,Intel(R) Core(TM) i7-2670QM CPU @ 2.20GHz,orientation_search,GRVLAPTOP3,Intel(R) HD Graphics Family,2018_jun_07_1123,testMonitor,
280.6,260.4,280.7,270.7,36,10,274.7,264.2,257.7,267.0,8.19,8.333,7.993,7.836,8.299,8.493,8.05,4.454,-4.7,-8.158,1.625,-1.509,8.402,4.317,-5.238,-8.333,269.3,278.4,-8.381,275.9,276.9,257.4,292.8,275.4,36,277.1,0,5,prime,10,0,77,norm,36,-4.485,down,norm,272.839328644,273.5,267.2,1.231,288.7,2,277.2,268.0,264.5,10,6,8.116,4.575,1.544,-1.219,-4.545,-7.706,259.6,6,349.8,-7.793,-8.492,10,-7.756,-8.214,-4.804,-4.639,-4.486,-4.918,5.075,8.024,2,-1.282,1.306,4.804,7.515,-8.059,-7.975,-1.781,1.724,265.7,279.1,268.2,,276.8,264.7,252.8,275.5,280.6,281.5,4,norm,1.212,1.465,-1.882,-1.352,-4.894,-4.496,-1.808,-1.856,-1.173,-1.435,1.834,-1.183,271.4,271.8,-4.943,-8.408,287.1,-2.088,8.222,4.363,-4.964,-7.871,10,5.199,4.997,4.695,4.547,1.606,1.429,1.173,1.34,10,4.537,4.471,30,219.296068632,norm,0,36,36,36,493.074,493.082,493.084820872,493.085,493.089,493.094,down,1,5.67745701287,4.32254298713,001,008,800_600,Intel(R) Core(TM) i7-2670QM CPU @ 2.20GHz,orientation_search,GRVLAPTOP3,Intel(R) HD Graphics Family,2018_jun_07_1123,testMonitor,
276.9,269.3,266.5,266.0,36,10,254.9,278.2,,272.6,7.771,8.081,8.412,7.531,7.955,7.92,8.453,5.037,-4.591,-7.638,1.423,-1.131,8.033,4.841,-4.325,-8.402,271.1,270.9,-7.847,287.2,284.1,264.4,267.0,272.3,36,292.8,4,5,prime,10,0,93,norm,36,-5.252,up,norm,272.839328644,252.8,258.4,2.082,273.3,4,266.1,283.5,267.9,10,6,7.912,4.706,1.116,-1.51,-4.795,-8.01,270.3,6,365.8,-8.241,-7.716,10,-7.917,-7.886,-4.766,-5.162,-5.076,-4.812,5.071,8.198,28,-1.805,2.033,4.697,7.637,-8.072,-7.839,-1.247,2.09,268.7,279.5,271.4,275.7,277.2,263.4,278.5,287.5,263.4,279.7,5,norm,1.617,1.904,-1.865,-1.116,-5.059,-4.323,-1.393,-1.832,-2.02,-1.687,1.457,-1.933,290.0,264.5,-4.376,-8.48,272.3,-1.447,8.37,4.585,-4.686,-7.607,10,4.642,4.797,4.349,4.839,1.611,2.069,1.3,1.963,10,4.397,4.668,30,219.296068632,norm,0,37,37,37,498.783,498.79,498.792585896,498.793,498.797,498.802,up,1,1.48701595554,8.51298404446,001,008,800_600,Intel(R) Core(TM) i7-2670QM CPU @ 2.20GHz,orientation_search,GRVLAPTOP3,Intel(R) HD Graphics Family,2018_jun_07_1123,testMonitor,
398.9,390.1,388.8,392.7,36,80,392.5,391.7,396.1,391.0,8.479,7.952,8.268,8.458,8.44,7.805,7.816,4.815,-4.96,-8.449,1.341,-1.663,7.912,4.952,-5.071,-7.951,392.3,388.2,-7.586,395.9,396.7,383.8,402.5,403.0,36,394.0,0,5,probe,5,0,114,norm,36,-4.323,up,norm,393.030704575,391.9,383.4,1.51,397.9,3,385.3,387.0,399.1,10,6,7.665,4.601,1.184,-1.934,-5.14,-8.178,390.4,2,279.0,-7.505,-7.604,10,-7.935,-7.734,-4.548,-4.465,-5.037,-4.726,5.09,8.07,3,-1.899,1.594,4.327,7.504,-7.684,-8.428,-1.367,1.797,387.4,392.6,,383.0,390.2,397.2,391.8,393.7,387.5,391.8,0,norm,1.206,1.601,-1.242,-1.967,-4.488,-4.727,-1.316,-1.946,-1.973,-1.605,1.639,-1.373,396.4,388.2,-4.906,-7.755,394.9,-1.421,7.907,5.156,-5.2,-7.545,11,4.863,4.471,5.132,4.36,1.462,2.066,1.498,1.407,11,4.842,4.768,10,272.839328644,norm,0,38,38,38,500.3,500.308,500.310446866,500.311,500.315,500.32,up,1,2.29925711401,7.70074288599,001,008,800_600,Intel(R) Core(TM) i7-2670QM CPU @ 2.20GHz,orientation_search,GRVLAPTOP3,Intel(R) HD Graphics Family,2018_jun_07_1123,testMonitor,
380.2,386.7,381.3,387.8,36,80,390.2,386.0,383.8,379.8,7.984,7.745,7.955,7.965,8.282,8.031,8.207,5.131,-5.282,-7.681,1.371,-1.728,7.899,4.81,-4.555,-7.749,386.4,390.9,-7.652,393.7,380.2,382.9,,388.7,36,386.8,5,5,probe,5,0,106,norm,36,-4.709,down,norm,385.030704575,385.9,389.7,1.146,381.9,2,379.2,384.6,394.1,10,6,8.232,5.21,1.212,-1.784,-5.043,-8.1,381.5,2,279.0,-8.438,-7.857,10,-7.831,-7.99,-4.853,-4.444,-4.555,-5.179,4.859,8.343,32,-1.468,1.995,4.591,7.854,-8.063,-7.976,-1.527,1.904,385.2,395.0,383.8,388.9,391.1,387.2,383.4,375.0,377.8,389.9,1,norm,2.033,1.932,-2.086,-1.506,-5.231,-5.242,-1.969,-1.992,-1.785,-1.971,1.364,-1.447,376.6,389.0,-4.664,-7.918,387.2,-1.568,8.183,4.681,-4.936,-7.56,11,4.424,4.651,4.753,4.98,1.218,1.225,1.712,1.905,11,4.768,4.803,10,272.839328644,norm,0,39,39,39,502.63,502.638,502.640176361,502.641,502.645,502.65,down,1,0.938885731724,9.06111426828,001,008,800_600,Intel(R) Core(TM) i7-2670QM CPU @ 2.20GHz,orientation_search,GRVLAPTOP3,Intel(R) HD Graphics Family,2018_jun_07_1123,testMonitor,
161.4,162.2,162.9,164.7,36,80,,180.0,155.3,180.6,8.385,7.993,7.631,8.429,8.045,8.088,8.062,4.93,-4.8,-7.874,1.35,-1.499,7.595,5.217,-4.939,-7.624,153.6,160.2,-7.892,161.1,168.8,174.7,148.6,165.8,36,175.3,4,5,prime,10,0,108,norm,36,-4.785,down,norm,168.564174193,163.8,185.7,1.598,178.2,0,165.0,172.6,171.1,10,5,7.577,4.875,1.687,-1.467,-5.096,-7.598,164.6,5,276.6,-7.958,-8.312,80,-7.605,-8.112,-4.791,-4.768,-4.996,-5.026,4.575,8.273,24,-1.478,2.076,5.152,7.623,-8.123,-8.361,-2.051,1.397,180.5,169.5,160.9,164.9,188.6,172.4,170.9,168.3,166.7,163.9,0,norm,1.696,1.54,-1.252,-1.819,-5.126,-4.893,-1.317,-1.93,-1.57,-1.839,1.838,-1.723,163.1,174.5,-4.7,-7.597,178.9,-1.76,8.29,5.254,-4.6,-8.395,12,5.182,4.489,4.899,5.074,1.72,1.819,1.776,1.655,12,5.01,4.656,80,272.839328644,norm,0,40,40,40,503.6,503.608,503.609918315,503.611,503.615,503.62,down,1,1.03101638888,8.96898361112,001,008,800_600,Intel(R) Core(TM) i7-2670QM CPU @ 2.20GHz,orientation_search,GRVLAPTOP3,Intel(R) HD Graphics Family,2018_jun_07_1123,testMonitor,
178.8,155.7,168.7,169.9,36,80,166.4,176.0,169.5,186.7,8.379,8.335,7.639,8.446,7.939,7.932,7.995,4.667,-4.401,-7.573,1.313,-1.872,7.759,5.246,-4.854,-8.324,162.8,165.8,-8.035,184.3,172.3,150.4,165.5,174.8,36,188.6,1,5,prime,10,0,96,norm,36,-4.311,down,norm,168.564174193,160.3,158.7,1.949,183.4,0,158.0,165.0,175.1,10,5,8.396,4.432,1.618,-1.221,-5.043,-7.689,154.2,5,264.6,-8.14,-8.408,80,-7.75,-7.994,-4.828,-5.186,-4.614,-5.003,4.973,7.944,6,-1.534,1.5,5.283,7.986,-8.197,-7.531,-1.933,1.89,153.0,148.6,171.3,175.0,158.1,176.6,169.3,,175.8,174.3,1,norm,1.515,1.998,-1.797,-1.733,-5.05,-4.846,-1.304,-1.94,-2.076,-1.191,1.973,-1.268,179.2,158.9,-5.162,-8.186,160.5,-1.389,8.212,5.15,-5.086,-7.541,12,4.804,4.423,4.986,4.673,1.713,1.13,1.729,1.692,12,4.462,4.518,80,272.839328644,norm,0,41,41,41,504.662,504.669,504.671166133,504.672,504.676,504.681,down,1,3.76011399417,6.23988600583,001,008,800_600,Intel(R) Core(TM) i7-2670QM CPU @ 2.20GHz,orientation_search,GRVLAPTOP3,Intel(R) HD Graphics Family,2018_jun_07_1123,testMonitor,
180.0,153.7,182.2,179.8,36,80,163.0,156.4,179.7,158.6,7.743,7.837,8.016,7.851,7.82,8.074,8.221,4.687,-5.285,-7.971,1.88,-1.55,7.59,4.568,-4.66,-7.665,,167.7,-8.125,158.8,188.6,148.6,166.1,187.8,36,164.3,5,5,prime,10,0,82,norm,36,-4.403,up,norm,168.564174193,158.7,157.6,1.985,172.2,5,174.7,170.6,182.9,10,5,7.714,4.681,1.624,-1.604,-4.877,-7.716,176.7,5,250.6,-7.511,-7.925,80,-7.809,-7.629,-4.945,-4.747,-4.568,-4.54,4.853,7.52,35,-1.905,1.714,5.179,8.122,-7.847,-8.083,-1.958,1.699,155.2,154.3,169.9,167.1,170.8,184.7,164.8,165.8,161.7,171.9,2,norm,1.178,1.551,-1.373,-1.114,-4.987,-4.363,-1.806,-1.601,-1.864,-1.684,1.376,-1.284,173.3,149.2,-4.459,-8.497,178.0,-1.651,7.842,4.764,-5.216,-8.205,12,4.728,4.955,4.876,5.145,1.479,1.768,2.05,1.305,12,5.215,4.365,80,272.839328644,norm,0,42,42,42,508.451,508.46,508.46196731,508.463,508.466,508.471,up,1,1.75707922389,8.24292077611,001,008,800_600,Intel(R) Core(TM) i7-2670QM CPU @ 2.20GHz,orientation_search,GRVLAPTOP3,Intel(R) HD Graphics Family,2018_jun_07_1123,testMonitor,
169.3,160.3,159.7,183.4,36,80,182.0,176.0,173.6,165.4,8.117,8.395,8.151,8.127,8.457,8.48,7.895,4.825,-4.721,-7.555,2.073,-1.839,8.052,5.026,-5.103,-7.843,167.9,165.0,-8.195,188.6,166.9,167.2,161.7,168.8,36,155.8,0,5,prime,10,0,74,norm,36,-4.731,down,norm,168.564174193,171.0,159.7,2.035,167.6,2,148.6,178.2,170.8,10,5,7.987,5.173,1.544,-1.235,-5.037,-7.639,172.0,5,242.6,-8.463,-7.991,80,-7.822,-8.142,-4.485,-4.485,-4.878,-4.522,4.944,7.648,2,-1.789,1.842,4.623,7.998,-8.115,-7.776,-2.039,1.753,167.5,171.6,165.9,,157.3,162.2,174.3,167.4,179.5,166.4,3,norm,1.233,1.159,-2.011,-1.672,-4.591,-4.523,-1.382,-1.694,-1.195,-1.703,2.065,-1.473,173.9,168.4,-4.72,-8.004,169.6,-1.503,7.612,5.131,-5.266,-8.387,12,4.988,5.098,4.595,5.264,1.864,1.694,1.987,1.901,12,4.573,5.26,80,272.839328644,norm,0,43,43,43,510.24,510.247,510.24918177,510.25,510.254,510.259,down,1,1.79570471905,8.20429528095,001,008,800_600,Intel(R) Core(TM) i7-2670QM CPU @ 2.20GHz,orientation_search,GRVLAPTOP3,Intel(R) HD Graphics Family,2018_jun_07_1123,testMonitor,
,157.6,172.2,182.0,36,80,182.6,162.9,165.0,180.5,7.76,8.221,7.873,7.773,8.402,8.044,7.564,4.51,-4.621,-8.334,1.679,-1.372,7.89,4.417,-4.899,-8.264,175.4,162.0,-8.306,179.7,181.1,162.1,148.6,156.9,36,167.8,3,5,prime,10,0,104,norm,36,-4.98,up,norm,168.564174193,169.9,164.3,1.504,158.1,4,158.7,165.2,166.1,10,5,8.012,5.249,1.779,-1.168,-4.925,-7.813,168.9,5,272.6,-8.155,-7.955,80,-8.064,-7.661,-5.033,-5.141,-4.777,-4.516,4.823,7.8,22,-1.775,1.182,5.115,8.036,-8.014,-8.215,-1.132,1.142,188.6,170.1,157.0,160.4,171.5,175.7,161.7,185.9,170.4,158.5,4,norm,1.66,1.266,-1.31,-1.655,-4.389,-5.133,-1.792,-1.711,-2.082,-1.837,1.702,-1.136,152.2,163.6,-5.25,-7.742,157.8,-1.298,8.191,4.513,-4.857,-7.681,12,4.748,4.482,4.696,4.361,1.18,1.393,1.69,1.586,12,4.938,5.244,80,272.839328644,norm,0,44,44,44,512.066,512.073,512.075173954,512.076,512.079,512.084,up,1,0.970495626223,9.02950437378,001,008,800_600,Intel(R) Core(TM) i7-2670QM CPU @ 2.20GHz,orientation_search,GRVLAPTOP3,Intel(R) HD Graphics Family,2018_jun_07_1123,testMonitor,
331.5,321.0,318.3,326.7,36,20,323.4,320.7,322.9,318.1,8.464,8.073,7.768,8.135,7.913,7.573,8.285,4.993,-5.091,-8.48,1.289,-1.464,8.014,5.151,-4.831,-7.882,316.2,331.9,-7.865,322.6,331.0,326.4,328.4,328.9,36,314.8,2,5,probe,5,0,77,norm,36,-4.885,down,norm,324.831730142,323.9,318.3,1.633,324.8,0,326.6,321.8,,10,5,8.353,4.864,1.21,-2.01,-4.6,-8.328,324.4,2,247.8,-7.796,-8.276,80,-8.178,-7.573,-4.334,-4.901,-4.402,-4.683,5.241,8.286,12,-1.146,1.689,4.858,7.923,-7.659,-8.408,-1.936,1.485,329.3,329.6,329.8,324.5,326.4,327.4,321.9,316.9,326.5,325.0,0,norm,1.87,1.221,-1.775,-1.558,-5.246,-4.522,-1.211,-1.64,-1.627,-1.625,1.502,-1.557,329.7,325.0,-5.164,-7.755,327.2,-1.184,7.714,5.015,-5.261,-8.305,13,5.079,4.945,4.943,5.25,1.936,1.647,1.939,2.028,13,4.871,4.58,80,168.564174193,norm,0,45,45,45,513.066,513.074,513.075791275,513.076,513.08,513.085,down,1,0.869290076689,9.13070992331,001,008,800_600,Intel(R) Core(TM) i7-2670QM CPU @ 2.20GHz,orientation_search,GRVLAPTOP3,Intel(R) HD Graphics Family,2018_jun_07_1123,testMonitor,
343.7,348.6,351.0,345.5,36,20,344.9,356.0,351.4,349.6,7.512,8.49,7.607,8.31,8.24,8.282,7.942,4.876,-5.152,-8.023,1.953,-1.94,7.9,4.345,-5.047,-8.314,352.5,350.0,-8.447,343.0,349.2,349.4,344.4,349.9,36,345.6,0,5,probe,5,0,99,norm,36,-4.905,up,norm,346.831730142,336.9,353.0,2.048,346.8,5,351.4,348.4,344.3,10,5,7.584,4.954,1.332,-1.774,-4.935,-7.946,336.8,2,247.8,-7.553,-7.708,80,-7.718,-8.45,-4.484,-4.579,-4.536,-4.571,4.751,8.223,5,-1.686,1.24,4.34,8.221,-8.313,-7.559,-1.173,1.134,342.1,348.6,337.9,352.7,346.4,346.6,346.1,346.0,,350.3,1,norm,1.934,1.866,-1.886,-1.718,-5.143,-4.595,-1.48,-1.809,-1.384,-1.354,1.571,-1.387,356.8,354.1,-4.438,-8.132,345.0,-1.319,7.504,4.97,-5.046,-7.531,13,5.12,5.072,4.704,4.928,1.108,1.628,1.118,1.956,13,4.409,4.593,80,168.564174193,norm,0,46,46,46,513.966,513.973,513.975474349,513.976,513.98,513.985,up,1,0.842901724156,9.15709827584,001,008,800_600,Intel(R) Core(TM) i7-2670QM CPU @ 2.20GHz,orientation_search,GRVLAPTOP3,Intel(R) HD Graphics Family,2018_jun_07_1123,testMonitor,
371.2,350.8,,364.4,36,-40,354.1,344.6,362.1,372.8,8.475,7.852,7.569,8.111,7.891,8.12,7.626,4.827,-4.752,-8.068,1.338,-1.496,7.533,4.503,-4.557,-7.809,364.9,352.7,-8.079,347.0,339.5,370.7,353.5,346.6,36,354.2,3,5,prime,10,0,66,norm,36,-5.274,down,norm,352.770224692,358.1,355.5,1.678,347.7,2,335.3,363.0,332.8,10,3,7.591,4.648,1.68,-2.046,-5.172,-8.199,362.4,3,418.8,-8.367,-7.566,-40,-8.164,-7.71,-4.779,-5.183,-5.085,-4.991,5.275,7.956,20,-1.756,1.194,4.397,8.032,-8.309,-7.984,-1.675,1.716,347.0,334.3,334.6,349.3,354.6,337.7,339.5,345.7,351.1,346.1,0,norm,1.12,1.294,-1.667,-1.857,-5.123,-4.642,-2.037,-1.919,-1.329,-1.261,1.757,-1.367,363.9,353.9,-5.238,-7.626,352.7,-1.327,8.096,4.597,-5.199,-7.707,14,4.312,4.735,4.569,5.061,1.321,1.118,1.64,1.505,14,5.264,4.991,20,168.564174193,norm,0,47,47,47,514.839,514.847,514.849374251,514.85,514.854,514.859,down,1,1.05966949535,8.94033050465,001,008,800_600,Intel(R) Core(TM) i7-2670QM CPU @ 2.20GHz,orientation_search,GRVLAPTOP3,Intel(R) HD Graphics Family,2018_jun_07_1123,testMonitor,
363.4,359.8,355.9,352.4,36,-40,348.6,344.8,346.6,362.7,8.477,8.13,8.235,7.685,7.908,8.445,8.484,4.807,-4.626,-7.699,1.936,-1.537,8.293,5.143,-4.885,-7.538,348.0,349.2,-7.606,,348.3,347.7,340.4,354.9,36,343.1,5,5,prime,10,0,105,norm,36,-4.786,down,norm,352.770224692,336.7,356.8,1.687,372.8,1,336.5,353.9,361.1,10,3,8.198,4.323,1.494,-1.4,-4.897,-8.319,358.2,3,457.8,-8.327,-7.576,-40,-8.139,-8.103,-4.614,-4.921,-4.543,-4.594,4.325,7.738,31,-2.036,1.11,4.484,8.36,-7.98,-7.514,-1.468,2.068,345.6,343.0,361.9,359.6,332.8,360.5,346.1,347.7,339.4,337.0,1,norm,1.754,1.795,-1.493,-1.874,-4.797,-4.901,-1.137,-1.871,-2.04,-1.907,1.574,-1.5,337.0,346.2,-4.31,-7.771,359.3,-1.346,8.051,4.399,-4.852,-7.57,14,5.273,5.057,4.43,5.001,1.396,1.506,1.476,1.739,14,4.7,4.869,20,168.564174193,norm,0,48,48,48,515.93,515.938,515.940089554,515.941,515.945,515.95,down,1,2.15550407586,7.84449592414,001,008,800_600,Intel(R) Core(TM) i7-2670QM CPU @ 2.20GHz,orientation_search,GRVLAPTOP3,Intel(R) HD Graphics Family,2018_jun_07_1123,testMonitor,
351.5,345.1,351.7,344.6,36,-40,338.2,,334.7,349.8,7.891,8.424,7.51,8.398,7.698,7.669,8.362,4.646,-4.884,-8.413,1.174,-1.254,8.424,5.173,-4.47,-8.44,356.2,353.5,-7.764,372.8,350.1,364.1,365.4,349.5,36,352.9,4,5,prime,10,0,117,norm,36,-5.061,down,norm,352.770224692,347.6,347.5,1.629,360.9,1,353.6,345.1,360.2,10,3,8.453,4.805,1.356,-1.711,-5.042,-8.073,332.8,3,469.8,-7.634,-8.383,-40,-8.173,-8.229,-4.611,-5.083,-4.753,-4.802,4.366,8.066,25,-1.889,1.851,4.966,7.959,-8.115,-8.038,-1.216,1.505,341.1,365.2,356.5,354.9,339.7,348.3,345.8,362.6,361.9,358.6,2,norm,2.046,1.711,-1.189,-1.333,-4.611,-4.442,-1.711,-1.362,-1.408,-1.832,1.495,-2.028,349.2,339.8,-4.635,-8.037,353.8,-1.411,7.688,4.544,-5.111,-8.097,14,5.008,5.207,4.419,5.219,2.023,1.526,1.88,2.017,14,4.48,4.513,20,168.564174193,norm,0,49,49,49,518.116,518.124,518.125945068,518.127,518.13,518.135,down,1,0.804325259758,9.19567474024,001,008,800_600,Intel(R) Core(TM) i7-2670QM CPU @ 2.20GHz,orientation_search,GRVLAPTOP3,Intel(R) HD Graphics Family,2018_jun_07_1123,testMonitor,
412.4,,412.1,405.3,36,-80,411.4,416.1,412.0,419.0,7.706,7.899,7.864,8.488,7.73,8.485,8.133,4.726,-4.875,-8.082,1.102,-1.232,7.851,4.75,-4.385,-8.13,409.1,416.0,-7.639,406.4,418.9,409.9,412.5,414.7,36,421.6,3,5,probe,5,0,110,norm,36,-5.299,up,norm,414.63130578,424.6,421.5,1.668,410.8,5,417.7,414.1,411.9,10,3,7.642,4.674,1.859,-2.066,-4.474,-8.282,417.4,1,304.6,-8.365,-8.433,-40,-8.286,-7.699,-4.744,-4.59,-4.541,-4.567,4.34,7.794,23,-1.945,1.424,5.128,7.6,-7.794,-7.552,-1.485,1.463,414.3,422.0,409.7,412.8,414.2,414.8,409.6,416.7,415.3,408.6,0,norm,1.17,1.375,-1.295,-1.884,-5.11,-4.396,-1.546,-1.959,-1.305,-1.582,1.635,-2.01,410.6,417.5,-4.75,-8.212,420.0,-1.603,7.967,4.42,-4.972,-7.722,15,4.443,4.777,4.927,4.625,1.716,1.696,2.031,1.837,15,5.205,4.337,-40,352.770224692,norm,0,50,50,50,518.951,518.959,518.961335747,518.962,518.966,518.971,up,1,1.1029547801,8.8970452199,001,008,800_600,Intel(R) Core(TM) i7-2670QM CPU @ 2.20GHz,orientation_search,GRVLAPTOP3,Intel(R) HD Graphics Family,2018_jun_07_1123,testMonitor,
77.3,61.1,76.4,80.7,36,0,85.2,74.0,82.5,100.2,7.747,8.302,8.123,7.956,7.898,8.036,7.869,4.78,-4.761,-7.832,1.447,-2.083,7.938,4.729,-4.927,-7.734,85.0,89.5,-7.927,101.1,82.1,,89.7,92.7,36,82.0,5,5,prime,10,0,60,norm,36,-5.04,up,norm,81.1441406419,72.5,78.8,1.24,65.8,3,76.6,72.4,83.2,10,5,8.397,5.101,1.641,-1.986,-5.21,-8.016,83.2,5,141.1,-7.575,-7.648,0,-8.069,-7.888,-4.77,-4.5,-4.456,-5.094,4.993,8.254,33,-1.96,1.215,4.482,7.57,-7.866,-7.718,-1.276,1.763,71.7,64.9,62.3,84.5,82.4,81.9,69.4,91.6,90.9,74.4,0,norm,1.426,1.344,-2.09,-1.107,-4.5,-4.61,-1.967,-1.177,-1.25,-2.013,2.045,-1.159,84.5,77.2,-4.855,-7.551,69.2,-1.121,8.005,5.103,-4.8,-8.218,16,5.165,5.189,4.575,4.707,2.089,1.88,1.431,1.492,16,5.035,4.68,-80,352.770224692,norm,0,51,51,51,520.085,520.093,520.095444669,520.096,520.1,520.105,up,1,2.46551573584,7.53448426416,001,008,800_600,Intel(R) Core(TM) i7-2670QM CPU @ 2.20GHz,orientation_search,GRVLAPTOP3,Intel(R) HD Graphics Family,2018_jun_07_1123,testMonitor,
85.6,89.8,73.3,78.0,36,0,74.2,83.8,84.2,84.7,8.204,7.811,7.804,8.337,7.858,8.315,8.16,4.92,-5.04,-8.489,1.585,-1.284,7.507,4.654,-4.563,-7.927,90.3,95.4,-7.708,101.1,73.3,79.9,61.8,,36,90.0,4,5,prime,10,0,100,norm,36,-4.393,down,norm,81.1441406419,77.3,94.0,1.444,61.1,2,80.7,77.1,83.9,10,5,7.785,4.332,1.258,-1.139,-4.647,-8.493,90.1,5,181.1,-7.552,-7.892,0,-7.673,-7.684,-4.38,-5.277,-4.93,-4.356,4.522,8.393,26,-1.549,1.471,4.963,8.128,-8.054,-8.291,-1.811,1.983,70.3,84.9,86.1,96.1,90.7,83.1,73.3,77.7,86.2,92.2,1,norm,1.889,1.455,-1.537,-1.855,-5.186,-5.14,-1.92,-1.846,-1.942,-1.958,1.315,-1.255,92.3,84.9,-5.068,-7.883,71.1,-1.199,8.302,4.48,-5.171,-8.059,16,4.823,4.602,4.393,4.807,1.89,1.77,1.508,1.477,16,4.517,4.697,-80,352.770224692,norm,0,52,52,52,522.582,522.589,522.591210513,522.592,522.596,522.601,down,1,2.37286955531,7.62713044469,001,008,800_600,Intel(R) Core(TM) i7-2670QM CPU @ 2.20GHz,orientation_search,GRVLAPTOP3,Intel(R) HD Graphics Family,2018_jun_07_1123,testMonitor,
74.8,69.8,101.1,68.1,36,0,67.9,79.4,81.7,78.2,7.923,7.972,8.486,8.174,7.564,8.018,8.335,4.39,-5.283,-7.919,1.569,-1.317,7.766,4.931,-4.926,-7.678,,94.0,-8.321,75.6,85.4,72.5,86.5,91.4,36,79.9,5,5,prime,10,0,77,norm,36,-4.677,up,norm,81.1441406419,90.6,89.1,1.563,97.3,5,77.6,76.1,78.6,10,5,8.08,5.19,1.47,-1.634,-5.202,-8.33,70.5,5,158.1,-8.417,-8.135,0,-7.912,-7.725,-4.795,-4.705,-4.745,-4.351,5.201,8.258,35,-2.07,1.199,4.701,8.229,-8.368,-7.916,-1.823,1.947,83.2,80.3,92.2,84.7,86.2,75.4,85.9,81.5,84.5,80.9,2,norm,1.478,1.956,-1.488,-1.174,-4.527,-5.11,-1.111,-1.551,-1.35,-1.783,1.95,-1.42,61.1,88.9,-4.94,-8.316,93.0,-2.029,7.846,4.615,-5.193,-8.213,16,4.81,4.56,5.196,4.928,1.271,1.116,1.952,1.972,16,5.019,4.327,-80,352.770224692,norm,0,53,53,53,524.985,524.992,524.994555718,524.995,524.999,525.004,up,1,5.25820249515,4.74179750485,001,008,800_600,Intel(R) Core(TM) i7-2670QM CPU @ 2.20GHz,orientation_search,GRVLAPTOP3,Intel(R) HD Graphics Family,2018_jun_07_1123,testMonitor,
73.5,87.8,83.2,94.4,36,0,61.1,78.8,91.6,79.2,7.9,7.938,8.074,7.611,7.868,7.558,7.562,5.175,-4.63,-8.032,1.891,-2.091,8.29,4.457,-4.472,-8.5,79.8,80.9,-7.573,83.0,82.1,81.1,72.9,77.9,36,84.4,0,5,prime,10,0,103,norm,36,-4.811,up,norm,81.1441406419,91.4,83.9,1.14,92.1,5,71.1,79.1,63.4,10,5,7.661,5.112,1.121,-1.883,-5.034,-7.916,93.0,5,184.1,-7.508,-8.056,0,-8.039,-8.107,-4.348,-4.857,-4.739,-5.17,4.516,8.332,5,-1.932,1.836,5.257,7.553,-7.53,-8.033,-1.453,1.615,70.0,82.9,68.2,71.1,85.2,75.9,81.5,64.0,,76.9,3,norm,1.366,1.364,-1.149,-1.289,-5.091,-4.314,-1.152,-1.311,-1.375,-1.981,1.341,-1.797,101.1,75.4,-5.03,-7.992,66.4,-2.021,7.86,4.496,-4.828,-8.387,16,4.363,4.435,4.569,4.725,1.87,1.339,2.061,1.448,16,5.013,4.866,-80,352.770224692,norm,0,54,54,54,530.274,530.282,530.284871957,530.285,530.289,530.294,up,1,12.7497465577,-2.74974655769,001,008,800_600,Intel(R) Core(TM) i7-2670QM CPU @ 2.20GHz,orientation_search,GRVLAPTOP3,Intel(R) HD Graphics Family,2018_jun_07_1123,testMonitor,
,72.7,69.9,101.1,36,0,78.1,82.9,100.8,69.7,7.701,8.37,7.73,7.663,7.986,8.3,8.001,4.61,-4.625,-8.112,1.226,-1.185,7.823,5.254,-4.873,-7.641,81.5,90.5,-8.046,91.5,80.2,82.8,85.3,85.2,36,74.2,3,5,prime,10,0,86,norm,36,-4.526,up,norm,81.1441406419,69.6,61.1,1.154,65.5,4,85.8,72.0,84.5,10,5,8.278,5.014,1.331,-1.608,-4.481,-8.242,80.0,5,167.1,-7.78,-7.789,0,-7.958,-7.61,-4.68,-5.199,-4.814,-4.332,5.152,8.155,22,-1.305,1.489,4.884,8.249,-7.713,-7.734,-2.091,1.799,90.1,86.5,72.8,78.6,92.5,80.3,89.1,79.6,70.2,77.6,4,norm,1.214,2.013,-1.328,-1.621,-4.933,-4.363,-1.263,-1.302,-1.671,-1.938,1.857,-1.184,71.5,85.2,-4.601,-8.037,90.1,-1.61,7.548,4.438,-5.204,-7.783,16,5.116,4.947,4.571,4.379,1.773,1.493,1.392,1.171,16,4.334,4.522,-80,352.770224692,norm,0,55,55,55,543.056,543.063,543.065092764,543.066,543.07,543.075,down,0,3.17025112619,-10,001,008,800_600,Intel(R) Core(TM) i7-2670QM CPU @ 2.20GHz,orientation_search,GRVLAPTOP3,Intel(R) HD Graphics Family,2018_jun_07_1123,testMonitor,
190.9,191.3,202.8,191.9,36,-80,197.1,191.6,193.5,193.5,7.931,8.416,8.019,7.934,8.128,8.425,7.945,4.641,-5.299,-7.669,1.356,-1.639,8.094,4.585,-4.401,-7.613,189.7,201.3,-8.113,203.4,188.1,194.4,186.8,190.6,36,200.3,1,5,probe,5,0,116,norm,36,-4.941,up,norm,193.431362756,190.4,195.2,2.086,185.6,4,189.7,192.7,188.0,10,5,8.339,5.254,1.104,-1.5,-4.791,-8.081,,2,77.4,-8.414,-7.995,0,-8.121,-7.945,-4.795,-4.881,-4.634,-5.002,5.278,8.09,10,-1.543,1.25,4.855,7.958,-8.04,-8.466,-1.23,1.588,199.2,198.0,189.9,191.4,195.1,190.6,194.7,193.7,183.4,199.2,0,norm,1.538,1.56,-1.736,-2.013,-4.957,-4.775,-1.916,-1.538,-1.827,-1.536,1.12,-1.667,196.6,201.6,-4.468,-8.169,186.9,-1.46,8.199,5.121,-5.276,-7.706,17,5.06,5.278,4.33,4.652,1.44,1.168,1.82,1.614,17,4.516,4.994,0,81.1441406419,norm,0,56,56,56,547.257,547.265,547.266784278,547.267,547.271,547.277,up,1,1.17055418295,8.82944581705,001,008,800_600,Intel(R) Core(TM) i7-2670QM CPU @ 2.20GHz,orientation_search,GRVLAPTOP3,Intel(R) HD Graphics Family,2018_jun_07_1123,testMonitor,
136.9,141.6,130.3,146.3,36,-80,135.3,146.7,139.3,133.1,7.82,8.184,7.64,8.388,8.143,8.044,8.329,4.713,-4.482,-7.682,1.28,-2.075,8.416,5.252,-5.043,-7.741,134.5,142.5,-8.21,147.4,146.3,141.7,139.6,144.7,36,139.8,1,5,probe,5,0,60,norm,36,-4.676,up,norm,137.431362756,127.4,136.9,1.385,130.7,3,131.1,128.0,141.0,10,5,7.729,5.247,2.006,-2.072,-5.04,-7.771,137.1,2,77.4,-7.521,-8.321,0,-8.412,-7.628,-5.125,-4.984,-4.678,-4.587,4.965,8.29,9,-1.308,1.148,5.242,8.481,-8.141,-7.785,-1.729,1.845,,141.5,139.0,138.4,145.0,135.9,133.6,142.1,135.4,133.7,1,norm,2.0,1.723,-1.118,-1.804,-4.65,-4.964,-1.996,-1.816,-1.84,-2.066,1.897,-1.765,131.1,141.9,-5.005,-8.221,130.9,-1.462,8.13,4.41,-5.299,-7.662,17,4.955,4.762,4.399,5.163,1.504,2.025,1.514,1.821,17,5.04,4.752,0,81.1441406419,norm,0,57,57,57,548.458,548.467,548.468834418,548.469,548.473,548.478,up,1,1.27356826692,8.72643173308,001,008,800_600,Intel(R) Core(TM) i7-2670QM CPU @ 2.20GHz,orientation_search,GRVLAPTOP3,Intel(R) HD Graphics Family,2018_jun_07_1123,testMonitor,
212.1,220.4,206.4,219.1,36,-80,217.5,204.7,208.4,197.7,8.073,8.104,8.337,7.876,7.659,8.335,8.15,4.347,-4.428,-8.466,1.391,-1.101,7.735,4.955,-5.243,-8.344,207.1,214.7,-7.948,202.7,226.2,229.3,199.0,215.2,36,214.7,0,5,prime,10,0,66,norm,36,-4.568,up,norm,209.349594879,205.7,203.5,1.238,216.7,3,212.7,211.4,226.9,10,6,7.937,4.874,1.841,-1.111,-4.84,-7.894,189.3,6,275.3,-7.796,-8.382,-80,-7.807,-8.014,-4.38,-5.118,-4.427,-4.661,4.398,7.569,3,-2.098,1.689,4.73,7.982,-8.443,-7.828,-1.873,1.895,212.9,222.2,,210.9,216.8,217.0,213.7,204.3,203.8,203.7,0,norm,1.243,1.36,-1.414,-1.22,-4.429,-4.79,-1.23,-1.369,-1.94,-1.426,1.266,-1.322,205.3,206.5,-5.274,-7.931,211.6,-1.991,7.743,5.006,-4.629,-8.405,18,4.745,4.878,4.558,4.817,2.009,2.006,1.713,1.352,18,4.715,4.71,-80,81.1441406419,norm,0,58,58,58,549.763,549.77,549.772619172,549.773,549.777,549.782,up,1,0.919742723954,9.08025727605,001,008,800_600,Intel(R) Core(TM) i7-2670QM CPU @ 2.20GHz,orientation_search,GRVLAPTOP3,Intel(R) HD Graphics Family,2018_jun_07_1123,testMonitor,
211.7,201.5,217.5,194.8,36,-80,198.7,216.7,201.3,207.0,7.719,8.245,8.449,8.331,7.504,7.605,7.693,4.79,-5.056,-7.791,1.935,-1.437,8.08,4.675,-4.341,-7.782,217.1,225.9,-8.488,214.9,220.8,220.5,215.6,221.7,36,201.5,2,5,prime,10,0,69,norm,36,-4.367,up,norm,209.349594879,219.8,208.6,1.204,196.8,3,220.9,210.6,229.3,10,6,7.85,4.365,1.705,-1.188,-5.232,-8.257,209.6,6,278.3,-7.582,-8.406,-80,-7.907,-7.69,-4.986,-4.596,-4.482,-4.988,4.796,8.306,15,-1.768,1.184,5.093,7.567,-7.596,-8.465,-1.633,1.713,228.9,220.0,200.4,206.8,211.4,217.0,228.1,214.4,194.5,199.7,1,norm,1.356,2.053,-1.927,-1.157,-4.852,-4.565,-1.995,-1.196,-1.901,-2.057,1.271,-1.504,203.5,209.8,-4.367,-8.367,,-1.568,8.347,5.117,-5.092,-8.436,18,5.144,5.005,4.346,5.135,1.182,1.202,1.819,1.14,18,4.924,4.976,-80,81.1441406419,norm,0,59,59,59,550.712,550.72,550.722612938,550.723,550.727,550.732,up,1,0.884283214718,9.11571678528,001,008,800_600,Intel(R) Core(TM) i7-2670QM CPU @ 2.20GHz,orientation_search,GRVLAPTOP3,Intel(R) HD Graphics Family,2018_jun_07_1123,testMonitor,
201.3,200.4,209.9,218.1,36,-80,215.0,204.9,212.3,195.9,8.443,7.894,8.367,7.653,7.721,7.675,8.321,5.047,-4.517,-8.066,1.567,-1.675,7.826,4.67,-4.31,-8.123,206.2,229.3,-7.947,203.5,210.8,212.8,,208.5,36,218.2,5,5,prime,10,0,112,norm,36,-4.888,down,norm,209.349594879,199.5,189.3,1.371,194.4,2,216.9,216.8,195.0,10,6,7.799,4.378,1.41,-1.419,-4.835,-8.37,211.0,6,321.3,-7.819,-7.741,-80,-7.973,-7.902,-5.253,-4.363,-4.808,-4.703,4.961,7.61,32,-1.376,1.547,4.734,7.734,-8.406,-8.364,-1.313,1.345,225.5,218.1,212.9,219.4,219.4,210.9,211.6,189.5,207.6,223.1,2,norm,1.584,1.64,-1.966,-2.061,-5.281,-4.686,-1.726,-1.453,-1.45,-1.116,1.486,-1.638,195.0,213.9,-4.829,-7.855,217.1,-1.143,7.608,4.974,-4.792,-8.285,18,4.338,4.859,4.561,4.765,2.019,1.448,1.416,1.389,18,4.468,4.681,-80,81.1441406419,norm,0,60,60,60,551.628,551.636,551.637877519,551.638,551.642,551.647,down,1,1.31393552129,8.68606447871,001,008,800_600,Intel(R) Core(TM) i7-2670QM CPU @ 2.20GHz,orientation_search,GRVLAPTOP3,Intel(R) HD Graphics Family,2018_jun_07_1123,testMonitor,
219.9,211.1,200.0,212.2,36,-80,218.2,212.5,202.6,,8.115,8.053,8.086,8.169,7.755,7.651,7.953,4.691,-5.251,-7.71,1.773,-2.05,8.036,4.403,-4.942,-8.065,222.9,225.1,-8.029,207.3,217.2,209.7,208.1,209.8,36,211.9,4,5,prime,10,0,81,norm,36,-4.53,up,norm,209.349594879,221.2,210.7,1.293,214.7,5,212.9,229.3,202.6,10,6,7.771,4.543,1.854,-1.545,-4.573,-7.514,226.9,6,290.3,-8.264,-8.259,-80,-7.877,-7.718,-5.277,-4.522,-5.176,-5.27,5.287,8.27,29,-1.149,1.531,5.248,8.243,-8.064,-8.203,-1.793,1.14,212.4,219.8,212.2,217.1,219.2,189.3,222.5,203.4,213.4,210.3,3,norm,1.202,1.142,-1.294,-1.478,-4.966,-4.463,-1.85,-1.755,-1.169,-1.963,1.564,-1.999,207.1,215.7,-4.556,-8.082,214.4,-1.861,8.223,4.794,-4.878,-8.135,18,4.836,5.133,5.038,5.278,2.08,1.576,1.236,1.55,18,4.841,4.651,-80,81.1441406419,norm,0,61,61,61,552.972,552.98,552.982004312,552.983,552.987,552.992,up,1,0.730862245524,9.26913775448,001,008,800_600,Intel(R) Core(TM) i7-2670QM CPU @ 2.20GHz,orientation_search,GRVLAPTOP3,Intel(R) HD Graphics Family,2018_jun_07_1123,testMonitor,
208.6,222.0,194.9,208.9,36,-80,216.3,207.8,216.7,212.4,7.659,8.222,7.624,8.421,7.523,7.898,7.905,4.659,-4.536,-7.62,1.371,-1.115,8.232,5.055,-5.078,-8.491,189.3,217.5,-7.66,205.5,212.0,218.0,201.2,202.7,36,210.1,3,5,prime,10,0,88,norm,36,-4.359,down,norm,209.349594879,214.1,210.9,1.873,223.4,0,212.4,209.9,229.3,10,6,7.609,4.917,1.125,-1.165,-5.068,-7.655,194.1,6,297.3,-7.509,-8.114,-80,-8.125,-8.318,-4.915,-5.056,-4.711,-5.044,4.637,7.8,18,-2.051,2.093,5.275,8.479,-8.029,-8.432,-1.137,1.104,207.1,214.8,210.8,229.3,216.0,208.5,198.8,219.3,226.6,194.9,4,norm,1.539,1.793,-1.462,-1.384,-4.765,-4.757,-1.656,-1.615,-1.843,-1.814,1.707,-1.396,222.6,,-5.246,-7.707,207.5,-1.493,8.215,4.707,-4.91,-8.128,18,4.992,4.301,5.268,5.278,1.178,1.6,1.346,1.608,18,4.91,5.067,-80,81.1441406419,norm,0,62,62,62,553.733,553.742,553.744748689,553.745,553.749,553.754,down,1,1.73037053709,8.26962946291,001,008,800_600,Intel(R) Core(TM) i7-2670QM CPU @ 2.20GHz,orientation_search,GRVLAPTOP3,Intel(R) HD Graphics Family,2018_jun_07_1123,testMonitor,
228.2,211.7,192.9,207.9,36,-80,211.6,218.9,208.6,204.5,8.08,7.743,8.336,8.187,7.986,8.322,7.836,4.933,-4.516,-7.91,1.997,-1.411,8.228,5.125,-5.032,-7.855,214.1,199.2,-8.252,218.6,210.9,212.0,194.0,208.0,36,229.1,3,5,prime,10,0,92,norm,36,-4.398,down,norm,209.349594879,210.7,197.8,1.515,229.3,0,202.2,205.5,208.7,10,6,7.623,5.008,1.577,-1.487,-4.717,-8.055,214.0,6,301.3,-8.307,-7.895,-80,-7.708,-8.01,-4.676,-4.709,-5.093,-5.172,4.951,8.079,18,-1.615,1.105,4.546,7.529,-8.487,-8.235,-1.563,1.633,209.2,222.5,208.6,220.3,189.3,210.7,211.4,219.7,214.5,203.1,5,norm,1.834,1.437,-1.716,-1.907,-5.01,-5.011,-1.401,-1.352,-1.267,-2.069,2.032,-2.078,200.7,,-4.702,-8.416,196.9,-1.406,8.249,5.003,-4.322,-7.853,18,4.855,5.072,4.472,5.199,2.035,1.566,1.631,1.909,18,5.291,4.543,-80,81.1441406419,norm,0,63,63,63,555.496,555.504,555.506082849,555.507,555.511,555.516,down,1,0.963931108519,9.03606889148,001,008,800_600,Intel(R) Core(TM) i7-2670QM CPU @ 2.20GHz,orientation_search,GRVLAPTOP3,Intel(R) HD Graphics Family,2018_jun_07_1123,testMonitor,
246.1,244.9,245.2,255.6,36,-30,243.3,242.1,243.3,248.3,8.437,7.666,8.116,8.495,7.951,8.381,7.621,5.251,-5.221,-8.04,1.377,-1.495,7.711,5.125,-4.571,-7.625,251.5,247.2,-7.761,249.7,245.3,251.1,245.9,243.4,36,241.3,0,5,probe,5,0,107,norm,36,-5.203,down,norm,245.620300162,249.0,247.5,1.575,243.8,2,244.4,244.9,249.1,10,6,7.62,5.113,1.39,-2.05,-4.766,-8.376,244.9,1,138.6,-8.489,-7.938,-80,-7.854,-8.382,-4.425,-4.498,-4.646,-5.22,4.315,8.461,2,-1.994,1.765,4.557,7.746,-7.809,-8.315,-1.127,1.625,249.8,247.1,248.3,,244.6,248.8,245.6,247.9,235.6,243.8,0,norm,1.858,1.182,-2.047,-2.066,-4.568,-4.302,-1.181,-1.677,-1.625,-1.741,1.801,-2.063,238.3,245.4,-4.855,-8.303,248.3,-1.105,8.498,5.232,-4.881,-7.563,19,4.803,4.834,4.404,5.157,1.858,1.511,1.802,1.769,19,4.707,5.226,-80,209.349594879,norm,0,64,64,64,556.491,556.498,556.500035255,556.501,556.505,556.51,up,0,1.07763062844,-10,001,008,800_600,Intel(R) Core(TM) i7-2670QM CPU @ 2.20GHz,orientation_search,GRVLAPTOP3,Intel(R) HD Graphics Family,2018_jun_07_1123,testMonitor,
151.5,147.6,164.1,151.4,36,-40,171.6,164.7,151.4,158.3,7.768,7.614,8.127,8.205,8.376,8.352,8.38,4.439,-5.031,-8.017,1.481,-1.295,8.078,4.327,-4.848,-7.997,155.9,,-8.46,180.3,162.5,162.9,168.9,148.9,36,164.3,5,5,prime,10,0,81,norm,36,-5.019,up,norm,160.289868384,164.5,173.7,1.817,148.7,4,151.0,163.3,151.7,10,5,8.07,4.366,2.027,-2.084,-5.24,-8.216,153.0,5,241.3,-7.804,-8.078,-40,-8.426,-7.739,-4.864,-4.984,-4.933,-4.823,4.96,8.209,34,-1.253,1.784,4.495,8.269,-7.833,-8.274,-1.585,1.681,170.5,155.0,156.5,165.9,170.1,175.9,170.2,140.3,163.5,162.4,0,norm,1.955,1.578,-1.753,-1.567,-4.582,-4.317,-1.795,-1.504,-2.08,-1.834,1.974,-1.535,153.7,146.8,-4.574,-7.807,170.9,-2.056,8.098,5.176,-5.022,-8.356,20,4.6,4.672,4.556,5.025,1.134,1.571,1.946,1.935,20,4.365,4.773,-30,209.349594879,norm,0,65,65,65,558.598,604.151,604.153550317,604.154,604.158,604.163,up,1,2.01601718038,7.98398281962,001,008,800_600,Intel(R) Core(TM) i7-2670QM CPU @ 2.20GHz,orientation_search,GRVLAPTOP3,Intel(R) HD Graphics Family,2018_jun_07_1123,testMonitor,
164.8,158.1,151.6,165.5,36,-40,157.0,179.7,160.0,168.7,7.596,8.297,7.918,7.844,7.647,8.069,7.817,4.82,-5.08,-8.231,1.145,-1.409,7.737,4.452,-4.486,-7.829,166.8,165.6,-7.669,164.3,158.0,171.2,156.0,169.8,36,164.2,1,5,prime,10,0,106,norm,36,-4.658,down,norm,160.289868384,152.8,180.3,1.53,156.5,1,178.2,175.5,140.3,10,5,8.307,4.679,1.241,-1.935,-4.5,-7.699,156.4,5,266.3,-7.616,-7.839,-40,-8.481,-7.834,-5.089,-5.104,-5.104,-5.159,5.085,8.236,7,-1.289,2.001,4.43,8.014,-8.036,-7.963,-1.966,2.06,167.3,163.4,154.9,165.2,150.4,171.1,,155.2,166.4,175.9,1,norm,1.393,1.738,-1.702,-1.748,-5.293,-5.01,-1.662,-1.175,-1.113,-1.984,1.534,-1.477,165.9,149.1,-4.544,-8.185,166.0,-1.605,7.776,4.563,-5.143,-8.39,20,4.405,4.585,4.595,4.829,1.231,1.15,1.749,1.903,20,5.258,4.588,-30,209.349594879,norm,0,66,66,66,606.19,606.198,606.200862194,606.201,606.205,606.21,down,1,0.923500814612,9.07649918539,001,008,800_600,Intel(R) Core(TM) i7-2670QM CPU @ 2.20GHz,orientation_search,GRVLAPTOP3,Intel(R) HD Graphics Family,2018_jun_07_1123,testMonitor,
163.4,170.9,158.4,164.1,36,-40,164.9,149.7,154.7,150.2,8.311,8.446,8.434,8.122,8.241,7.51,7.955,5.271,-4.604,-8.323,1.392,-1.778,8.389,4.683,-4.323,-7.969,151.2,157.0,-7.547,160.7,157.3,148.8,161.8,164.9,36,141.0,0,5,prime,10,0,111,norm,36,-4.516,up,norm,160.289868384,146.1,171.4,1.484,151.5,3,151.6,141.2,174.5,10,5,7.76,5.278,1.367,-1.933,-5.098,-8.005,165.5,5,271.3,-7.527,-8.188,-40,-7.535,-7.909,-4.824,-5.192,-5.094,-4.798,5.067,7.76,3,-1.213,1.172,4.338,8.467,-8.103,-7.802,-1.602,1.542,140.3,169.1,,180.3,157.4,164.3,156.8,171.8,149.8,155.5,2,norm,1.554,1.265,-1.239,-1.567,-4.493,-4.937,-1.656,-1.395,-1.369,-1.51,1.693,-1.34,151.4,170.8,-4.568,-7.677,146.1,-1.68,7.74,4.836,-5.011,-7.522,20,4.44,4.465,5.123,4.403,1.805,1.241,1.999,1.584,20,5.221,4.475,-30,209.349594879,norm,0,67,67,67,607.145,607.152,607.154480967,607.155,607.159,607.164,up,1,1.78922892366,8.21077107634,001,008,800_600,Intel(R) Core(TM) i7-2670QM CPU @ 2.20GHz,orientation_search,GRVLAPTOP3,Intel(R) HD Graphics Family,2018_jun_07_1123,testMonitor,
148.9,164.1,166.6,176.1,36,-40,151.3,159.0,161.7,158.3,8.39,7.684,7.697,8.466,7.698,8.244,7.579,5.145,-5.228,-8.177,1.357,-1.131,8.42,5.257,-5.008,-7.725,159.4,150.2,-7.586,149.9,140.3,169.5,166.2,158.4,36,140.7,0,5,prime,10,0,91,norm,36,-4.864,down,norm,160.289868384,141.9,150.2,1.98,154.0,2,180.0,142.0,162.1,10,5,8.153,4.478,1.886,-1.505,-4.799,-8.223,153.9,5,251.3,-7.674,-8.462,-40,-7.783,-7.72,-5.167,-4.608,-4.616,-4.496,4.603,7.784,2,-1.946,1.492,5.25,8.378,-7.645,-7.63,-1.455,1.242,159.6,144.6,151.1,,174.1,176.2,162.2,157.7,157.5,166.9,3,norm,1.4,2.016,-1.812,-1.313,-4.789,-4.514,-1.408,-1.955,-1.78,-1.879,1.845,-1.897,153.5,155.1,-4.731,-7.686,156.0,-1.442,8.164,4.52,-5.173,-8.325,20,4.774,4.688,4.711,4.583,1.394,1.515,1.454,1.902,20,4.559,5.117,-30,209.349594879,norm,0,68,68,68,608.964,608.972,608.974307417,608.975,608.979,608.984,down,1,1.41956411191,8.58043588809,001,008,800_600,Intel(R) Core(TM) i7-2670QM CPU @ 2.20GHz,orientation_search,GRVLAPTOP3,Intel(R) HD Graphics Family,2018_jun_07_1123,testMonitor,
171.4,168.9,163.0,162.9,36,-40,140.3,164.2,175.2,164.5,7.829,7.97,8.308,8.28,8.237,7.705,8.122,4.731,-4.898,-8.045,1.323,-1.62,7.61,4.869,-5.038,-8.201,,165.3,-7.809,156.1,155.6,167.1,165.4,160.9,36,169.0,5,5,prime,10,0,60,norm,36,-4.8,up,norm,160.289868384,151.8,162.7,1.817,144.9,5,165.3,171.1,161.9,10,5,8.09,4.419,2.003,-1.38,-5.255,-8.012,157.0,5,220.3,-8.153,-7.846,-40,-8.179,-8.283,-4.53,-5.087,-5.039,-4.705,4.903,7.693,35,-1.402,1.924,5.141,7.671,-8.343,-7.584,-1.238,2.079,157.0,178.8,174.3,159.7,158.8,170.1,163.9,167.7,175.7,154.6,4,norm,1.671,1.935,-1.464,-1.563,-5.078,-4.549,-1.513,-1.226,-1.679,-1.104,1.457,-1.57,180.3,165.9,-5.253,-8.277,156.9,-2.082,7.917,4.591,-5.218,-7.896,20,5.29,4.305,4.713,4.328,1.367,1.334,1.434,1.609,20,4.846,4.719,-30,209.349594879,norm,0,69,69,69,610.415,610.425,610.427466002,610.428,610.432,610.437,up,1,2.43195395031,7.56804604969,001,008,800_600,Intel(R) Core(TM) i7-2670QM CPU @ 2.20GHz,orientation_search,GRVLAPTOP3,Intel(R) HD Graphics Family,2018_jun_07_1123,testMonitor,
207.0,215.7,209.8,206.3,36,10,208.5,216.2,210.8,205.9,8.248,8.112,7.676,8.223,7.707,8.066,7.816,4.588,-4.573,-8.408,1.342,-1.433,7.89,4.965,-5.006,-7.944,207.1,204.8,-8.122,215.3,213.0,217.0,212.4,210.0,36,216.0,0,5,probe,5,0,92,norm,36,-5.158,down,norm,207.922125745,213.1,207.9,1.451,207.5,2,206.5,206.3,208.8,10,5,7.578,5.232,1.199,-1.309,-4.542,-8.377,213.5,1,115.9,-7.909,-8.175,-40,-8.446,-7.695,-4.647,-5.004,-5.085,-4.529,4.708,8.042,2,-1.45,1.327,4.847,8.15,-7.614,-8.179,-1.254,1.689,211.3,214.3,213.1,,211.6,210.5,217.9,208.8,208.7,206.7,0,norm,1.606,1.418,-1.242,-1.382,-4.841,-4.405,-1.314,-1.225,-1.708,-1.934,1.781,-1.31,197.9,207.0,-4.542,-8.292,216.3,-1.787,8.03,4.643,-4.363,-7.706,21,4.974,4.491,4.828,4.408,1.415,1.597,1.788,1.663,21,5.022,4.477,-40,160.289868384,norm,0,70,70,70,612.88,612.887,612.889684069,612.89,612.894,612.899,down,1,1.01001628288,8.98998371712,001,008,800_600,Intel(R) Core(TM) i7-2670QM CPU @ 2.20GHz,orientation_search,GRVLAPTOP3,Intel(R) HD Graphics Family,2018_jun_07_1123,testMonitor,
187.3,179.9,172.0,177.8,36,30,171.2,184.6,182.3,189.8,8.38,8.354,8.158,7.616,8.318,7.611,8.304,4.51,-4.923,-7.551,1.775,-1.945,8.319,5.288,-4.641,-8.399,,169.6,-7.77,172.5,174.0,149.8,168.4,154.2,36,160.6,5,5,prime,10,0,71,norm,36,-4.703,up,norm,169.83105766,187.9,156.7,1.949,160.5,5,173.7,172.9,165.6,10,5,8.285,4.932,1.22,-1.755,-5.29,-8.343,172.6,5,240.8,-8.193,-7.846,30,-8.438,-7.548,-5.259,-4.883,-4.709,-5.233,4.945,8.225,35,-1.201,2.082,4.502,7.949,-7.637,-7.573,-1.224,2.049,166.1,180.4,163.2,183.6,180.0,173.3,185.7,183.0,183.0,164.6,0,norm,1.779,1.973,-1.485,-1.125,-4.775,-4.646,-1.629,-1.641,-2.075,-1.227,1.568,-1.953,173.3,164.9,-5.293,-7.699,182.5,-1.883,8.32,5.134,-4.635,-7.926,22,5.23,4.337,4.345,4.899,1.488,1.191,1.147,1.807,22,4.858,5.123,10,160.289868384,norm,0,71,71,71,613.921,613.928,613.930509878,613.931,613.935,613.94,up,1,3.13585254911,6.86414745089,001,008,800_600,Intel(R) Core(TM) i7-2670QM CPU @ 2.20GHz,orientation_search,GRVLAPTOP3,Intel(R) HD Graphics Family,2018_jun_07_1123,testMonitor,
149.8,162.3,172.0,176.9,36,30,158.5,171.1,150.7,167.0,8.444,7.699,7.584,7.908,8.051,8.356,8.265,4.689,-4.975,-8.306,1.103,-1.167,7.648,4.629,-4.445,-7.825,170.0,162.0,-8.276,186.4,178.0,164.8,168.3,170.2,36,185.5,1,5,prime,10,0,118,norm,36,-4.852,down,norm,169.83105766,159.4,159.9,1.577,185.8,1,175.4,173.3,169.3,10,5,7.902,4.766,1.289,-1.154,-4.467,-7.631,176.1,5,287.8,-7.985,-7.694,30,-7.739,-8.279,-4.559,-4.745,-5.162,-5.124,4.593,7.862,7,-1.255,1.945,4.842,7.817,-8.01,-7.561,-1.133,2.015,189.8,160.3,175.5,166.2,168.3,169.6,,162.5,169.8,176.8,1,norm,1.78,1.752,-1.618,-1.172,-5.0,-4.869,-1.943,-1.361,-1.144,-1.527,2.035,-1.421,185.3,174.4,-4.665,-8.296,167.0,-1.325,7.878,4.525,-5.003,-7.886,22,4.863,5.257,4.413,4.505,1.475,1.787,1.933,1.533,22,5.021,4.818,10,160.289868384,norm,0,72,72,72,617.087,617.095,617.096857222,617.097,617.101,617.106,down,1,5.22855663262,4.77144336738,001,008,800_600,Intel(R) Core(TM) i7-2670QM CPU @ 2.20GHz,orientation_search,GRVLAPTOP3,Intel(R) HD Graphics Family,2018_jun_07_1123,testMonitor,
179.2,181.4,157.8,167.0,36,30,172.3,166.1,174.3,162.0,7.667,7.708,7.689,7.643,7.596,7.792,8.057,4.86,-5.12,-8.322,1.481,-1.608,7.711,4.366,-4.582,-8.293,184.5,163.2,-7.627,181.4,186.7,170.6,168.6,174.7,36,167.4,1,5,prime,10,0,67,norm,36,-4.377,down,norm,169.83105766,181.1,177.2,1.179,167.1,0,153.9,189.8,178.3,10,5,7.681,4.583,1.888,-1.973,-4.454,-8.004,159.6,5,236.8,-7.634,-7.54,30,-8.04,-7.603,-4.489,-5.295,-4.744,-4.472,4.93,8.247,6,-1.584,1.739,5.063,7.635,-8.099,-8.498,-1.794,1.377,179.9,175.4,152.2,164.3,163.1,160.8,175.7,,170.8,165.7,2,norm,1.389,1.23,-1.848,-1.282,-4.593,-4.794,-1.852,-1.611,-1.247,-1.538,1.868,-1.816,181.4,176.5,-5.086,-7.622,155.4,-1.975,8.461,5.197,-5.278,-7.756,22,5.056,4.311,4.337,4.813,2.045,1.308,1.937,1.943,22,5.109,4.335,10,160.289868384,norm,0,73,73,73,622.346,622.353,622.355517804,622.356,622.36,622.365,up,0,1.64986577247,-10,001,008,800_600,Intel(R) Core(TM) i7-2670QM CPU @ 2.20GHz,orientation_search,GRVLAPTOP3,Intel(R) HD Graphics Family,2018_jun_07_1123,testMonitor,
178.9,157.7,163.7,164.1,36,30,179.3,156.4,,172.4,8.352,7.958,8.133,7.622,8.206,7.776,8.4,4.732,-4.738,-8.256,1.538,-1.801,8.207,4.671,-4.636,-7.668,165.6,162.6,-7.533,158.7,167.2,181.2,175.6,157.9,36,162.9,4,5,prime,10,0,111,norm,36,-5.031,up,norm,169.83105766,168.9,176.7,1.171,175.8,4,170.3,178.0,167.1,10,5,8.477,4.865,1.37,-1.26,-4.453,-8.29,159.3,5,280.8,-7.618,-7.975,30,-7.622,-8.107,-5.036,-5.291,-4.52,-4.935,5.134,8.196,28,-1.347,1.97,4.964,8.245,-7.6,-7.533,-1.823,1.301,160.8,161.3,166.5,159.9,170.8,168.4,169.0,189.8,172.7,184.4,3,norm,1.14,1.855,-2.088,-1.707,-4.538,-5.148,-1.121,-2.082,-1.825,-1.987,1.995,-1.267,182.5,149.8,-4.316,-8.228,179.3,-1.54,8.468,5.15,-5.239,-8.197,22,4.768,4.907,4.686,4.327,1.771,1.483,1.693,1.992,22,5.115,5.28,10,160.289868384,norm,0,74,74,74,625.037,625.045,625.047005552,625.047,625.051,625.056,down,0,1.63188409316,-10,001,008,800_600,Intel(R) Core(TM) i7-2670QM CPU @ 2.20GHz,orientation_search,GRVLAPTOP3,Intel(R) HD Graphics Family,2018_jun_07_1123,testMonitor,
153.8,,189.2,160.1,36,30,166.6,173.2,180.1,154.1,7.511,8.406,8.09,7.559,7.701,8.221,8.355,4.918,-4.633,-7.815,1.135,-1.157,7.684,5.006,-4.326,-7.766,167.9,175.4,-8.347,176.9,162.7,174.3,178.8,156.9,36,171.4,3,5,prime,10,0,119,norm,36,-5.243,up,norm,169.83105766,168.2,189.8,1.995,185.9,5,167.4,159.9,169.5,10,5,8.488,4.415,1.25,-1.941,-4.612,-7.694,160.7,5,288.8,-7.636,-7.63,30,-7.681,-8.442,-4.908,-4.978,-4.387,-4.81,4.468,7.902,23,-1.741,1.562,4.728,8.022,-7.98,-8.491,-1.388,1.838,179.3,171.5,161.1,175.2,163.2,149.8,181.5,166.6,154.6,165.7,4,norm,1.81,1.559,-1.559,-1.725,-4.385,-4.562,-1.674,-1.757,-1.984,-1.794,1.16,-1.975,154.3,168.5,-4.826,-8.232,166.0,-1.599,8.351,4.391,-4.708,-7.851,22,4.45,4.47,4.552,4.957,1.22,1.403,1.949,1.507,22,4.884,4.31,10,160.289868384,norm,0,75,75,75,627.705,627.713,627.715290078,627.716,627.72,627.725,up,1,2.22975111522,7.77024888478,001,008,800_600,Intel(R) Core(TM) i7-2670QM CPU @ 2.20GHz,orientation_search,GRVLAPTOP3,Intel(R) HD Graphics Family,2018_jun_07_1123,testMonitor,
306.3,303.7,296.8,303.1,36,20,304.7,304.6,296.9,297.5,8.074,7.602,7.672,7.593,8.059,8.193,8.376,4.5,-4.434,-8.149,1.547,-1.697,8.093,4.751,-4.959,-8.356,302.7,298.1,-7.749,305.2,297.6,301.9,300.6,298.1,36,304.5,0,5,probe,5,0,101,norm,36,-4.75,down,norm,298.918689594,297.7,308.9,1.958,303.9,2,292.7,293.7,300.2,10,5,7.655,5.138,1.381,-1.9,-5.015,-8.205,288.9,2,197.9,-7.579,-8.287,30,-8.411,-7.957,-5.007,-4.708,-4.83,-4.553,4.723,8.456,2,-1.684,1.821,4.544,7.715,-8.257,-8.256,-1.591,1.718,305.7,303.1,296.7,,297.9,301.6,301.2,307.7,298.7,295.0,0,norm,1.641,1.217,-1.588,-2.068,-4.347,-4.84,-1.902,-1.472,-1.114,-1.104,2.051,-1.983,299.5,294.0,-5.224,-8.272,301.3,-1.331,8.262,4.798,-4.635,-7.522,23,5.253,4.518,5.164,4.819,1.242,1.797,1.777,1.712,23,5.209,4.935,30,169.83105766,norm,0,76,76,76,629.965,629.973,629.975613036,629.976,629.98,629.985,down,1,2.18410628374,7.81589371626,001,008,800_600,Intel(R) Core(TM) i7-2670QM CPU @ 2.20GHz,orientation_search,GRVLAPTOP3,Intel(R) HD Graphics Family,2018_jun_07_1123,testMonitor,
270.8,266.8,275.0,269.0,36,20,,274.1,276.6,268.4,8.391,8.245,7.847,7.873,7.673,8.136,7.843,4.932,-4.976,-7.653,1.425,-1.709,8.189,5.148,-4.659,-8.373,273.4,270.8,-7.619,275.0,268.9,273.3,270.0,271.6,36,273.7,4,5,probe,5,0,72,norm,36,-4.897,down,norm,269.918689594,263.8,269.6,1.667,265.5,0,261.7,267.9,272.0,10,5,7.845,5.059,2.073,-1.526,-5.251,-7.752,266.3,2,197.9,-7.593,-8.461,30,-8.239,-7.573,-4.483,-5.297,-4.77,-5.055,5.18,8.447,24,-1.37,2.053,4.74,7.698,-8.092,-8.232,-1.901,1.848,271.3,273.6,260.5,271.5,263.3,269.1,279.9,267.9,270.3,259.9,1,norm,1.591,1.143,-1.272,-1.301,-5.3,-4.347,-1.62,-1.182,-1.945,-1.586,1.789,-1.204,277.6,264.3,-4.507,-7.635,267.0,-1.136,8.041,4.976,-5.156,-7.692,23,5.172,5.288,5.151,4.403,1.876,1.461,1.45,1.679,23,5.137,5.011,30,169.83105766,norm,0,77,77,77,632.181,632.189,632.191636941,632.192,632.196,632.201,down,1,3.14730239789,6.85269760211,001,008,800_600,Intel(R) Core(TM) i7-2670QM CPU @ 2.20GHz,orientation_search,GRVLAPTOP3,Intel(R) HD Graphics Family,2018_jun_07_1123,testMonitor,
42.0,57.7,66.3,50.5,36,-30,50.0,60.3,31.6,53.0,8.204,7.606,8.134,8.014,7.989,7.706,7.983,4.652,-5.131,-8.024,1.571,-1.368,7.929,4.932,-5.276,-8.092,33.4,46.8,-7.926,55.4,57.7,64.5,57.0,36.4,36,,4,5,prime,10,0,69,norm,36,-5.07,up,norm,51.6159711808,42.8,66.1,2.067,43.5,3,51.9,41.9,62.1,10,3,7.769,5.028,1.983,-1.429,-4.891,-7.866,61.1,3,120.6,-7.732,-7.663,-30,-8.116,-8.208,-4.988,-4.868,-4.625,-4.444,4.899,8.493,27,-1.993,1.295,5.035,8.082,-8.479,-8.059,-1.16,1.711,43.7,55.7,53.0,50.0,56.8,52.9,59.3,59.4,56.0,36.7,0,norm,1.374,1.35,-2.041,-1.409,-4.477,-4.515,-1.436,-1.302,-1.256,-1.57,1.294,-1.297,47.2,37.4,-5.062,-8.404,71.6,-1.778,7.726,4.582,-5.199,-8.307,24,4.323,5.042,5.179,4.906,1.572,1.94,2.073,1.28,24,4.521,5.073,20,169.83105766,norm,0,78,78,78,635.36,635.368,635.369774547,635.37,635.374,635.38,up,1,1.38832218156,8.61167781844,001,008,800_600,Intel(R) Core(TM) i7-2670QM CPU @ 2.20GHz,orientation_search,GRVLAPTOP3,Intel(R) HD Graphics Family,2018_jun_07_1123,testMonitor,
37.7,62.7,70.3,53.2,36,-30,,44.8,67.2,55.7,7.675,7.878,7.972,8.28,8.447,8.039,8.349,5.118,-4.569,-7.944,2.037,-1.888,7.516,4.575,-5.221,-8.155,65.6,68.4,-8.323,44.8,40.6,47.0,40.6,52.7,36,39.9,4,5,prime,10,0,75,norm,36,-4.32,down,norm,51.6159711808,58.2,71.6,2.005,47.6,0,57.1,53.7,59.2,10,3,8.097,4.738,1.229,-1.85,-5.298,-7.575,42.4,3,126.6,-7.896,-7.976,-30,-8.498,-8.108,-5.242,-4.847,-4.872,-4.848,5.079,8.435,24,-1.473,1.741,4.784,8.198,-7.628,-8.217,-1.538,1.996,59.8,58.2,47.0,37.8,52.0,31.6,67.8,46.8,34.1,58.2,1,norm,2.093,1.699,-2.038,-1.245,-4.614,-4.651,-1.831,-1.15,-1.751,-1.373,1.923,-1.492,53.0,39.4,-4.368,-8.241,48.9,-1.561,7.624,5.173,-4.568,-7.646,24,4.615,4.792,5.268,4.709,1.894,1.71,1.547,1.353,24,5.137,5.224,20,169.83105766,norm,0,79,79,79,636.779,636.787,636.789004316,636.79,636.793,636.799,down,1,1.07643988152,8.92356011848,001,008,800_600,Intel(R) Core(TM) i7-2670QM CPU @ 2.20GHz,orientation_search,GRVLAPTOP3,Intel(R) HD Graphics Family,2018_jun_07_1123,testMonitor,
65.4,50.1,49.9,33.1,36,-30,55.1,31.6,57.0,71.6,8.191,8.47,8.295,8.313,8.133,8.048,8.197,5.234,-5.233,-7.62,1.195,-1.743,7.725,4.935,-4.987,-7.677,66.2,36.9,-8.424,61.0,59.5,50.6,38.3,49.9,36,39.9,0,5,prime,10,0,98,norm,36,-5.287,up,norm,51.6159711808,63.6,42.7,1.123,55.8,4,59.5,46.1,52.3,10,3,7.772,5.024,2.036,-1.43,-4.501,-8.429,63.0,3,149.6,-8.282,-8.279,-30,-8.27,-8.035,-5.065,-4.644,-5.263,-5.066,4.562,7.602,4,-1.778,1.968,4.432,7.968,-7.529,-8.412,-1.264,1.349,48.4,45.6,49.7,47.7,53.7,42.4,56.2,71.5,56.9,,2,norm,1.558,1.646,-1.223,-1.819,-4.857,-4.611,-1.2,-2.063,-1.776,-1.104,1.242,-1.203,63.2,70.9,-4.674,-7.718,68.7,-1.516,8.478,5.15,-4.745,-7.73,24,4.339,4.429,4.481,4.986,1.435,1.291,1.77,1.797,24,5.172,4.645,20,169.83105766,norm,0,80,80,80,637.886,637.893,637.895181117,637.896,637.9,637.905,up,1,0.987913218365,9.01208678163,001,008,800_600,Intel(R) Core(TM) i7-2670QM CPU @ 2.20GHz,orientation_search,GRVLAPTOP3,Intel(R) HD Graphics Family,2018_jun_07_1123,testMonitor,
88.9,91.1,82.6,,36,-40,88.5,90.2,92.5,98.8,8.402,8.212,7.913,7.561,7.659,8.348,7.798,4.777,-4.407,-8.047,1.491,-2.016,7.863,4.498,-4.677,-7.659,89.6,92.9,-7.866,93.4,94.9,85.7,91.1,91.6,36,99.3,3,5,probe,5,0,66,norm,36,-5.179,up,norm,91.5709328535,97.4,92.6,1.64,101.6,3,87.4,90.1,92.9,10,3,8.001,4.702,1.838,-1.988,-4.652,-8.262,94.1,2,25.6,-8.261,-7.93,-30,-7.6,-8.418,-4.467,-5.19,-5.112,-4.802,5.272,8.27,21,-2.074,1.312,4.909,7.937,-7.564,-7.876,-1.155,1.39,91.3,97.3,98.6,92.8,92.7,81.6,82.9,90.9,92.6,95.7,0,norm,2.027,1.448,-1.713,-2.059,-5.121,-4.378,-2.077,-1.532,-1.305,-1.465,1.146,-1.634,95.1,87.3,-4.576,-7.8,94.6,-1.369,8.001,4.991,-4.303,-8.488,25,4.898,5.002,4.945,4.507,1.751,1.45,1.792,1.464,25,4.507,5.135,-30,51.6159711808,norm,0,81,81,81,638.903,638.911,638.913111898,638.914,638.918,638.923,up,1,1.14122818773,8.85877181227,001,008,800_600,Intel(R) Core(TM) i7-2670QM CPU @ 2.20GHz,orientation_search,GRVLAPTOP3,Intel(R) HD Graphics Family,2018_jun_07_1123,testMonitor,
139.4,129.0,128.1,132.8,36,-40,135.3,,135.3,131.6,7.986,8.094,7.715,8.093,7.639,7.592,7.724,4.333,-5.181,-7.922,1.276,-1.144,7.518,5.194,-4.821,-7.801,141.6,143.6,-8.293,133.8,133.4,129.4,133.6,130.8,36,134.4,4,5,probe,5,0,108,norm,36,-4.875,down,norm,133.570932854,134.8,138.6,1.346,130.4,1,133.5,123.6,135.5,10,3,8.387,4.721,1.985,-1.522,-5.291,-7.873,131.0,2,25.6,-7.634,-7.86,-30,-7.867,-8.152,-5.149,-4.368,-5.213,-4.815,5.235,8.275,25,-2.096,1.2,4.658,7.538,-8.257,-8.467,-1.399,1.692,136.0,131.1,125.2,125.2,136.6,125.2,126.8,133.7,139.5,130.6,1,norm,2.075,1.993,-1.904,-1.836,-4.801,-4.449,-1.491,-1.404,-1.248,-1.224,1.764,-1.264,131.6,137.6,-4.447,-7.602,135.8,-1.908,7.513,4.619,-5.271,-7.701,25,4.38,4.89,5.002,4.974,1.614,1.313,1.186,1.425,25,5.274,4.75,-30,51.6159711808,norm,0,82,82,82,640.075,640.082,640.08483955,640.085,640.089,640.095,down,1,1.20490419624,8.79509580376,001,008,800_600,Intel(R) Core(TM) i7-2670QM CPU @ 2.20GHz,orientation_search,GRVLAPTOP3,Intel(R) HD Graphics Family,2018_jun_07_1123,testMonitor,
291.1,309.6,316.9,296.7,36,-10,299.6,,285.3,318.0,7.517,8.465,8.387,8.186,7.998,7.533,8.34,4.591,-4.976,-8.005,1.522,-1.581,7.813,4.777,-5.163,-8.038,313.0,301.5,-7.699,323.7,298.7,297.4,302.3,309.8,36,298.4,4,5,prime,10,0,61,norm,36,-4.884,down,norm,303.703315314,308.7,286.8,1.422,294.2,1,302.7,310.5,299.4,10,2,8.144,4.805,1.283,-1.387,-5.074,-7.694,310.6,2,364.7,-7.789,-8.227,-10,-7.65,-8.231,-4.743,-5.131,-4.511,-5.172,4.955,8.476,25,-1.448,1.132,5.261,8.424,-8.489,-8.043,-1.803,1.296,303.6,320.9,307.3,294.1,312.5,305.1,283.7,303.6,296.3,302.7,0,norm,1.438,1.543,-1.556,-1.453,-5.059,-4.568,-1.255,-1.642,-1.412,-1.718,1.185,-1.424,298.4,307.3,-4.38,-8.377,287.2,-2.013,8.005,4.872,-4.624,-8.441,26,4.669,5.246,4.468,4.545,2.029,1.237,1.88,1.185,26,4.44,4.612,-40,51.6159711808,norm,0,83,83,83,641.311,641.318,641.320537396,641.321,641.325,641.33,down,1,3.69028626023,6.30971373977,001,008,800_600,Intel(R) Core(TM) i7-2670QM CPU @ 2.20GHz,orientation_search,GRVLAPTOP3,Intel(R) HD Graphics Family,2018_jun_07_1123,testMonitor,
,309.8,306.6,288.0,36,-10,302.4,306.9,313.5,301.2,7.624,7.869,7.658,7.824,8.35,8.422,7.83,5.105,-5.239,-8.344,1.259,-1.119,7.66,4.75,-4.748,-7.556,303.7,293.7,-8.193,286.3,315.2,309.3,312.5,301.7,36,293.8,3,5,prime,10,0,81,norm,36,-4.35,up,norm,303.703315314,310.9,323.7,1.206,306.5,4,296.5,289.3,311.0,10,2,8.346,4.839,1.973,-1.258,-4.311,-8.313,311.5,2,384.7,-7.804,-8.251,-10,-8.129,-7.832,-4.771,-4.807,-4.513,-4.473,4.422,8.357,22,-1.408,2.06,5.161,7.605,-8.316,-7.817,-1.621,1.134,301.3,319.2,302.5,299.7,299.1,309.3,297.0,303.7,293.4,308.0,1,norm,1.872,1.903,-1.9,-1.378,-5.104,-5.239,-1.114,-1.277,-1.21,-1.286,2.02,-1.616,293.6,292.9,-4.95,-8.366,283.7,-1.3,8.154,4.314,-4.431,-7.535,26,4.698,5.049,4.694,4.561,1.194,2.036,1.527,1.177,26,5.003,4.529,-40,51.6159711808,norm,0,84,84,84,645.031,645.039,645.0412372,645.042,645.046,645.051,up,1,1.1913077343,8.8086922657,001,008,800_600,Intel(R) Core(TM) i7-2670QM CPU @ 2.20GHz,orientation_search,GRVLAPTOP3,Intel(R) HD Graphics Family,2018_jun_07_1123,testMonitor,
392.9,406.1,395.1,402.6,36,-40,396.7,394.0,396.8,394.1,7.667,7.862,7.672,8.207,8.4,8.378,8.137,5.067,-5.031,-8.252,1.214,-2.039,8.064,4.603,-4.842,-8.041,395.8,401.3,-8.166,398.3,397.8,404.6,401.0,389.8,36,396.7,0,5,probe,5,0,105,norm,36,-4.828,up,norm,396.558568392,400.2,386.6,1.771,403.8,3,391.3,401.4,396.1,10,2,7.836,5.203,1.406,-1.639,-5.03,-8.03,392.2,1,291.6,-8.103,-7.988,-10,-7.946,-7.574,-4.888,-4.653,-4.729,-5.069,4.429,7.986,3,-1.277,1.823,4.737,8.319,-8.161,-8.489,-1.363,1.432,406.6,401.0,,387.1,394.7,402.7,397.9,387.3,394.3,397.5,0,norm,1.15,1.681,-1.247,-1.952,-5.139,-4.954,-2.047,-2.021,-1.812,-1.391,1.408,-1.465,390.3,396.0,-4.99,-7.698,402.1,-1.588,8.481,5.184,-4.913,-8.185,27,4.519,5.034,4.779,5.189,1.581,1.504,1.699,1.197,27,5.024,5.124,-10,303.703315314,norm,0,85,85,85,646.253,646.261,646.262798311,646.263,646.267,646.272,up,1,1.73430140279,8.26569859721,001,008,800_600,Intel(R) Core(TM) i7-2670QM CPU @ 2.20GHz,orientation_search,GRVLAPTOP3,Intel(R) HD Graphics Family,2018_jun_07_1123,testMonitor,
140.0,139.0,131.3,138.1,36,-20,149.5,138.4,,138.2,7.9,7.551,7.924,8.105,8.425,8.365,7.841,4.537,-4.907,-8.433,1.615,-2.069,7.714,5.139,-5.007,-8.181,148.8,157.2,-8.366,138.2,123.8,137.5,136.7,126.3,36,122.6,4,5,prime,10,0,99,norm,36,-4.953,up,norm,140.726463474,149.0,134.9,1.94,140.8,4,149.2,142.2,160.7,10,2,8.201,5.186,1.646,-1.489,-5.136,-7.876,122.9,2,239.7,-8.177,-7.828,-20,-8.299,-7.744,-4.842,-4.403,-4.658,-4.828,5.103,8.013,28,-1.445,1.811,4.68,7.676,-8.166,-7.56,-2.079,2.089,132.7,156.5,142.7,144.5,136.3,145.0,156.6,136.4,146.5,137.2,0,norm,1.777,1.773,-1.817,-1.594,-4.872,-4.622,-1.752,-1.352,-1.322,-1.838,1.894,-1.445,120.7,143.7,-5.157,-8.449,135.6,-1.986,7.767,4.538,-4.525,-8.412,28,5.232,4.56,4.494,4.798,2.098,1.811,1.349,1.287,28,4.877,4.939,-40,303.703315314,norm,0,86,86,86,648.018,648.025,648.027438545,648.028,648.032,648.037,up,1,1.01169313471,8.98830686529,001,008,800_600,Intel(R) Core(TM) i7-2670QM CPU @ 2.20GHz,orientation_search,GRVLAPTOP3,Intel(R) HD Graphics Family,2018_jun_07_1123,testMonitor,
120.7,141.3,143.4,136.7,36,-20,133.7,144.2,146.7,144.4,8.137,7.648,7.514,8.042,8.308,7.61,8.016,4.4,-4.581,-8.228,1.411,-1.163,8.319,5.071,-5.144,-8.479,146.0,146.2,-8.09,127.2,135.9,140.3,130.0,135.6,36,143.4,2,5,prime,10,0,111,norm,36,-4.383,up,norm,140.726463474,,125.7,1.147,160.7,5,145.7,125.1,131.5,10,2,8.153,4.991,1.373,-1.11,-5.236,-8.077,139.8,2,251.7,-7.953,-7.994,-20,-8.429,-8.026,-4.388,-4.483,-5.252,-4.305,4.979,7.909,17,-1.59,1.385,5.201,7.627,-7.862,-7.934,-1.29,1.474,149.4,133.1,139.1,151.6,143.2,157.7,134.0,134.8,145.1,149.6,1,norm,1.476,2.009,-1.758,-2.029,-5.294,-4.874,-1.179,-1.965,-1.364,-1.845,1.789,-2.087,129.1,135.7,-4.843,-8.455,123.0,-1.272,8.241,4.392,-4.55,-8.304,28,4.312,4.346,5.258,4.522,1.125,1.992,1.346,1.528,28,4.59,4.771,-40,303.703315314,norm,0,87,87,87,649.059,649.067,649.069368246,649.07,649.074,649.079,up,1,0.935238310483,9.06476168952,001,008,800_600,Intel(R) Core(TM) i7-2670QM CPU @ 2.20GHz,orientation_search,GRVLAPTOP3,Intel(R) HD Graphics Family,2018_jun_07_1123,testMonitor,
218.9,212.6,230.2,218.5,36,-60,223.6,232.6,228.6,228.8,7.802,8.29,8.411,8.254,7.981,8.411,8.406,4.885,-4.926,-8.083,1.255,-1.991,7.544,4.386,-5.125,-7.841,217.4,218.0,-8.462,227.4,221.9,224.6,228.2,226.7,36,223.2,3,5,probe,5,0,105,norm,36,-4.4,down,norm,222.562904592,232.0,231.9,1.893,225.1,1,223.0,221.3,219.7,10,2,8.113,4.798,1.847,-1.41,-5.027,-7.591,222.7,2,117.6,-8.207,-8.044,-20,-7.813,-8.457,-4.612,-5.025,-4.345,-4.486,5.161,8.355,19,-1.174,1.675,4.332,7.725,-7.837,-7.696,-1.581,1.126,218.8,213.7,224.2,226.3,221.9,223.7,225.7,217.9,221.5,219.0,0,norm,2.022,1.634,-1.533,-1.579,-4.691,-5.278,-1.261,-1.438,-1.112,-1.384,1.524,-1.379,,219.1,-5.011,-8.201,225.1,-1.222,8.248,4.881,-5.09,-7.857,29,4.907,4.552,4.32,5.128,1.252,1.555,1.489,1.616,29,4.639,4.616,-20,140.726463474,norm,0,88,88,88,650.026,650.035,650.037365171,650.038,650.042,650.047,down,1,0.85011251391,9.14988748609,001,008,800_600,Intel(R) Core(TM) i7-2670QM CPU @ 2.20GHz,orientation_search,GRVLAPTOP3,Intel(R) HD Graphics Family,2018_jun_07_1123,testMonitor,
234.4,229.3,220.9,235.6,36,-60,225.4,221.4,236.4,233.7,7.57,7.71,8.106,7.767,7.907,8.361,7.896,5.206,-5.215,-7.97,1.808,-1.382,8.156,4.61,-4.425,-8.005,224.9,227.3,-8.41,228.6,224.6,,233.0,228.9,36,229.9,5,5,probe,5,0,112,norm,36,-4.704,up,norm,229.562904592,235.5,239.6,1.664,225.3,3,237.1,233.9,231.9,10,2,7.934,5.141,1.261,-1.605,-4.872,-7.866,219.6,2,117.6,-8.46,-7.93,-20,-8.479,-7.873,-4.917,-5.276,-4.609,-4.6,4.947,8.351,33,-1.154,1.228,4.573,8.383,-8.4,-8.237,-1.212,1.521,225.8,238.0,224.7,223.4,237.9,238.6,228.9,222.4,230.5,237.0,1,norm,2.068,1.748,-1.675,-1.505,-5.287,-5.062,-1.936,-1.604,-1.44,-2.1,1.219,-1.198,228.0,229.8,-5.186,-7.518,229.9,-1.27,7.612,4.387,-4.809,-8.086,29,5.097,4.978,5.234,5.255,1.742,1.69,1.443,1.406,29,4.791,4.82,-20,140.726463474,norm,0,89,89,89,650.909,650.916,650.918505281,650.919,650.923,650.928,down,0,2.50023511415,-10,001,008,800_600,Intel(R) Core(TM) i7-2670QM CPU @ 2.20GHz,orientation_search,GRVLAPTOP3,Intel(R) HD Graphics Family,2018_jun_07_1123,testMonitor,
232.1,216.2,231.9,221.7,36,0,218.9,211.8,214.5,215.4,8.292,7.775,7.851,7.791,8.089,8.141,7.81,4.776,-4.307,-8.306,1.164,-2.071,8.207,4.882,-4.85,-7.601,209.7,220.1,-8.062,224.3,216.3,202.3,205.0,215.5,36,235.8,1,5,prime,10,0,108,norm,36,-5.158,down,norm,215.753844069,219.7,218.2,2.095,217.1,2,195.8,209.7,218.8,10,2,7.629,5.058,1.393,-1.921,-4.969,-8.028,216.7,2,323.8,-7.93,-8.069,0,-8.07,-7.729,-5.281,-5.278,-4.857,-5.119,4.51,7.522,8,-1.512,2.058,4.317,7.79,-8.156,-8.382,-1.55,1.682,233.4,,233.5,224.3,208.8,213.0,220.5,221.8,211.3,221.2,0,norm,1.741,1.82,-1.412,-1.308,-4.807,-4.424,-1.358,-1.515,-1.89,-1.613,1.796,-1.596,219.1,211.3,-4.987,-7.721,213.0,-1.535,8.097,4.82,-4.607,-8.312,30,4.433,5.013,4.326,4.309,2.09,1.145,1.228,1.991,30,4.844,4.872,-60,140.726463474,norm,0,90,90,90,654.443,654.451,654.453371051,654.454,654.458,654.463,down,1,2.37426016092,7.62573983908,001,008,800_600,Intel(R) Core(TM) i7-2670QM CPU @ 2.20GHz,orientation_search,GRVLAPTOP3,Intel(R) HD Graphics Family,2018_jun_07_1123,testMonitor,
,226.8,228.1,211.0,36,0,232.6,233.6,220.9,223.8,7.549,7.621,7.977,7.632,8.325,8.442,8.031,4.701,-4.887,-8.475,1.965,-1.824,8.212,4.691,-5.146,-7.636,212.0,218.8,-8.474,201.4,216.0,222.9,227.8,216.1,36,232.4,3,5,prime,10,0,107,norm,36,-4.697,up,norm,215.753844069,231.9,214.9,2.011,203.4,4,217.3,223.6,217.3,10,2,8.431,5.086,1.727,-1.602,-5.232,-8.317,199.5,2,322.8,-7.769,-7.885,0,-8.49,-7.685,-4.33,-4.362,-4.638,-5.251,5.164,8.077,22,-1.687,1.856,4.376,7.646,-8.443,-7.626,-1.527,1.341,225.5,221.0,224.2,198.8,202.7,195.8,208.7,210.5,210.6,199.6,1,norm,1.239,1.468,-1.421,-1.169,-4.637,-5.201,-1.329,-1.522,-2.073,-1.537,2.048,-1.718,217.4,235.8,-4.584,-7.734,214.5,-1.775,7.727,5.222,-5.254,-7.95,30,5.079,4.901,4.456,5.238,1.893,1.45,1.416,1.363,30,4.679,4.573,-60,140.726463474,norm,0,91,91,91,656.848,656.855,656.857244387,656.858,656.861,656.866,up,1,0.979583593469,9.02041640653,001,008,800_600,Intel(R) Core(TM) i7-2670QM CPU @ 2.20GHz,orientation_search,GRVLAPTOP3,Intel(R) HD Graphics Family,2018_jun_07_1123,testMonitor,
309.5,303.2,304.5,295.0,36,60,307.6,306.0,299.7,303.3,8.007,8.312,7.51,7.57,8.058,8.33,7.642,5.279,-5.192,-7.816,1.234,-1.322,7.523,5.026,-5.298,-8.058,298.4,302.6,-7.795,313.5,297.9,300.2,299.7,305.3,36,301.3,2,5,probe,5,0,93,norm,36,-4.599,up,norm,305.017668488,308.5,309.3,2.003,314.4,3,303.4,297.2,302.9,10,2,8.033,4.862,1.237,-1.414,-5.072,-8.254,314.8,2,212.0,-7.959,-8.403,0,-8.233,-8.013,-5.279,-4.889,-5.072,-4.904,4.81,7.913,15,-2.061,1.745,4.685,8.348,-8.24,-8.228,-1.109,1.706,311.5,302.1,306.0,299.6,315.0,308.3,310.7,304.0,305.7,305.3,0,norm,1.739,1.992,-1.897,-2.045,-4.981,-4.634,-1.472,-1.299,-1.333,-1.105,1.917,-1.669,303.6,304.8,-4.892,-7.841,,-1.111,8.197,4.854,-4.817,-7.894,31,4.824,4.84,5.072,5.159,1.929,1.375,1.859,1.147,31,5.084,5.279,0,215.753844069,norm,0,92,92,92,657.857,657.864,657.866522874,657.867,657.871,657.876,down,0,1.42283936637,-10,001,008,800_600,Intel(R) Core(TM) i7-2670QM CPU @ 2.20GHz,orientation_search,GRVLAPTOP3,Intel(R) HD Graphics Family,2018_jun_07_1123,testMonitor,
315.6,315.2,309.7,309.6,36,60,313.9,304.0,319.4,315.4,7.761,8.43,7.682,7.573,8.296,7.938,8.058,4.701,-4.415,-8.225,1.816,-1.985,8.112,4.939,-4.921,-8.333,311.4,309.2,-8.251,312.3,324.0,306.8,310.6,315.5,36,313.5,2,5,probe,5,0,102,norm,36,-4.922,down,norm,314.017668488,319.5,309.4,2.08,310.6,1,318.2,,312.1,10,2,7.608,5.131,1.44,-1.758,-5.111,-8.41,313.2,2,212.0,-7.682,-7.848,0,-8.381,-8.288,-4.342,-4.31,-4.842,-4.853,4.791,7.634,13,-1.117,1.548,5.043,7.966,-7.798,-8.205,-1.386,1.14,313.0,318.2,309.7,317.7,309.6,308.3,317.9,306.5,315.2,317.2,1,norm,1.989,1.799,-1.739,-1.95,-5.042,-4.945,-2.069,-1.753,-1.432,-1.606,1.849,-1.958,320.0,313.5,-4.5,-7.524,311.2,-1.118,7.997,4.675,-4.316,-8.061,31,5.07,4.635,4.723,4.924,1.491,1.709,1.204,2.072,31,5.195,4.94,0,215.753844069,norm,0,93,93,93,660.309,660.316,660.318620527,660.319,660.323,660.328,up,0,0.739875966197,-10,001,008,800_600,Intel(R) Core(TM) i7-2670QM CPU @ 2.20GHz,orientation_search,GRVLAPTOP3,Intel(R) HD Graphics Family,2018_jun_07_1123,testMonitor,
304.6,303.7,313.4,273.4,36,-20,282.5,302.8,291.5,297.9,8.379,7.976,8.223,7.702,7.916,7.646,8.018,4.696,-4.83,-8.098,1.496,-1.924,8.07,4.328,-4.43,-7.859,282.9,302.8,-7.677,299.4,292.6,300.9,284.6,281.7,36,291.2,1,5,prime,10,0,65,norm,36,-4.792,up,norm,293.427982387,303.6,290.0,1.749,296.7,3,277.6,307.6,306.7,10,3,8.39,4.445,1.118,-1.892,-4.789,-7.967,282.1,3,358.4,-7.986,-7.659,-20,-8.0,-8.045,-4.461,-5.083,-4.394,-4.814,5.29,7.723,9,-1.681,2.091,4.917,7.616,-7.543,-7.66,-1.544,1.721,,303.8,308.5,288.5,282.1,285.2,302.5,300.9,296.2,297.2,0,norm,1.321,1.943,-1.529,-1.587,-4.519,-4.451,-1.516,-1.734,-1.887,-1.216,2.079,-1.132,273.5,304.1,-4.377,-7.746,281.4,-2.046,8.0,5.14,-4.572,-8.175,32,4.461,4.607,4.713,5.251,1.743,1.528,1.891,1.596,32,4.569,5.211,60,215.753844069,norm,0,94,94,94,662.087,662.095,662.097093037,662.098,662.102,662.106,up,1,3.37368346585,6.62631653415,001,008,800_600,Intel(R) Core(TM) i7-2670QM CPU @ 2.20GHz,orientation_search,GRVLAPTOP3,Intel(R) HD Graphics Family,2018_jun_07_1123,testMonitor,
