d_ori_22,d_ori_23,d_ori_20,d_ori_21,set_size,ctpd,d_ori_24,d_ori_25,d_ori_28,d_ori_29,stim_pos_x_30,stim_pos_x_31,stim_pos_x_32,stim_pos_x_33,stim_pos_x_34,stim_pos_x_35,stim_pos_y_11,stim_pos_y_10,stim_pos_y_13,stim_pos_y_12,stim_pos_y_15,stim_pos_y_14,stim_pos_y_17,stim_pos_y_16,stim_pos_y_19,stim_pos_y_18,d_ori_35,d_ori_34,stim_pos_x_3,d_ori_31,d_ori_30,d_ori_33,d_ori_32,d_ori_26,test_set_size,d_ori_27,targetCol,dsd_test,seq_type,dsd,blockRepN,targetDist,dtype_test,prime_set_size,stim_pos_y_25,correctResponse,dtype,distrMean,d_ori_17,d_ori_16,d_ori_15,d_ori_14,targetRow,d_ori_11,d_ori_13,d_ori_12,dsd_prime,streak_length_prime,stim_pos_y_35,stim_pos_y_34,stim_pos_y_33,stim_pos_y_32,stim_pos_y_31,stim_pos_y_30,d_ori_10,nextProbe,targetOri,stim_pos_x_1,stim_pos_x_2,ctpd_prime,stim_pos_x_4,stim_pos_x_5,stim_pos_x_6,stim_pos_x_7,stim_pos_x_8,stim_pos_x_9,stim_pos_y_28,stim_pos_y_29,targetPos,stim_pos_y_20,stim_pos_y_21,stim_pos_y_22,stim_pos_y_23,stim_pos_y_24,stim_pos_x_0,stim_pos_y_26,stim_pos_y_27,d_ori_9,d_ori_8,d_ori_3,d_ori_2,d_ori_1,d_ori_0,d_ori_7,d_ori_6,d_ori_5,d_ori_4,trialN,dtype_prime,stim_pos_x_18,stim_pos_x_19,stim_pos_x_12,stim_pos_x_13,stim_pos_x_10,stim_pos_x_11,stim_pos_x_16,stim_pos_x_17,stim_pos_x_14,stim_pos_x_15,stim_pos_y_9,stim_pos_y_8,d_ori_19,d_ori_18,stim_pos_y_1,stim_pos_y_0,stim_pos_y_3,stim_pos_y_2,stim_pos_y_5,stim_pos_y_4,stim_pos_y_7,stim_pos_y_6,totBlockN,stim_pos_x_27,stim_pos_x_26,stim_pos_x_25,stim_pos_x_24,stim_pos_x_23,stim_pos_x_22,stim_pos_x_21,stim_pos_x_20,blockN,stim_pos_x_29,stim_pos_x_28,prevDistrCTPD,prevDistrMean,prevDistrType,trials.thisRepN,trials.thisTrialN,trials.thisN,trials.thisIndex,timeStart,timeBeforeDraw,timeDraw,timeAfterSaving,timeAfterWritingToTemp,timeAfterPreparingNext,answer,correct,rt,trialScore,session,participant,resolution,cpu_info,expName,pc_name,graphic_card,date,monitorName,
11.5,1.9,-7.3,11.7,36,20,12.9,12.3,5.1,-3.0,8.141,8.096,8.3,7.861,7.626,8.171,8.492,4.816,-4.659,-7.76,1.517,-1.491,7.876,4.675,-4.556,-8.27,15.1,-7.7,-8.174,27.4,,11.2,3.8,3.5,36,5.0,5,5,prime,10,0,88,norm,36,-4.62,down,norm,12.3243717645,20.6,19.1,13.5,0.9,0,17.9,4.7,15.9,10,5,7.862,4.788,1.421,-1.44,-5.197,-7.729,12.7,5,100.3,-8.251,-8.426,20,-8.478,-8.482,-4.837,-4.617,-4.705,-4.715,5.076,7.867,30,-1.96,1.108,4.499,8.044,-8.166,-7.59,-1.653,1.61,11.8,4.9,16.8,20.3,32.3,23.3,11.2,2.1,14.5,10.8,0,norm,1.574,1.578,-1.336,-1.168,-4.485,-5.169,-1.776,-1.516,-1.703,-1.714,2.091,-1.601,14.1,2.2,-4.568,-8.318,1.147,-1.889,8.035,5.254,-4.876,-7.561,0,4.73,5.218,5.036,4.784,2.061,1.422,1.663,2.03,0,5.228,5.257,,,,0,0,0,0,3477.124,3477.156,3477.17517912,3477.175,3477.176,3477.178,down,1,1.8950729098,8.1049270902,001,002,1920_1080,Intel(R) Core(TM) i5-3570 CPU @ 3.40GHz,orientation_search,LEPPC096,Intel(R) HD Graphics 2500,2018_Sep_20_1226,testMonitor,
9.8,24.5,12.1,5.8,36,20,,10.1,15.0,16.6,7.505,8.269,7.894,7.789,8.319,8.488,7.718,5.246,-4.744,-8.178,1.742,-1.764,8.168,4.768,-4.821,-7.664,28.3,14.6,-7.809,-3.6,8.1,24.4,12.2,25.7,36,11.2,4,5,prime,10,0,81,norm,36,-4.775,down,norm,12.3243717645,3.0,16.7,14.7,8.8,0,27.4,7.8,0.0,10,5,8.3,5.182,2.083,-1.211,-4.431,-8.405,14.8,5,93.3,-7.584,-8.398,20,-8.053,-7.553,-4.824,-4.601,-5.265,-4.708,4.71,8.13,24,-1.746,1.796,4.937,8.291,-7.52,-7.573,-1.856,2.061,18.0,12.7,-0.2,4.6,9.5,23.3,-7.5,-7.7,5.1,17.3,1,norm,1.554,1.893,-1.91,-1.396,-4.726,-5.008,-1.535,-1.799,-1.579,-1.426,1.967,-1.727,16.4,3.5,-4.956,-8.134,1.163,-1.363,7.569,4.681,-4.57,-8.315,0,5.17,5.201,4.564,4.324,1.564,1.436,1.695,1.84,0,4.316,4.418,,,,0,1,1,1,3479.116,3479.131,3479.14762858,3479.148,3479.149,3479.152,down,1,2.95167629611,7.04832370389,001,002,1920_1080,Intel(R) Core(TM) i5-3570 CPU @ 3.40GHz,orientation_search,LEPPC096,Intel(R) HD Graphics 2500,2018_Sep_20_1226,testMonitor,
24.4,26.5,16.3,11.4,36,20,9.2,21.1,28.7,14.6,7.568,7.846,7.748,7.797,8.458,8.085,7.787,4.999,-4.352,-7.791,1.109,-1.451,8.447,4.314,-4.832,-7.773,18.5,,-7.528,14.4,3.8,23.8,-7.1,14.8,36,13.8,5,5,prime,10,0,113,norm,36,-4.713,up,norm,12.3243717645,17.8,32.3,16.4,8.0,4,4.5,19.1,11.7,10,5,8.419,5.212,1.779,-1.666,-4.52,-8.467,2.8,5,125.3,-8.166,-7.836,20,-7.932,-7.907,-4.582,-4.432,-5.043,-4.515,4.73,7.755,34,-1.981,1.601,5.295,8.291,-8.271,-8.378,-1.959,1.884,27.1,20.6,5.4,7.5,-7.7,6.7,29.3,5.5,18.4,24.5,2,norm,1.208,1.258,-1.977,-1.577,-5.092,-4.62,-1.104,-1.225,-1.818,-1.437,2.055,-1.62,9.4,30.8,-4.604,-7.539,1.492,-1.484,7.627,4.899,-4.959,-7.596,0,4.793,4.462,4.869,4.953,1.311,1.854,1.164,1.842,0,4.692,5.23,,,,0,2,2,2,3482.135,3482.146,3482.15621252,3482.156,3482.158,3482.161,up,1,4.98309079367,5.01690920633,001,002,1920_1080,Intel(R) Core(TM) i5-3570 CPU @ 3.40GHz,orientation_search,LEPPC096,Intel(R) HD Graphics 2500,2018_Sep_20_1226,testMonitor,
22.0,25.1,12.6,22.4,36,20,17.5,14.3,26.1,5.7,8.031,7.901,7.679,7.509,8.252,7.609,8.32,4.965,-4.363,-7.737,1.101,-1.113,8.077,4.312,-4.667,-7.735,13.9,,-7.923,13.6,-1.1,12.7,6.2,28.4,36,10.7,5,5,prime,10,0,60,norm,36,-4.561,up,norm,12.3243717645,5.4,20.8,18.6,5.0,4,21.7,15.8,-5.9,10,5,7.576,4.366,1.152,-1.124,-4.741,-7.641,7.9,5,72.3,-8.153,-8.443,20,-8.263,-8.049,-4.414,-4.537,-4.315,-5.135,5.003,8.494,34,-1.626,1.479,4.871,8.365,-8.123,-7.725,-1.307,1.918,-2.3,21.7,5.2,1.6,11.9,6.4,32.3,25.1,21.3,19.9,3,norm,1.182,1.524,-1.854,-1.592,-4.369,-4.895,-1.65,-2.062,-1.791,-1.242,2.03,-1.522,4.0,-7.7,-4.63,-7.904,1.577,-1.999,7.783,4.571,-4.306,-7.883,0,4.755,5.092,4.417,4.589,2.068,1.196,1.371,1.75,0,4.387,4.788,,,,0,3,3,3,3487.164,3487.174,3487.18014422,3487.18,3487.182,3487.185,up,1,6.28957396914,3.71042603086,001,002,1920_1080,Intel(R) Core(TM) i5-3570 CPU @ 3.40GHz,orientation_search,LEPPC096,Intel(R) HD Graphics 2500,2018_Sep_20_1226,testMonitor,
13.3,17.4,14.5,27.8,36,20,6.1,21.8,23.2,-2.7,7.91,7.863,8.159,7.7,7.965,7.656,8.107,4.759,-4.624,-8.245,1.817,-1.512,8.006,4.445,-4.891,-8.246,19.1,19.6,-7.666,32.3,8.2,16.5,-7.3,24.3,36,15.6,3,5,prime,10,0,90,norm,36,-4.772,down,norm,12.3243717645,21.0,3.3,10.0,9.3,0,2.6,4.1,13.3,10,5,7.776,4.605,1.794,-1.948,-5.1,-8.239,16.2,5,102.3,-8.38,-8.358,20,-8.084,-7.995,-4.921,-4.572,-4.334,-4.669,5.117,8.282,18,-1.535,2.004,5.242,8.416,-8.058,-7.694,-1.241,1.596,9.2,17.4,6.4,7.1,13.6,9.4,25.6,-7.7,9.0,14.1,4,norm,1.982,1.379,-1.431,-1.367,-4.533,-5.003,-1.453,-1.653,-1.599,-1.453,1.784,-1.157,24.0,,-4.388,-8.268,1.428,-1.446,7.984,4.339,-4.92,-8.004,0,4.951,4.85,5.116,4.647,1.194,1.99,2.009,2.09,0,4.871,4.346,,,,0,4,4,4,3493.507,3493.517,3493.52794159,3493.528,3493.53,3493.533,down,1,3.41504964338,6.58495035662,001,002,1920_1080,Intel(R) Core(TM) i5-3570 CPU @ 3.40GHz,orientation_search,LEPPC096,Intel(R) HD Graphics 2500,2018_Sep_20_1226,testMonitor,
108.2,113.0,103.1,98.8,36,-80,106.0,114.2,103.9,108.5,8.137,7.808,7.751,7.643,8.381,8.31,7.936,5.243,-4.564,-7.979,1.902,-1.769,7.884,5.108,-4.833,-8.045,105.1,103.5,-7.822,107.9,112.0,103.4,108.5,117.6,36,114.9,3,5,probe,5,0,76,norm,36,-4.328,down,norm,107.593960198,113.1,114.6,97.6,102.9,1,106.3,108.6,102.5,10,5,8.107,4.71,1.543,-1.989,-4.88,-7.727,105.6,2,31.6,-8.083,-7.729,20,-8.005,-8.368,-4.722,-5.156,-4.967,-5.008,4.569,7.666,19,-1.979,1.661,5.081,8.124,-7.842,-8.43,-1.342,2.038,100.7,113.3,103.3,104.1,101.6,102.5,112.3,109.8,110.1,103.0,0,norm,1.999,1.39,-1.992,-1.313,-5.205,-5.006,-1.842,-1.111,-2.076,-1.585,1.661,-1.18,,105.6,-5.145,-7.838,2.03,-1.91,8.218,4.655,-4.785,-8.444,1,4.796,5.104,4.909,5.093,1.897,1.834,2.089,1.894,1,4.608,4.527,20,12.3243717645,norm,0,5,5,5,3496.981,3496.994,3497.01317988,3497.013,3497.015,3497.018,down,1,1.91005270563,8.08994729437,001,002,1920_1080,Intel(R) Core(TM) i5-3570 CPU @ 3.40GHz,orientation_search,LEPPC096,Intel(R) HD Graphics 2500,2018_Sep_20_1226,testMonitor,
113.8,,112.3,98.6,36,-80,113.1,116.6,101.9,115.9,8.396,7.988,8.215,8.236,8.407,7.699,7.836,5.178,-4.332,-8.168,1.457,-1.627,7.724,4.539,-4.663,-8.467,114.1,105.9,-7.946,112.4,112.2,105.2,108.9,111.3,36,110.0,3,5,probe,5,0,77,norm,36,-4.325,up,norm,108.593960198,105.0,118.6,110.1,109.0,5,112.0,109.5,106.0,10,5,8.152,4.379,1.904,-1.402,-4.903,-7.772,108.0,2,31.6,-7.539,-8.337,20,-8.153,-8.079,-4.936,-5.178,-5.243,-4.474,4.956,7.642,23,-1.789,1.948,5.135,7.731,-7.543,-7.95,-1.799,1.402,107.1,103.8,115.9,108.1,108.5,118.0,111.2,99.9,114.1,104.1,1,norm,1.817,1.541,-1.919,-1.879,-5.057,-4.418,-2.016,-1.925,-1.623,-1.45,1.976,-1.648,102.5,106.9,-4.601,-8.314,2.037,-1.688,7.731,5.235,-4.874,-7.809,1,4.51,4.923,4.795,5.1,1.739,1.678,1.821,2.028,1,4.964,4.582,20,12.3243717645,norm,0,6,6,6,3498.961,3498.975,3498.993123,3498.993,3498.995,3498.998,up,1,1.19872807416,8.80127192584,001,002,1920_1080,Intel(R) Core(TM) i5-3570 CPU @ 3.40GHz,orientation_search,LEPPC096,Intel(R) HD Graphics 2500,2018_Sep_20_1226,testMonitor,
158.9,154.3,165.0,,36,40,155.4,161.6,153.2,163.2,7.991,7.557,7.96,7.517,8.22,7.821,8.42,4.799,-4.547,-7.707,1.874,-1.6,8.304,4.982,-4.667,-7.854,165.0,162.6,-7.922,174.1,182.8,168.5,162.5,167.6,36,167.2,3,5,prime,10,0,92,norm,36,-4.704,up,norm,164.533511532,155.9,168.0,164.0,184.5,3,168.3,168.3,158.0,10,5,7.917,4.325,1.416,-1.231,-4.631,-8.057,158.7,5,256.5,-7.984,-8.164,40,-8.102,-7.569,-5.103,-5.07,-4.32,-4.338,5.27,7.641,21,-1.585,1.528,4.459,8.052,-7.929,-7.802,-1.523,1.794,162.4,183.1,173.8,144.5,168.7,151.4,159.6,171.9,179.2,162.1,0,norm,1.757,1.347,-1.391,-1.506,-4.887,-4.634,-1.197,-1.65,-2.085,-1.651,1.352,-1.674,144.7,169.4,-5.204,-8.479,1.972,-1.648,7.622,5.107,-5.139,-8.347,2,5.298,4.437,4.953,4.373,1.73,1.979,1.13,1.155,2,4.383,4.338,-80,12.3243717645,norm,0,7,7,7,3500.236,3500.245,3500.25244308,3500.253,3500.254,3500.257,up,1,1.57100952058,8.42899047942,001,002,1920_1080,Intel(R) Core(TM) i5-3570 CPU @ 3.40GHz,orientation_search,LEPPC096,Intel(R) HD Graphics 2500,2018_Sep_20_1226,testMonitor,
154.1,157.4,168.6,154.0,36,40,156.1,144.5,166.4,178.9,8.459,7.952,7.714,7.554,8.323,8.239,8.326,4.933,-4.626,-7.933,1.864,-1.584,7.765,4.517,-4.758,-7.586,182.9,146.6,-8.37,165.8,151.6,161.8,170.9,156.2,36,169.6,2,5,prime,10,0,75,norm,36,-4.749,down,norm,164.533511532,151.6,150.1,156.5,169.4,1,151.2,,171.1,10,5,8.482,4.401,1.341,-1.675,-4.627,-7.942,146.6,5,239.5,-8.249,-7.523,40,-7.87,-8.496,-4.76,-4.619,-5.018,-4.741,4.461,7.641,13,-1.688,1.797,4.748,8.314,-8.061,-8.247,-1.726,1.418,184.5,170.2,160.8,159.9,155.6,167.0,169.0,172.8,169.1,162.9,1,norm,1.801,1.854,-1.733,-1.484,-5.097,-4.766,-2.019,-1.915,-1.166,-1.297,2.024,-1.877,158.1,167.3,-5.166,-8.226,2.054,-2.07,7.638,4.527,-4.305,-7.731,2,4.936,4.624,4.524,5.13,1.194,1.249,1.646,1.775,2,4.862,5.076,-80,12.3243717645,norm,0,8,8,8,3501.844,3501.853,3501.86028285,3501.86,3501.862,3501.865,down,1,1.85734919161,8.14265080839,001,002,1920_1080,Intel(R) Core(TM) i5-3570 CPU @ 3.40GHz,orientation_search,LEPPC096,Intel(R) HD Graphics 2500,2018_Sep_20_1226,testMonitor,
162.7,181.3,148.5,184.5,36,40,161.5,163.2,144.5,163.9,7.802,8.298,8.003,7.523,8.201,7.809,8.457,5.144,-4.341,-8.261,1.45,-1.207,8.275,4.848,-4.504,-7.743,166.1,158.9,-8.373,146.6,168.3,164.7,152.1,167.0,36,167.9,1,5,prime,10,0,75,norm,36,-4.808,up,norm,164.533511532,154.7,165.6,167.6,169.4,4,171.6,155.5,173.0,10,5,8.018,4.637,2.026,-1.821,-4.694,-7.79,,5,239.5,-7.82,-7.734,40,-8.271,-8.484,-4.696,-4.694,-4.347,-4.525,4.956,7.652,10,-1.857,1.683,4.667,8.208,-7.663,-7.55,-1.279,1.614,151.1,172.5,168.3,174.4,166.1,154.7,178.2,161.7,157.3,170.6,2,norm,1.561,1.37,-1.699,-1.215,-5.066,-5.039,-2.039,-1.697,-1.334,-2.021,1.737,-2.034,164.8,166.7,-4.896,-7.817,1.866,-1.748,8.346,4.998,-5.196,-7.98,2,4.82,4.729,4.449,4.637,1.139,2.075,1.965,1.777,2,5.234,4.621,-80,12.3243717645,norm,0,9,9,9,3503.755,3503.765,3503.77691916,3503.777,3503.779,3503.781,up,1,1.75901445519,8.24098554481,001,002,1920_1080,Intel(R) Core(TM) i5-3570 CPU @ 3.40GHz,orientation_search,LEPPC096,Intel(R) HD Graphics 2500,2018_Sep_20_1226,testMonitor,
158.6,160.8,160.4,172.6,36,40,164.3,148.0,169.5,161.1,7.83,8.237,8.296,8.172,8.114,7.799,8.115,5.017,-5.237,-7.735,1.589,-1.65,8.125,4.731,-5.079,-7.719,175.3,169.4,-7.96,164.0,152.9,160.4,165.4,,36,167.8,4,5,prime,10,0,63,norm,36,-4.56,down,norm,164.533511532,152.4,159.4,162.7,168.8,2,155.0,150.9,169.0,10,5,8.079,4.766,1.564,-1.938,-4.346,-7.531,167.8,5,227.5,-7.824,-7.846,40,-7.871,-8.348,-4.888,-5.002,-5.154,-4.613,4.603,7.703,26,-1.83,1.654,4.578,8.244,-7.867,-8.201,-1.633,2.093,172.2,172.2,158.4,145.2,162.3,161.2,166.7,144.5,183.2,164.6,3,norm,1.723,1.343,-1.416,-1.394,-4.64,-4.495,-1.738,-1.134,-1.685,-1.882,1.524,-2.027,167.3,161.3,-4.911,-7.654,1.257,-1.399,8.03,4.745,-4.839,-8.015,2,4.637,4.939,4.345,4.547,1.181,1.64,2.044,1.952,2,4.681,4.85,-80,12.3243717645,norm,0,10,10,10,3505.557,3505.566,3505.57294678,3505.573,3505.575,3505.577,down,1,1.11331030638,8.88668969362,001,002,1920_1080,Intel(R) Core(TM) i5-3570 CPU @ 3.40GHz,orientation_search,LEPPC096,Intel(R) HD Graphics 2500,2018_Sep_20_1226,testMonitor,
177.6,157.8,151.3,159.5,36,40,,173.4,146.9,156.5,7.917,7.539,8.401,7.795,7.851,8.396,8.401,4.575,-4.882,-7.829,1.633,-1.563,7.629,5.084,-4.81,-8.018,181.0,156.6,-8.012,180.8,163.5,178.2,168.8,167.0,36,159.4,4,5,prime,10,0,66,norm,36,-4.915,down,norm,164.533511532,184.5,161.5,173.5,167.0,0,169.1,165.0,172.0,10,5,7.57,5.113,1.198,-1.996,-4.422,-7.504,170.7,5,230.5,-7.728,-8.473,40,-7.611,-8.122,-5.238,-5.098,-4.375,-4.621,5.142,8.438,24,-1.186,1.341,4.784,7.628,-7.631,-8.304,-1.795,1.918,162.4,154.9,167.3,168.0,168.4,159.7,159.3,144.5,158.1,179.6,4,norm,1.42,1.548,-1.421,-1.362,-4.411,-4.668,-1.756,-2.021,-1.933,-1.996,1.544,-1.186,163.0,170.7,-5.121,-7.756,1.614,-1.553,8.095,4.604,-4.34,-7.826,2,5.163,5.114,4.948,4.892,1.749,2.058,1.183,1.431,2,5.262,4.663,-80,12.3243717645,norm,0,11,11,11,3506.71,3506.72,3506.72611728,3506.726,3506.728,3506.731,up,0,1.72020529266,-10,001,002,1920_1080,Intel(R) Core(TM) i5-3570 CPU @ 3.40GHz,orientation_search,LEPPC096,Intel(R) HD Graphics 2500,2018_Sep_20_1226,testMonitor,
267.0,264.6,258.8,268.4,36,10,272.0,261.5,261.5,273.6,8.133,8.33,7.833,8.216,8.268,8.488,8.48,4.806,-4.864,-8.409,1.565,-1.505,7.853,4.848,-4.418,-8.4,265.6,262.1,-7.558,269.9,263.4,262.4,262.2,263.2,36,261.0,0,5,probe,5,0,63,norm,36,-5.068,down,norm,264.025093392,268.9,274.0,270.6,273.1,0,263.1,265.2,270.9,10,5,8.426,5.052,1.655,-1.663,-5.157,-8.027,254.0,2,201.0,-7.675,-7.602,40,-8.251,-7.54,-4.847,-5.299,-4.427,-4.969,5.101,8.27,0,-1.331,1.917,4.887,7.836,-8.133,-7.963,-1.259,1.188,261.4,264.8,270.8,258.7,264.3,,262.1,265.6,265.3,263.5,0,norm,1.81,1.816,-1.918,-1.621,-5.209,-5.137,-1.491,-1.546,-1.266,-1.193,1.705,-1.43,265.0,257.0,-4.714,-7.656,1.732,-1.521,7.898,4.876,-5.12,-8.37,3,5.129,4.445,4.777,4.806,1.575,1.534,1.722,1.109,3,4.796,5.061,40,164.533511532,norm,0,12,12,12,3509.522,3509.532,3509.54883488,3509.549,3509.553,3509.559,down,1,3.05370595023,6.94629404977,001,002,1920_1080,Intel(R) Core(TM) i5-3570 CPU @ 3.40GHz,orientation_search,LEPPC096,Intel(R) HD Graphics 2500,2018_Sep_20_1226,testMonitor,
279.0,269.8,272.7,268.8,36,10,264.0,269.3,273.4,265.3,8.127,7.826,8.279,8.336,8.389,7.877,7.577,5.211,-4.953,-7.929,1.32,-1.433,7.601,4.481,-4.718,-8.198,268.1,269.1,-7.809,266.3,271.4,265.3,270.6,269.6,36,271.6,0,5,probe,5,0,68,norm,36,-5.206,up,norm,269.025093392,272.6,268.6,275.5,276.4,4,272.0,262.8,275.1,10,5,8.483,5.295,1.689,-1.432,-4.884,-8.026,265.5,2,201.0,-7.904,-7.558,40,-7.66,-8.173,-5.224,-4.677,-5.151,-4.647,4.796,8.443,4,-1.256,1.131,4.706,8.405,-8.227,-7.834,-1.705,1.894,273.0,278.4,269.2,259.0,265.9,261.9,275.1,272.0,265.9,,1,norm,1.675,1.982,-1.674,-1.232,-5.17,-4.498,-2.015,-1.192,-1.724,-1.436,1.87,-1.382,273.5,262.5,-4.455,-8.318,1.101,-1.97,7.529,4.36,-5.241,-8.247,3,4.372,4.99,5.033,4.824,1.121,1.767,1.715,1.236,3,4.748,5.284,40,164.533511532,norm,0,13,13,13,3512.646,3512.657,3512.66135193,3512.662,3512.663,3512.666,up,1,1.62186301004,8.37813698996,001,002,1920_1080,Intel(R) Core(TM) i5-3570 CPU @ 3.40GHz,orientation_search,LEPPC096,Intel(R) HD Graphics 2500,2018_Sep_20_1226,testMonitor,
28.3,17.8,16.0,,36,-80,19.8,45.9,25.4,35.5,8.242,8.418,8.263,7.518,8.38,8.259,8.237,4.622,-5.12,-7.943,1.363,-1.419,8.175,5.245,-4.516,-8.168,35.9,32.4,-7.923,41.4,13.2,8.7,35.8,19.8,36,48.1,3,5,prime,10,0,113,norm,36,-4.625,up,norm,28.6548575313,41.5,19.9,22.5,38.3,3,24.6,24.3,30.5,10,6,8.342,4.64,1.215,-1.789,-4.909,-7.871,24.4,6,141.7,-8.127,-8.011,-80,-7.642,-8.16,-5.262,-4.529,-4.732,-4.795,4.979,8.027,21,-2.022,1.365,4.509,8.121,-8.075,-7.794,-1.409,1.368,35.0,30.7,26.1,48.7,22.7,27.2,16.9,23.3,24.8,31.4,0,norm,1.936,1.706,-1.595,-1.143,-4.858,-5.249,-1.639,-1.853,-1.893,-1.399,1.473,-1.598,19.2,37.5,-4.597,-7.588,1.872,-1.677,7.546,4.532,-5.037,-7.996,4,4.861,5.241,4.328,4.715,1.919,1.225,1.525,1.778,4,5.255,4.812,10,164.533511532,norm,0,14,14,14,3514.307,3514.317,3514.3230199,3514.323,3514.325,3514.327,up,1,2.26229961463,7.73770038537,001,002,1920_1080,Intel(R) Core(TM) i5-3570 CPU @ 3.40GHz,orientation_search,LEPPC096,Intel(R) HD Graphics 2500,2018_Sep_20_1226,testMonitor,
25.3,42.4,30.3,15.8,36,-80,48.7,39.9,32.6,31.0,8.109,7.96,8.272,8.186,8.39,8.116,8.398,4.331,-4.929,-7.754,1.114,-1.663,7.982,4.578,-5.01,-7.839,24.0,21.5,-7.642,32.0,34.8,18.2,12.1,10.1,36,25.9,3,5,prime,10,0,91,norm,36,-5.063,down,norm,28.6548575313,32.6,18.8,32.5,16.6,0,33.5,26.2,32.8,10,6,7.78,5.271,1.357,-1.768,-4.631,-7.866,24.5,6,119.7,-7.891,-8.136,-80,-7.585,-8.39,-4.694,-5.275,-5.29,-4.482,4.301,8.102,18,-1.896,2.008,4.52,8.042,-8.378,-8.252,-1.84,1.665,34.8,27.8,16.2,38.5,36.7,36.9,13.0,31.2,31.8,20.3,1,norm,1.744,1.442,-1.67,-1.917,-4.504,-4.945,-1.365,-1.12,-2.015,-1.739,1.63,-1.281,8.7,,-4.649,-8.187,1.11,-1.534,7.587,5.109,-5.075,-8.484,4,4.549,4.722,4.714,4.691,1.378,1.653,1.333,1.611,4,5.119,4.583,10,164.533511532,norm,0,15,15,15,3516.623,3516.635,3516.65488032,3516.655,3516.657,3516.659,down,1,1.27090710365,8.72909289635,001,002,1920_1080,Intel(R) Core(TM) i5-3570 CPU @ 3.40GHz,orientation_search,LEPPC096,Intel(R) HD Graphics 2500,2018_Sep_20_1226,testMonitor,
25.5,32.7,29.1,34.8,36,-80,32.9,20.4,25.7,38.5,7.955,8.161,7.502,7.659,7.61,7.946,7.814,4.813,-4.938,-7.593,1.928,-1.865,7.944,4.728,-4.331,-8.454,27.4,30.9,-8.451,10.8,8.7,34.5,26.9,48.7,36,18.3,0,5,prime,10,0,83,norm,36,-4.601,up,norm,28.6548575313,15.3,12.6,32.5,24.3,3,40.0,31.1,41.9,10,6,8.054,4.322,1.775,-1.598,-5.253,-7.727,26.7,6,111.7,-7.865,-7.97,-80,-8.256,-8.199,-4.752,-4.331,-4.897,-4.63,4.535,7.913,3,-1.697,1.446,5.12,7.726,-7.686,-7.658,-1.667,1.243,35.9,45.5,,25.1,34.8,40.9,27.6,20.7,29.7,36.5,2,norm,1.768,1.811,-1.653,-1.168,-4.403,-4.931,-1.132,-1.895,-1.36,-1.542,1.893,-1.679,32.2,35.3,-4.99,-7.844,1.567,-1.426,7.666,4.563,-5.057,-8.11,4,5.132,4.339,4.459,5.139,1.79,1.614,1.609,1.646,4,4.957,5.142,10,164.533511532,norm,0,16,16,16,3517.973,3517.982,3517.98908307,3517.989,3517.991,3517.994,up,1,4.34331644294,5.65668355706,001,002,1920_1080,Intel(R) Core(TM) i5-3570 CPU @ 3.40GHz,orientation_search,LEPPC096,Intel(R) HD Graphics 2500,2018_Sep_20_1226,testMonitor,
20.9,25.9,23.2,37.5,36,-80,20.1,40.2,43.9,13.4,8.094,7.886,8.098,8.296,8.127,8.08,8.005,5.156,-4.835,-7.57,1.555,-1.619,7.974,5.19,-4.966,-8.382,,30.6,-7.808,48.7,41.7,27.5,33.0,32.4,36,27.7,5,5,prime,10,0,76,norm,36,-5.246,up,norm,28.6548575313,31.9,30.3,28.7,13.4,5,8.7,41.5,35.4,10,6,8.425,5.233,1.218,-1.473,-5.252,-7.837,41.2,6,104.7,-7.713,-7.673,-80,-7.84,-8.266,-4.56,-4.45,-5.24,-5.003,4.784,7.722,35,-1.797,1.194,4.775,8.104,-7.859,-8.257,-1.834,1.703,28.5,23.9,32.0,37.3,31.5,40.9,17.8,37.7,25.6,15.4,3,norm,2.025,1.934,-1.935,-1.644,-4.95,-4.645,-1.935,-1.624,-1.457,-1.881,1.612,-1.454,38.1,25.2,-4.349,-8.039,1.879,-1.91,8.483,5.031,-5.195,-8.408,4,4.99,4.662,4.944,4.356,2.009,2.063,1.412,1.798,4,5.3,5.005,10,164.533511532,norm,0,17,17,17,3522.356,3522.366,3522.37228356,3522.372,3522.374,3522.377,up,1,2.04440119302,7.95559880698,001,002,1920_1080,Intel(R) Core(TM) i5-3570 CPU @ 3.40GHz,orientation_search,LEPPC096,Intel(R) HD Graphics 2500,2018_Sep_20_1226,testMonitor,
27.3,32.3,29.4,32.0,36,-80,17.4,35.2,37.2,35.9,7.866,8.481,7.91,7.918,8.372,7.743,8.489,4.981,-4.572,-7.722,1.359,-1.138,7.945,5.046,-4.996,-7.62,18.2,36.1,-8.476,47.0,48.7,44.9,32.9,47.2,36,11.2,0,5,prime,10,0,80,norm,36,-5.02,up,norm,28.6548575313,23.3,19.3,42.7,23.9,3,26.5,32.1,30.0,10,6,8.161,5.173,1.758,-2.036,-4.48,-8.202,14.8,6,108.7,-7.826,-7.657,-80,-8.46,-8.402,-5.018,-4.329,-4.454,-5.149,5.292,8.072,3,-1.411,1.162,4.648,8.4,-7.992,-7.52,-1.636,1.496,14.6,25.4,,43.0,24.2,30.7,37.7,28.7,33.4,25.2,4,norm,1.822,1.934,-1.803,-1.227,-5.267,-4.77,-1.522,-1.785,-1.353,-2.062,1.749,-1.236,18.2,8.7,-4.833,-8.144,1.952,-1.915,7.839,5.043,-4.352,-7.621,4,4.995,4.899,4.606,4.767,1.658,1.752,1.868,1.11,4,5.043,4.787,10,164.533511532,norm,0,18,18,18,3524.454,3524.465,3524.47000826,3524.47,3524.472,3524.474,up,1,1.15148106102,8.84851893898,001,002,1920_1080,Intel(R) Core(TM) i5-3570 CPU @ 3.40GHz,orientation_search,LEPPC096,Intel(R) HD Graphics 2500,2018_Sep_20_1226,testMonitor,
21.7,,31.0,34.6,36,-80,38.5,24.9,28.4,23.6,7.707,8.259,8.178,8.036,8.132,8.449,7.51,4.744,-5.203,-7.572,1.325,-1.696,7.618,4.559,-4.587,-7.905,27.6,32.5,-7.995,34.5,30.0,22.8,37.9,36.1,36,14.7,3,5,prime,10,0,78,norm,36,-4.988,up,norm,28.6548575313,21.9,19.5,30.8,8.7,5,34.3,38.7,28.6,10,6,7.593,4.855,1.693,-1.436,-4.738,-7.605,19.6,6,106.7,-7.756,-7.731,-80,-8.319,-7.826,-5.111,-4.317,-5.253,-5.131,4.595,7.75,23,-1.271,1.347,4.408,7.94,-8.299,-8.343,-1.867,1.408,19.7,40.4,38.4,42.7,30.3,45.0,23.5,20.3,46.9,17.6,5,norm,2.018,1.841,-1.747,-1.63,-4.95,-5.287,-1.291,-1.74,-2.027,-1.842,1.319,-1.859,22.2,48.7,-5.141,-8.349,1.487,-1.615,8.259,4.955,-4.731,-8.088,4,4.718,4.53,5.213,4.488,2.058,1.745,1.297,1.948,4,4.477,4.33,10,164.533511532,norm,0,19,19,19,3525.659,3525.669,3525.67835803,3525.679,3525.68,3525.683,up,1,1.48520870807,8.51479129193,001,002,1920_1080,Intel(R) Core(TM) i5-3570 CPU @ 3.40GHz,orientation_search,LEPPC096,Intel(R) HD Graphics 2500,2018_Sep_20_1226,testMonitor,
26.1,33.1,34.3,36.7,36,80,28.7,32.4,33.6,36.8,7.509,7.658,8.058,8.202,7.917,8.393,7.783,5.067,-4.588,-7.981,1.865,-1.669,8.299,5.053,-4.577,-8.346,41.2,40.0,-8.232,41.8,31.7,24.2,,37.2,36,32.0,5,5,probe,5,0,90,norm,36,-5.102,down,norm,34.2186810388,32.1,30.8,38.7,29.8,2,39.1,37.5,29.4,10,6,7.919,5.214,1.27,-2.098,-4.906,-7.95,37.6,2,-55.8,-7.954,-8.029,-80,-7.66,-7.715,-5.038,-4.643,-5.048,-4.869,4.736,8.113,32,-1.486,1.843,4.317,7.766,-7.897,-8.055,-1.986,1.839,34.4,39.9,27.0,30.5,40.4,25.9,44.2,30.9,33.2,41.7,0,norm,1.723,1.635,-1.433,-1.25,-4.801,-4.905,-1.149,-1.399,-1.171,-1.216,1.648,-1.919,34.7,32.0,-4.565,-7.971,1.463,-1.768,8.28,4.635,-4.625,-7.8,5,4.36,4.983,4.474,5.195,1.783,1.759,1.404,1.963,5,4.945,4.599,-80,28.6548575313,norm,0,20,20,20,3527.208,3527.217,3527.22367428,3527.224,3527.226,3527.228,down,1,1.364033458,8.635966542,001,002,1920_1080,Intel(R) Core(TM) i5-3570 CPU @ 3.40GHz,orientation_search,LEPPC096,Intel(R) HD Graphics 2500,2018_Sep_20_1226,testMonitor,
30.6,17.9,26.4,22.2,36,80,33.8,14.2,24.3,33.1,8.115,8.458,7.953,8.098,7.855,8.358,7.693,4.714,-5.254,-7.961,1.279,-1.936,7.673,4.427,-4.725,-8.385,29.7,29.3,-8.189,26.1,27.6,24.2,21.3,21.8,36,19.8,1,5,probe,5,0,80,norm,36,-5.12,up,norm,24.2186810388,28.7,25.2,17.1,34.2,3,19.0,28.4,22.0,10,6,7.717,4.695,1.657,-1.829,-4.724,-8.027,14.2,2,-55.8,-8.027,-8.136,-80,-7.818,-7.658,-4.665,-4.593,-4.719,-4.963,4.428,8.307,9,-2.046,1.229,5.059,7.725,-7.774,-8.103,-1.768,1.292,,22.3,28.0,22.7,31.7,32.7,16.6,25.7,19.7,34.2,1,norm,1.408,1.655,-1.753,-1.163,-4.645,-4.521,-1.758,-1.222,-1.311,-1.516,2.068,-2.011,25.7,27.9,-4.969,-8.422,1.371,-1.858,7.641,4.953,-4.498,-8.412,5,4.447,4.568,4.589,5.073,1.54,1.319,1.7,1.95,5,5.25,4.912,-80,28.6548575313,norm,0,21,21,21,3528.612,3528.621,3528.62760566,3528.628,3528.63,3528.632,up,1,1.26385141366,8.73614858634,001,002,1920_1080,Intel(R) Core(TM) i5-3570 CPU @ 3.40GHz,orientation_search,LEPPC096,Intel(R) HD Graphics 2500,2018_Sep_20_1226,testMonitor,
184.2,188.3,183.9,200.6,36,60,196.2,,203.4,197.7,8.493,8.296,8.02,7.576,8.304,8.096,8.008,4.53,-4.967,-8.383,1.87,-1.227,8.33,4.467,-4.917,-8.183,214.6,184.2,-8.226,207.8,202.8,189.4,208.0,201.0,36,204.1,4,5,prime,10,0,66,norm,36,-5.159,down,norm,203.859579794,215.0,203.6,211.6,219.1,1,199.8,200.8,205.8,10,5,7.635,4.745,1.685,-1.47,-4.596,-7.76,198.0,5,269.9,-7.574,-8.161,60,-8.019,-8.295,-5.125,-5.291,-4.76,-4.347,4.932,8.419,25,-1.107,1.405,5.024,7.55,-8.385,-7.887,-1.127,1.901,198.1,189.3,208.4,199.6,204.3,213.4,196.8,223.9,201.9,198.2,0,norm,1.977,1.928,-1.466,-2.055,-4.522,-4.556,-1.713,-1.405,-1.59,-1.503,1.673,-1.558,204.9,216.5,-4.962,-8.109,1.647,-1.708,7.762,4.565,-4.433,-8.257,6,5.047,4.419,4.86,4.468,1.694,2.041,1.474,1.911,6,4.773,5.115,80,28.6548575313,norm,0,22,22,22,3529.938,3529.947,3529.95356254,3529.954,3529.955,3529.958,down,1,1.37980379296,8.62019620704,001,002,1920_1080,Intel(R) Core(TM) i5-3570 CPU @ 3.40GHz,orientation_search,LEPPC096,Intel(R) HD Graphics 2500,2018_Sep_20_1226,testMonitor,
200.9,188.5,204.9,200.1,36,60,202.0,185.1,202.2,199.9,8.454,7.584,7.615,7.697,7.792,7.719,7.628,4.813,-5.257,-7.763,1.662,-1.742,8.3,4.921,-4.483,-7.746,215.9,198.0,-7.649,213.5,196.9,196.1,189.7,197.0,36,209.1,0,5,prime,10,0,92,norm,36,-4.86,up,norm,203.859579794,196.1,211.3,210.7,203.2,5,204.5,217.0,208.7,10,5,8.331,4.681,1.674,-1.855,-4.334,-7.748,197.9,5,295.9,-7.82,-7.961,60,-7.679,-8.391,-4.313,-5.005,-4.4,-4.829,5.109,7.65,5,-1.295,1.775,4.555,7.794,-8.075,-7.587,-1.518,1.316,220.8,192.4,205.1,223.9,192.6,192.7,206.8,192.4,,204.8,1,norm,1.676,1.633,-1.36,-1.398,-4.489,-4.542,-1.723,-1.867,-1.836,-1.782,1.921,-1.112,211.4,183.9,-5.089,-8.005,1.607,-1.309,8.153,4.551,-5.094,-7.572,6,4.889,4.355,4.597,4.717,1.859,2.049,1.348,1.595,6,5.099,4.585,80,28.6548575313,norm,0,23,23,23,3531.357,3531.366,3531.37316043,3531.373,3531.375,3531.378,up,1,0.689970717754,9.31002928225,001,002,1920_1080,Intel(R) Core(TM) i5-3570 CPU @ 3.40GHz,orientation_search,LEPPC096,Intel(R) HD Graphics 2500,2018_Sep_20_1226,testMonitor,
216.3,200.2,216.2,206.5,36,60,207.2,205.6,223.9,203.3,7.7,7.9,7.902,8.059,8.331,8.207,7.507,4.992,-5.267,-8.049,1.933,-1.308,8.173,5.062,-4.367,-7.963,196.2,202.0,-8.044,183.9,213.9,200.6,202.5,196.8,36,214.7,1,5,prime,10,0,77,norm,36,-4.879,down,norm,203.859579794,212.9,195.7,217.2,212.8,0,201.0,206.1,192.1,10,5,8.127,4.573,1.692,-2.025,-5.108,-7.968,208.5,5,280.9,-8.168,-8.386,60,-7.779,-8.265,-4.345,-5.262,-4.65,-4.35,5.173,8.112,6,-1.614,1.286,4.578,8.453,-7.809,-7.732,-1.602,1.874,206.6,213.6,202.6,218.4,208.3,198.5,197.0,,203.0,202.0,2,norm,1.637,1.347,-1.655,-1.411,-5.271,-4.993,-1.564,-1.183,-1.785,-1.593,1.217,-1.9,199.6,221.9,-5.041,-7.861,1.862,-1.393,7.672,4.535,-4.869,-8.277,6,4.325,4.787,5.226,4.878,1.338,1.253,1.437,1.572,6,4.373,5.257,80,28.6548575313,norm,0,24,24,24,3532.106,3532.115,3532.12191176,3532.122,3532.124,3532.126,down,1,1.07990693432,8.92009306568,001,002,1920_1080,Intel(R) Core(TM) i5-3570 CPU @ 3.40GHz,orientation_search,LEPPC096,Intel(R) HD Graphics 2500,2018_Sep_20_1226,testMonitor,
200.4,202.8,216.2,201.0,36,60,207.1,214.7,189.3,183.9,8.247,8.15,7.914,7.891,7.851,8.275,7.58,5.128,-4.923,-8.063,1.761,-1.222,7.763,4.422,-4.992,-7.614,203.5,221.8,-8.295,223.9,207.2,202.6,215.7,203.1,36,213.8,2,5,prime,10,0,105,norm,36,-4.929,up,norm,203.859579794,216.3,,188.4,206.2,4,204.3,203.0,214.6,10,5,8.044,4.446,1.406,-1.923,-4.827,-7.745,195.9,5,308.9,-8.251,-8.077,60,-7.502,-8.403,-4.689,-5.062,-4.585,-5.005,5.034,8.351,16,-1.524,1.201,4.489,8.398,-7.955,-7.526,-1.311,1.866,203.6,214.6,209.0,192.3,194.4,204.7,205.8,214.1,201.4,216.0,3,norm,1.537,1.256,-1.629,-1.87,-4.811,-4.983,-1.586,-1.637,-1.712,-1.944,1.828,-1.766,202.0,208.6,-4.482,-7.7,1.363,-1.876,7.831,5.081,-5.043,-7.949,6,5.028,4.849,4.769,5.007,1.642,1.744,1.985,1.216,6,4.356,4.818,80,28.6548575313,norm,0,25,25,25,3533.245,3533.254,3533.2606307,3533.261,3533.263,3533.265,up,1,1.14542237398,8.85457762602,001,002,1920_1080,Intel(R) Core(TM) i5-3570 CPU @ 3.40GHz,orientation_search,LEPPC096,Intel(R) HD Graphics 2500,2018_Sep_20_1226,testMonitor,
215.3,200.6,220.2,213.1,36,60,205.8,209.3,210.4,212.6,7.656,8.162,7.629,8.204,8.354,7.61,7.594,5.044,-4.858,-7.914,1.998,-1.356,8.01,4.756,-5.098,-8.216,206.4,215.7,-8.053,187.4,195.3,211.1,,193.2,36,204.4,5,5,prime,10,0,108,norm,36,-4.487,down,norm,203.859579794,201.4,192.8,212.1,195.3,2,203.5,200.7,200.7,10,5,8.187,4.954,1.176,-1.599,-4.759,-7.977,201.8,5,311.9,-7.629,-8.214,60,-7.98,-7.933,-4.613,-4.651,-4.475,-4.474,4.783,8.217,32,-1.486,1.959,4.301,8.168,-7.918,-7.552,-1.68,1.689,209.2,199.7,183.9,212.2,202.2,206.4,203.7,187.5,223.9,216.9,4,norm,1.372,1.138,-1.882,-1.772,-5.059,-4.338,-1.177,-1.354,-1.476,-2.006,1.333,-1.647,210.0,207.3,-4.817,-7.593,2.046,-1.517,8.042,4.811,-4.821,-8.068,6,5.092,4.344,5.009,4.974,1.165,1.409,1.474,1.492,6,4.779,4.646,80,28.6548575313,norm,0,26,26,26,3534.446,3534.455,3534.46178593,3534.462,3534.464,3534.466,up,0,1.34649671031,-10,001,002,1920_1080,Intel(R) Core(TM) i5-3570 CPU @ 3.40GHz,orientation_search,LEPPC096,Intel(R) HD Graphics 2500,2018_Sep_20_1226,testMonitor,
333.1,332.3,337.7,335.8,36,0,326.0,337.9,331.5,335.2,8.494,7.707,8.454,8.128,8.177,8.124,8.019,4.895,-5.286,-8.028,1.559,-1.369,8.36,4.394,-4.762,-8.082,335.9,341.4,-8.195,325.7,339.9,333.9,338.5,341.0,36,340.5,1,5,probe,5,0,62,norm,36,-5.111,up,norm,335.736030269,338.5,334.6,331.4,329.1,4,328.7,332.9,336.3,10,5,7.984,5.206,1.799,-1.434,-4.398,-8.308,,1,273.7,-8.227,-8.041,60,-8.014,-8.425,-4.558,-5.044,-4.806,-5.279,5.151,8.178,10,-1.294,1.633,5.2,7.973,-8.313,-7.804,-1.757,1.333,339.0,336.1,327.1,344.6,335.3,345.7,330.3,334.0,338.1,340.4,0,norm,1.746,1.242,-1.484,-1.488,-5.243,-4.357,-1.773,-1.346,-1.222,-1.797,1.478,-1.391,335.5,339.4,-4.696,-7.624,1.878,-1.982,8.051,5.184,-4.705,-7.595,7,4.342,4.496,4.833,4.654,2.004,1.797,1.868,2.006,7,4.54,4.71,60,203.859579794,norm,0,27,27,27,3536.882,3536.892,3536.91000592,3536.91,3536.912,3536.915,up,1,1.19406664012,8.80593335988,001,002,1920_1080,Intel(R) Core(TM) i5-3570 CPU @ 3.40GHz,orientation_search,LEPPC096,Intel(R) HD Graphics 2500,2018_Sep_20_1226,testMonitor,
119.2,130.9,129.0,110.9,36,-20,125.7,123.6,105.9,119.3,7.967,8.025,7.896,8.171,7.571,7.912,8.382,5.266,-5.145,-7.87,2.1,-1.278,7.812,5.134,-4.306,-7.924,102.9,123.4,-7.806,99.8,128.5,121.3,112.6,129.2,36,119.0,0,5,prime,10,0,77,norm,36,-5.201,down,norm,119.770214078,122.2,130.8,139.8,133.9,2,133.3,119.7,136.9,10,6,7.734,4.78,1.209,-1.325,-5.276,-7.707,125.5,6,196.8,-7.705,-7.844,-20,-7.985,-8.204,-5.157,-4.519,-4.529,-4.446,4.49,8.312,2,-2.095,1.93,4.397,7.909,-7.85,-8.415,-1.195,2.04,130.2,109.3,123.1,,128.7,128.3,117.9,107.9,130.1,127.5,0,norm,1.805,1.187,-1.681,-1.96,-4.77,-5.204,-1.887,-2.039,-1.675,-1.675,2.067,-2.066,133.5,115.6,-5.223,-7.993,1.833,-1.572,8.199,4.424,-5.288,-8.169,8,4.978,4.994,5.187,4.642,1.431,1.984,1.474,1.136,8,5.019,5.024,0,203.859579794,norm,0,28,28,28,3538.143,3538.155,3538.18903665,3538.189,3538.191,3538.195,down,1,1.34721118382,8.65278881618,001,002,1920_1080,Intel(R) Core(TM) i5-3570 CPU @ 3.40GHz,orientation_search,LEPPC096,Intel(R) HD Graphics 2500,2018_Sep_20_1226,testMonitor,
133.9,118.1,102.1,117.6,36,-20,128.0,,99.8,119.0,7.693,7.574,7.669,8.238,8.282,7.811,8.452,4.738,-5.239,-8.215,1.67,-1.224,8.248,4.949,-4.89,-7.811,119.8,105.3,-8.269,103.1,139.8,125.0,137.2,118.9,36,126.5,4,5,prime,10,0,102,norm,36,-5.069,down,norm,119.770214078,117.0,113.0,108.7,113.6,1,113.1,110.8,116.1,10,6,8.299,4.836,1.57,-2.009,-4.724,-8.238,120.1,6,221.8,-7.608,-8.242,-20,-8.349,-8.33,-4.762,-4.444,-5.22,-5.276,4.373,7.831,25,-1.935,1.171,4.683,7.926,-8.376,-8.347,-1.287,1.439,103.1,130.0,126.5,106.7,135.5,112.7,120.5,103.4,113.5,117.7,1,norm,1.563,1.907,-1.736,-1.457,-5.053,-4.765,-1.909,-1.974,-1.543,-1.668,1.115,-1.239,100.3,113.3,-4.447,-7.55,1.927,-1.73,8.277,5.174,-4.955,-7.531,8,4.387,5.29,4.548,4.751,1.402,1.29,1.667,1.518,8,5.177,4.623,0,203.859579794,norm,0,29,29,29,3539.559,3539.568,3539.57737217,3539.578,3539.579,3539.582,down,1,1.89100551204,8.10899448796,001,002,1920_1080,Intel(R) Core(TM) i5-3570 CPU @ 3.40GHz,orientation_search,LEPPC096,Intel(R) HD Graphics 2500,2018_Sep_20_1226,testMonitor,
114.7,128.3,124.8,118.6,36,-20,114.6,114.3,106.5,126.2,7.837,7.585,8.068,8.233,8.409,8.39,7.588,4.51,-4.953,-7.512,1.264,-1.921,7.572,4.581,-4.422,-7.758,105.7,121.7,-7.527,105.4,124.1,,115.5,118.0,36,112.7,5,5,prime,10,0,106,norm,36,-4.915,up,norm,119.770214078,116.8,119.9,99.8,115.9,3,125.8,110.8,103.9,10,6,7.69,4.701,1.411,-2.034,-5.272,-8.051,122.8,6,225.8,-7.669,-7.981,-20,-7.728,-7.886,-4.492,-4.498,-4.766,-4.541,4.32,8.112,33,-2.022,1.233,4.349,8.037,-7.749,-7.611,-1.616,1.747,129.7,115.5,139.8,110.4,112.7,120.2,119.9,137.1,114.4,131.4,2,norm,1.411,2.012,-1.115,-1.296,-4.955,-4.886,-1.931,-1.879,-1.528,-2.022,1.54,-1.89,103.0,126.3,-4.942,-8.105,2.027,-1.556,7.568,4.875,-5.092,-8.449,8,5.036,5.011,4.91,5.084,1.521,1.228,1.179,1.352,8,4.665,4.33,0,203.859579794,norm,0,30,30,30,3541.505,3541.516,3541.5272742,3541.527,3541.529,3541.532,up,1,1.55125087196,8.44874912804,001,002,1920_1080,Intel(R) Core(TM) i5-3570 CPU @ 3.40GHz,orientation_search,LEPPC096,Intel(R) HD Graphics 2500,2018_Sep_20_1226,testMonitor,
116.7,118.2,124.1,112.6,36,-20,116.6,121.9,116.0,124.8,8.207,8.174,8.375,7.778,7.616,8.075,8.033,5.06,-4.839,-8.113,1.45,-1.831,8.323,4.831,-4.633,-8.291,124.3,123.5,-7.858,130.2,128.3,139.8,103.2,122.4,36,107.3,2,5,prime,10,0,67,norm,36,-4.702,up,norm,119.770214078,,138.2,130.7,132.8,5,129.3,111.9,100.0,10,6,8.093,4.348,1.149,-1.458,-5.242,-8.225,114.3,6,186.8,-8.114,-7.663,-20,-7.512,-8.318,-4.33,-4.889,-5.08,-4.441,4.649,7.806,17,-1.769,1.143,5.188,8.301,-8.415,-7.807,-1.796,2.061,109.9,115.2,125.4,117.1,127.6,130.4,124.8,118.6,99.8,120.8,3,norm,1.474,1.214,-2.03,-1.899,-5.097,-4.437,-1.46,-1.357,-1.685,-1.719,2.045,-1.333,115.6,121.0,-4.4,-8.071,1.323,-2.078,8.164,5.186,-4.667,-8.212,8,4.783,4.994,5.185,4.312,1.944,1.876,1.498,1.923,8,4.473,4.972,0,203.859579794,norm,0,31,31,31,3543.104,3543.115,3543.11942151,3543.12,3543.121,3543.124,up,1,1.4188864295,8.5811135705,001,002,1920_1080,Intel(R) Core(TM) i5-3570 CPU @ 3.40GHz,orientation_search,LEPPC096,Intel(R) HD Graphics 2500,2018_Sep_20_1226,testMonitor,
113.9,118.3,124.4,129.5,36,-20,128.5,118.9,108.2,129.0,7.688,8.193,8.289,8.17,8.038,8.276,7.609,4.961,-5.174,-8.403,1.574,-1.745,7.898,4.991,-4.89,-7.817,134.0,133.1,-8.25,124.6,105.2,108.9,,117.8,36,108.1,5,5,prime,10,0,118,norm,36,-4.817,down,norm,119.770214078,114.6,113.0,127.3,127.3,2,121.0,122.6,99.8,10,6,7.588,4.552,1.769,-1.268,-4.399,-7.953,119.5,6,237.8,-8.356,-7.719,-20,-7.889,-8.282,-4.938,-4.819,-4.722,-4.82,4.616,8.217,32,-1.513,1.638,4.767,7.601,-8.385,-8.026,-1.745,1.304,118.2,117.5,119.7,121.5,125.8,114.3,129.1,139.8,108.3,132.1,4,norm,1.999,1.692,-2.007,-1.5,-5.004,-4.468,-1.517,-1.937,-1.532,-1.555,1.284,-1.586,134.5,118.6,-5.11,-7.594,1.679,-1.191,7.977,4.524,-5.026,-8.341,8,4.357,4.72,5.029,4.568,1.939,1.942,1.117,1.194,8,5.156,4.724,0,203.859579794,norm,0,32,32,32,3544.575,3544.585,3544.60047378,3544.601,3544.602,3544.605,down,1,1.12862334206,8.87137665794,001,002,1920_1080,Intel(R) Core(TM) i5-3570 CPU @ 3.40GHz,orientation_search,LEPPC096,Intel(R) HD Graphics 2500,2018_Sep_20_1226,testMonitor,
113.6,115.2,122.2,113.9,36,-20,117.2,110.5,125.5,105.0,7.648,8.407,8.061,7.546,7.972,7.971,7.762,5.087,-4.923,-7.545,1.669,-1.646,8.147,4.425,-4.858,-7.803,120.0,113.9,-8.099,139.8,117.9,124.9,137.3,127.2,36,109.0,3,5,prime,10,0,64,norm,36,-4.686,down,norm,119.770214078,116.8,107.2,133.1,128.6,0,113.3,115.7,112.2,10,6,7.643,4.781,1.607,-1.468,-5.295,-8.074,128.4,6,183.8,-7.912,-7.772,-20,-8.231,-7.617,-4.78,-4.485,-4.847,-5.25,4.403,7.758,18,-1.436,1.248,4.442,7.966,-8.472,-8.137,-1.175,1.328,112.3,123.5,121.7,103.7,131.1,113.6,103.5,99.8,125.7,120.0,5,norm,1.193,1.133,-1.735,-1.162,-4.325,-4.375,-1.411,-1.935,-1.462,-1.795,1.98,-1.638,103.9,,-5.082,-7.865,1.938,-1.14,8.07,4.98,-4.515,-7.596,8,5.1,4.685,4.659,4.618,1.106,1.611,1.414,1.77,8,5.287,4.812,0,203.859579794,norm,0,33,33,33,3545.765,3545.775,3545.78591965,3545.786,3545.788,3545.79,down,1,1.60275816355,8.39724183645,001,002,1920_1080,Intel(R) Core(TM) i5-3570 CPU @ 3.40GHz,orientation_search,LEPPC096,Intel(R) HD Graphics 2500,2018_Sep_20_1226,testMonitor,
214.4,213.9,211.0,219.2,36,-60,,216.8,208.8,218.7,8.422,7.653,7.815,8.464,7.501,8.198,7.631,4.44,-4.65,-7.597,1.942,-1.564,8.177,4.78,-4.434,-8.313,202.1,210.9,-7.522,213.6,220.2,206.3,215.0,209.9,36,214.1,4,5,probe,5,0,112,norm,36,-5.166,down,norm,212.076537094,211.8,211.7,214.5,215.3,0,206.7,214.8,207.7,10,6,7.994,4.906,1.665,-1.119,-5.122,-7.819,209.4,2,100.1,-8.29,-7.557,-20,-8.494,-7.598,-5.216,-5.285,-4.662,-4.307,4.64,7.616,24,-1.746,1.151,5.137,7.58,-8.172,-8.297,-1.693,1.758,213.0,217.9,210.8,212.8,209.2,214.0,208.4,213.3,211.5,213.1,0,norm,1.608,1.282,-1.12,-1.96,-4.575,-5.075,-2.086,-1.964,-1.836,-1.255,2.002,-1.748,222.1,217.1,-4.961,-7.507,1.272,-1.114,7.775,4.646,-4.928,-8.284,9,5.117,4.581,4.51,4.375,1.667,1.907,1.629,1.387,9,4.406,4.412,-20,119.770214078,norm,0,34,34,34,3547.41,3547.419,3547.42599887,3547.426,3547.428,3547.43,down,1,1.07760172343,8.92239827657,001,002,1920_1080,Intel(R) Core(TM) i5-3570 CPU @ 3.40GHz,orientation_search,LEPPC096,Intel(R) HD Graphics 2500,2018_Sep_20_1226,testMonitor,
196.2,185.7,196.1,198.6,36,-60,199.1,190.9,191.8,186.9,8.337,8.395,8.428,7.977,8.398,8.126,7.885,4.454,-4.741,-8.307,1.224,-1.221,7.55,4.847,-4.916,-7.576,182.6,197.7,-7.563,196.0,184.2,196.7,189.8,189.6,36,192.4,2,5,probe,5,0,92,norm,36,-4.356,up,norm,192.076537094,182.1,202.1,,191.7,3,194.0,193.8,193.6,10,6,7.536,4.98,1.466,-1.857,-4.353,-8.493,191.5,2,100.1,-7.704,-8.316,-20,-7.932,-7.841,-4.429,-4.595,-4.338,-5.117,4.541,7.679,15,-1.615,1.85,4.669,7.543,-7.598,-7.892,-1.443,1.416,196.6,188.0,196.6,199.6,191.4,193.6,200.1,193.2,184.2,192.2,1,norm,1.505,1.771,-1.48,-2.094,-4.907,-4.472,-1.681,-1.909,-1.73,-1.87,1.852,-1.596,195.0,197.0,-4.877,-8.297,2.068,-1.212,8.13,4.716,-4.65,-7.553,9,4.789,4.476,4.774,4.619,1.16,1.388,1.662,1.584,9,4.736,4.356,-20,119.770214078,norm,0,35,35,35,3548.548,3548.57,3548.58073777,3548.581,3548.583,3548.586,up,1,1.82111267703,8.17888732297,001,002,1920_1080,Intel(R) Core(TM) i5-3570 CPU @ 3.40GHz,orientation_search,LEPPC096,Intel(R) HD Graphics 2500,2018_Sep_20_1226,testMonitor,
266.9,274.9,263.7,296.9,36,-40,281.6,273.4,272.7,290.1,7.78,8.068,8.35,7.683,8.129,8.228,7.992,4.808,-5.231,-8.087,1.202,-1.102,7.555,5.187,-5.056,-7.662,283.6,277.7,-7.668,283.7,263.7,282.3,285.7,299.4,36,,4,5,prime,10,0,102,norm,36,-4.74,up,norm,279.404268596,298.6,289.4,277.4,287.2,3,277.8,280.7,269.2,10,5,8.135,4.603,1.298,-1.469,-4.761,-8.296,267.6,5,381.4,-8.193,-7.807,-40,-7.981,-8.27,-4.73,-5.109,-5.103,-4.577,5.006,8.415,27,-1.963,1.311,4.405,7.652,-8.131,-7.643,-1.163,1.874,278.5,269.9,281.2,259.4,282.3,282.0,289.3,278.6,281.1,268.3,0,norm,1.823,1.299,-1.245,-1.994,-4.846,-4.573,-1.227,-1.601,-1.382,-1.631,1.818,-1.969,287.6,276.7,-5.076,-7.667,1.917,-1.505,7.737,5.188,-4.857,-8.155,10,4.557,4.39,4.947,4.75,1.375,1.106,2.07,1.424,10,4.411,5.154,-60,119.770214078,norm,0,36,36,36,3550.44,3550.453,3550.47213719,3550.472,3550.474,3550.476,down,0,4.64249158373,-10,001,002,1920_1080,Intel(R) Core(TM) i5-3570 CPU @ 3.40GHz,orientation_search,LEPPC096,Intel(R) HD Graphics 2500,2018_Sep_20_1226,testMonitor,
259.4,277.2,282.5,272.7,36,-40,269.0,299.4,280.4,,7.553,7.861,7.966,8.485,7.557,8.226,8.359,5.137,-5.029,-8.083,1.722,-2.047,7.88,5.222,-4.617,-7.913,273.5,281.6,-7.907,266.2,263.8,282.4,285.9,283.1,36,279.3,4,5,prime,10,0,83,norm,36,-4.773,up,norm,279.404268596,283.9,280.7,276.6,281.7,5,269.2,267.0,287.1,10,5,8.309,5.26,1.37,-1.141,-4.95,-8.377,279.0,5,362.4,-8.291,-7.753,-40,-7.77,-7.757,-5.025,-4.431,-4.393,-4.956,4.444,8.286,29,-1.537,1.444,4.451,7.544,-7.759,-7.849,-1.349,1.346,270.4,274.3,279.1,281.6,274.3,283.1,291.1,282.9,279.5,286.1,1,norm,1.201,1.289,-1.945,-1.838,-4.53,-4.643,-1.491,-1.987,-1.506,-1.678,1.144,-1.937,274.2,270.9,-5.208,-7.817,1.197,-1.443,7.51,5.134,-4.439,-8.375,10,4.37,4.639,4.422,5.006,1.57,1.217,1.839,1.103,10,4.723,5.201,-60,119.770214078,norm,0,37,37,37,3556.185,3556.195,3556.20663528,3556.207,3556.208,3556.211,up,1,1.55174922252,8.44825077748,001,002,1920_1080,Intel(R) Core(TM) i5-3570 CPU @ 3.40GHz,orientation_search,LEPPC096,Intel(R) HD Graphics 2500,2018_Sep_20_1226,testMonitor,
278.3,266.5,268.4,297.6,36,-40,280.1,299.4,280.5,,7.849,7.539,7.997,7.81,8.257,7.639,8.418,4.957,-4.783,-8.42,1.315,-1.721,8.387,4.377,-4.678,-7.868,268.6,280.0,-7.555,291.5,285.1,283.0,288.6,272.6,36,259.4,4,5,prime,10,0,78,norm,36,-4.898,up,norm,279.404268596,286.1,277.6,275.7,285.2,5,282.1,292.1,283.6,10,5,7.795,4.807,1.851,-1.256,-4.574,-8.322,272.1,5,357.4,-7.978,-7.602,-40,-8.308,-7.937,-4.523,-4.581,-4.33,-4.356,4.459,7.739,29,-1.244,1.627,5.001,8.357,-7.512,-8.157,-1.523,1.325,287.0,272.5,268.3,276.3,297.0,271.8,289.9,278.5,296.9,273.4,2,norm,2.005,1.725,-1.218,-1.818,-4.681,-4.767,-1.82,-1.509,-1.922,-1.887,1.922,-2.055,277.2,290.7,-4.509,-7.566,1.207,-1.955,8.124,4.315,-5.048,-7.847,10,5.053,4.674,5.272,4.452,2.007,1.638,1.196,1.623,10,4.672,4.879,-60,119.770214078,norm,0,38,38,38,3557.798,3557.81,3557.83080682,3557.831,3557.833,3557.836,up,1,1.07553135005,8.92446864995,001,002,1920_1080,Intel(R) Core(TM) i5-3570 CPU @ 3.40GHz,orientation_search,LEPPC096,Intel(R) HD Graphics 2500,2018_Sep_20_1226,testMonitor,
283.7,274.1,273.4,277.4,36,-40,285.5,274.3,278.7,279.9,8.306,7.828,7.75,7.511,7.616,7.769,7.614,4.527,-5.08,-7.681,2.09,-1.296,8.236,5.179,-4.992,-8.485,269.4,275.7,-7.842,276.2,265.0,281.3,277.5,292.0,36,295.3,0,5,prime,10,0,94,norm,36,-5.272,up,norm,279.404268596,276.4,299.4,281.4,278.2,5,282.8,259.4,281.5,10,5,7.986,4.938,1.494,-1.656,-4.596,-7.634,282.1,5,373.4,-7.668,-7.812,-40,-7.751,-7.67,-4.453,-4.302,-4.914,-4.367,4.972,7.689,5,-1.839,1.384,4.627,8.194,-8.243,-8.469,-1.526,1.731,275.6,269.5,284.3,263.4,276.6,280.9,264.0,280.2,,279.9,3,norm,1.525,1.432,-2.073,-1.124,-4.471,-5.124,-1.668,-1.395,-1.552,-2.073,1.305,-1.378,286.2,269.5,-4.545,-7.808,1.517,-1.775,7.576,4.377,-4.43,-8.158,10,4.312,4.739,4.544,4.898,1.775,1.948,1.876,1.901,10,4.88,4.69,-60,119.770214078,norm,0,39,39,39,3558.953,3558.964,3558.96852121,3558.969,3558.971,3558.975,up,1,3.51074321243,6.48925678757,001,002,1920_1080,Intel(R) Core(TM) i5-3570 CPU @ 3.40GHz,orientation_search,LEPPC096,Intel(R) HD Graphics 2500,2018_Sep_20_1226,testMonitor,
273.9,299.4,271.9,269.2,36,-40,269.6,268.3,282.0,278.4,8.34,7.634,8.381,7.688,7.765,7.834,7.835,4.667,-4.475,-8.172,1.929,-1.396,7.792,4.942,-5.087,-8.145,278.5,,-8.311,279.0,288.1,287.6,282.1,275.5,36,286.8,5,5,prime,10,0,78,norm,36,-4.889,up,norm,279.404268596,288.1,294.3,288.7,291.0,4,278.6,283.2,280.1,10,5,8.417,4.705,1.808,-1.623,-5.002,-7.637,275.0,5,357.4,-7.915,-7.533,-40,-8.077,-8.0,-4.511,-4.738,-5.174,-4.702,4.796,7.529,34,-1.329,1.786,4.407,8.263,-8.412,-8.302,-1.448,1.397,286.5,270.6,276.0,293.1,281.1,277.1,259.4,284.2,287.9,280.6,4,norm,1.558,1.983,-2.084,-1.303,-4.335,-4.858,-2.039,-1.191,-1.4,-1.703,1.787,-1.354,273.1,279.7,-5.183,-8.048,1.313,-1.708,8.451,4.348,-4.446,-8.395,10,4.63,4.355,5.203,4.944,1.123,1.747,1.258,1.254,10,5.298,5.264,-60,119.770214078,norm,0,40,40,40,3562.525,3562.534,3562.54095575,3562.541,3562.543,3562.546,down,0,4.12219217496,-10,001,002,1920_1080,Intel(R) Core(TM) i5-3570 CPU @ 3.40GHz,orientation_search,LEPPC096,Intel(R) HD Graphics 2500,2018_Sep_20_1226,testMonitor,
332.2,329.5,341.3,334.8,36,-60,,326.6,326.7,322.8,7.612,8.183,7.716,7.806,7.576,8.362,8.078,4.782,-4.952,-7.928,1.9,-1.99,8.433,4.796,-4.938,-8.022,331.8,331.1,-7.834,322.1,332.2,329.9,337.6,332.3,36,329.6,4,5,probe,5,0,93,norm,36,-4.528,down,norm,332.136664211,332.4,333.1,334.8,332.4,0,335.5,331.1,328.0,10,5,8.326,4.551,1.744,-1.96,-4.606,-7.592,326.7,2,239.1,-7.637,-8.483,-40,-7.775,-8.312,-4.836,-4.964,-5.0,-4.757,4.305,7.82,24,-1.692,2.028,4.577,7.9,-8.089,-8.359,-1.478,1.359,330.0,342.1,322.9,325.6,333.2,336.1,337.0,331.3,325.5,328.6,0,norm,1.206,1.456,-1.367,-2.024,-4.306,-5.187,-1.522,-1.414,-1.558,-1.156,1.688,-1.311,335.2,330.5,-4.56,-8.04,1.459,-1.31,8.206,4.568,-5.16,-7.71,11,4.589,4.835,5.025,4.634,1.888,1.152,1.215,1.348,11,4.76,4.784,-40,279.404268596,norm,0,41,41,41,3567.717,3567.726,3567.73428377,3567.734,3567.736,3567.739,down,1,3.12223201886,6.87776798114,001,002,1920_1080,Intel(R) Core(TM) i5-3570 CPU @ 3.40GHz,orientation_search,LEPPC096,Intel(R) HD Graphics 2500,2018_Sep_20_1226,testMonitor,
310.1,308.4,316.1,315.1,36,-60,312.1,325.1,305.1,315.4,8.459,8.073,7.881,7.568,7.963,8.113,7.721,4.534,-4.879,-7.78,1.726,-1.404,8.276,4.787,-4.999,-7.73,310.3,321.3,-8.305,314.4,323.6,312.9,321.0,311.7,36,308.7,0,5,probe,5,0,76,norm,36,-4.708,down,norm,315.136664211,314.3,312.3,311.4,307.1,2,316.9,320.6,315.3,10,5,7.749,4.739,1.647,-1.56,-4.877,-8.312,314.7,2,239.1,-7.928,-8.389,-40,-7.904,-8.228,-5.257,-5.193,-4.501,-4.319,4.631,7.93,2,-1.584,1.156,5.057,8.156,-8.492,-7.687,-2.045,1.996,308.5,310.3,318.8,,318.4,308.1,322.1,320.4,311.5,323.1,1,norm,1.474,1.301,-1.613,-1.908,-4.599,-4.581,-1.961,-1.61,-1.131,-1.98,1.911,-1.71,310.5,315.2,-4.553,-8.284,1.263,-1.701,8.333,5.196,-4.63,-8.031,11,5.252,4.629,4.471,4.589,1.106,2.069,1.85,1.652,11,5.174,4.482,-40,279.404268596,norm,0,42,42,42,3570.902,3570.924,3570.9342452,3570.934,3570.936,3570.939,down,1,1.72507922748,8.27492077252,001,002,1920_1080,Intel(R) Core(TM) i5-3570 CPU @ 3.40GHz,orientation_search,LEPPC096,Intel(R) HD Graphics 2500,2018_Sep_20_1226,testMonitor,
205.0,195.4,219.3,204.4,36,80,,215.7,222.4,191.3,7.949,8.37,8.064,7.945,8.315,7.676,7.841,4.965,-4.498,-8.385,1.139,-1.417,7.677,4.91,-4.49,-7.826,230.7,206.0,-7.7,207.3,211.2,218.7,211.2,221.4,36,204.8,4,5,prime,10,0,98,norm,36,-5.199,down,norm,211.288008923,223.2,203.9,219.9,216.3,0,208.3,205.5,207.6,10,6,7.537,4.714,2.051,-1.488,-4.467,-7.97,201.5,6,309.3,-8.478,-7.804,80,-7.937,-8.291,-5.052,-5.077,-4.564,-4.506,5.221,8.281,24,-1.9,1.569,4.565,8.444,-8.473,-8.24,-1.763,1.869,214.3,214.0,219.9,209.0,231.3,206.9,202.3,203.0,212.0,219.0,0,norm,1.429,1.673,-1.225,-1.148,-4.566,-4.482,-1.859,-1.498,-1.977,-2.022,1.747,-1.401,203.6,213.6,-4.857,-7.89,1.767,-1.303,8.37,5.097,-5.109,-7.823,12,4.461,4.604,4.677,4.585,1.755,1.203,1.575,1.619,12,4.752,4.301,-60,279.404268596,norm,0,43,43,43,3572.698,3572.71,3572.73032021,3572.731,3572.733,3572.736,down,1,1.61823480069,8.38176519931,001,002,1920_1080,Intel(R) Core(TM) i5-3570 CPU @ 3.40GHz,orientation_search,LEPPC096,Intel(R) HD Graphics 2500,2018_Sep_20_1226,testMonitor,
218.1,210.0,191.3,221.6,36,80,220.8,213.0,195.8,193.1,7.641,7.634,7.736,7.807,7.754,7.627,8.26,4.474,-4.45,-7.998,1.107,-1.553,7.526,5.295,-4.618,-7.584,210.1,220.2,-7.546,220.3,217.2,219.0,221.8,212.0,36,206.9,2,5,prime,10,0,112,norm,36,-4.33,up,norm,211.288008923,204.6,200.8,,212.3,3,218.6,220.8,214.8,10,6,7.936,4.319,1.974,-1.57,-4.948,-8.285,211.0,6,323.3,-8.133,-8.31,80,-8.317,-7.725,-5.209,-5.005,-4.807,-4.509,4.754,8.302,15,-1.904,1.981,5.029,8.461,-7.713,-8.439,-1.124,1.225,219.4,207.0,225.7,206.7,203.4,203.6,201.4,202.4,217.4,196.6,1,norm,1.946,1.173,-1.755,-1.786,-4.468,-4.98,-1.856,-1.672,-1.545,-1.941,1.691,-1.482,212.9,231.3,-4.64,-8.421,1.215,-1.716,8.323,5.116,-4.813,-8.4,12,4.674,4.973,4.823,4.779,1.399,1.154,1.541,2.078,12,4.734,4.476,-60,279.404268596,norm,0,44,44,44,3574.396,3574.405,3574.41363881,3574.414,3574.416,3574.418,up,1,1.10919823516,8.89080176484,001,002,1920_1080,Intel(R) Core(TM) i5-3570 CPU @ 3.40GHz,orientation_search,LEPPC096,Intel(R) HD Graphics 2500,2018_Sep_20_1226,testMonitor,
205.9,207.8,202.7,198.2,36,80,193.4,209.3,214.7,201.7,8.074,7.768,7.615,8.141,8.407,8.12,8.426,4.661,-4.551,-7.514,1.753,-1.5,8.297,5.135,-5.213,-7.999,212.6,214.2,-7.898,210.6,217.9,206.9,210.5,198.5,36,,4,5,prime,10,0,71,norm,36,-4.387,up,norm,211.288008923,218.8,231.3,222.2,211.8,3,198.7,219.3,199.8,10,6,8.383,5.115,1.172,-1.818,-5.224,-8.333,210.6,6,282.3,-7.776,-7.521,80,-8.403,-8.186,-4.838,-5.191,-4.523,-5.239,4.435,7.744,27,-1.314,1.794,4.824,8.071,-7.811,-8.068,-1.237,1.116,217.1,209.4,202.6,212.0,215.6,204.2,216.2,218.3,217.2,191.3,2,norm,1.262,1.126,-1.126,-1.943,-4.831,-5.146,-1.385,-1.779,-2.064,-1.141,1.688,-2.067,209.4,224.0,-4.638,-8.05,1.906,-1.393,8.21,4.808,-5.131,-8.151,12,5.072,4.367,5.297,4.433,1.722,1.55,1.208,1.561,12,5.171,4.969,-60,279.404268596,norm,0,45,45,45,3575.566,3575.575,3575.58166022,3575.582,3575.584,3575.586,up,1,1.51888223382,8.48111776618,001,002,1920_1080,Intel(R) Core(TM) i5-3570 CPU @ 3.40GHz,orientation_search,LEPPC096,Intel(R) HD Graphics 2500,2018_Sep_20_1226,testMonitor,
216.5,210.2,203.3,206.3,36,80,198.5,208.6,206.8,211.9,7.965,8.07,7.615,8.282,8.228,8.211,8.249,5.062,-4.88,-7.574,1.548,-1.815,8.494,5.042,-4.7,-8.33,200.8,212.6,-7.571,197.3,231.3,196.7,220.5,212.6,36,205.9,1,5,prime,10,0,110,norm,36,-4.629,up,norm,211.288008923,226.7,230.5,206.7,213.9,3,207.1,208.7,198.7,10,6,7.601,5.159,1.679,-1.161,-5.161,-8.004,199.9,6,321.3,-7.965,-7.899,80,-7.64,-7.951,-4.774,-5.289,-4.931,-5.214,4.451,7.613,9,-1.946,2.084,4.726,8.317,-8.237,-8.032,-1.945,1.648,,201.6,205.1,209.4,209.5,213.9,202.5,199.4,209.0,215.6,3,norm,1.909,1.305,-1.593,-1.725,-4.64,-4.881,-1.674,-2.046,-1.806,-2.014,1.234,-1.961,226.3,191.3,-4.535,-8.11,1.482,-1.455,7.679,4.535,-5.112,-7.733,12,4.411,4.878,5.034,5.004,1.998,1.479,1.625,2.04,12,4.4,4.509,-60,279.404268596,norm,0,46,46,46,3577.137,3577.147,3577.15621011,3577.156,3577.158,3577.161,up,1,1.1297993407,8.8702006593,001,002,1920_1080,Intel(R) Core(TM) i5-3570 CPU @ 3.40GHz,orientation_search,LEPPC096,Intel(R) HD Graphics 2500,2018_Sep_20_1226,testMonitor,
211.9,217.8,217.4,206.4,36,80,231.1,231.3,211.9,215.4,8.182,7.857,7.571,7.746,8.086,7.523,8.4,4.718,-4.581,-7.967,1.45,-1.955,8.238,4.323,-5.139,-7.655,223.2,194.0,-7.961,218.0,209.8,201.9,203.1,228.2,36,214.1,1,5,prime,10,0,95,norm,36,-5.254,up,norm,211.288008923,191.3,210.7,215.0,208.6,4,216.2,210.9,212.3,10,6,7.836,4.457,1.165,-1.144,-4.34,-8.499,,6,306.3,-8.431,-8.134,80,-7.733,-7.878,-4.904,-4.956,-4.351,-5.083,5.047,8.365,10,-2.006,1.158,5.292,7.573,-8.322,-8.486,-1.836,1.199,196.7,221.6,219.9,218.0,211.7,213.8,219.2,208.3,202.2,205.0,4,norm,1.317,1.471,-1.148,-1.235,-4.48,-5.007,-1.707,-1.6,-1.189,-1.342,1.293,-1.718,216.8,224.8,-5.176,-7.828,1.112,-1.462,8.321,5.121,-4.951,-7.923,12,4.666,5.146,5.114,4.351,1.226,1.66,1.899,1.793,12,4.561,4.726,-60,279.404268596,norm,0,47,47,47,3578.327,3578.336,3578.34275742,3578.343,3578.345,3578.347,up,1,0.926415567614,9.07358443239,001,002,1920_1080,Intel(R) Core(TM) i5-3570 CPU @ 3.40GHz,orientation_search,LEPPC096,Intel(R) HD Graphics 2500,2018_Sep_20_1226,testMonitor,
226.0,204.4,194.5,224.9,36,80,205.1,218.4,197.9,212.7,8.378,7.699,8.104,7.794,8.124,7.608,7.995,4.472,-4.471,-7.996,1.343,-1.419,7.555,5.18,-4.522,-8.284,215.5,202.1,-7.584,,217.5,224.3,191.3,204.6,36,214.8,5,5,prime,10,0,115,norm,36,-4.702,down,norm,211.288008923,209.6,207.6,208.1,205.7,1,202.9,210.6,212.1,10,6,7.923,5.104,1.646,-1.211,-4.971,-7.509,207.1,6,326.3,-8.28,-8.002,80,-7.527,-8.251,-5.227,-4.452,-4.983,-5.27,5.046,8.139,31,-1.592,1.838,4.325,8.187,-8.156,-8.165,-1.596,1.342,216.6,208.9,195.1,197.8,212.5,212.1,208.8,231.3,209.1,216.7,5,norm,1.181,1.493,-1.24,-1.874,-5.119,-4.725,-1.492,-1.784,-1.818,-1.494,1.393,-1.576,222.6,207.6,-4.836,-8.098,1.297,-1.658,8.41,5.046,-5.046,-7.729,12,4.824,4.428,4.937,4.736,1.946,1.487,1.697,1.963,12,5.127,4.494,-60,279.404268596,norm,0,48,48,48,3579.307,3579.316,3579.32468429,3579.325,3579.327,3579.329,down,1,1.12904140113,8.87095859887,001,002,1920_1080,Intel(R) Core(TM) i5-3570 CPU @ 3.40GHz,orientation_search,LEPPC096,Intel(R) HD Graphics 2500,2018_Sep_20_1226,testMonitor,
372.3,374.8,381.5,373.5,36,10,372.1,368.4,382.1,371.3,7.506,7.941,8.227,7.652,8.323,8.418,8.31,4.352,-4.799,-7.872,1.963,-1.891,8.108,4.705,-4.815,-7.927,385.7,373.5,-7.982,372.8,378.4,374.0,375.1,376.8,36,371.9,2,5,probe,5,0,82,norm,36,-4.71,up,norm,375.697076826,377.1,,379.7,375.9,4,379.3,384.0,375.6,10,6,8.236,4.663,1.526,-1.626,-4.978,-7.571,368.8,1,293.7,-7.894,-8.373,80,-8.047,-7.51,-4.327,-5.049,-4.923,-5.037,4.617,7.648,16,-1.62,1.117,4.337,8.052,-7.514,-8.492,-1.137,1.527,376.4,380.9,365.7,379.3,379.5,376.9,381.3,373.4,381.0,381.5,0,norm,1.615,1.199,-1.649,-1.227,-4.582,-4.897,-1.799,-1.104,-1.436,-1.912,2.017,-1.731,381.0,375.3,-4.701,-7.583,1.517,-1.842,8.004,4.728,-4.523,-7.537,13,4.58,4.877,4.81,4.871,1.314,2.005,2.064,1.711,13,4.641,4.646,80,211.288008923,norm,0,49,49,49,3580.491,3580.501,3580.51019747,3580.51,3580.512,3580.515,up,1,0.78790218565,9.21209781435,001,002,1920_1080,Intel(R) Core(TM) i5-3570 CPU @ 3.40GHz,orientation_search,LEPPC096,Intel(R) HD Graphics 2500,2018_Sep_20_1226,testMonitor,
21.7,49.2,30.4,29.0,36,60,37.2,28.9,38.8,32.4,8.494,7.677,8.047,8.083,7.843,8.337,8.429,4.983,-4.351,-7.847,1.389,-2.06,8.299,5.275,-4.854,-7.87,18.1,,-8.382,34.1,36.3,28.6,29.9,46.2,36,23.7,5,5,prime,10,0,78,norm,36,-4.818,up,norm,29.2351181746,15.1,21.5,31.7,46.5,4,27.4,27.9,24.3,10,6,7.808,4.548,2.038,-2.047,-4.821,-8.339,45.9,6,107.2,-7.536,-7.896,60,-7.701,-8.112,-4.374,-4.511,-4.49,-5.111,4.92,8.386,34,-1.854,1.815,4.818,8.366,-7.949,-7.519,-1.788,1.678,19.1,21.7,29.6,28.3,20.8,22.7,18.6,30.2,31.1,37.1,0,norm,1.89,1.635,-1.763,-1.993,-4.771,-4.389,-2.094,-1.462,-1.445,-2.098,1.319,-1.983,10.8,9.2,-4.509,-8.178,1.498,-1.131,7.52,5.027,-4.605,-7.619,14,5.266,5.116,4.923,4.722,1.118,1.667,1.879,1.475,14,4.37,4.806,10,211.288008923,norm,0,50,50,50,3581.322,3581.332,3581.33788862,3581.338,3581.34,3581.342,down,0,2.97654250966,-10,001,002,1920_1080,Intel(R) Core(TM) i5-3570 CPU @ 3.40GHz,orientation_search,LEPPC096,Intel(R) HD Graphics 2500,2018_Sep_20_1226,testMonitor,
28.0,39.2,31.5,23.7,36,60,21.7,24.9,36.0,25.7,8.13,7.834,8.157,8.036,8.052,8.434,8.434,4.912,-4.447,-8.028,1.768,-1.134,7.947,4.394,-5.298,-8.21,17.3,26.0,-7.763,23.1,38.7,29.0,23.6,21.7,36,15.7,1,5,prime,10,0,88,norm,36,-4.738,up,norm,29.2351181746,17.7,30.2,25.0,35.5,4,35.8,25.5,18.6,10,6,7.719,4.692,1.278,-1.895,-4.86,-7.529,,6,117.2,-8.123,-8.319,60,-8.284,-7.665,-4.844,-5.121,-4.325,-4.398,4.775,7.516,10,-1.407,1.498,4.927,8.333,-8.495,-8.093,-1.311,1.428,30.2,37.2,41.4,49.2,32.5,34.6,20.0,14.2,25.8,41.7,1,norm,1.809,2.0,-1.205,-1.635,-4.956,-4.903,-1.19,-2.059,-1.486,-1.308,1.798,-1.342,31.2,25.4,-4.393,-7.786,2.02,-1.158,8.195,4.806,-5.238,-7.992,14,4.476,5.194,4.815,4.449,1.343,1.531,1.812,1.502,14,4.879,5.002,10,211.288008923,norm,0,51,51,51,3585.385,3585.394,3585.40845246,3585.409,3585.41,3585.413,up,1,1.09724929209,8.90275070791,001,002,1920_1080,Intel(R) Core(TM) i5-3570 CPU @ 3.40GHz,orientation_search,LEPPC096,Intel(R) HD Graphics 2500,2018_Sep_20_1226,testMonitor,
37.7,32.8,22.3,43.1,36,60,29.0,28.4,13.8,29.1,7.993,8.359,8.405,8.442,8.183,8.075,7.963,4.665,-4.39,-8.432,1.627,-1.741,7.594,4.401,-5.063,-7.931,30.4,38.1,-8.026,14.9,38.5,49.2,33.2,30.7,36,16.0,0,5,prime,10,0,115,norm,36,-5.043,down,norm,29.2351181746,14.3,25.3,13.5,42.4,1,17.0,10.4,14.8,10,6,8.377,4.584,1.796,-2.067,-5.032,-7.812,37.2,6,144.2,-7.969,-8.497,60,-8.144,-8.453,-4.861,-4.999,-4.334,-5.238,4.34,7.85,1,-1.231,1.653,5.063,8.404,-7.871,-8.138,-1.662,1.489,33.7,34.7,44.2,39.9,,27.7,9.2,32.4,26.6,38.7,2,norm,1.683,1.797,-1.642,-1.561,-4.319,-4.723,-1.609,-1.149,-1.638,-1.527,1.645,-1.878,36.9,20.0,-5.188,-7.73,1.136,-1.157,7.851,5.157,-4.758,-7.697,14,5.216,4.368,4.975,4.51,1.393,2.024,1.541,1.127,14,4.687,4.582,10,211.288008923,norm,0,52,52,52,3586.548,3586.562,3586.58052346,3586.581,3586.584,3586.589,down,1,1.03551600412,8.96448399588,001,002,1920_1080,Intel(R) Core(TM) i5-3570 CPU @ 3.40GHz,orientation_search,LEPPC096,Intel(R) HD Graphics 2500,2018_Sep_20_1226,testMonitor,
25.9,37.7,9.2,40.4,36,60,18.2,39.4,26.0,33.8,8.075,8.108,7.627,7.924,7.673,8.308,7.9,4.688,-4.911,-7.804,1.197,-1.592,7.827,4.47,-4.759,-8.279,,20.0,-7.679,23.9,33.5,33.9,16.0,10.4,36,38.9,5,5,prime,10,0,93,norm,36,-4.662,up,norm,29.2351181746,37.8,30.9,49.2,37.2,5,25.9,23.2,38.1,10,6,7.915,4.888,1.698,-1.428,-4.589,-7.589,27.3,6,122.2,-8.031,-7.86,60,-8.222,-7.992,-5.078,-4.308,-4.376,-5.195,4.493,7.666,35,-2.047,2.009,4.442,7.748,-8.452,-7.589,-1.628,1.69,40.2,46.7,32.6,31.5,18.5,35.5,36.1,24.7,42.6,39.8,3,norm,1.558,1.331,-1.437,-1.372,-5.006,-5.236,-1.276,-1.637,-2.09,-2.062,1.154,-1.49,15.1,17.9,-5.174,-7.691,1.369,-1.842,8.264,5.243,-4.855,-8.43,14,4.801,4.46,5.19,4.792,1.913,1.919,1.603,1.683,14,4.495,5.195,10,211.288008923,norm,0,53,53,53,3587.642,3587.651,3587.6703156,3587.671,3587.672,3587.675,up,1,2.36422181097,7.63577818903,001,002,1920_1080,Intel(R) Core(TM) i5-3570 CPU @ 3.40GHz,orientation_search,LEPPC096,Intel(R) HD Graphics 2500,2018_Sep_20_1226,testMonitor,
26.5,31.1,15.6,18.7,36,60,28.9,12.7,22.0,21.9,7.613,7.57,8.121,7.911,7.852,7.534,7.713,5.204,-5.269,-8.172,1.442,-1.21,8.468,5.257,-4.525,-8.228,17.3,49.2,-8.429,20.6,43.8,38.9,26.4,19.7,36,31.1,0,5,prime,10,0,72,norm,36,-4.563,down,norm,29.2351181746,27.1,32.8,30.5,38.3,1,32.2,35.1,29.7,10,6,7.503,4.909,2.037,-1.87,-5.297,-8.329,23.2,6,101.2,-8.421,-8.495,60,-8.042,-8.418,-4.431,-5.178,-4.923,-4.372,5.002,8.099,1,-1.387,1.526,4.522,7.884,-7.892,-7.65,-1.21,1.966,38.7,24.7,30.9,22.5,,21.2,23.5,9.2,32.3,34.0,4,norm,1.102,1.396,-1.508,-1.23,-4.538,-4.603,-1.882,-1.853,-1.633,-1.659,1.334,-1.106,17.1,18.8,-4.647,-8.056,1.337,-1.411,8.164,4.936,-5.081,-8.344,14,4.566,4.664,4.598,4.88,1.378,2.04,1.904,1.503,14,4.439,4.609,10,211.288008923,norm,0,54,54,54,3590.058,3590.067,3590.07347456,3590.074,3590.075,3590.078,down,1,1.14370304948,8.85629695052,001,002,1920_1080,Intel(R) Core(TM) i5-3570 CPU @ 3.40GHz,orientation_search,LEPPC096,Intel(R) HD Graphics 2500,2018_Sep_20_1226,testMonitor,
23.3,21.3,31.1,35.3,36,60,,29.5,15.5,25.1,7.823,7.834,7.811,8.483,8.5,8.446,7.753,4.305,-4.695,-8.218,1.128,-1.866,8.487,5.236,-5.172,-8.28,26.7,21.9,-7.902,18.7,11.1,22.6,22.2,36.9,36,20.3,4,5,prime,10,0,80,norm,36,-4.321,down,norm,29.2351181746,35.2,24.8,28.6,28.7,0,45.8,39.6,29.5,10,6,7.761,4.851,1.12,-1.884,-4.312,-8.047,40.8,6,109.2,-7.826,-8.176,60,-7.816,-7.86,-4.922,-4.31,-4.591,-4.547,4.57,7.539,24,-1.127,1.421,4.628,8.002,-7.694,-8.185,-2.043,1.568,47.0,49.2,23.6,28.3,33.1,28.8,21.3,24.5,31.4,23.7,5,norm,1.878,1.152,-1.678,-2.084,-4.772,-5.068,-2.064,-1.385,-1.967,-1.371,1.165,-1.621,18.9,28.9,-4.74,-8.108,1.166,-1.291,7.545,5.228,-5.016,-8.135,14,4.773,5.024,4.94,4.414,1.974,1.85,1.689,1.368,14,4.859,5.101,10,211.288008923,norm,0,55,55,55,3591.255,3591.265,3591.27375715,3591.274,3591.276,3591.278,down,1,1.85738994105,8.14261005895,001,002,1920_1080,Intel(R) Core(TM) i5-3570 CPU @ 3.40GHz,orientation_search,LEPPC096,Intel(R) HD Graphics 2500,2018_Sep_20_1226,testMonitor,
168.4,,170.6,162.6,36,20,171.9,163.2,166.1,173.5,8.473,7.922,7.842,7.655,8.003,7.803,8.285,4.58,-5.127,-8.325,1.272,-1.975,7.687,4.611,-4.591,-7.508,168.8,165.8,-7.931,172.9,170.2,169.9,168.0,172.5,36,174.6,3,5,probe,5,0,73,norm,36,-5.071,up,norm,171.885924407,169.2,163.5,181.9,173.2,5,169.6,173.2,170.3,10,6,8.47,4.378,1.602,-1.93,-4.506,-8.014,176.1,2,98.9,-8.356,-7.587,60,-7.852,-8.32,-4.577,-4.396,-5.141,-4.452,4.815,7.552,23,-1.498,1.834,4.562,7.579,-8.052,-8.28,-1.787,1.795,167.3,168.6,170.3,176.0,178.2,174.8,175.5,181.0,169.3,169.3,0,norm,1.825,1.508,-1.877,-2.045,-4.81,-5.158,-1.647,-1.767,-1.1,-1.83,1.533,-1.651,161.9,175.7,-4.843,-7.657,1.427,-2.063,7.566,4.335,-4.853,-7.542,15,4.86,5.279,4.708,5.248,1.47,1.153,2.026,1.807,15,4.798,5.138,60,29.2351181746,norm,0,56,56,56,3593.177,3593.187,3593.1953015,3593.195,3593.197,3593.2,up,1,1.92188694657,8.07811305343,001,002,1920_1080,Intel(R) Core(TM) i5-3570 CPU @ 3.40GHz,orientation_search,LEPPC096,Intel(R) HD Graphics 2500,2018_Sep_20_1226,testMonitor,
193.7,191.4,195.9,192.6,36,20,193.8,192.5,189.1,196.6,8.398,7.52,8.033,7.638,7.983,7.956,8.382,4.703,-4.982,-7.587,1.903,-1.96,8.155,5.022,-5.062,-8.121,189.3,191.4,-7.799,190.5,190.9,201.9,194.0,197.6,36,198.9,2,5,probe,5,0,93,norm,36,-4.489,down,norm,191.885924407,188.3,186.7,183.2,190.3,1,191.4,,182.4,10,6,7.942,4.839,1.587,-1.634,-5.085,-7.607,181.9,2,98.9,-8.104,-8.422,60,-7.868,-8.061,-4.479,-4.707,-4.954,-4.89,4.521,8.165,13,-1.627,2.065,5.095,7.687,-8.089,-8.095,-1.873,1.926,190.5,190.5,196.6,195.0,187.6,194.9,198.2,190.5,196.3,187.9,1,norm,2.028,1.542,-1.59,-1.751,-4.305,-5.072,-1.716,-1.615,-1.322,-2.065,1.181,-1.228,196.9,192.4,-4.9,-7.883,1.233,-1.984,7.825,5.106,-5.029,-7.662,15,5.257,4.73,4.666,4.71,1.323,1.69,1.919,1.718,15,4.729,4.847,60,29.2351181746,norm,0,57,57,57,3595.155,3595.164,3595.17350991,3595.174,3595.175,3595.178,down,1,1.31583653015,8.68416346985,001,002,1920_1080,Intel(R) Core(TM) i5-3570 CPU @ 3.40GHz,orientation_search,LEPPC096,Intel(R) HD Graphics 2500,2018_Sep_20_1226,testMonitor,
120.1,124.5,132.9,118.0,36,-40,,130.5,127.4,116.6,7.578,8.012,7.761,7.764,8.178,7.718,8.214,4.804,-4.986,-8.247,1.395,-1.243,8.066,5.02,-4.407,-8.17,127.4,126.2,-8.395,137.8,137.4,123.2,130.3,128.7,36,130.6,4,5,prime,10,0,102,norm,36,-4.755,down,norm,123.471891907,143.5,134.8,121.5,122.9,0,116.3,114.8,120.1,10,6,7.729,4.5,1.972,-1.255,-4.845,-8.073,124.1,6,225.5,-8.4,-8.006,-40,-7.969,-8.346,-4.466,-4.323,-4.996,-5.11,5.221,7.613,24,-1.513,1.12,4.456,8.131,-8.313,-8.043,-1.191,1.786,116.1,104.7,132.5,115.7,136.5,120.0,112.1,124.4,118.6,127.5,0,norm,1.261,1.617,-1.642,-1.812,-5.109,-5.215,-1.918,-1.397,-1.483,-1.419,1.247,-1.885,133.8,126.7,-4.898,-8.232,1.262,-1.607,7.996,4.792,-5.247,-7.574,16,4.932,4.329,4.893,4.425,2.058,1.718,1.854,1.153,16,5.145,4.829,20,29.2351181746,norm,0,58,58,58,3596.526,3596.536,3596.54624503,3596.546,3596.548,3596.551,down,1,1.46549684584,8.53450315416,001,002,1920_1080,Intel(R) Core(TM) i5-3570 CPU @ 3.40GHz,orientation_search,LEPPC096,Intel(R) HD Graphics 2500,2018_Sep_20_1226,testMonitor,
122.2,118.6,121.7,114.9,36,-40,124.0,126.5,139.5,129.0,8.291,8.035,7.772,8.081,7.691,8.097,8.483,4.441,-4.452,-8.349,1.328,-1.762,7.896,4.926,-4.764,-7.947,118.2,112.1,-8.403,,121.5,127.2,118.3,130.2,36,139.0,5,5,prime,10,0,79,norm,36,-4.778,down,norm,123.471891907,124.7,126.1,119.7,117.8,1,121.1,143.5,125.6,10,6,8.215,4.902,1.206,-1.859,-4.639,-8.035,121.2,6,202.5,-8.468,-7.54,-40,-8.46,-7.731,-4.571,-4.461,-5.16,-4.507,4.443,8.052,31,-1.897,1.129,4.507,7.616,-8.005,-7.713,-1.179,1.912,139.9,125.6,123.5,115.6,107.1,125.6,121.6,108.5,121.4,114.9,1,norm,1.443,1.361,-1.646,-1.295,-4.41,-4.81,-1.504,-1.357,-1.632,-1.19,1.321,-1.387,126.7,141.9,-5.24,-7.872,1.51,-1.409,7.637,5.271,-4.539,-8.096,16,4.78,4.997,4.534,5.118,1.24,1.871,1.413,2.041,16,5.019,4.945,20,29.2351181746,norm,0,59,59,59,3598.049,3598.062,3598.08141195,3598.082,3598.083,3598.086,down,1,1.30014739223,8.69985260777,001,002,1920_1080,Intel(R) Core(TM) i5-3570 CPU @ 3.40GHz,orientation_search,LEPPC096,Intel(R) HD Graphics 2500,2018_Sep_20_1226,testMonitor,
126.3,120.2,115.0,,36,-40,140.7,110.8,126.9,126.1,7.819,7.991,7.699,8.084,7.7,8.168,8.027,5.179,-4.508,-7.584,1.326,-2.077,7.818,5.125,-4.696,-7.829,117.9,116.9,-8.13,106.3,119.1,143.5,110.9,118.0,36,132.2,3,5,prime,10,0,76,norm,36,-5.29,up,norm,123.471891907,123.1,103.5,125.9,126.2,3,114.0,118.9,125.1,10,6,8.062,4.332,1.776,-1.395,-5.234,-7.838,117.2,6,199.5,-7.536,-7.703,-40,-8.111,-7.879,-4.497,-5.143,-4.402,-4.412,5.043,8.096,21,-1.119,1.509,4.928,7.909,-8.166,-7.569,-1.445,2.094,124.0,132.1,129.2,108.9,108.5,133.0,138.5,108.9,113.8,119.7,2,norm,1.296,2.016,-1.32,-1.998,-4.417,-4.406,-1.834,-2.099,-1.275,-1.994,1.489,-1.559,115.5,128.3,-4.409,-7.729,1.795,-1.714,7.921,4.977,-4.587,-8.289,16,5.261,5.104,4.859,4.944,1.906,1.704,1.213,1.825,16,4.801,4.604,20,29.2351181746,norm,0,60,60,60,3599.403,3599.412,3599.41864948,3599.419,3599.42,3599.423,up,1,0.807388567639,9.19261143236,001,002,1920_1080,Intel(R) Core(TM) i5-3570 CPU @ 3.40GHz,orientation_search,LEPPC096,Intel(R) HD Graphics 2500,2018_Sep_20_1226,testMonitor,
117.8,107.4,141.8,120.5,36,-40,135.3,120.5,130.9,117.7,8.082,8.443,7.505,8.232,8.356,7.726,8.112,4.911,-5.147,-7.789,1.95,-1.45,7.652,4.505,-5.18,-7.544,109.0,126.2,-7.623,128.5,127.8,128.3,121.2,129.1,36,134.4,1,5,prime,10,0,89,norm,36,-4.962,up,norm,123.471891907,131.9,121.2,127.8,114.0,5,,115.6,114.5,10,6,7.531,4.848,1.308,-1.539,-4.529,-8.462,103.6,6,212.5,-7.797,-8.489,-40,-7.646,-7.576,-4.636,-5.248,-5.266,-5.046,5.195,8.157,11,-1.855,1.773,4.717,8.307,-8.061,-7.509,-1.528,1.599,110.5,138.2,130.0,120.1,103.5,118.0,137.7,114.4,143.5,134.3,3,norm,1.511,1.651,-2.05,-1.922,-4.608,-5.018,-1.867,-1.706,-1.647,-1.315,1.363,-1.549,117.5,132.9,-4.357,-8.273,1.417,-1.685,7.64,5.177,-4.914,-8.167,16,4.733,4.621,4.646,4.587,1.204,2.067,1.428,1.839,16,4.861,4.532,20,29.2351181746,norm,0,61,61,61,3600.263,3600.278,3600.29542317,3600.296,3600.298,3600.301,up,1,0.855965823595,9.1440341764,001,002,1920_1080,Intel(R) Core(TM) i5-3570 CPU @ 3.40GHz,orientation_search,LEPPC096,Intel(R) HD Graphics 2500,2018_Sep_20_1226,testMonitor,
113.6,125.1,130.1,121.5,36,-40,112.7,120.1,118.5,134.8,8.246,7.666,7.972,8.169,8.383,7.973,8.315,5.208,-5.059,-7.562,1.772,-1.585,7.632,4.509,-4.651,-8.254,109.0,112.7,-7.765,120.3,139.7,126.0,133.9,109.7,36,127.6,1,5,prime,10,0,79,norm,36,-5.278,down,norm,123.471891907,126.8,116.3,108.3,125.6,0,123.3,122.7,129.2,10,6,8.266,4.658,1.444,-1.988,-4.592,-7.973,114.7,6,202.5,-7.912,-8.102,-40,-8.355,-8.306,-4.423,-4.454,-4.617,-5.293,4.844,8.162,6,-1.889,1.602,4.768,7.534,-7.544,-8.051,-1.317,1.131,128.9,123.1,136.7,143.5,117.4,103.5,133.8,,117.5,115.0,4,norm,1.841,1.575,-1.829,-2.037,-5.129,-4.877,-1.393,-1.842,-1.632,-1.201,1.709,-1.672,122.6,122.8,-4.536,-8.084,1.575,-1.878,8.32,4.814,-4.353,-7.898,16,5.045,5.072,5.296,4.811,1.906,1.51,1.451,1.235,16,4.772,4.721,20,29.2351181746,norm,0,62,62,62,3601.196,3601.218,3601.22819324,3601.228,3601.23,3601.233,down,1,1.28155357389,8.71844642611,001,002,1920_1080,Intel(R) Core(TM) i5-3570 CPU @ 3.40GHz,orientation_search,LEPPC096,Intel(R) HD Graphics 2500,2018_Sep_20_1226,testMonitor,
119.1,114.5,113.1,120.4,36,-40,139.2,105.3,128.4,120.4,8.45,7.891,7.622,7.563,7.586,8.489,7.942,4.929,-4.896,-8.336,1.564,-1.811,7.753,4.853,-5.064,-8.165,137.3,121.8,-8.127,126.7,129.8,119.2,113.1,139.1,36,142.5,1,5,prime,10,0,116,norm,36,-4.915,down,norm,123.471891907,143.5,140.3,130.9,113.9,2,126.8,132.1,112.4,10,6,7.557,4.735,1.455,-1.105,-5.211,-7.752,110.9,6,239.5,-8.375,-7.999,-40,-7.71,-7.961,-4.431,-4.991,-4.879,-4.386,5.121,7.774,8,-1.23,1.43,5.112,7.558,-7.705,-8.25,-1.8,1.743,134.5,,112.6,130.3,115.3,117.3,133.7,123.5,117.5,113.8,5,norm,1.291,1.981,-1.149,-1.375,-4.455,-4.678,-2.042,-1.233,-1.271,-1.621,1.533,-2.03,137.6,103.5,-5.256,-7.855,1.451,-1.8,8.144,4.331,-4.305,-7.869,16,4.471,4.577,4.394,4.464,1.217,1.762,1.441,1.725,16,5.249,4.367,20,29.2351181746,norm,0,63,63,63,3602.553,3602.574,3602.58535242,3602.586,3602.587,3602.59,down,1,1.07916740745,8.92083259255,001,002,1920_1080,Intel(R) Core(TM) i5-3570 CPU @ 3.40GHz,orientation_search,LEPPC096,Intel(R) HD Graphics 2500,2018_Sep_20_1226,testMonitor,
148.5,159.2,151.2,146.7,36,-30,160.4,160.0,154.4,151.7,7.607,8.463,7.911,8.236,7.543,7.834,7.654,4.304,-4.341,-8.072,1.475,-2.087,7.571,4.506,-4.517,-8.271,156.9,158.9,-8.26,150.6,152.9,149.6,154.7,159.2,36,165.1,1,5,probe,5,0,82,norm,36,-4.626,up,norm,156.656801194,158.1,156.4,148.1,150.9,4,157.6,155.8,163.3,10,6,8.14,4.709,1.933,-2.044,-5.288,-8.417,,2,74.7,-7.681,-8.418,-40,-8.338,-8.46,-4.445,-4.369,-4.801,-4.954,4.578,7.662,10,-1.574,1.493,5.234,8.497,-8.386,-7.754,-1.542,1.82,164.7,162.8,160.7,160.3,154.8,163.6,154.5,160.7,166.7,152.5,0,norm,1.743,1.731,-1.67,-1.822,-4.412,-5.192,-1.481,-1.417,-1.706,-1.653,1.916,-1.29,158.2,160.5,-4.814,-8.123,1.153,-2.013,7.556,4.675,-4.535,-7.513,17,4.69,4.805,4.763,5.229,1.403,1.616,1.665,1.206,17,4.833,4.943,-40,123.471891907,norm,0,64,64,64,3603.707,3603.717,3603.72298471,3603.723,3603.725,3603.727,up,1,0.892315229212,9.10768477079,001,002,1920_1080,Intel(R) Core(TM) i5-3570 CPU @ 3.40GHz,orientation_search,LEPPC096,Intel(R) HD Graphics 2500,2018_Sep_20_1226,testMonitor,
165.6,163.5,155.7,161.2,36,-30,153.1,155.9,158.0,151.4,8.291,8.417,8.017,8.079,7.514,7.577,8.046,5.113,-5.175,-7.501,1.726,-2.068,8.26,5.149,-5.159,-8.038,167.7,148.7,-8.105,162.1,168.7,151.3,155.3,150.7,36,160.9,1,5,probe,5,0,84,norm,36,-4.764,down,norm,158.656801194,165.5,149.3,155.1,153.2,2,160.7,155.1,158.7,10,6,7.528,5.29,1.793,-1.918,-4.894,-7.959,161.9,2,74.7,-8.283,-8.014,-40,-7.733,-7.729,-4.431,-4.751,-5.144,-4.536,5.198,7.829,8,-2.055,1.683,5.252,7.876,-8.194,-7.576,-1.897,1.151,156.3,,158.1,153.8,164.3,154.9,154.1,165.3,158.7,161.3,1,norm,2.059,1.229,-1.404,-1.505,-4.511,-4.605,-1.642,-1.874,-1.151,-1.64,1.427,-1.432,151.8,157.8,-5.032,-8.412,1.252,-1.979,7.882,4.999,-5.161,-8.431,17,4.983,4.393,5.229,4.312,1.343,1.376,1.276,1.658,17,4.716,5.071,-40,123.471891907,norm,0,65,65,65,3604.659,3604.677,3604.69107669,3604.691,3604.693,3604.696,down,1,0.742170447964,9.25782955204,001,002,1920_1080,Intel(R) Core(TM) i5-3570 CPU @ 3.40GHz,orientation_search,LEPPC096,Intel(R) HD Graphics 2500,2018_Sep_20_1226,testMonitor,
323.7,324.9,315.7,314.6,36,-20,308.6,311.0,314.1,298.3,8.102,8.204,7.851,8.297,7.536,8.353,8.153,4.913,-5.0,-8.358,1.759,-1.116,8.324,4.713,-4.575,-8.27,325.0,,-7.925,322.4,315.4,331.4,305.1,310.4,36,317.3,5,5,prime,10,0,115,norm,36,-4.745,up,norm,314.674131532,300.6,294.7,329.9,301.6,4,330.8,331.9,313.6,10,5,7.573,4.538,1.683,-1.521,-4.521,-7.503,297.6,5,429.7,-8.213,-8.423,-20,-7.993,-8.28,-5.29,-4.482,-4.337,-4.305,5.293,7.964,34,-2.065,2.036,4.701,7.874,-8.021,-8.334,-1.276,1.858,296.3,316.6,318.2,304.4,307.0,312.6,305.5,328.2,334.7,308.5,0,norm,1.908,1.772,-1.601,-1.676,-4.789,-4.749,-1.335,-2.079,-1.83,-1.119,1.713,-1.971,305.2,304.1,-4.316,-8.297,1.923,-1.12,7.717,4.816,-4.457,-7.952,18,4.399,4.961,4.523,4.637,1.985,1.783,1.695,1.733,18,5.053,4.309,-30,123.471891907,norm,0,66,66,66,3605.47,3795.432,3795.43917573,3795.439,3795.441,3795.444,up,1,1.09413543122,8.90586456878,001,002,1920_1080,Intel(R) Core(TM) i5-3570 CPU @ 3.40GHz,orientation_search,LEPPC096,Intel(R) HD Graphics 2500,2018_Sep_20_1226,testMonitor,
307.5,302.8,332.9,326.4,36,-20,294.7,313.0,299.7,304.2,8.23,8.214,7.653,7.558,7.508,7.581,7.724,4.79,-5.051,-7.99,1.218,-1.807,7.523,4.555,-4.666,-8.448,326.1,300.9,-8.093,326.9,326.7,309.6,312.2,308.5,36,324.0,0,5,prime,10,0,117,norm,36,-4.844,up,norm,314.674131532,306.3,325.3,313.7,297.2,5,329.8,303.6,331.1,10,5,7.595,4.811,1.529,-1.822,-5.276,-8.291,312.1,5,431.7,-8.048,-8.264,-20,-8.029,-7.865,-4.79,-4.639,-5.062,-4.997,4.794,7.517,5,-1.805,1.234,4.645,8.292,-8.307,-7.506,-1.186,1.498,334.7,306.6,319.9,297.3,326.6,321.2,320.6,323.4,,308.1,1,norm,1.811,1.39,-1.871,-1.445,-4.727,-4.966,-1.66,-1.75,-1.446,-1.75,1.581,-1.957,310.0,316.8,-4.52,-7.863,1.358,-1.126,8.396,5.259,-4.564,-8.21,18,4.751,4.605,4.959,4.682,1.646,1.537,1.432,1.177,18,5.284,4.616,-30,123.471891907,norm,0,67,67,67,3796.578,3796.599,3796.61029983,3796.61,3796.612,3796.615,up,1,0.638683473146,9.36131652685,001,002,1920_1080,Intel(R) Core(TM) i5-3570 CPU @ 3.40GHz,orientation_search,LEPPC096,Intel(R) HD Graphics 2500,2018_Sep_20_1226,testMonitor,
325.3,309.0,313.9,294.7,36,-20,319.0,302.8,313.4,324.6,8.081,7.707,8.326,7.787,8.476,7.802,8.162,5.039,-5.188,-8.137,1.138,-1.455,8.185,4.367,-5.3,-7.82,307.6,319.3,-8.175,329.5,327.9,320.5,,299.5,36,316.2,5,5,prime,10,0,82,norm,36,-4.505,down,norm,314.674131532,309.0,315.0,312.7,313.9,2,308.4,305.9,313.4,10,5,8.485,4.413,1.124,-1.697,-4.509,-8.325,321.6,5,396.7,-8.338,-8.5,-20,-7.875,-7.896,-5.177,-4.421,-4.698,-4.79,4.88,8.143,32,-1.847,1.139,4.992,8.174,-8.263,-8.38,-1.792,2.044,310.2,334.7,303.8,326.0,314.8,333.7,312.7,311.8,331.0,311.2,2,norm,1.327,1.242,-2.045,-1.672,-4.788,-4.431,-1.82,-2.06,-1.946,-2.054,1.36,-1.845,326.6,306.2,-5.056,-7.551,1.744,-1.794,8.264,5.171,-4.372,-7.676,18,4.865,5.041,5.027,4.391,1.25,1.617,1.599,1.822,18,4.758,4.356,-30,123.471891907,norm,0,68,68,68,3797.295,3797.304,3797.31121011,3797.311,3797.313,3797.316,down,1,1.01143942415,8.98856057585,001,002,1920_1080,Intel(R) Core(TM) i5-3570 CPU @ 3.40GHz,orientation_search,LEPPC096,Intel(R) HD Graphics 2500,2018_Sep_20_1226,testMonitor,
303.2,305.4,309.6,318.0,36,-20,296.5,315.0,306.4,306.1,8.322,7.87,8.054,7.604,8.049,8.347,7.891,5.055,-4.811,-7.688,1.767,-1.782,8.11,4.97,-4.559,-8.478,309.8,311.6,-8.248,305.8,316.4,320.7,316.0,305.3,36,317.0,2,5,prime,10,0,77,norm,36,-5.075,up,norm,314.674131532,297.3,296.1,,316.1,3,294.7,305.3,295.9,10,5,8.407,4.514,2.068,-1.839,-5.296,-8.4,301.3,5,391.7,-7.54,-8.023,-20,-8.274,-7.537,-4.625,-5.273,-4.583,-4.913,5.013,7.539,15,-1.681,1.35,4.593,7.556,-7.998,-7.794,-2.006,1.636,305.5,320.6,314.2,334.7,319.6,319.5,307.3,312.0,329.0,303.3,3,norm,2.059,1.633,-1.893,-1.794,-4.393,-5.286,-1.601,-1.193,-1.849,-2.096,1.849,-1.992,319.9,311.5,-4.447,-8.309,1.664,-1.308,7.905,4.976,-4.412,-8.084,18,4.848,5.275,4.421,4.793,1.12,2.006,1.245,1.475,18,4.856,5.264,-30,123.471891907,norm,0,69,69,69,3798.36,3798.369,3798.38634755,3798.387,3798.388,3798.391,up,1,1.28023510314,8.71976489686,001,002,1920_1080,Intel(R) Core(TM) i5-3570 CPU @ 3.40GHz,orientation_search,LEPPC096,Intel(R) HD Graphics 2500,2018_Sep_20_1226,testMonitor,
318.5,304.5,324.2,309.4,36,-20,324.2,298.1,318.7,311.9,8.437,7.931,7.994,8.267,8.107,8.15,8.032,5.125,-4.892,-8.178,1.129,-1.471,7.553,4.709,-4.839,-8.051,317.6,302.6,-8.189,321.0,318.5,322.7,311.7,310.7,36,322.5,1,5,prime,10,0,66,norm,36,-5.082,up,norm,314.674131532,310.3,315.2,313.2,319.8,3,324.9,302.2,306.7,10,5,7.595,4.678,1.678,-1.408,-4.635,-7.922,334.7,5,380.7,-8.199,-8.265,-20,-7.771,-7.54,-4.984,-4.57,-5.225,-4.961,4.776,7.899,9,-1.432,2.021,4.893,7.55,-8.004,-8.0,-1.773,1.319,,303.0,303.2,304.1,326.2,303.8,311.0,294.7,307.8,317.6,4,norm,1.328,2.018,-2.057,-1.506,-5.007,-5.262,-1.289,-1.238,-2.027,-1.484,1.79,-1.671,299.6,296.0,-4.61,-7.844,1.317,-1.274,8.305,4.721,-4.748,-8.331,18,5.056,4.731,4.393,5.285,1.142,1.644,2.04,1.701,18,4.872,4.316,-30,123.471891907,norm,0,70,70,70,3799.703,3799.712,3799.72800534,3799.728,3799.73,3799.732,up,1,1.41750064671,8.58249935329,001,002,1920_1080,Intel(R) Core(TM) i5-3570 CPU @ 3.40GHz,orientation_search,LEPPC096,Intel(R) HD Graphics 2500,2018_Sep_20_1226,testMonitor,
382.2,379.5,382.6,386.9,36,0,382.2,388.9,375.0,379.6,8.087,8.138,7.878,7.914,7.611,7.721,7.545,4.344,-4.325,-8.149,2.048,-1.621,8.085,4.908,-4.88,-7.834,378.4,388.7,-7.512,386.0,385.5,392.8,388.7,385.0,36,375.0,3,5,probe,5,0,90,norm,36,-4.969,down,norm,384.980493896,387.1,393.9,388.3,394.9,1,393.4,381.7,383.3,10,5,7.907,4.346,1.842,-1.254,-4.789,-8.34,377.8,2,295.0,-8.208,-8.318,-20,-7.52,-7.731,-4.307,-4.531,-4.739,-4.508,4.673,7.702,19,-1.129,1.288,4.837,7.733,-7.546,-7.912,-1.559,1.298,378.8,384.6,390.1,376.9,382.5,380.5,386.2,395.0,383.3,388.9,0,norm,1.883,1.646,-1.41,-1.766,-4.525,-4.709,-1.222,-1.976,-1.98,-1.76,1.976,-1.623,,390.1,-4.378,-8.358,1.421,-1.4,8.183,4.321,-4.921,-7.721,19,4.6,5.277,5.082,4.369,1.549,1.554,1.164,1.63,19,4.951,4.935,-20,314.674131532,norm,0,71,71,71,3801.182,3801.192,3801.20992119,3801.21,3801.212,3801.214,down,1,0.825927751544,9.17407224846,001,002,1920_1080,Intel(R) Core(TM) i5-3570 CPU @ 3.40GHz,orientation_search,LEPPC096,Intel(R) HD Graphics 2500,2018_Sep_20_1226,testMonitor,
378.1,371.6,374.5,376.0,36,0,370.5,368.0,368.4,366.8,8.34,7.837,7.91,8.269,7.711,7.597,8.065,4.777,-5.234,-7.967,1.718,-1.136,8.134,5.1,-5.043,-8.218,370.6,374.4,-7.92,363.0,365.6,372.3,369.6,374.7,36,369.3,0,5,probe,5,0,76,norm,36,-5.075,up,norm,370.980493896,381.0,373.5,373.2,372.9,3,361.0,369.4,371.2,10,5,7.696,4.479,1.443,-2.066,-5.06,-8.342,375.3,2,295.0,-7.922,-7.618,-20,-8.222,-7.645,-5.095,-5.078,-4.405,-4.73,4.396,8.165,3,-1.685,1.172,5.152,8.263,-7.806,-8.406,-1.779,1.268,365.6,368.2,,363.2,368.2,372.6,375.1,362.5,371.7,373.0,1,norm,1.717,1.71,-1.62,-1.584,-4.432,-4.801,-1.131,-1.852,-1.953,-1.362,1.699,-1.268,362.8,374.9,-4.331,-7.971,1.375,-1.683,7.819,5.05,-4.794,-8.157,19,4.977,4.758,4.53,4.516,1.261,1.332,1.475,1.375,19,4.84,4.423,-20,314.674131532,norm,0,72,72,72,3802.073,3802.082,3802.09911833,3802.099,3802.101,3802.104,up,1,0.656277873748,9.34372212625,001,002,1920_1080,Intel(R) Core(TM) i5-3570 CPU @ 3.40GHz,orientation_search,LEPPC096,Intel(R) HD Graphics 2500,2018_Sep_20_1226,testMonitor,
76.0,78.8,111.0,85.6,36,-10,97.0,79.7,80.1,88.7,7.875,7.54,8.436,8.284,8.397,8.46,8.273,4.909,-5.199,-8.492,1.159,-1.304,7.725,5.148,-4.771,-7.751,95.6,98.0,-7.787,85.5,85.3,91.9,87.3,91.2,36,94.6,2,5,prime,10,0,89,norm,36,-5.134,down,norm,91.0040667022,94.8,103.8,71.0,88.1,1,89.8,,89.7,10,5,7.699,4.894,1.529,-1.398,-5.271,-8.2,89.0,5,180.0,-8.09,-8.031,-10,-7.857,-7.97,-4.394,-4.673,-4.763,-5.188,4.382,7.804,13,-1.211,1.124,5.015,8.301,-8.306,-7.937,-1.372,1.214,77.3,95.1,96.5,95.0,106.4,82.0,77.2,101.5,78.9,86.7,0,norm,1.783,1.505,-2.096,-1.773,-4.67,-4.917,-1.815,-1.249,-1.941,-1.315,1.532,-1.502,90.1,82.4,-4.833,-7.765,1.261,-2.059,7.599,5.287,-4.6,-8.35,20,5.249,5.291,4.665,5.124,1.221,1.409,1.96,1.579,20,4.354,4.666,0,314.674131532,norm,0,73,73,73,3802.802,3802.818,3802.83430584,3802.834,3802.836,3802.839,down,1,1.01099148216,8.98900851784,001,002,1920_1080,Intel(R) Core(TM) i5-3570 CPU @ 3.40GHz,orientation_search,LEPPC096,Intel(R) HD Graphics 2500,2018_Sep_20_1226,testMonitor,
,82.3,98.2,87.6,36,-10,87.1,87.8,95.5,91.5,7.855,8.325,7.805,8.031,8.146,8.306,7.843,5.276,-4.372,-7.944,1.542,-2.068,8.086,4.9,-5.298,-8.237,101.8,86.9,-8.028,71.8,94.0,100.2,94.3,95.2,36,95.7,3,5,prime,10,0,105,norm,36,-4.537,up,norm,91.0040667022,108.6,85.2,86.9,111.0,4,89.2,91.6,89.3,10,5,8.467,4.704,1.324,-1.619,-4.914,-7.587,85.4,5,196.0,-8.46,-8.365,-10,-8.473,-7.793,-4.915,-4.758,-4.482,-5.247,4.829,8.327,22,-1.378,2.1,4.812,7.564,-7.985,-7.515,-1.8,1.593,100.0,81.3,74.5,83.5,80.9,78.7,84.3,101.5,98.0,75.3,1,norm,1.961,1.897,-1.819,-1.234,-4.503,-4.616,-1.63,-1.31,-1.853,-1.215,1.824,-1.975,75.0,71.0,-5.1,-8.223,2.016,-2.05,7.933,5.11,-4.352,-7.566,20,4.537,5.162,4.377,5.029,2.009,1.122,2.06,1.345,20,4.448,4.545,0,314.674131532,norm,0,74,74,74,3803.882,3803.892,3803.90863402,3803.909,3803.911,3803.913,up,1,0.719396038974,9.28060396103,001,002,1920_1080,Intel(R) Core(TM) i5-3570 CPU @ 3.40GHz,orientation_search,LEPPC096,Intel(R) HD Graphics 2500,2018_Sep_20_1226,testMonitor,
101.6,90.1,89.3,83.5,36,-10,97.4,105.9,78.5,89.1,7.653,7.78,7.765,8.232,7.85,8.004,8.082,4.32,-4.573,-8.296,2.023,-1.703,7.946,5.045,-5.286,-8.028,87.5,104.3,-8.066,102.5,91.9,84.7,75.4,,36,98.6,4,5,prime,10,0,112,norm,36,-5.181,down,norm,91.0040667022,93.4,71.0,104.0,92.2,2,93.4,88.7,83.5,10,5,8.223,5.151,1.506,-2.025,-4.777,-8.448,106.8,5,203.0,-7.861,-7.988,-10,-8.186,-7.929,-4.838,-4.906,-5.058,-4.969,4.477,8.182,26,-1.254,1.422,4.92,8.05,-7.661,-7.897,-1.609,1.949,90.3,88.1,73.9,111.0,96.1,92.2,96.1,93.8,98.3,99.4,2,norm,1.433,1.377,-1.994,-1.362,-4.562,-5.238,-1.979,-1.81,-1.59,-1.397,1.92,-1.538,92.3,81.6,-5.191,-8.343,1.817,-1.212,7.905,4.814,-4.791,-7.581,20,5.289,4.869,4.971,5.191,1.403,1.723,1.412,1.966,20,5.28,4.946,0,314.674131532,norm,0,75,75,75,3804.665,3804.675,3804.68858222,3804.689,3804.69,3804.693,down,1,0.857125220613,9.14287477939,001,002,1920_1080,Intel(R) Core(TM) i5-3570 CPU @ 3.40GHz,orientation_search,LEPPC096,Intel(R) HD Graphics 2500,2018_Sep_20_1226,testMonitor,
101.8,92.6,101.1,94.5,36,-10,83.7,93.0,94.1,111.0,8.176,8.492,8.25,8.002,7.755,7.618,7.523,4.895,-4.929,-8.136,1.568,-1.129,8.155,4.764,-4.583,-8.318,89.8,90.6,-7.697,77.2,107.8,,87.4,106.2,36,92.8,5,5,prime,10,0,101,norm,36,-4.885,up,norm,91.0040667022,99.9,71.0,87.8,82.7,3,97.5,97.0,89.7,10,5,8.493,4.91,1.412,-1.531,-4.957,-7.62,101.5,5,192.0,-7.836,-8.281,-10,-8.034,-8.328,-5.138,-4.524,-4.568,-4.415,4.863,8.445,33,-1.193,1.2,4.426,8.465,-8.498,-7.705,-1.339,1.493,71.1,97.8,96.8,80.3,87.2,82.7,97.5,81.7,85.1,83.2,3,norm,1.555,1.379,-1.376,-1.667,-4.405,-4.948,-1.829,-1.277,-1.478,-1.361,1.706,-2.038,85.4,71.3,-5.017,-8.464,1.235,-1.259,8.273,5.222,-4.913,-7.89,20,4.729,4.724,4.905,4.446,1.242,1.478,2.033,1.704,20,5.204,4.874,0,314.674131532,norm,0,76,76,76,3805.582,3805.592,3805.60885881,3805.609,3805.611,3805.613,up,1,2.87220462618,7.12779537382,001,002,1920_1080,Intel(R) Core(TM) i5-3570 CPU @ 3.40GHz,orientation_search,LEPPC096,Intel(R) HD Graphics 2500,2018_Sep_20_1226,testMonitor,
85.1,81.6,96.9,88.9,36,-10,83.5,96.2,85.9,106.6,8.158,7.891,7.864,8.386,8.081,7.734,8.138,4.553,-5.203,-7.981,1.259,-1.218,7.738,5.102,-4.873,-7.739,98.6,87.6,-8.035,92.9,91.5,93.7,100.2,95.1,36,90.2,3,5,prime,10,0,84,norm,36,-5.17,down,norm,91.0040667022,86.8,103.7,96.0,80.7,1,86.7,103.7,71.0,10,5,8.073,4.893,1.783,-2.083,-4.397,-7.945,85.2,5,175.0,-7.712,-8.028,-10,-7.832,-7.89,-4.817,-4.468,-4.416,-4.347,4.697,8.201,19,-1.576,1.431,4.828,8.434,-7.727,-7.899,-2.048,1.238,94.9,86.5,111.0,96.6,97.7,75.8,96.9,91.9,99.4,106.5,4,norm,1.6,1.199,-1.147,-1.685,-4.605,-5.065,-1.489,-1.282,-1.694,-1.695,1.703,-1.653,,101.1,-4.854,-8.082,1.799,-1.457,8.495,5.075,-5.057,-8.0,20,4.943,5.174,4.853,4.459,1.208,1.938,2.026,1.474,20,4.655,4.565,0,314.674131532,norm,0,77,77,77,3808.517,3808.529,3808.54905644,3808.549,3808.551,3808.553,up,0,0.900341359564,-10,001,002,1920_1080,Intel(R) Core(TM) i5-3570 CPU @ 3.40GHz,orientation_search,LEPPC096,Intel(R) HD Graphics 2500,2018_Sep_20_1226,testMonitor,
185.5,184.3,179.1,175.4,36,40,191.1,182.3,177.7,182.8,8.282,7.945,7.506,8.199,7.624,8.133,7.564,4.945,-5.144,-7.659,1.636,-1.774,7.528,4.338,-4.532,-7.598,182.8,176.5,-8.16,182.6,,182.9,179.1,180.0,36,183.0,5,5,probe,5,0,101,norm,36,-5.051,down,norm,181.092574943,183.5,184.4,171.1,183.0,0,179.4,178.8,186.8,10,5,7.841,5.008,1.834,-1.661,-5.257,-8.0,185.9,2,80.1,-8.492,-8.158,-10,-8.229,-8.357,-4.667,-4.394,-4.367,-4.547,4.759,8.341,30,-1.211,1.824,4.793,7.574,-8.385,-7.817,-1.594,1.224,175.0,186.0,180.1,183.8,174.0,183.6,173.6,185.0,181.1,179.6,0,norm,1.606,2.078,-1.235,-1.969,-4.681,-5.151,-1.186,-2.028,-1.541,-2.016,1.478,-1.704,176.0,184.7,-4.457,-8.354,1.835,-1.321,7.607,4.872,-4.891,-7.871,21,5.237,5.212,4.934,4.647,1.513,1.357,1.724,1.338,21,4.858,5.155,-10,91.0040667022,norm,0,78,78,78,3810.527,3810.537,3810.55405987,3810.554,3810.556,3810.558,down,1,1.19336212759,8.80663787241,001,002,1920_1080,Intel(R) Core(TM) i5-3570 CPU @ 3.40GHz,orientation_search,LEPPC096,Intel(R) HD Graphics 2500,2018_Sep_20_1226,testMonitor,
147.4,146.5,139.1,153.8,36,40,153.5,146.3,149.2,153.6,7.779,8.406,8.032,7.838,8.041,7.534,7.733,4.738,-5.029,-8.159,1.538,-1.958,7.754,4.921,-4.546,-8.05,148.0,148.4,-7.801,142.4,153.2,152.7,152.9,147.3,36,149.5,0,5,probe,5,0,69,norm,36,-4.512,up,norm,149.092574943,141.6,147.2,159.1,152.5,5,156.7,142.2,151.9,10,5,8.182,5.237,1.902,-2.042,-5.281,-8.474,144.3,2,80.1,-8.033,-8.043,-10,-7.682,-8.127,-4.56,-5.197,-4.584,-4.42,5.165,7.783,5,-1.211,1.7,4.324,8.427,-7.741,-7.637,-1.301,1.85,147.1,145.8,145.6,157.5,154.4,151.0,145.3,145.4,,149.0,1,norm,1.389,1.252,-1.82,-1.514,-4.642,-4.56,-2.008,-1.173,-1.324,-1.447,1.314,-1.91,143.8,148.4,-4.6,-7.561,1.56,-1.2,7.757,4.854,-4.993,-7.581,21,4.928,5.23,5.229,5.16,1.219,1.225,1.797,1.67,21,4.488,5.216,-10,91.0040667022,norm,0,79,79,79,3811.783,3811.792,3811.80240204,3811.803,3811.804,3811.807,up,1,1.93826852311,8.06173147689,001,002,1920_1080,Intel(R) Core(TM) i5-3570 CPU @ 3.40GHz,orientation_search,LEPPC096,Intel(R) HD Graphics 2500,2018_Sep_20_1226,testMonitor,
36.8,76.8,47.6,41.6,36,30,65.9,62.5,46.8,48.7,8.146,7.554,8.136,7.505,7.531,7.916,8.453,5.172,-4.336,-8.265,1.1,-1.457,8.393,5.056,-5.13,-8.051,49.3,52.6,-7.974,63.9,69.8,52.9,49.2,61.6,36,61.6,1,5,prime,10,0,111,norm,36,-5.224,down,norm,56.8218171903,54.8,69.5,55.7,62.3,0,71.1,65.2,71.0,10,5,7.972,4.341,1.3,-1.576,-5.03,-8.094,65.9,5,167.8,-8.188,-7.607,30,-8.493,-7.898,-4.434,-5.042,-4.93,-4.734,4.51,8.304,6,-1.65,1.192,4.839,7.945,-8.247,-7.607,-1.94,1.901,73.8,65.5,74.5,66.3,40.6,52.7,66.7,,68.2,45.2,0,norm,1.307,1.618,-1.947,-1.881,-4.467,-4.341,-1.631,-2.03,-1.696,-1.89,1.579,-1.101,61.9,41.5,-4.654,-7.867,1.758,-2.035,8.329,5.205,-5.02,-8.452,22,4.57,4.508,4.932,5.02,1.594,1.721,2.089,1.26,22,5.165,4.914,40,91.0040667022,norm,0,80,80,80,3813.783,3813.793,3813.80153333,3813.802,3813.804,3813.806,down,1,0.993358746899,9.0066412531,001,002,1920_1080,Intel(R) Core(TM) i5-3570 CPU @ 3.40GHz,orientation_search,LEPPC096,Intel(R) HD Graphics 2500,2018_Sep_20_1226,testMonitor,
47.9,59.7,72.3,62.4,36,30,50.6,45.4,64.2,67.0,8.28,7.523,7.904,7.978,7.831,8.45,8.055,5.237,-4.584,-7.945,1.693,-1.517,7.71,4.384,-4.978,-7.797,64.5,60.8,-8.3,,54.9,58.5,47.6,59.5,36,61.0,5,5,prime,10,0,66,norm,36,-5.216,down,norm,56.8218171903,56.0,59.6,54.1,58.2,1,58.3,44.6,69.3,10,5,8.073,4.386,1.267,-1.876,-5.249,-8.168,46.4,5,122.8,-7.878,-8.167,30,-8.178,-8.366,-4.862,-4.561,-4.944,-5.143,5.223,8.432,31,-1.334,1.62,5.133,7.528,-8.265,-8.258,-1.704,1.271,66.0,58.2,57.6,76.8,53.1,54.7,53.7,61.8,51.0,36.8,1,norm,1.488,1.889,-1.957,-1.611,-4.827,-4.893,-2.01,-1.575,-1.513,-1.52,1.857,-1.768,50.5,67.1,-4.314,-8.27,1.986,-1.117,8.167,4.657,-4.31,-8.324,22,4.917,4.862,4.829,5.214,1.8,1.242,1.781,1.668,22,4.867,4.85,40,91.0040667022,norm,0,81,81,81,3814.832,3814.841,3814.85926653,3814.859,3814.861,3814.864,down,1,0.942421343772,9.05757865623,001,002,1920_1080,Intel(R) Core(TM) i5-3570 CPU @ 3.40GHz,orientation_search,LEPPC096,Intel(R) HD Graphics 2500,2018_Sep_20_1226,testMonitor,
71.7,,65.8,65.9,36,30,62.3,54.6,55.0,40.5,8.221,8.351,7.975,7.632,7.566,8.375,7.912,4.35,-5.018,-7.787,1.941,-1.97,8.419,5.197,-4.901,-8.272,59.6,57.6,-7.916,63.9,41.0,60.4,64.5,67.9,36,51.1,3,5,prime,10,0,83,norm,36,-4.833,up,norm,56.8218171903,59.8,63.1,76.8,70.7,5,53.4,70.2,58.4,10,5,8.35,5.163,1.166,-1.19,-5.225,-7.813,54.5,5,139.8,-8.355,-7.831,30,-7.81,-7.516,-4.657,-4.303,-4.683,-5.087,5.116,8.334,23,-1.319,1.296,4.766,7.951,-8.065,-8.189,-1.838,1.297,41.3,50.1,61.6,50.6,36.8,60.7,60.6,55.4,67.8,65.0,2,norm,1.21,1.436,-1.641,-2.011,-4.705,-4.861,-1.388,-1.412,-1.845,-1.338,1.596,-1.972,37.2,64.3,-4.482,-8.051,1.992,-1.355,7.836,5.057,-4.808,-7.576,22,5.044,5.008,4.428,4.707,1.458,1.562,1.557,1.403,22,4.475,4.409,40,91.0040667022,norm,0,82,82,82,3815.822,3815.831,3815.84203585,3815.842,3815.844,3815.846,up,1,1.04429162231,8.95570837769,001,002,1920_1080,Intel(R) Core(TM) i5-3570 CPU @ 3.40GHz,orientation_search,LEPPC096,Intel(R) HD Graphics 2500,2018_Sep_20_1226,testMonitor,
62.5,70.3,54.6,52.0,36,30,,64.2,54.1,58.9,8.329,8.342,8.298,8.092,7.696,7.51,7.761,4.649,-5.147,-7.52,1.895,-1.576,7.657,5.137,-5.246,-8.144,71.9,57.1,-7.582,60.1,76.8,57.0,63.6,60.8,36,64.3,4,5,prime,10,0,76,norm,36,-5.086,down,norm,56.8218171903,41.3,52.6,75.6,54.7,0,42.7,57.2,60.9,10,5,8.205,4.409,1.939,-1.686,-5.27,-8.197,49.4,5,132.8,-8.392,-8.011,30,-7.634,-8.5,-4.687,-4.341,-4.627,-5.164,4.845,8.367,24,-1.839,1.862,4.408,8.376,-7.767,-7.955,-1.976,1.393,47.2,63.3,36.8,48.2,46.4,62.1,65.9,62.1,52.6,64.5,3,norm,1.509,1.806,-1.858,-1.258,-4.898,-4.998,-1.356,-1.185,-1.271,-1.293,1.141,-1.201,37.4,52.8,-4.935,-7.576,1.738,-1.838,8.202,4.493,-5.144,-7.542,22,4.338,4.902,4.385,4.834,1.165,1.15,1.838,1.878,22,4.852,5.262,40,91.0040667022,norm,0,83,83,83,3816.923,3816.933,3816.9495525,3816.95,3816.951,3816.954,down,1,1.0994274251,8.9005725749,001,002,1920_1080,Intel(R) Core(TM) i5-3570 CPU @ 3.40GHz,orientation_search,LEPPC096,Intel(R) HD Graphics 2500,2018_Sep_20_1226,testMonitor,
57.2,50.9,39.1,56.9,36,30,36.8,59.6,52.4,66.3,8.361,8.012,7.506,8.177,8.199,8.416,8.213,4.4,-4.642,-8.434,1.505,-1.769,7.64,4.731,-4.333,-7.764,69.7,58.3,-7.726,55.1,53.0,66.6,76.8,60.6,36,50.0,3,5,prime,10,0,66,norm,36,-4.873,down,norm,56.8218171903,51.6,65.7,47.6,58.7,0,54.7,62.0,58.9,10,5,7.879,4.845,1.223,-1.932,-4.385,-7.972,50.2,5,122.8,-8.407,-8.095,30,-7.54,-8.136,-5.173,-4.99,-4.656,-4.469,5.004,8.095,18,-1.649,1.481,4.94,7.98,-8.231,-7.833,-1.541,2.044,44.6,49.2,65.5,37.8,47.4,43.0,66.6,58.2,55.1,65.5,4,norm,1.265,1.892,-1.173,-1.204,-5.174,-5.085,-1.783,-1.132,-1.581,-1.367,2.026,-1.667,48.9,,-4.533,-7.978,1.925,-1.91,7.93,4.503,-5.047,-8.088,22,4.319,4.459,4.462,4.387,1.688,1.31,1.149,1.31,22,5.06,5.033,40,91.0040667022,norm,0,84,84,84,3818.085,3818.095,3818.10399951,3818.104,3818.106,3818.108,down,1,0.807326387014,9.19267361299,001,002,1920_1080,Intel(R) Core(TM) i5-3570 CPU @ 3.40GHz,orientation_search,LEPPC096,Intel(R) HD Graphics 2500,2018_Sep_20_1226,testMonitor,
168.0,169.6,174.1,163.2,36,-30,170.2,165.3,179.3,166.7,7.796,7.982,8.264,8.424,8.106,8.02,8.174,5.145,-4.506,-8.164,2.02,-1.883,7.508,4.334,-4.902,-8.079,165.9,173.8,-7.543,165.7,179.6,168.2,169.7,179.5,36,168.8,1,5,probe,5,0,82,norm,36,-4.623,down,norm,171.501184824,168.2,176.7,161.5,171.0,1,171.6,168.5,169.5,10,5,8.417,4.533,1.11,-1.489,-4.374,-7.51,170.3,2,89.5,-7.642,-7.81,30,-8.059,-8.39,-4.463,-4.718,-4.674,-4.597,4.764,8.324,7,-1.679,1.466,4.357,8.148,-8.169,-8.294,-1.227,2.052,169.5,164.7,177.8,173.5,181.5,166.7,,165.3,169.0,171.0,0,norm,1.763,1.788,-1.363,-1.518,-4.406,-5.072,-1.872,-1.568,-1.948,-1.835,1.746,-1.376,169.9,167.7,-5.188,-7.724,1.693,-1.651,7.748,4.912,-4.72,-7.886,23,4.682,4.668,4.93,4.689,1.406,1.757,1.347,1.839,23,4.41,5.193,30,56.8218171903,norm,0,85,85,85,3818.934,3818.944,3818.94844079,3818.949,3818.95,3818.953,down,1,1.40270829831,8.59729170169,001,002,1920_1080,Intel(R) Core(TM) i5-3570 CPU @ 3.40GHz,orientation_search,LEPPC096,Intel(R) HD Graphics 2500,2018_Sep_20_1226,testMonitor,
206.9,213.3,202.2,206.9,36,-30,207.7,212.2,212.3,209.3,8.437,8.467,7.672,8.015,8.397,7.774,7.83,4.993,-4.548,-8.139,1.872,-1.566,7.674,4.792,-4.514,-7.903,203.1,203.8,-8.288,211.5,218.5,218.4,199.7,210.8,36,210.7,0,5,probe,5,0,119,norm,36,-5.082,down,norm,208.501184824,204.1,213.7,216.1,210.9,1,202.6,213.2,198.5,10,5,7.781,4.375,1.387,-1.591,-5.233,-8.294,210.2,2,89.5,-8.219,-7.879,30,-8.424,-8.008,-5.091,-4.453,-5.099,-5.277,4.671,8.222,1,-1.242,1.26,4.58,7.596,-7.526,-7.998,-1.347,2.021,203.9,209.5,204.5,209.6,,210.3,217.4,210.2,205.1,207.0,1,norm,2.043,1.659,-1.597,-1.406,-5.023,-5.201,-1.722,-1.955,-2.017,-1.581,1.184,-1.81,214.9,202.7,-4.564,-7.7,1.86,-1.349,8.288,5.1,-4.31,-8.39,23,4.376,4.341,4.542,4.647,1.436,1.195,1.236,1.566,23,4.903,4.576,30,56.8218171903,norm,0,86,86,86,3820.389,3820.401,3820.42832943,3820.428,3820.43,3820.433,down,1,1.85860910391,8.14139089609,001,002,1920_1080,Intel(R) Core(TM) i5-3570 CPU @ 3.40GHz,orientation_search,LEPPC096,Intel(R) HD Graphics 2500,2018_Sep_20_1226,testMonitor,
,267.7,253.1,262.5,36,30,275.6,283.8,262.2,274.4,7.78,7.931,8.135,8.321,8.413,8.49,8.325,5.237,-4.653,-7.97,1.358,-1.569,8.248,5.207,-4.455,-8.139,282.0,256.6,-7.775,279.7,280.8,255.5,281.5,280.4,36,278.0,3,5,prime,10,0,75,norm,36,-4.541,up,norm,273.090642457,269.2,277.6,286.3,270.3,4,270.4,287.1,278.0,10,6,7.508,4.987,1.638,-1.953,-5.287,-8.034,257.4,6,348.1,-8.006,-8.362,30,-7.986,-7.996,-4.583,-4.611,-4.323,-4.396,4.893,7.848,22,-1.601,1.377,4.514,8.166,-7.62,-7.948,-1.181,1.503,278.1,255.4,277.4,278.4,259.3,259.8,289.9,293.1,279.9,269.8,0,norm,1.872,2.062,-1.906,-1.58,-4.898,-4.487,-1.89,-2.086,-1.817,-2.05,1.79,-1.374,264.8,268.0,-4.987,-8.252,1.884,-1.434,7.829,4.565,-4.307,-8.473,24,4.656,4.487,5.262,4.759,2.034,1.691,1.293,1.273,24,5.102,4.871,-30,56.8218171903,norm,0,87,87,87,3822.324,3822.334,3822.34711701,3822.347,3822.349,3822.352,down,0,0.775854840233,-10,001,002,1920_1080,Intel(R) Core(TM) i5-3570 CPU @ 3.40GHz,orientation_search,LEPPC096,Intel(R) HD Graphics 2500,2018_Sep_20_1226,testMonitor,
267.1,263.1,264.6,254.7,36,30,289.4,278.2,269.5,272.7,8.457,8.224,7.695,7.559,8.081,8.424,8.149,5.278,-4.693,-8.478,1.774,-1.198,7.898,4.7,-4.858,-7.759,279.6,267.3,-7.55,261.6,270.9,276.6,280.0,265.3,36,272.4,1,5,prime,10,0,119,norm,36,-4.449,up,norm,273.090642457,264.2,271.4,257.8,270.1,4,269.2,268.3,268.3,10,6,8.297,5.098,2.041,-1.517,-4.963,-8.202,,6,392.1,-8.493,-8.19,30,-7.812,-8.048,-4.588,-4.539,-4.345,-4.657,4.767,8.354,10,-1.209,1.828,4.313,7.627,-7.705,-7.993,-1.505,1.462,253.1,283.0,270.5,279.7,265.6,274.9,274.8,288.5,293.1,282.5,1,norm,1.202,1.794,-1.802,-1.411,-4.849,-4.976,-1.892,-1.603,-2.027,-1.723,1.902,-1.485,261.3,277.6,-5.019,-8.238,1.184,-1.847,8.381,5.01,-5.054,-7.775,24,4.976,5.257,5.089,4.627,1.142,1.754,1.254,1.753,24,4.799,5.128,-30,56.8218171903,norm,0,88,88,88,3824.178,3824.187,3824.20341667,3824.204,3824.205,3824.208,up,1,2.21114850333,7.78885149667,001,002,1920_1080,Intel(R) Core(TM) i5-3570 CPU @ 3.40GHz,orientation_search,LEPPC096,Intel(R) HD Graphics 2500,2018_Sep_20_1226,testMonitor,
273.3,269.6,274.3,274.9,36,30,270.0,286.9,280.4,270.4,7.559,8.02,8.2,8.356,8.383,8.176,8.423,5.241,-4.405,-8.448,1.98,-1.832,8.065,5.152,-4.782,-7.932,263.7,271.3,-8.215,265.2,264.0,276.2,278.4,280.3,36,267.4,0,5,prime,10,0,93,norm,36,-5.282,up,norm,273.090642457,272.8,260.5,253.1,263.9,5,266.9,270.9,273.1,10,6,7.792,4.809,1.107,-1.909,-4.91,-8.421,280.9,6,366.1,-7.587,-8.046,30,-7.882,-7.786,-4.756,-4.687,-4.806,-4.984,4.414,7.819,5,-2.07,1.791,4.525,7.677,-7.812,-7.664,-1.255,1.668,265.0,270.0,269.7,286.1,286.5,263.6,281.7,289.3,,271.0,2,norm,1.154,1.88,-2.008,-1.792,-4.365,-5.177,-1.631,-1.585,-1.558,-1.126,1.468,-1.539,293.1,274.8,-4.975,-8.075,1.685,-1.378,8.008,5.14,-4.698,-7.765,24,4.807,5.293,5.198,4.983,1.793,1.863,1.226,1.73,24,4.594,5.174,-30,56.8218171903,norm,0,89,89,89,3826.435,3826.445,3826.45167252,3826.452,3826.454,3826.456,up,1,1.93784352155,8.06215647845,001,002,1920_1080,Intel(R) Core(TM) i5-3570 CPU @ 3.40GHz,orientation_search,LEPPC096,Intel(R) HD Graphics 2500,2018_Sep_20_1226,testMonitor,
268.9,266.1,264.1,282.2,36,30,253.1,290.9,279.8,,8.269,7.696,7.754,7.875,7.741,8.161,7.982,4.701,-4.888,-8.249,1.919,-2.06,7.65,5.003,-4.996,-8.356,269.1,283.6,-8.217,273.4,281.6,263.1,272.5,277.4,36,283.1,4,5,prime,10,0,81,norm,36,-4.858,up,norm,273.090642457,273.0,269.2,260.9,274.0,5,273.4,258.7,283.9,10,6,7.695,4.772,1.421,-1.805,-4.86,-7.767,269.9,6,354.1,-8.178,-8.017,30,-7.737,-8.158,-5.185,-4.375,-5.18,-4.995,5.05,7.611,29,-1.184,2.042,4.785,7.909,-8.185,-8.372,-1.533,1.637,269.1,272.1,265.2,265.7,260.9,293.1,277.6,270.9,272.4,280.0,3,norm,1.645,1.632,-1.824,-1.366,-4.88,-4.687,-1.173,-1.419,-1.435,-2.046,1.27,-1.529,258.7,279.1,-4.542,-7.569,2.066,-1.152,8.053,4.951,-4.851,-8.498,24,4.491,4.375,5.028,4.384,1.199,1.911,1.386,1.458,24,5.153,5.002,-30,56.8218171903,norm,0,90,90,90,3828.432,3828.442,3828.44735942,3828.448,3828.449,3828.452,down,0,2.48414801525,-10,001,002,1920_1080,Intel(R) Core(TM) i5-3570 CPU @ 3.40GHz,orientation_search,LEPPC096,Intel(R) HD Graphics 2500,2018_Sep_20_1226,testMonitor,
269.5,265.6,270.5,276.7,36,30,278.1,282.7,280.4,287.1,8.212,8.071,7.524,7.582,7.521,7.741,8.025,4.735,-4.903,-8.043,1.202,-1.151,7.883,5.176,-4.392,-8.274,262.9,285.6,-8.458,275.7,281.1,259.6,267.2,276.4,36,271.8,3,5,prime,10,0,102,norm,36,-4.99,down,norm,273.090642457,277.2,253.1,276.2,278.9,0,257.0,276.2,279.8,10,6,8.118,5.235,1.711,-1.754,-5.262,-7.868,272.5,6,375.1,-8.215,-7.654,30,-8.228,-7.57,-4.777,-4.721,-5.164,-4.732,4.842,8.479,18,-1.63,1.379,4.613,7.903,-8.26,-8.111,-1.773,1.402,267.4,285.6,283.0,276.4,282.6,286.9,257.8,288.1,265.3,260.3,4,norm,1.503,1.835,-1.914,-1.417,-4.663,-4.508,-1.114,-1.905,-1.521,-1.849,1.747,-2.046,293.1,,-5.217,-7.673,1.744,-2.009,7.529,4.606,-4.839,-8.214,24,5.025,4.601,4.625,4.87,1.126,1.548,1.843,1.302,24,5.222,4.601,-30,56.8218171903,norm,0,91,91,91,3832.007,3832.017,3832.03440007,3832.035,3832.036,3832.039,down,1,1.41567175149,8.58432824851,001,002,1920_1080,Intel(R) Core(TM) i5-3570 CPU @ 3.40GHz,orientation_search,LEPPC096,Intel(R) HD Graphics 2500,2018_Sep_20_1226,testMonitor,
273.8,288.1,288.5,284.8,36,30,282.9,270.5,280.6,270.4,7.88,7.953,7.859,7.941,7.523,8.409,7.626,5.015,-4.405,-7.973,1.391,-1.916,8.251,5.078,-5.169,-7.896,262.3,275.9,-7.65,281.5,253.1,270.9,266.8,277.2,36,284.1,1,5,prime,10,0,79,norm,36,-5.212,down,norm,273.090642457,275.1,262.6,269.7,293.1,2,274.6,277.5,288.3,10,6,8.313,4.63,2.081,-2.07,-4.905,-8.096,265.2,6,352.1,-7.986,-7.737,30,-7.899,-8.289,-4.761,-4.314,-4.973,-5.058,4.718,8.493,8,-1.987,2.082,4.98,7.801,-8.27,-7.939,-1.903,1.791,287.6,,279.5,282.1,265.8,284.2,283.4,287.3,283.5,269.5,5,norm,1.439,1.272,-1.752,-2.098,-4.994,-4.344,-1.594,-1.286,-1.765,-2.073,1.633,-1.527,273.8,264.4,-4.786,-7.55,1.129,-2.068,7.518,5.117,-5.239,-7.875,24,5.069,4.637,4.357,4.787,1.648,1.161,1.579,1.969,24,4.798,5.227,-30,56.8218171903,norm,0,92,92,92,3833.471,3833.48,3833.50061501,3833.501,3833.502,3833.505,up,0,1.58740196364,-10,001,002,1920_1080,Intel(R) Core(TM) i5-3570 CPU @ 3.40GHz,orientation_search,LEPPC096,Intel(R) HD Graphics 2500,2018_Sep_20_1226,testMonitor,
384.1,380.1,388.0,389.3,36,-10,380.0,380.6,388.3,393.6,7.718,7.745,8.369,8.403,7.609,7.91,8.317,5.097,-5.026,-8.058,1.332,-1.184,8.366,4.63,-5.031,-8.493,383.0,379.7,-7.903,,390.3,384.4,378.9,389.1,36,378.8,5,5,probe,5,0,82,norm,36,-4.641,down,norm,383.571014009,389.5,389.8,384.1,385.7,1,384.1,385.4,390.7,10,6,7.779,4.398,1.105,-1.254,-5.146,-7.789,384.8,1,301.6,-8.137,-8.445,30,-8.427,-7.92,-4.751,-4.735,-5.264,-4.993,5.086,7.72,31,-1.17,1.879,4.796,7.632,-7.858,-8.245,-1.738,2.066,393.2,381.4,387.5,390.3,390.4,373.6,392.6,376.8,383.3,380.6,0,norm,1.787,1.263,-1.318,-1.766,-4.578,-4.882,-1.169,-1.241,-1.699,-1.271,2.095,-1.109,382.0,388.7,-4.708,-7.648,1.216,-1.929,7.927,4.784,-4.575,-8.318,25,5.236,5.221,5.187,5.181,1.664,1.996,2.093,1.149,25,4.411,5.285,30,273.090642457,norm,0,93,93,93,3836.143,3836.152,3836.16816056,3836.168,3836.17,3836.173,down,1,1.24651962055,8.75348037945,001,002,1920_1080,Intel(R) Core(TM) i5-3570 CPU @ 3.40GHz,orientation_search,LEPPC096,Intel(R) HD Graphics 2500,2018_Sep_20_1226,testMonitor,
348.5,369.0,360.6,356.7,36,-10,351.6,373.8,364.1,367.8,7.52,8.202,8.398,8.338,8.356,8.471,7.868,4.662,-5.198,-8.295,1.827,-1.429,7.624,5.065,-5.25,-8.277,340.8,336.7,-8.414,360.0,355.1,361.1,356.7,351.8,36,352.1,1,5,prime,10,0,112,norm,36,-5.202,up,norm,356.707393003,356.0,376.7,352.3,355.2,5,,349.7,354.3,10,6,7.733,5.232,1.275,-1.946,-4.768,-7.665,357.4,6,468.7,-8.302,-8.075,-10,-7.731,-7.739,-4.984,-4.647,-4.696,-5.292,4.98,7.533,11,-1.363,1.763,4.687,7.594,-8.445,-8.461,-1.603,1.744,361.9,353.1,363.5,352.1,357.2,356.6,364.7,352.1,339.9,358.4,0,norm,1.712,1.368,-1.306,-1.843,-4.678,-4.409,-1.539,-1.988,-1.791,-1.936,1.264,-1.163,356.8,341.2,-4.804,-7.757,1.724,-1.405,7.784,4.349,-5.111,-7.77,26,4.972,5.16,4.358,4.958,1.335,1.485,1.655,2.07,26,5.085,5.007,-10,273.090642457,norm,0,94,94,94,3837.451,3837.46,3837.47843736,3837.479,3837.48,3837.483,up,1,4.71531747285,5.28468252715,001,002,1920_1080,Intel(R) Core(TM) i5-3570 CPU @ 3.40GHz,orientation_search,LEPPC096,Intel(R) HD Graphics 2500,2018_Sep_20_1226,testMonitor,
369.3,341.6,359.7,360.9,36,-10,349.6,336.7,376.7,364.4,8.327,8.217,8.403,8.364,7.565,8.014,8.288,4.775,-4.669,-8.309,2.042,-1.833,7.523,4.707,-4.778,-8.16,361.0,345.8,-8.488,363.5,337.2,368.8,350.4,,36,365.1,4,5,prime,10,0,119,norm,36,-5.075,down,norm,356.707393003,352.0,358.6,354.0,355.8,2,369.0,353.3,361.9,10,6,8.463,5.148,1.113,-1.495,-5.261,-8.049,357.5,6,475.7,-7.569,-8.218,-10,-7.96,-7.556,-4.989,-4.859,-4.709,-4.701,5.225,8.158,26,-1.793,1.923,4.966,7.693,-7.624,-7.873,-1.767,1.649,362.2,342.3,364.1,373.4,360.5,341.9,344.0,339.1,350.8,356.4,1,norm,2.07,2.038,-1.465,-1.685,-4.766,-5.016,-1.724,-1.618,-1.531,-1.199,1.668,-1.17,350.4,362.2,-4.35,-8.355,1.193,-1.694,8.032,5.01,-5.053,-7.767,26,5.051,5.273,5.059,5.214,1.38,1.554,1.655,2.005,26,5.055,4.349,-10,273.090642457,norm,0,95,95,95,3842.237,3842.246,3842.25281254,3842.253,3842.255,3842.257,up,0,5.64937129652,-10,001,002,1920_1080,Intel(R) Core(TM) i5-3570 CPU @ 3.40GHz,orientation_search,LEPPC096,Intel(R) HD Graphics 2500,2018_Sep_20_1226,testMonitor,
