d_ori_22,d_ori_23,d_ori_20,d_ori_21,set_size,ctpd,d_ori_24,d_ori_25,d_ori_28,d_ori_29,stim_pos_x_30,stim_pos_x_31,stim_pos_x_32,stim_pos_x_33,stim_pos_x_34,stim_pos_x_35,stim_pos_y_11,stim_pos_y_10,stim_pos_y_13,stim_pos_y_12,stim_pos_y_15,stim_pos_y_14,stim_pos_y_17,stim_pos_y_16,stim_pos_y_19,stim_pos_y_18,d_ori_35,d_ori_34,stim_pos_x_3,d_ori_31,d_ori_30,d_ori_33,d_ori_32,d_ori_26,test_set_size,d_ori_27,targetCol,dsd_test,seq_type,dsd,blockRepN,targetDist,dtype_test,prime_set_size,stim_pos_y_25,correctResponse,dtype,distrMean,d_ori_17,d_ori_16,d_ori_15,d_ori_14,targetRow,d_ori_11,d_ori_13,d_ori_12,dsd_prime,streak_length_prime,stim_pos_y_35,stim_pos_y_34,stim_pos_y_33,stim_pos_y_32,stim_pos_y_31,stim_pos_y_30,d_ori_10,nextProbe,targetOri,stim_pos_x_1,stim_pos_x_2,ctpd_prime,stim_pos_x_4,stim_pos_x_5,stim_pos_x_6,stim_pos_x_7,stim_pos_x_8,stim_pos_x_9,stim_pos_y_28,stim_pos_y_29,targetPos,stim_pos_y_20,stim_pos_y_21,stim_pos_y_22,stim_pos_y_23,stim_pos_y_24,stim_pos_x_0,stim_pos_y_26,stim_pos_y_27,d_ori_9,d_ori_8,d_ori_3,d_ori_2,d_ori_1,d_ori_0,d_ori_7,d_ori_6,d_ori_5,d_ori_4,trialN,dtype_prime,stim_pos_x_18,stim_pos_x_19,stim_pos_x_12,stim_pos_x_13,stim_pos_x_10,stim_pos_x_11,stim_pos_x_16,stim_pos_x_17,stim_pos_x_14,stim_pos_x_15,stim_pos_y_9,stim_pos_y_8,d_ori_19,d_ori_18,stim_pos_y_1,stim_pos_y_0,stim_pos_y_3,stim_pos_y_2,stim_pos_y_5,stim_pos_y_4,stim_pos_y_7,stim_pos_y_6,totBlockN,stim_pos_x_27,stim_pos_x_26,stim_pos_x_25,stim_pos_x_24,stim_pos_x_23,stim_pos_x_22,stim_pos_x_21,stim_pos_x_20,blockN,stim_pos_x_29,stim_pos_x_28,prevDistrCTPD,prevDistrMean,prevDistrType,trials.thisRepN,trials.thisTrialN,trials.thisN,trials.thisIndex,timeStart,timeBeforeDraw,timeDraw,timeAfterSaving,timeAfterWritingToTemp,timeAfterPreparingNext,answer,correct,rt,trialScore,session,participant,resolution,cpu_info,expName,pc_name,graphic_card,date,monitorName,
60.3,77.0,57.6,43.6,36,-60,49.1,62.0,72.1,61.8,7.584,8.092,8.418,8.146,7.73,7.839,7.632,5.192,-4.492,-7.915,1.24,-1.609,7.883,4.401,-4.822,-7.608,53.2,63.5,-8.136,42.9,70.4,68.1,71.3,51.8,36,64.0,0,5,prime,10,0,80,norm,36,-4.488,down,norm,62.918437395,82.3,52.9,68.3,56.4,0,58.9,61.2,70.1,10,5,7.899,4.8,1.667,-2.089,-5.217,-8.078,64.7,5,142.9,-8.318,-7.855,-60,-8.136,-8.328,-4.542,-4.726,-5.109,-4.89,4.467,7.944,0,-2.02,1.994,4.936,8.493,-7.598,-8.153,-1.665,1.961,50.6,65.5,69.9,54.5,79.1,,68.0,73.8,59.5,71.0,0,norm,1.585,1.352,-1.772,-1.266,-4.779,-4.861,-1.647,-1.225,-1.732,-1.137,1.198,-1.624,63.8,82.9,-4.738,-7.85,1.521,-1.212,8.378,4.428,-4.648,-7.719,0,5.056,4.705,4.979,4.563,1.778,1.277,1.833,1.963,0,5.285,4.891,,,,0,0,0,0,71.355,71.367,71.3779460001,71.378,71.378,71.38,down,1,2.48603879998,7.51396120002,001,316,1366_768,Intel(R) Core(TM) i7-8750H CPU @ 2.20GHz,orientation_search,GHUM-L-P55205,Intel(R) UHD Graphics 630,2018_Nov_08_1408,testMonitor,
42.9,48.1,44.7,73.8,36,-60,53.8,56.6,53.3,51.1,7.71,7.685,7.585,7.747,7.563,7.51,7.529,5.2,-4.316,-8.462,1.596,-2.065,7.855,4.996,-4.566,-7.757,60.0,45.4,-8.035,59.3,52.0,76.4,58.3,64.1,36,61.1,2,5,prime,10,0,73,norm,36,-5.221,down,norm,62.918437395,55.6,69.1,55.3,,2,64.0,52.1,72.8,10,5,7.834,4.867,2.037,-1.122,-5.12,-8.02,82.9,5,135.9,-8.121,-7.595,-60,-7.588,-8.41,-5.109,-4.96,-5.177,-4.986,4.902,8.079,14,-1.472,1.918,4.466,7.761,-8.499,-7.956,-1.307,2.029,78.2,50.1,70.0,62.4,68.6,66.5,61.1,63.7,69.5,51.7,1,norm,1.753,1.195,-1.651,-1.976,-4.594,-5.061,-1.117,-1.664,-1.189,-1.696,1.319,-1.83,55.3,64.3,-5.08,-7.621,1.345,-1.701,7.947,4.402,-4.905,-7.589,0,5.062,4.453,4.639,5.14,1.557,1.571,1.431,1.336,0,4.973,4.637,,,,0,1,1,1,73.888,73.898,73.9109799,73.911,73.913,73.915,down,1,2.01758370001,7.98241629999,001,316,1366_768,Intel(R) Core(TM) i7-8750H CPU @ 2.20GHz,orientation_search,GHUM-L-P55205,Intel(R) UHD Graphics 630,2018_Nov_08_1408,testMonitor,
78.6,70.4,60.8,70.1,36,-60,51.7,52.5,67.3,70.1,8.033,7.53,7.539,7.849,8.408,7.878,7.613,4.598,-4.53,-8.1,1.78,-1.743,7.54,5.208,-5.289,-7.805,64.9,64.1,-8.058,59.0,66.6,55.5,68.7,64.6,36,54.4,0,5,prime,10,0,89,norm,36,-5.135,up,norm,62.918437395,59.2,47.8,82.9,51.8,3,50.8,47.5,42.9,10,5,8.134,4.319,1.206,-1.97,-4.916,-7.874,58.3,5,151.9,-8.387,-8.118,-60,-7.553,-8.091,-5.042,-4.503,-4.474,-4.714,4.818,8.403,3,-1.28,1.7,4.798,7.774,-8.409,-7.803,-1.891,2.067,71.0,60.7,,59.7,55.5,67.1,69.8,78.6,63.9,61.3,2,norm,2.067,1.388,-1.52,-1.503,-5.22,-5.014,-1.836,-1.212,-1.499,-1.711,1.983,-1.289,72.2,61.7,-5.185,-8.452,1.811,-1.736,7.578,4.975,-4.778,-8.327,0,4.557,4.602,4.596,4.637,1.377,1.559,1.119,1.855,0,4.939,5.14,,,,0,2,2,2,75.956,75.966,75.9771489,75.977,75.979,75.98,up,1,2.05118929991,7.94881070009,001,316,1366_768,Intel(R) Core(TM) i7-8750H CPU @ 2.20GHz,orientation_search,GHUM-L-P55205,Intel(R) UHD Graphics 630,2018_Nov_08_1408,testMonitor,
46.1,71.8,42.9,77.9,36,-60,73.4,66.1,66.2,64.3,8.413,7.771,8.373,8.055,7.75,8.411,7.644,5.249,-4.624,-8.461,1.496,-1.548,7.601,5.015,-4.526,-7.95,52.0,75.3,-7.757,65.8,75.4,59.6,56.0,68.9,36,75.0,2,5,prime,10,0,74,norm,36,-5.003,up,norm,62.918437395,47.1,,42.9,70.8,4,50.8,77.6,55.1,10,5,8.221,4.341,1.662,-1.786,-5.191,-8.467,61.7,5,136.9,-7.792,-8.356,-60,-7.719,-8.356,-4.533,-4.484,-4.731,-4.561,5.187,7.912,16,-1.444,1.892,4.762,7.693,-7.51,-8.184,-1.781,1.952,62.4,79.7,65.7,66.8,70.0,80.4,57.8,66.4,68.7,82.9,3,norm,1.76,1.983,-1.288,-1.327,-4.557,-4.994,-1.172,-1.43,-1.374,-2.099,1.12,-1.862,73.2,74.2,-5.276,-8.353,1.692,-2.048,7.609,5.063,-4.505,-8.16,0,4.645,4.946,4.352,5.012,1.749,2.088,1.754,1.174,0,5.102,4.76,,,,0,3,3,3,78.053,78.062,78.0765496,78.077,78.078,78.08,up,1,1.0679889,8.9320111,001,316,1366_768,Intel(R) Core(TM) i7-8750H CPU @ 2.20GHz,orientation_search,GHUM-L-P55205,Intel(R) UHD Graphics 630,2018_Nov_08_1408,testMonitor,
82.9,60.8,74.2,73.1,36,-60,72.2,45.6,66.1,64.3,7.964,8.463,8.466,7.645,7.796,8.276,7.861,4.482,-4.351,-8.286,2.053,-1.212,7.741,4.513,-5.144,-8.473,64.2,56.1,-8.052,56.0,60.2,66.4,71.5,63.7,36,53.9,1,5,prime,10,0,88,norm,36,-5.078,up,norm,62.918437395,58.1,44.1,50.4,74.9,5,,68.9,59.8,10,5,7.849,4.792,1.772,-2.004,-5.056,-7.815,61.3,5,150.9,-8.401,-8.035,-60,-8.177,-7.946,-4.946,-5.206,-4.738,-4.541,5.033,7.716,11,-1.746,1.236,4.693,7.786,-7.937,-7.607,-1.747,1.22,61.8,66.2,56.1,71.8,72.4,52.6,42.9,54.0,68.2,58.7,4,norm,1.448,1.824,-1.707,-1.387,-4.348,-4.663,-1.512,-1.775,-1.834,-1.745,2.012,-1.302,45.9,51.8,-4.813,-8.267,1.871,-1.722,7.525,4.7,-4.775,-8.416,0,5.129,4.334,4.68,4.407,1.738,1.334,1.944,1.334,0,5.238,4.478,,,,0,4,4,4,79.161,79.167,79.1771423001,79.177,79.179,79.18,up,1,2.36784019996,7.63215980004,001,316,1366_768,Intel(R) Core(TM) i7-8750H CPU @ 2.20GHz,orientation_search,GHUM-L-P55205,Intel(R) UHD Graphics 630,2018_Nov_08_1408,testMonitor,
87.5,91.6,81.3,,36,0,94.6,74.6,89.9,90.7,7.97,8.453,8.456,7.712,8.306,8.077,8.111,5.004,-4.499,-7.53,1.604,-1.5,8.065,4.338,-4.951,-8.109,81.8,87.9,-8.091,78.9,81.2,81.8,84.1,83.9,36,90.9,3,5,probe,5,0,89,norm,36,-4.582,up,norm,84.6264492815,90.2,84.9,93.4,83.8,3,80.4,76.0,81.3,10,5,7.627,4.96,1.601,-1.904,-4.801,-7.571,87.1,2,-4.4,-7.776,-7.529,-60,-8.35,-7.618,-4.806,-5.043,-4.813,-4.6,4.339,8.144,21,-1.946,1.142,4.545,8.317,-7.725,-7.575,-1.318,1.844,90.8,86.5,88.7,86.4,84.8,89.4,79.7,90.9,87.3,81.5,0,norm,1.393,1.146,-1.216,-1.495,-5.129,-4.445,-1.274,-1.652,-1.328,-1.814,1.784,-2.067,87.5,81.0,-5.202,-7.818,1.897,-1.284,8.452,4.615,-4.773,-7.776,1,5.144,4.907,4.568,5.178,2.088,1.42,1.77,1.256,1,5.064,5.197,-60,62.918437395,norm,0,5,5,5,81.57,81.58,81.5919042,81.592,81.593,81.595,up,1,1.78524179989,8.21475820011,001,316,1366_768,Intel(R) Core(TM) i7-8750H CPU @ 2.20GHz,orientation_search,GHUM-L-P55205,Intel(R) UHD Graphics 630,2018_Nov_08_1408,testMonitor,
106.9,105.9,117.5,113.3,36,0,107.3,107.8,118.9,109.9,8.233,8.241,7.704,7.506,8.255,8.082,8.051,4.911,-4.433,-8.414,2.038,-2.06,8.225,4.613,-4.612,-7.67,106.5,104.3,-8.021,107.4,112.8,114.0,113.2,114.8,36,108.8,2,5,probe,5,0,115,norm,36,-4.71,down,norm,110.626449282,105.9,105.9,112.6,,2,107.8,120.6,108.1,10,5,7.534,4.616,2.044,-1.545,-4.914,-7.755,111.0,2,-4.4,-8.045,-7.805,-60,-7.541,-8.401,-5.297,-4.455,-5.221,-4.954,4.557,7.724,14,-1.419,1.165,4.489,8.265,-7.965,-8.365,-1.631,1.392,116.1,114.4,100.6,115.5,116.2,119.7,103.2,107.0,112.3,116.0,1,norm,1.4,1.878,-1.638,-1.668,-4.897,-4.987,-1.698,-1.353,-1.28,-2.03,1.328,-1.214,108.0,115.6,-4.555,-7.669,1.657,-1.505,8.263,4.401,-4.563,-8.329,1,4.953,4.992,5.038,5.155,2.035,1.744,1.185,2.071,1,4.503,4.303,-60,62.918437395,norm,0,6,6,6,83.403,83.412,83.4250745,83.425,83.427,83.428,down,1,0.854972300003,9.1450277,001,316,1366_768,Intel(R) Core(TM) i7-8750H CPU @ 2.20GHz,orientation_search,GHUM-L-P55205,Intel(R) UHD Graphics 630,2018_Nov_08_1408,testMonitor,
140.1,148.2,155.6,143.3,36,10,145.4,143.3,147.8,,8.013,7.727,7.669,7.789,8.384,8.091,7.976,5.207,-4.864,-7.525,1.226,-1.314,7.535,5.035,-4.93,-7.594,139.2,142.1,-7.684,128.3,138.4,135.7,139.7,154.1,36,143.2,4,5,prime,10,0,116,norm,36,-5.244,up,norm,143.47371488,151.9,123.5,140.4,143.3,5,140.5,153.0,153.0,10,5,7.626,4.466,2.09,-1.646,-4.967,-7.663,145.9,5,259.5,-7.963,-7.798,10,-7.745,-8.228,-5.146,-5.147,-5.098,-4.977,4.458,8.213,29,-1.236,1.46,4.888,8.448,-8.465,-8.051,-1.535,1.603,145.5,163.5,141.6,152.3,145.9,142.6,139.8,142.0,155.2,145.1,0,norm,1.297,1.56,-1.765,-1.895,-4.729,-4.528,-1.638,-1.962,-1.597,-1.173,1.275,-1.761,139.7,142.6,-4.674,-8.254,1.606,-1.244,7.922,4.331,-5.151,-8.284,2,5.204,4.802,4.91,5.207,1.363,1.657,1.315,1.937,2,4.681,4.334,0,62.918437395,norm,0,7,7,7,84.306,84.315,84.3250558,84.325,84.327,84.328,up,1,3.15343019995,6.84656980005,001,316,1366_768,Intel(R) Core(TM) i7-8750H CPU @ 2.20GHz,orientation_search,GHUM-L-P55205,Intel(R) UHD Graphics 630,2018_Nov_08_1408,testMonitor,
138.7,163.5,129.2,141.8,36,10,147.2,131.2,149.4,137.2,8.094,8.087,7.784,7.684,7.534,7.772,7.812,4.614,-5.057,-7.715,1.66,-1.271,8.08,4.929,-4.391,-7.666,136.7,145.3,-8.446,134.3,149.7,149.3,123.5,160.1,36,143.1,1,5,prime,10,0,114,norm,36,-4.994,up,norm,143.47371488,139.7,134.2,141.9,139.6,3,124.1,150.4,135.2,10,5,8.132,4.958,1.979,-1.412,-4.394,-8.474,126.8,5,257.5,-7.918,-8.336,10,-8.218,-8.112,-4.622,-4.368,-5.19,-4.492,4.314,7.625,9,-1.631,1.878,4.52,8.182,-7.663,-8.445,-1.479,1.189,,159.6,158.3,130.1,147.0,162.7,154.0,144.8,162.1,127.5,1,norm,1.502,1.491,-1.899,-2.011,-4.832,-4.853,-1.469,-1.816,-1.452,-1.302,1.297,-1.204,149.6,152.1,-4.899,-7.885,1.275,-1.939,7.773,5.081,-5.211,-8.474,2,5.281,5.247,4.503,4.862,1.728,1.426,1.484,1.22,2,4.962,4.367,0,62.918437395,norm,0,8,8,8,87.498,87.503,87.5081881001,87.508,87.51,87.511,up,1,0.948817000026,9.05118299997,001,316,1366_768,Intel(R) Core(TM) i7-8750H CPU @ 2.20GHz,orientation_search,GHUM-L-P55205,Intel(R) UHD Graphics 630,2018_Nov_08_1408,testMonitor,
141.3,154.3,138.1,143.5,36,10,137.8,148.0,143.4,123.5,8.081,7.522,7.982,7.788,8.276,7.511,7.898,4.969,-5.274,-7.933,1.71,-1.335,8.403,5.178,-4.478,-7.945,142.7,138.0,-7.597,145.8,157.2,141.9,148.9,147.8,36,142.3,3,5,prime,10,0,73,norm,36,-4.351,down,norm,143.47371488,139.5,127.2,132.8,163.2,0,160.9,149.7,130.7,10,5,7.7,5.044,2.1,-1.715,-5.165,-8.412,133.5,5,216.5,-7.641,-8.0,10,-7.99,-8.359,-4.431,-4.761,-4.303,-4.739,4.534,8.479,18,-2.083,1.412,5.133,7.772,-7.551,-7.706,-1.71,1.5,141.1,136.1,129.7,132.7,135.8,127.6,148.1,163.5,144.4,144.5,2,norm,1.694,1.921,-1.399,-1.582,-5.239,-4.984,-1.58,-1.756,-1.933,-1.249,1.264,-1.966,162.3,,-5.212,-8.454,1.373,-1.143,7.855,4.459,-4.802,-8.13,2,5.103,4.355,4.809,4.617,1.83,1.419,1.405,1.244,2,4.323,4.88,0,62.918437395,norm,0,9,9,9,88.48,88.49,88.5069824001,88.507,88.509,88.51,down,1,0.9349468,9.0650532,001,316,1366_768,Intel(R) Core(TM) i7-8750H CPU @ 2.20GHz,orientation_search,GHUM-L-P55205,Intel(R) UHD Graphics 630,2018_Nov_08_1408,testMonitor,
139.2,154.9,131.9,153.0,36,10,139.3,155.4,150.1,155.8,8.217,8.274,8.453,8.382,8.008,8.478,7.909,4.908,-5.175,-7.55,2.027,-1.137,8.105,5.093,-5.218,-8.491,123.5,154.5,-8.394,152.0,146.4,126.1,127.8,150.3,36,154.5,3,5,prime,10,0,96,norm,36,-4.423,down,norm,143.47371488,160.2,145.4,145.4,147.4,0,148.5,139.9,132.9,10,5,8.264,4.981,1.817,-1.778,-4.492,-7.5,163.5,5,239.5,-8.042,-7.771,10,-8.172,-7.84,-4.404,-5.144,-4.459,-4.859,5.247,7.884,18,-1.34,1.327,5.296,7.979,-8.041,-7.716,-1.191,1.365,130.0,129.1,137.8,123.7,154.3,150.4,132.5,132.0,158.6,157.4,3,norm,1.695,1.679,-1.929,-1.178,-4.769,-4.529,-1.528,-1.856,-1.502,-1.935,2.055,-1.443,148.6,,-4.501,-7.946,1.846,-1.797,8.315,4.967,-5.059,-8.018,2,4.985,4.562,4.496,5.165,1.435,1.941,1.295,1.739,2,4.851,5.122,0,62.918437395,norm,0,10,10,10,89.464,89.47,89.4743536001,89.475,89.476,89.477,down,1,0.798516900046,9.20148309995,001,316,1366_768,Intel(R) Core(TM) i7-8750H CPU @ 2.20GHz,orientation_search,GHUM-L-P55205,Intel(R) UHD Graphics 630,2018_Nov_08_1408,testMonitor,
142.4,161.4,126.9,140.1,36,10,143.2,132.6,144.9,133.5,8.106,7.81,7.762,7.713,8.125,8.481,7.742,4.892,-4.542,-8.414,1.777,-1.67,8.154,4.837,-4.426,-8.051,140.0,123.5,-8.26,134.4,146.6,163.5,143.3,156.1,36,130.6,2,5,prime,10,0,93,norm,36,-4.489,up,norm,143.47371488,,147.6,139.9,147.9,5,134.8,136.5,154.7,10,5,7.981,5.246,1.57,-1.145,-5.121,-7.538,148.6,5,236.5,-7.561,-8.06,10,-8.268,-8.29,-4.31,-4.797,-5.092,-5.15,4.603,7.542,17,-2.037,1.881,4.613,8.329,-7.8,-8.075,-1.239,1.811,157.4,125.4,137.7,160.1,150.0,150.9,146.8,142.9,151.7,151.6,4,norm,1.724,1.263,-1.169,-1.478,-5.151,-4.515,-1.609,-2.019,-1.757,-2.044,1.683,-1.904,141.0,129.5,-4.712,-8.054,1.483,-1.618,7.727,4.702,-4.866,-8.442,2,4.894,4.633,4.845,4.974,1.772,1.119,1.157,1.238,2,5.057,5.125,0,62.918437395,norm,0,11,11,11,90.293,90.302,90.3071557001,90.307,90.309,90.31,down,0,0.552277700044,-10,001,316,1366_768,Intel(R) Core(TM) i7-8750H CPU @ 2.20GHz,orientation_search,GHUM-L-P55205,Intel(R) UHD Graphics 630,2018_Nov_08_1408,testMonitor,
225.9,236.5,233.7,228.2,36,40,226.7,225.4,236.6,227.1,8.429,8.324,8.03,8.487,8.305,7.712,7.645,4.944,-5.185,-8.154,1.42,-1.515,7.818,4.322,-4.356,-8.162,224.9,231.8,-8.079,229.5,225.8,230.0,236.5,223.9,36,223.4,0,5,probe,5,0,75,norm,36,-4.306,up,norm,230.143859072,235.6,240.1,221.6,235.3,5,233.8,240.1,235.2,10,5,7.875,5.141,1.181,-2.027,-5.109,-7.918,234.1,2,155.1,-8.368,-8.278,10,-8.363,-7.93,-5.244,-4.918,-5.049,-5.106,4.834,8.027,5,-1.138,1.588,4.452,7.618,-7.788,-8.325,-1.929,1.503,233.2,232.7,230.9,231.3,225.5,232.8,220.8,233.3,,221.2,0,norm,1.59,1.285,-1.607,-1.546,-4.622,-5.018,-1.366,-1.874,-2.032,-1.971,1.694,-1.982,223.6,220.1,-5.269,-8.025,1.901,-1.572,7.825,4.37,-4.345,-7.603,3,4.639,4.49,4.687,5.067,1.269,1.382,1.776,1.504,3,4.949,5.168,10,143.47371488,norm,0,12,12,12,91.89,91.897,91.9070096001,91.907,91.909,91.91,up,1,1.08767779998,8.91232220002,001,316,1366_768,Intel(R) Core(TM) i7-8750H CPU @ 2.20GHz,orientation_search,GHUM-L-P55205,Intel(R) UHD Graphics 630,2018_Nov_08_1408,testMonitor,
263.2,258.5,259.0,258.1,36,40,265.0,254.3,257.3,265.1,8.464,7.902,7.891,8.361,8.284,7.54,7.581,4.346,-4.323,-8.218,1.609,-1.234,8.061,4.992,-5.018,-7.574,251.8,260.3,-7.796,257.2,251.5,261.4,252.0,,36,245.1,4,5,probe,5,0,100,norm,36,-5.072,down,norm,255.143859072,246.6,259.4,254.4,253.7,2,254.6,251.7,256.6,10,5,7.869,4.724,1.512,-1.7,-5.109,-8.192,255.9,2,155.1,-7.632,-7.9,10,-7.596,-7.981,-5.043,-5.275,-4.664,-4.805,5.217,8.241,26,-1.271,1.482,4.483,8.092,-7.794,-8.18,-1.539,1.156,255.6,250.9,258.4,254.1,255.3,248.4,255.9,262.6,253.5,254.2,1,norm,1.797,1.557,-1.731,-1.435,-5.299,-5.259,-1.624,-1.33,-1.684,-1.531,1.65,-1.116,250.5,249.5,-5.066,-8.051,1.459,-2.047,7.948,4.394,-4.69,-8.165,3,4.777,4.94,5.055,5.003,1.218,1.436,1.231,1.833,3,4.546,4.485,10,143.47371488,norm,0,13,13,13,93.018,93.027,93.0392008,93.039,93.041,93.043,down,1,1.05113000004,8.94886999996,001,316,1366_768,Intel(R) Core(TM) i7-8750H CPU @ 2.20GHz,orientation_search,GHUM-L-P55205,Intel(R) UHD Graphics 630,2018_Nov_08_1408,testMonitor,
237.4,224.6,223.3,228.4,36,30,221.6,228.0,232.3,231.1,7.593,8.053,7.818,8.136,8.012,8.163,7.635,4.736,-5.213,-7.837,1.523,-1.337,7.53,4.4,-4.344,-7.816,226.5,241.1,-7.823,219.9,239.3,238.0,232.6,212.2,36,247.7,2,5,prime,10,0,61,norm,36,-4.962,down,norm,227.690106864,225.6,223.8,213.6,231.2,0,230.7,247.1,,10,5,8.373,4.995,1.314,-1.24,-4.97,-7.585,211.0,5,288.7,-7.94,-7.521,30,-7.56,-8.2,-4.495,-4.882,-4.308,-5.231,5.077,7.772,12,-1.391,1.512,5.168,7.66,-7.625,-8.316,-1.169,1.571,222.5,236.7,228.3,207.7,230.0,237.2,241.0,224.0,225.8,212.5,0,norm,1.165,1.419,-1.427,-2.065,-4.661,-4.489,-1.134,-1.82,-1.567,-1.372,1.541,-1.893,231.9,237.4,-4.646,-8.277,2.06,-1.668,8.466,4.845,-5.161,-8.086,4,4.873,4.348,4.317,5.209,1.984,1.243,1.651,1.827,4,4.703,4.801,40,143.47371488,norm,0,14,14,14,94.115,94.124,94.1388474,94.139,94.141,94.142,down,1,0.933838299941,9.06616170006,001,316,1366_768,Intel(R) Core(TM) i7-8750H CPU @ 2.20GHz,orientation_search,GHUM-L-P55205,Intel(R) UHD Graphics 630,2018_Nov_08_1408,testMonitor,
247.7,240.2,232.0,228.2,36,30,225.7,220.9,236.1,240.4,8.371,7.674,8.36,7.728,7.779,8.167,8.09,4.991,-5.07,-7.54,1.319,-2.071,8.37,4.876,-5.039,-8.299,232.8,231.1,-7.713,235.9,,230.9,223.4,223.9,36,239.4,5,5,prime,10,0,105,norm,36,-4.539,down,norm,227.690106864,239.3,217.9,215.3,211.7,0,246.6,232.4,220.5,10,5,8.283,4.628,1.343,-1.779,-5.138,-8.027,231.9,5,332.7,-8.258,-8.346,30,-8.498,-7.599,-4.701,-4.396,-5.027,-4.926,5.065,7.859,30,-1.799,1.447,4.488,8.218,-7.994,-7.994,-1.102,1.129,237.7,213.6,236.0,227.1,246.6,229.3,240.3,228.0,234.6,236.7,1,norm,2.014,1.288,-1.799,-1.967,-5.268,-4.621,-1.239,-1.551,-1.354,-1.146,1.421,-2.076,207.7,233.3,-4.431,-8.266,2.081,-1.803,8.222,5.215,-4.824,-7.733,4,5.082,5.107,4.476,4.355,1.807,1.35,1.149,2.073,4,4.809,4.418,40,143.47371488,norm,0,15,15,15,95.096,95.105,95.1217622,95.122,95.124,95.125,down,1,0.81902090006,9.18097909994,001,316,1366_768,Intel(R) Core(TM) i7-8750H CPU @ 2.20GHz,orientation_search,GHUM-L-P55205,Intel(R) UHD Graphics 630,2018_Nov_08_1408,testMonitor,
,232.2,224.3,234.9,36,30,223.0,229.4,232.5,217.6,7.646,8.057,7.513,8.114,8.175,8.404,8.278,4.393,-5.2,-7.585,1.824,-1.149,8.409,5.203,-5.122,-8.418,224.0,221.1,-7.514,226.5,219.5,232.7,216.6,207.7,36,232.3,3,5,prime,10,0,104,norm,36,-4.575,up,norm,227.690106864,212.8,230.0,220.9,247.3,4,220.3,229.3,217.9,10,5,8.389,4.52,1.901,-1.995,-4.746,-7.769,236.3,5,331.7,-7.738,-8.455,30,-7.514,-8.353,-4.964,-4.986,-5.224,-4.661,4.868,8.468,22,-1.86,1.431,4.757,8.43,-7.697,-8.001,-1.581,1.934,219.0,220.3,245.5,220.7,247.7,230.3,216.0,244.0,227.3,238.8,2,norm,1.706,1.516,-1.334,-1.7,-5.082,-5.151,-1.437,-1.681,-1.631,-1.35,1.562,-1.356,214.8,218.4,-4.558,-7.568,1.858,-1.399,8.159,4.655,-5.278,-7.746,4,4.483,4.786,5.035,4.484,1.423,2.037,1.801,1.377,4,4.958,4.798,40,143.47371488,norm,0,16,16,16,95.971,95.981,95.9895407,95.99,95.991,95.993,up,1,0.716453399975,9.28354660003,001,316,1366_768,Intel(R) Core(TM) i7-8750H CPU @ 2.20GHz,orientation_search,GHUM-L-P55205,Intel(R) UHD Graphics 630,2018_Nov_08_1408,testMonitor,
214.9,219.7,223.9,226.2,36,30,223.0,236.7,231.3,224.5,8.255,8.282,7.671,8.087,7.668,8.2,7.654,4.752,-4.675,-8.227,1.296,-1.447,8.163,4.911,-4.767,-8.163,218.1,219.7,-8.486,226.7,,212.3,247.7,220.3,36,232.1,5,5,prime,10,0,64,norm,36,-4.527,down,norm,227.690106864,237.6,219.2,238.0,214.3,0,212.8,216.3,243.9,10,5,7.919,4.419,1.848,-1.596,-4.776,-7.601,234.9,5,291.7,-7.807,-8.014,30,-8.185,-8.354,-4.755,-5.03,-4.984,-4.812,4.398,8.356,30,-1.275,1.197,4.677,7.839,-7.771,-7.649,-1.437,1.757,236.5,218.6,234.1,215.7,208.4,214.4,229.3,228.5,228.9,207.7,3,norm,1.377,1.878,-1.576,-1.896,-4.875,-5.04,-1.521,-1.527,-1.483,-1.652,1.243,-1.12,229.4,220.3,-5.041,-8.126,1.862,-1.548,8.074,5.198,-5.269,-8.26,4,4.875,5.108,5.18,4.497,1.171,1.179,1.612,1.201,4,5.296,5.02,40,143.47371488,norm,0,17,17,17,96.73,96.739,96.75491,96.755,96.757,96.758,down,1,0.666785100009,9.33321489999,001,316,1366_768,Intel(R) Core(TM) i7-8750H CPU @ 2.20GHz,orientation_search,GHUM-L-P55205,Intel(R) UHD Graphics 630,2018_Nov_08_1408,testMonitor,
223.3,224.5,223.0,235.1,36,30,234.1,247.7,229.1,211.1,8.396,7.974,8.184,7.917,8.129,8.095,7.991,5.24,-4.449,-7.842,2.014,-1.89,8.002,4.97,-5.265,-7.59,233.6,245.4,-7.894,230.5,230.3,209.4,217.6,224.5,36,218.6,2,5,prime,10,0,81,norm,36,-4.593,down,norm,227.690106864,207.7,239.8,233.7,,2,228.4,227.4,234.8,10,5,8.461,4.947,1.782,-1.474,-4.4,-8.101,217.2,5,308.7,-7.86,-8.37,30,-8.435,-7.906,-5.053,-4.824,-5.226,-5.3,4.843,7.712,14,-1.746,1.422,5.106,7.94,-7.673,-8.094,-1.375,1.98,221.1,231.3,230.9,230.6,233.8,229.3,240.9,242.0,228.6,224.5,4,norm,1.708,1.487,-1.426,-1.344,-4.4,-4.787,-1.63,-1.821,-1.346,-1.718,1.716,-1.201,238.4,221.8,-5.264,-7.766,1.689,-1.687,8.187,5.232,-5.189,-8.146,4,5.27,4.998,5.108,4.855,1.783,1.959,1.266,1.184,4,4.403,4.613,40,143.47371488,norm,0,18,18,18,97.444,97.454,97.4711022,97.471,97.473,97.474,down,1,1.23736290005,8.76263709995,001,316,1366_768,Intel(R) Core(TM) i7-8750H CPU @ 2.20GHz,orientation_search,GHUM-L-P55205,Intel(R) UHD Graphics 630,2018_Nov_08_1408,testMonitor,
343.6,352.4,346.0,338.7,36,-60,342.7,346.4,347.2,348.2,8.197,7.738,8.231,8.296,7.608,8.077,7.534,5.232,-4.302,-8.105,1.341,-1.495,7.514,5.258,-4.305,-8.115,358.7,348.4,-8.043,352.7,348.1,357.5,344.9,354.5,36,354.4,1,5,probe,5,0,89,norm,36,-4.99,up,norm,348.667219686,348.7,348.3,347.4,346.7,5,,343.2,349.1,10,5,8.173,4.642,2.089,-2.084,-5.215,-7.589,353.7,1,259.7,-7.995,-7.779,30,-8.1,-7.535,-5.236,-4.781,-4.975,-5.069,5.289,8.281,11,-1.735,1.738,5.002,8.431,-7.583,-8.485,-1.865,1.979,350.3,348.1,351.3,349.0,343.1,347.8,350.0,348.0,351.9,353.0,0,norm,1.126,1.486,-1.495,-1.159,-4.46,-4.857,-1.862,-1.987,-1.489,-1.377,1.765,-1.927,351.2,347.4,-4.733,-8.167,1.838,-1.3,8.31,5.077,-5.25,-7.921,5,4.898,5.176,5.048,5.191,1.329,1.418,1.254,1.287,5,4.77,4.786,30,227.690106864,norm,0,19,19,19,98.734,98.742,98.7544261001,98.755,98.756,98.758,up,1,1.06837910006,8.93162089994,001,316,1366_768,Intel(R) Core(TM) i7-8750H CPU @ 2.20GHz,orientation_search,GHUM-L-P55205,Intel(R) UHD Graphics 630,2018_Nov_08_1408,testMonitor,
274.1,277.1,282.3,268.4,36,80,283.7,288.6,260.9,274.7,8.436,8.199,8.217,8.432,8.294,8.104,7.539,4.515,-4.797,-8.226,1.979,-1.239,8.491,5.157,-5.133,-8.429,,269.4,-7.936,280.8,271.0,298.5,261.3,277.5,36,280.0,5,5,prime,10,0,65,norm,36,-4.985,up,norm,280.929519224,284.0,274.5,293.6,287.0,5,277.7,271.8,289.5,10,5,7.545,4.84,1.759,-1.7,-5.231,-8.121,300.9,5,345.9,-7.67,-8.5,80,-7.836,-7.99,-4.403,-4.82,-4.61,-4.461,5.008,8.092,35,-1.563,1.375,5.053,7.602,-8.143,-7.892,-1.16,1.527,295.7,280.9,287.9,278.1,284.7,283.7,290.0,270.7,285.1,277.7,0,norm,2.023,1.75,-1.127,-1.463,-4.585,-4.897,-1.657,-1.798,-1.955,-1.629,1.138,-1.308,282.0,277.9,-4.899,-7.593,1.524,-1.609,7.501,4.569,-5.019,-7.626,6,4.589,5.065,4.451,5.215,1.993,2.092,2.074,1.836,6,4.701,4.372,-60,227.690106864,norm,0,20,20,20,99.848,99.857,99.8707974,99.871,99.872,99.874,up,1,1.1696273,8.8303727,001,316,1366_768,Intel(R) Core(TM) i7-8750H CPU @ 2.20GHz,orientation_search,GHUM-L-P55205,Intel(R) UHD Graphics 630,2018_Nov_08_1408,testMonitor,
280.0,294.5,285.2,300.2,36,80,280.6,260.9,295.8,278.3,8.073,7.958,8.207,7.544,8.069,7.6,8.425,4.469,-5.098,-7.75,1.954,-1.59,8.027,4.749,-5.127,-8.072,282.8,273.1,-7.528,289.7,284.4,289.7,300.9,285.9,36,274.3,1,5,prime,10,0,82,norm,36,-4.704,down,norm,280.929519224,277.6,295.2,295.0,273.5,0,282.6,269.2,297.3,10,5,8.094,4.715,1.661,-1.942,-5.145,-8.418,276.1,5,362.9,-8.344,-8.257,80,-8.356,-7.766,-4.565,-4.85,-4.733,-4.794,4.383,7.958,6,-1.131,1.101,5.016,8.301,-7.914,-8.077,-2.007,1.102,284.2,276.6,275.4,300.0,264.0,284.0,291.9,,288.1,271.5,1,norm,1.223,1.385,-1.823,-1.446,-4.929,-5.186,-1.27,-1.698,-1.151,-1.411,1.539,-1.697,274.5,280.8,-4.315,-7.922,1.94,-1.345,8.098,5.217,-5.044,-7.656,6,4.668,4.706,4.51,4.586,1.212,1.587,2.055,1.24,6,5.079,4.801,-60,227.690106864,norm,0,21,21,21,101.063,101.072,101.0870851,101.087,101.089,101.091,down,1,1.41804929997,8.58195070003,001,316,1366_768,Intel(R) Core(TM) i7-8750H CPU @ 2.20GHz,orientation_search,GHUM-L-P55205,Intel(R) UHD Graphics 630,2018_Nov_08_1408,testMonitor,
274.4,271.2,282.0,297.8,36,80,290.9,260.9,279.0,283.9,8.009,7.892,7.944,8.37,8.151,7.606,8.186,4.41,-4.641,-7.721,1.659,-1.223,8.125,4.491,-4.751,-8.478,285.1,285.6,-7.66,282.3,273.1,263.2,281.0,287.5,36,277.5,1,5,prime,10,0,82,norm,36,-4.86,up,norm,280.929519224,300.9,278.1,289.3,279.6,3,275.2,280.5,280.4,10,5,7.633,4.387,1.16,-1.644,-4.357,-8.331,279.1,5,362.9,-7.672,-8.037,80,-7.714,-8.17,-4.462,-5.27,-5.211,-4.924,4.444,8.235,9,-1.386,1.141,4.859,8.155,-7.607,-7.537,-1.158,1.77,,292.1,278.9,276.0,291.7,279.8,279.9,277.9,293.4,287.0,2,norm,1.46,1.652,-1.771,-1.877,-4.986,-5.257,-1.131,-1.654,-1.468,-1.22,1.135,-1.865,297.1,280.6,-5.087,-7.918,1.549,-1.494,7.846,4.956,-4.636,-8.0,6,4.797,5.281,4.842,5.118,1.818,1.598,1.595,1.232,6,4.329,4.374,-60,227.690106864,norm,0,22,22,22,102.53,102.538,102.553566,102.554,102.555,102.557,up,1,0.984585599974,9.01541440003,001,316,1366_768,Intel(R) Core(TM) i7-8750H CPU @ 2.20GHz,orientation_search,GHUM-L-P55205,Intel(R) UHD Graphics 630,2018_Nov_08_1408,testMonitor,
279.9,271.3,287.2,264.4,36,80,286.3,263.5,277.1,275.3,8.31,7.738,7.72,7.812,8.303,8.253,8.344,4.428,-4.463,-7.727,1.969,-1.299,8.166,4.504,-4.797,-8.405,280.4,281.5,-8.171,282.2,275.9,280.1,294.8,286.7,36,271.8,0,5,prime,10,0,106,norm,36,-5.194,down,norm,280.929519224,300.9,287.7,294.4,289.9,0,288.2,273.4,277.3,10,5,8.036,5.084,1.589,-1.504,-4.967,-7.52,295.2,5,386.9,-7.747,-8.066,80,-7.552,-7.674,-4.975,-4.83,-5.219,-4.892,5.033,7.702,0,-1.596,1.19,4.527,7.942,-8.469,-7.957,-1.245,1.791,277.1,300.4,283.6,277.8,297.5,,282.3,278.5,290.6,288.3,3,norm,1.887,1.577,-1.441,-1.893,-4.905,-4.718,-1.562,-1.672,-1.431,-2.046,1.315,-2.1,264.0,260.9,-4.786,-8.333,1.729,-1.762,8.231,4.547,-5.105,-8.147,6,4.611,4.331,5.157,5.202,1.287,2.004,1.911,1.211,6,4.765,4.713,-60,227.690106864,norm,0,23,23,23,103.563,103.572,103.5866083,103.587,103.588,103.59,down,1,0.868008199963,9.13199180004,001,316,1366_768,Intel(R) Core(TM) i7-8750H CPU @ 2.20GHz,orientation_search,GHUM-L-P55205,Intel(R) UHD Graphics 630,2018_Nov_08_1408,testMonitor,
270.4,288.6,282.8,300.9,36,80,295.3,283.0,281.6,279.0,7.592,7.637,8.362,7.829,8.212,8.041,7.711,4.931,-4.459,-8.405,1.235,-1.57,8.028,4.925,-4.982,-8.484,263.4,275.6,-8.28,295.4,275.3,277.1,276.1,287.8,36,285.7,2,5,prime,10,0,97,norm,36,-4.809,down,norm,280.929519224,270.6,260.9,285.5,,2,276.3,295.6,276.9,10,5,8.059,5.096,1.902,-2.009,-4.793,-7.864,271.8,5,377.9,-7.874,-7.519,80,-8.329,-8.375,-5.2,-4.977,-4.708,-4.725,4.881,7.549,14,-1.898,2.019,4.571,8.111,-8.326,-8.068,-1.613,1.41,288.9,261.9,280.7,290.4,299.1,276.4,291.1,286.7,295.2,285.7,4,norm,1.233,1.417,-1.715,-1.369,-4.881,-4.893,-1.714,-2.077,-1.941,-1.169,1.236,-1.461,296.6,266.5,-4.98,-8.306,1.993,-2.081,7.681,5.114,-5.277,-8.282,6,4.982,4.341,5.083,5.206,1.532,2.084,1.702,1.927,6,4.972,4.953,-60,227.690106864,norm,0,24,24,24,104.479,104.488,104.5030339,104.503,104.505,104.506,down,1,1.0709089,8.9290911,001,316,1366_768,Intel(R) Core(TM) i7-8750H CPU @ 2.20GHz,orientation_search,GHUM-L-P55205,Intel(R) UHD Graphics 630,2018_Nov_08_1408,testMonitor,
430.6,434.1,436.9,430.6,36,-30,439.6,432.4,436.3,439.2,8.069,8.398,8.022,7.665,8.1,7.87,8.346,5.202,-4.922,-8.494,1.748,-1.137,7.51,4.312,-5.199,-7.612,438.3,433.0,-8.349,436.9,435.1,425.9,434.7,436.7,36,436.1,2,5,probe,5,0,82,norm,36,-4.398,down,norm,435.899283241,433.3,430.9,442.6,,2,437.4,434.5,434.9,10,5,8.254,4.568,1.187,-1.686,-4.489,-8.483,429.9,1,353.9,-8.45,-8.048,80,-8.184,-7.761,-4.683,-4.573,-4.379,-4.554,4.959,7.887,14,-1.737,1.706,5.137,8.4,-8.114,-8.114,-1.233,1.286,442.4,438.1,435.8,430.4,432.3,432.8,436.5,436.6,434.2,444.4,0,norm,1.36,1.694,-1.883,-1.562,-4.46,-4.875,-1.317,-1.302,-1.69,-1.157,1.344,-1.253,427.4,434.0,-5.202,-8.296,1.285,-1.799,8.431,4.846,-4.359,-8.032,7,4.553,4.5,4.908,4.573,2.076,1.823,1.821,1.424,7,4.422,5.213,80,280.929519224,norm,0,25,25,25,105.598,105.606,105.6192553,105.619,105.621,105.622,down,1,0.851193499984,9.14880650002,001,316,1366_768,Intel(R) Core(TM) i7-8750H CPU @ 2.20GHz,orientation_search,GHUM-L-P55205,Intel(R) UHD Graphics 630,2018_Nov_08_1408,testMonitor,
197.6,196.8,205.3,194.1,36,-30,197.4,181.4,196.6,195.1,8.036,8.065,8.092,8.402,8.029,7.537,8.216,4.447,-5.254,-7.713,1.202,-1.105,8.207,5.125,-5.183,-8.327,197.8,,-8.346,194.3,202.6,192.4,190.0,199.6,36,190.8,5,5,prime,10,0,75,norm,36,-4.465,up,norm,200.365942606,198.4,204.3,201.5,207.8,4,201.9,196.2,220.4,10,5,7.814,4.469,1.825,-1.717,-4.398,-7.552,180.4,5,275.4,-7.767,-8.259,-30,-7.693,-8.371,-4.961,-4.54,-5.133,-4.376,4.896,8.309,34,-1.949,1.476,5.025,7.523,-8.158,-8.137,-1.873,1.453,193.9,208.8,210.7,213.2,195.2,203.8,192.3,208.2,212.6,209.4,0,norm,1.826,1.489,-2.089,-2.006,-4.757,-4.304,-1.978,-1.94,-1.223,-1.902,1.346,-1.476,198.1,202.1,-4.462,-7.53,1.252,-1.542,7.646,4.58,-4.967,-8.23,8,5.183,5.203,4.591,5.272,1.915,1.298,1.113,1.249,8,4.63,4.381,-30,280.929519224,norm,0,26,26,26,106.494,106.503,106.5189072,106.519,106.52,106.522,up,1,1.0699756,8.9300244,001,316,1366_768,Intel(R) Core(TM) i7-8750H CPU @ 2.20GHz,orientation_search,GHUM-L-P55205,Intel(R) UHD Graphics 630,2018_Nov_08_1408,testMonitor,
212.6,220.4,194.8,201.5,36,-30,197.5,191.8,201.5,191.6,8.439,8.478,8.073,8.435,7.546,7.667,7.521,5.217,-4.678,-7.986,1.606,-1.965,7.602,4.836,-5.0,-8.216,204.6,192.2,-7.853,199.0,200.8,208.0,207.9,219.2,36,191.9,2,5,prime,10,0,90,norm,36,-4.633,down,norm,200.365942606,189.3,195.0,202.2,,2,194.3,195.7,184.7,10,5,8.292,5.19,1.813,-1.815,-4.726,-7.545,193.6,5,290.4,-7.534,-8.224,-30,-8.136,-7.689,-4.539,-4.981,-4.394,-5.276,4.434,8.42,14,-1.48,1.145,4.699,8.114,-7.767,-8.209,-1.788,1.162,192.2,212.5,198.3,206.6,201.1,194.7,214.3,198.9,215.5,210.6,1,norm,1.876,1.404,-1.766,-1.739,-4.545,-4.723,-1.727,-1.656,-1.969,-1.706,1.342,-1.487,207.0,180.4,-5.259,-7.783,1.762,-1.108,8.346,4.94,-5.076,-7.522,8,4.436,4.376,4.359,4.758,2.075,1.102,1.181,1.905,8,4.323,4.975,-30,280.929519224,norm,0,27,27,27,107.615,107.625,107.6354029,107.636,107.637,107.638,down,1,0.64251470007,9.35748529993,001,316,1366_768,Intel(R) Core(TM) i7-8750H CPU @ 2.20GHz,orientation_search,GHUM-L-P55205,Intel(R) UHD Graphics 630,2018_Nov_08_1408,testMonitor,
200.7,197.2,203.4,190.8,36,-30,187.9,198.8,201.1,202.2,7.571,7.533,8.499,7.975,8.155,7.818,7.68,4.978,-4.619,-8.283,1.246,-1.546,8.379,4.709,-4.649,-7.902,189.1,195.9,-8.008,182.7,204.6,206.1,210.0,184.0,36,195.6,2,5,prime,10,0,117,norm,36,-4.531,up,norm,200.365942606,,197.4,197.1,208.8,5,197.4,201.0,220.4,10,5,8.129,4.829,1.87,-1.38,-4.662,-7.895,209.8,5,317.4,-8.327,-7.971,-30,-8.271,-8.481,-4.665,-4.423,-5.128,-5.258,5.163,7.994,17,-1.359,1.825,4.674,7.772,-7.863,-8.48,-1.918,1.195,180.4,193.4,202.5,199.2,213.9,192.2,207.5,215.5,199.8,195.7,2,norm,1.833,1.967,-1.809,-1.274,-4.533,-4.616,-1.407,-2.029,-1.138,-1.7,1.312,-1.264,184.5,191.0,-5.145,-8.477,1.848,-1.183,7.529,4.943,-4.788,-7.872,8,4.354,5.284,5.254,5.037,1.44,1.581,1.921,1.783,8,4.614,4.858,-30,280.929519224,norm,0,28,28,28,108.295,108.301,108.3187037,108.319,108.32,108.322,up,1,0.568012199947,9.43198780005,001,316,1366_768,Intel(R) Core(TM) i7-8750H CPU @ 2.20GHz,orientation_search,GHUM-L-P55205,Intel(R) UHD Graphics 630,2018_Nov_08_1408,testMonitor,
220.4,220.3,192.5,194.6,36,-30,193.6,213.4,211.7,,8.455,7.787,7.873,7.603,7.845,8.047,8.147,5.205,-4.798,-8.146,1.189,-1.257,7.929,4.418,-4.6,-7.849,186.1,184.5,-7.692,203.3,205.8,216.8,189.8,208.1,36,203.2,4,5,prime,10,0,101,norm,36,-4.48,up,norm,200.365942606,216.2,190.7,189.2,210.6,5,187.7,209.1,186.5,10,5,8.083,5.165,1.928,-1.659,-4.361,-7.843,198.1,5,301.4,-7.849,-7.905,-30,-7.561,-8.241,-5.11,-4.713,-4.901,-4.427,4.79,7.976,29,-1.834,2.092,4.413,8.222,-8.124,-7.65,-1.553,1.934,194.9,206.1,197.7,180.4,201.0,204.4,191.4,192.7,199.3,212.4,3,norm,1.616,1.101,-1.888,-1.627,-5.23,-4.738,-1.492,-1.762,-1.243,-1.71,1.693,-1.558,205.8,198.8,-4.848,-7.912,2.075,-1.624,8.112,5.161,-4.54,-8.373,8,4.727,5.204,4.62,4.734,1.806,1.891,1.499,1.52,8,5.146,5.252,-30,280.929519224,norm,0,29,29,29,108.911,108.921,108.934819,108.935,108.936,108.938,up,1,0.770981199923,9.22901880008,001,316,1366_768,Intel(R) Core(TM) i7-8750H CPU @ 2.20GHz,orientation_search,GHUM-L-P55205,Intel(R) UHD Graphics 630,2018_Nov_08_1408,testMonitor,
199.1,199.0,182.5,220.4,36,-30,196.3,187.1,183.6,187.6,7.824,7.982,7.523,8.271,7.553,8.224,8.112,5.196,-4.594,-7.639,1.876,-2.068,8.038,4.767,-5.048,-8.152,187.0,194.6,-7.572,198.0,191.4,203.7,197.0,194.5,36,204.3,0,5,prime,10,0,75,norm,36,-4.375,up,norm,200.365942606,188.7,218.1,193.5,204.3,3,206.2,192.2,206.1,10,5,8.405,5.208,1.542,-1.998,-4.983,-8.47,195.8,5,275.4,-8.019,-7.525,-30,-7.897,-8.159,-5.224,-4.495,-4.644,-5.161,4.851,8.26,3,-1.742,1.309,5.263,7.853,-8.056,-8.209,-1.101,1.231,208.0,199.4,,209.6,191.8,215.3,201.8,199.5,200.6,194.1,4,norm,1.12,1.944,-1.871,-1.867,-4.743,-5.058,-1.144,-1.794,-2.073,-1.155,1.233,-1.823,205.9,190.9,-5.297,-7.73,1.5,-1.328,7.773,4.761,-4.892,-7.974,8,4.38,4.539,5.091,4.559,1.265,1.605,1.14,2.002,8,4.379,5.224,-30,280.929519224,norm,0,30,30,30,109.73,109.74,109.7515297,109.752,109.753,109.755,up,1,2.93560189998,7.06439810002,001,316,1366_768,Intel(R) Core(TM) i7-8750H CPU @ 2.20GHz,orientation_search,GHUM-L-P55205,Intel(R) UHD Graphics 630,2018_Nov_08_1408,testMonitor,
229.0,231.0,230.1,227.5,36,10,232.4,235.0,,227.4,8.294,8.417,8.193,8.177,7.942,8.335,8.31,4.922,-5.03,-8.474,1.191,-1.19,8.5,4.655,-4.654,-8.083,228.7,236.7,-7.636,226.4,224.6,235.8,238.4,231.8,36,226.1,4,5,probe,5,0,62,norm,36,-4.442,up,norm,230.676961447,230.9,226.7,223.7,230.9,4,237.1,228.2,226.6,10,5,8.165,5.087,1.706,-1.17,-4.66,-8.309,228.1,1,168.7,-7.707,-8.398,-30,-8.397,-7.637,-5.217,-4.964,-4.451,-4.828,4.487,7.729,28,-1.308,1.713,5.166,7.881,-7.528,-7.997,-2.003,1.796,220.7,230.8,234.3,233.4,220.9,227.6,223.4,235.2,221.2,240.7,0,norm,1.871,2.015,-1.564,-1.835,-4.678,-4.631,-1.612,-1.296,-1.227,-1.369,1.432,-1.227,229.9,223.8,-4.997,-8.446,1.482,-1.127,8.104,4.988,-5.252,-8.204,9,4.994,4.418,4.448,5.215,1.965,1.895,1.715,1.22,9,5.123,5.075,-30,200.365942606,norm,0,31,31,31,112.714,112.723,112.7340288,112.734,112.736,112.737,up,1,1.10122240009,8.89877759991,001,316,1366_768,Intel(R) Core(TM) i7-8750H CPU @ 2.20GHz,orientation_search,GHUM-L-P55205,Intel(R) UHD Graphics 630,2018_Nov_08_1408,testMonitor,
165.9,134.2,163.7,150.6,36,30,146.4,128.6,148.2,168.6,7.78,7.801,8.358,7.746,8.31,7.679,8.412,4.932,-4.446,-8.16,1.389,-2.0,8.101,4.472,-4.701,-7.999,157.0,152.9,-8.049,135.2,163.0,133.6,139.0,161.1,36,136.9,2,5,prime,10,0,108,norm,36,-5.137,up,norm,148.609309902,141.9,,138.9,143.8,4,164.2,149.6,142.2,10,6,7.704,5.259,1.393,-1.75,-5.109,-8.04,162.6,6,256.6,-7.588,-8.294,30,-8.388,-8.352,-4.946,-4.829,-4.576,-4.795,4.325,8.277,16,-1.726,1.138,5.23,7.774,-8.196,-8.19,-1.752,1.5,153.2,148.0,160.4,141.9,163.9,143.3,146.1,148.8,141.4,162.2,0,norm,1.532,1.773,-1.469,-1.102,-4.796,-4.341,-1.351,-1.989,-1.511,-2.037,1.941,-1.161,162.4,141.6,-4.508,-8.386,2.056,-1.5,7.685,5.108,-5.183,-7.765,10,4.468,4.458,5.168,4.693,1.234,2.007,1.765,1.665,10,5.105,4.695,10,200.365942606,norm,0,32,32,32,113.862,113.87,113.8838113,113.884,113.885,113.887,up,1,2.63414979994,7.36585020006,001,316,1366_768,Intel(R) Core(TM) i7-8750H CPU @ 2.20GHz,orientation_search,GHUM-L-P55205,Intel(R) UHD Graphics 630,2018_Nov_08_1408,testMonitor,
166.0,155.7,148.3,154.1,36,30,,158.5,154.6,145.2,8.492,7.829,8.239,8.496,7.747,7.814,8.48,4.678,-5.059,-8.271,1.41,-1.886,8.134,4.745,-4.392,-8.001,150.6,142.2,-8.411,128.6,138.7,140.0,151.3,158.3,36,168.6,4,5,prime,10,0,103,norm,36,-5.146,down,norm,148.609309902,149.9,136.1,130.8,165.0,0,145.5,150.9,143.6,10,6,8.365,4.742,1.21,-2.039,-5.028,-8.074,151.8,6,251.6,-8.166,-8.215,30,-7.62,-8.247,-5.1,-5.168,-4.504,-4.413,4.836,7.528,24,-1.581,1.751,4.57,8.08,-7.574,-8.238,-1.402,1.493,144.2,153.4,148.8,146.1,164.4,161.2,146.9,167.5,161.0,142.5,1,norm,1.565,1.528,-1.23,-1.753,-5.176,-4.953,-1.353,-1.455,-1.669,-1.438,1.231,-1.744,141.7,152.8,-4.541,-7.856,1.75,-1.585,7.565,5.29,-4.715,-8.385,10,5.084,4.321,4.359,4.448,1.858,1.425,1.389,1.385,10,5.257,4.602,10,200.365942606,norm,0,33,33,33,116.543,116.553,116.5660755,116.566,116.568,116.569,up,0,2.01920560002,-10,001,316,1366_768,Intel(R) Core(TM) i7-8750H CPU @ 2.20GHz,orientation_search,GHUM-L-P55205,Intel(R) UHD Graphics 630,2018_Nov_08_1408,testMonitor,
157.1,135.2,155.7,141.0,36,30,166.6,166.0,155.1,146.2,8.374,7.638,7.894,7.942,8.251,7.813,8.238,5.246,-5.119,-8.284,1.904,-1.414,8.075,4.637,-4.381,-7.666,132.5,153.9,-7.617,156.8,154.1,129.9,147.5,151.7,36,149.5,1,5,prime,10,0,94,norm,36,-4.881,up,norm,148.609309902,142.3,140.6,155.8,147.6,4,162.4,143.9,146.6,10,6,7.798,4.62,1.563,-1.711,-5.159,-7.51,,6,242.6,-8.302,-8.337,30,-7.568,-8.366,-4.301,-4.726,-4.56,-4.704,5.058,7.6,10,-1.529,2.093,4.771,8.405,-7.744,-8.427,-1.61,2.012,156.6,166.4,148.4,145.2,128.6,150.6,161.5,168.6,141.0,136.4,2,norm,1.237,1.71,-1.24,-1.529,-4.865,-5.118,-1.988,-1.859,-1.679,-1.995,1.653,-1.92,166.1,141.9,-5.11,-8.389,2.038,-1.226,8.015,4.982,-4.412,-7.994,10,4.357,5.016,5.084,5.124,1.404,1.566,1.778,1.423,10,5.205,4.599,10,200.365942606,norm,0,34,34,34,119.621,119.627,119.6329742,119.633,119.634,119.636,down,0,3.71701599995,-10,001,316,1366_768,Intel(R) Core(TM) i7-8750H CPU @ 2.20GHz,orientation_search,GHUM-L-P55205,Intel(R) UHD Graphics 630,2018_Nov_08_1408,testMonitor,
156.2,147.2,157.0,143.4,36,30,139.5,145.6,138.2,137.0,7.868,7.575,7.55,7.928,8.423,7.805,7.694,4.48,-4.899,-8.322,1.829,-1.266,7.566,4.7,-4.745,-7.758,155.4,154.8,-7.712,151.5,158.3,128.6,146.0,146.6,36,145.5,1,5,prime,10,0,90,norm,36,-5.129,down,norm,148.609309902,159.3,150.7,140.1,150.0,0,147.7,153.0,163.8,10,6,8.322,4.503,1.774,-1.551,-4.778,-7.905,149.6,6,238.6,-8.131,-8.025,30,-7.71,-7.753,-4.94,-4.73,-4.722,-5.162,4.888,8.496,6,-1.776,1.195,5.071,8.42,-8.061,-7.837,-1.464,1.742,146.0,161.7,137.7,139.3,168.6,160.9,155.6,,133.2,142.4,3,norm,1.263,1.757,-1.848,-1.778,-4.827,-4.679,-1.272,-1.644,-1.273,-1.795,1.326,-1.128,161.8,141.8,-5.068,-7.677,1.814,-1.418,7.608,4.992,-4.643,-7.588,10,4.311,4.739,4.487,5.062,1.702,1.36,1.231,1.625,10,4.981,4.43,10,200.365942606,norm,0,35,35,35,124.387,124.393,124.3982453,124.399,124.4,124.401,up,0,0.801265800023,-10,001,316,1366_768,Intel(R) Core(TM) i7-8750H CPU @ 2.20GHz,orientation_search,GHUM-L-P55205,Intel(R) UHD Graphics 630,2018_Nov_08_1408,testMonitor,
142.7,154.6,130.1,138.5,36,30,153.8,,147.4,137.2,7.693,7.97,7.988,8.386,8.181,7.883,8.283,4.701,-4.809,-8.102,1.39,-1.164,8.116,4.409,-5.04,-8.498,150.4,139.9,-8.391,140.2,157.2,159.5,139.7,143.6,36,139.8,4,5,prime,10,0,108,norm,36,-5.05,down,norm,148.609309902,133.6,150.6,137.3,153.3,1,138.6,140.1,128.6,10,6,7.809,5.026,1.82,-1.908,-4.609,-7.971,137.1,6,256.6,-8.247,-7.832,30,-8.359,-8.469,-4.523,-4.396,-5.26,-5.239,4.979,7.681,25,-1.4,1.532,4.947,7.619,-7.673,-8.267,-1.446,1.995,137.6,132.5,168.6,151.9,157.6,155.9,142.1,143.7,136.6,146.3,4,norm,1.853,2.059,-1.655,-1.192,-4.693,-5.11,-1.324,-2.066,-2.037,-1.568,1.963,-1.895,151.7,147.5,-4.873,-7.867,1.741,-1.302,8.154,4.398,-5.067,-7.792,10,5.168,5.187,5.278,4.474,1.32,1.292,1.899,2.036,10,5.16,4.579,10,200.365942606,norm,0,36,36,36,126.245,126.252,126.2634934,126.264,126.265,126.267,up,0,1.48571470007,-10,001,316,1366_768,Intel(R) Core(TM) i7-8750H CPU @ 2.20GHz,orientation_search,GHUM-L-P55205,Intel(R) UHD Graphics 630,2018_Nov_08_1408,testMonitor,
157.6,148.5,140.7,154.1,36,30,146.1,130.2,132.6,152.8,7.602,8.487,8.122,8.39,7.532,8.162,8.084,4.967,-4.494,-7.722,1.917,-1.309,8.356,5.009,-4.522,-8.074,,168.0,-7.671,141.3,145.3,157.6,147.7,144.0,36,144.7,5,5,prime,10,0,77,norm,36,-4.809,up,norm,148.609309902,153.0,136.9,168.6,145.5,5,147.0,152.0,143.6,10,6,7.795,4.713,1.433,-1.63,-4.579,-7.62,133.9,6,225.6,-7.948,-7.506,30,-8.442,-7.864,-5.007,-4.993,-4.89,-4.304,4.723,8.351,35,-1.512,1.364,4.755,8.371,-7.839,-8.206,-1.441,1.758,136.6,146.8,146.4,141.5,149.9,153.7,146.2,161.2,151.1,146.7,5,norm,1.497,1.763,-1.582,-1.805,-4.965,-4.437,-1.893,-1.942,-1.896,-1.663,1.209,-1.837,128.6,142.5,-4.869,-7.803,1.695,-1.394,7.857,4.887,-4.386,-8.186,10,5.168,5.175,4.71,4.817,1.846,1.91,1.928,1.995,10,4.348,4.695,10,200.365942606,norm,0,37,37,37,128.793,128.799,128.8129297,128.813,128.814,128.816,down,0,0.366778300027,-10,001,316,1366_768,Intel(R) Core(TM) i7-8750H CPU @ 2.20GHz,orientation_search,GHUM-L-P55205,Intel(R) UHD Graphics 630,2018_Nov_08_1408,testMonitor,
271.4,272.6,281.2,273.3,36,20,275.9,272.6,276.3,264.8,7.942,8.138,8.114,8.226,8.091,8.242,8.297,5.206,-4.594,-7.556,2.0,-1.119,7.79,4.861,-4.426,-7.979,270.5,275.0,-7.762,263.3,272.6,270.2,266.8,267.0,36,271.8,2,5,probe,5,0,90,norm,36,-4.471,down,norm,271.185514487,261.3,265.1,279.2,,2,270.3,271.4,273.3,10,6,8.176,4.977,2.09,-2.049,-4.354,-8.262,271.1,1,181.2,-8.492,-8.479,30,-8.081,-8.125,-4.531,-5.288,-4.763,-5.299,4.502,7.644,14,-1.508,1.225,4.412,8.298,-7.768,-8.405,-1.252,1.203,277.8,261.2,275.4,266.8,274.1,276.5,275.5,267.4,268.6,266.4,0,norm,2.011,1.896,-1.435,-1.177,-4.422,-4.368,-1.441,-1.661,-1.22,-1.548,1.34,-1.263,268.1,263.3,-4.368,-7.679,1.49,-1.328,8.029,4.908,-4.369,-7.579,11,4.316,4.772,4.843,4.474,1.698,1.493,2.028,1.802,11,4.626,5.141,30,148.609309902,norm,0,38,38,38,130.214,130.221,130.2303048,130.231,130.232,130.233,down,1,1.81699750002,8.18300249998,001,316,1366_768,Intel(R) Core(TM) i7-8750H CPU @ 2.20GHz,orientation_search,GHUM-L-P55205,Intel(R) UHD Graphics 630,2018_Nov_08_1408,testMonitor,
310.7,311.4,284.1,300.2,36,-10,288.7,304.1,295.1,293.4,7.611,8.336,8.202,7.695,7.783,7.705,8.078,5.263,-5.247,-7.757,1.762,-1.16,7.991,4.805,-5.286,-8.317,287.5,285.7,-8.088,276.9,296.1,275.5,291.8,306.0,36,313.5,1,5,prime,10,0,107,norm,36,-5.14,up,norm,295.521299808,296.5,295.5,305.5,309.3,3,289.5,315.5,306.0,10,6,8.116,4.578,1.31,-1.192,-5.147,-7.89,281.3,6,402.5,-8.086,-8.112,-10,-8.257,-8.045,-4.502,-4.99,-4.313,-5.023,5.054,7.981,9,-1.31,1.719,5.233,8.064,-7.553,-7.912,-1.409,1.732,,308.7,303.7,298.9,288.3,294.1,309.7,304.3,306.2,302.5,0,norm,1.165,1.342,-1.119,-1.98,-4.589,-4.414,-1.715,-1.262,-1.758,-1.179,1.559,-1.849,290.8,308.7,-5.041,-8.413,1.575,-1.499,8.469,4.652,-4.766,-7.582,12,4.722,5.104,4.315,5.031,1.384,1.379,1.682,1.126,12,4.416,4.467,20,148.609309902,norm,0,39,39,39,132.071,132.08,132.0950111,132.095,132.097,132.098,up,1,2.00827830005,7.99172169995,001,316,1366_768,Intel(R) Core(TM) i7-8750H CPU @ 2.20GHz,orientation_search,GHUM-L-P55205,Intel(R) UHD Graphics 630,2018_Nov_08_1408,testMonitor,
295.5,293.6,285.6,303.6,36,-10,298.4,286.3,289.5,297.1,7.778,7.942,7.501,8.14,8.373,8.05,7.685,4.403,-4.625,-8.268,2.006,-1.671,7.744,5.116,-4.307,-7.688,298.3,300.4,-8.369,296.6,294.4,292.1,284.1,296.3,36,275.5,2,5,prime,10,0,80,norm,36,-5.115,down,norm,295.521299808,307.0,296.2,289.8,293.2,0,277.3,315.5,,10,6,8.18,4.859,1.617,-1.371,-4.883,-7.967,292.6,6,375.5,-7.764,-8.277,-10,-8.063,-8.315,-4.333,-5.226,-4.922,-5.288,4.343,7.588,12,-1.683,1.867,4.613,8.248,-7.656,-7.666,-1.194,2.081,300.8,278.2,308.1,291.6,297.3,276.1,305.4,299.0,295.8,307.1,1,norm,1.984,1.213,-1.663,-1.802,-5.121,-4.338,-1.59,-2.031,-1.777,-1.903,1.946,-1.498,306.5,306.4,-5.004,-7.655,1.299,-1.987,7.695,5.032,-4.697,-7.687,12,4.648,4.32,4.729,5.257,1.737,1.304,1.713,1.387,12,4.568,5.117,20,148.609309902,norm,0,40,40,40,134.128,134.137,134.1461844,134.146,134.148,134.149,down,1,1.15084879997,8.84915120003,001,316,1366_768,Intel(R) Core(TM) i7-8750H CPU @ 2.20GHz,orientation_search,GHUM-L-P55205,Intel(R) UHD Graphics 630,2018_Nov_08_1408,testMonitor,
293.0,304.9,287.5,288.8,36,-10,301.1,288.4,285.0,302.7,8.176,8.225,8.216,8.151,7.543,8.322,8.468,4.791,-4.39,-8.288,1.553,-1.386,8.262,4.678,-5.092,-7.667,292.7,306.7,-7.569,303.6,300.7,302.9,287.9,291.9,36,315.5,0,5,prime,10,0,96,norm,36,-4.697,up,norm,295.521299808,295.8,292.9,281.6,309.0,4,291.6,275.5,291.1,10,6,8.069,4.739,2.089,-1.29,-4.593,-8.414,311.7,6,391.5,-8.02,-7.808,-10,-8.081,-7.968,-5.178,-4.374,-5.198,-4.917,4.515,7.714,4,-1.396,1.16,5.255,7.786,-8.245,-7.965,-1.248,1.882,304.1,298.8,304.5,314.0,278.0,288.8,298.9,291.4,289.4,,2,norm,1.25,1.423,-1.501,-1.44,-4.963,-4.895,-1.902,-1.536,-1.429,-1.602,1.586,-1.616,294.9,297.5,-5.269,-8.385,1.917,-1.66,7.692,5.141,-4.564,-8.278,12,4.628,4.605,5.225,4.461,1.401,1.884,1.962,1.356,12,4.708,4.31,20,148.609309902,norm,0,41,41,41,135.32,135.33,135.3448097,135.345,135.346,135.348,up,1,1.33604680002,8.66395319998,001,316,1366_768,Intel(R) Core(TM) i7-8750H CPU @ 2.20GHz,orientation_search,GHUM-L-P55205,Intel(R) UHD Graphics 630,2018_Nov_08_1408,testMonitor,
303.2,280.0,287.1,275.7,36,-10,315.5,275.5,287.0,284.1,8.205,7.621,8.19,8.073,7.791,7.565,8.285,4.343,-4.868,-7.702,1.496,-1.677,7.502,4.726,-4.555,-7.935,313.6,286.1,-8.214,285.2,302.7,298.3,289.3,299.1,36,285.8,2,5,prime,10,0,91,norm,36,-4.969,up,norm,295.521299808,278.2,,301.1,298.0,4,292.2,287.0,287.7,10,6,8.137,5.099,1.534,-1.175,-4.74,-7.622,294.2,6,386.5,-7.614,-8.1,-10,-8.062,-7.84,-5.232,-4.985,-4.65,-4.789,4.616,8.186,16,-1.271,1.234,5.014,8.466,-8.143,-7.773,-1.249,1.471,294.6,292.0,284.9,277.6,298.6,304.5,292.4,283.9,289.6,294.7,3,norm,2.022,1.801,-2.1,-1.82,-5.04,-5.218,-1.488,-1.153,-1.8,-1.923,1.606,-1.181,313.5,300.1,-4.442,-8.403,1.341,-1.521,8.341,4.312,-4.961,-7.899,12,5.225,5.191,4.914,4.683,1.109,2.008,1.358,1.374,12,5.191,4.604,20,148.609309902,norm,0,42,42,42,136.697,136.703,136.711968,136.712,136.713,136.715,up,1,0.784152499982,9.21584750002,001,316,1366_768,Intel(R) Core(TM) i7-8750H CPU @ 2.20GHz,orientation_search,GHUM-L-P55205,Intel(R) UHD Graphics 630,2018_Nov_08_1408,testMonitor,
307.3,300.8,294.0,285.9,36,-10,299.2,315.5,297.9,298.0,7.697,7.604,7.549,8.306,7.761,8.086,8.112,4.847,-5.105,-8.313,1.745,-2.032,7.649,5.008,-4.354,-7.51,302.9,282.0,-8.436,289.0,,283.7,295.7,300.4,36,286.4,5,5,prime,10,0,96,norm,36,-5.093,down,norm,295.521299808,293.7,301.4,276.7,298.4,0,310.6,293.4,275.5,10,6,7.724,4.47,1.186,-2.075,-5.25,-8.463,288.2,6,391.5,-8.392,-7.974,-10,-7.848,-8.078,-5.228,-4.724,-4.728,-5.213,4.658,8.205,30,-1.591,2.068,4.733,7.689,-8.383,-7.903,-1.474,1.226,308.5,295.2,294.2,304.7,307.6,281.0,311.7,289.5,300.8,296.3,4,norm,1.594,1.54,-1.128,-1.886,-4.473,-4.944,-1.234,-1.325,-1.279,-1.202,1.696,-1.612,303.2,279.4,-4.373,-7.629,1.31,-1.717,8.235,4.763,-4.57,-8.069,12,5.247,4.903,5.283,4.661,1.963,1.956,1.723,1.583,12,5.161,4.392,20,148.609309902,norm,0,43,43,43,137.521,137.531,137.5441168,137.544,137.546,137.547,down,1,0.9046467999,9.0953532001,001,316,1366_768,Intel(R) Core(TM) i7-8750H CPU @ 2.20GHz,orientation_search,GHUM-L-P55205,Intel(R) UHD Graphics 630,2018_Nov_08_1408,testMonitor,
303.4,276.0,275.5,315.5,36,-10,281.0,305.0,280.1,298.0,8.205,7.724,8.23,7.983,8.12,7.951,8.302,4.714,-4.905,-7.601,1.741,-1.212,7.627,5.279,-4.696,-8.378,296.6,291.1,-7.854,303.0,288.2,291.8,297.7,,36,285.3,4,5,prime,10,0,62,norm,36,-4.797,down,norm,295.521299808,309.1,280.2,296.5,292.8,2,291.9,284.3,289.8,10,6,8.229,4.849,1.996,-1.361,-5.198,-7.916,283.9,6,357.5,-7.903,-8.245,-10,-7.742,-7.757,-4.523,-4.642,-4.898,-4.63,4.343,8.023,26,-1.475,1.639,5.055,8.49,-7.604,-7.782,-1.14,1.843,305.0,307.7,295.3,310.6,296.9,283.6,290.1,300.1,304.3,284.4,5,norm,1.423,1.562,-1.803,-1.824,-5.218,-4.684,-1.445,-1.922,-1.526,-1.651,2.015,-1.355,305.0,286.7,-5.144,-8.216,1.931,-1.726,7.649,4.745,-4.409,-7.97,12,4.493,4.554,4.696,4.632,2.094,1.409,1.618,1.44,12,5.105,5.101,20,148.609309902,norm,0,44,44,44,138.473,138.482,138.4936142,138.494,138.495,138.497,down,1,1.32251660002,8.67748339998,001,316,1366_768,Intel(R) Core(TM) i7-8750H CPU @ 2.20GHz,orientation_search,GHUM-L-P55205,Intel(R) UHD Graphics 630,2018_Nov_08_1408,testMonitor,
365.6,363.8,358.9,,36,-20,371.9,357.2,351.9,352.3,7.605,8.486,7.984,7.756,8.266,7.532,7.685,4.432,-4.829,-8.16,1.704,-1.536,7.894,4.311,-5.075,-7.879,353.9,357.9,-7.92,363.4,364.2,366.0,359.0,371.4,36,369.0,3,5,probe,5,0,75,norm,36,-4.538,up,norm,361.85027944,367.4,359.6,367.3,354.7,3,358.2,354.9,362.9,10,6,7.882,4.782,1.917,-1.943,-5.258,-8.259,353.7,2,286.9,-7.947,-8.45,-10,-8.073,-7.602,-4.341,-5.276,-4.415,-5.004,4.834,8.419,21,-2.008,1.418,4.396,8.042,-8.147,-7.689,-1.753,1.27,356.4,370.7,367.5,364.4,362.3,364.4,363.0,361.8,368.1,362.2,0,norm,1.474,1.491,-1.644,-1.935,-5.002,-4.483,-1.653,-1.944,-1.529,-1.467,1.117,-2.061,359.1,364.2,-4.515,-8.144,1.913,-1.163,7.821,4.336,-4.836,-7.718,13,5.076,4.807,4.611,4.935,1.814,1.12,1.511,1.618,13,4.357,5.051,-10,295.521299808,norm,0,45,45,45,139.841,139.85,139.8602169,139.86,139.862,139.863,up,1,1.78179449996,8.21820550004,001,316,1366_768,Intel(R) Core(TM) i7-8750H CPU @ 2.20GHz,orientation_search,GHUM-L-P55205,Intel(R) UHD Graphics 630,2018_Nov_08_1408,testMonitor,
,372.2,373.9,379.4,36,-20,373.8,372.8,372.9,366.8,8.192,8.46,8.116,7.888,7.566,7.84,8.014,4.634,-4.503,-7.54,1.703,-1.292,7.608,4.603,-4.483,-7.99,378.6,377.0,-7.643,378.5,370.7,373.5,361.9,371.4,36,374.1,3,5,probe,5,0,85,norm,36,-4.732,up,norm,371.85027944,378.1,377.8,365.1,363.8,4,381.9,369.3,368.7,10,6,8.041,5.09,1.294,-1.65,-4.645,-8.029,370.3,2,286.9,-8.494,-8.227,-10,-7.775,-8.148,-4.822,-4.401,-4.822,-5.284,5.231,7.56,22,-1.501,1.146,5.096,8.293,-8.157,-8.407,-1.788,1.477,372.8,368.0,371.8,372.0,372.8,370.4,377.8,371.9,374.8,374.1,1,norm,1.714,1.915,-1.415,-1.635,-4.45,-5.18,-1.814,-1.245,-1.294,-1.233,1.893,-1.897,372.5,367.2,-4.591,-7.694,1.407,-1.857,7.579,5.299,-4.385,-7.625,13,4.957,4.797,4.912,4.758,1.246,2.08,2.079,1.185,13,4.33,4.376,-10,295.521299808,norm,0,46,46,46,141.661,141.669,141.6773338,141.678,141.679,141.681,up,1,0.750852399971,9.24914760003,001,316,1366_768,Intel(R) Core(TM) i7-8750H CPU @ 2.20GHz,orientation_search,GHUM-L-P55205,Intel(R) UHD Graphics 630,2018_Nov_08_1408,testMonitor,
344.9,350.0,346.6,345.1,36,60,352.2,338.7,338.3,331.0,7.912,7.902,7.982,7.823,7.684,8.152,7.934,4.682,-4.962,-7.948,1.56,-1.591,7.608,4.31,-4.771,-8.485,320.6,334.3,-8.467,338.5,333.6,352.7,324.3,330.9,36,329.1,2,5,prime,10,0,116,norm,36,-4.628,up,norm,338.751790246,337.1,328.4,,326.0,3,339.3,319.5,342.2,10,5,8.363,5.23,2.033,-1.811,-5.086,-7.977,356.8,5,454.8,-7.858,-8.079,60,-7.865,-7.994,-4.928,-4.934,-5.015,-4.423,4.642,7.583,15,-1.408,1.474,5.009,7.93,-8.395,-8.468,-1.371,1.829,318.8,336.5,324.0,350.5,355.9,358.8,331.7,341.4,346.1,332.0,0,norm,1.931,1.826,-1.941,-1.172,-4.654,-5.017,-1.169,-1.278,-1.944,-1.531,1.425,-1.458,351.7,350.4,-4.849,-7.942,1.911,-1.708,8.362,5.036,-4.552,-8.135,14,5.221,4.567,4.69,4.321,1.768,1.401,1.141,1.39,14,5.148,4.684,-20,295.521299808,norm,0,47,47,47,142.454,142.465,142.4759469,142.476,142.477,142.479,down,0,0.969693900086,-10,001,316,1366_768,Intel(R) Core(TM) i7-8750H CPU @ 2.20GHz,orientation_search,GHUM-L-P55205,Intel(R) UHD Graphics 630,2018_Nov_08_1408,testMonitor,
325.1,336.9,355.7,,36,60,345.2,330.9,338.4,358.8,7.856,7.664,7.839,7.844,7.665,7.853,8.041,5.046,-4.83,-8.052,1.709,-1.596,7.543,5.037,-4.896,-7.728,348.1,332.5,-7.981,333.3,333.7,341.4,343.9,328.2,36,341.1,3,5,prime,10,0,66,norm,36,-4.775,up,norm,338.751790246,336.4,346.1,340.8,338.7,3,345.5,355.3,339.2,10,5,8.279,5.087,1.873,-1.953,-4.603,-7.551,333.8,5,404.8,-8.183,-8.105,60,-8.054,-7.945,-5.211,-5.023,-5.076,-4.769,4.584,7.661,21,-1.438,1.985,5.231,8.028,-7.982,-7.801,-1.356,1.638,339.1,318.8,332.1,346.7,331.1,327.4,344.5,349.1,329.8,334.9,1,norm,1.188,1.501,-1.129,-1.901,-4.86,-4.841,-1.72,-1.432,-1.161,-1.67,1.121,-2.034,337.0,344.4,-5.072,-7.958,1.452,-2.034,7.79,5.033,-4.751,-8.423,14,5.106,4.575,4.418,4.739,1.568,1.906,1.714,1.282,14,4.62,4.668,-20,295.521299808,norm,0,48,48,48,144.49,144.496,144.5087677,144.509,144.51,144.512,up,1,1.05383669992,8.94616330008,001,316,1366_768,Intel(R) Core(TM) i7-8750H CPU @ 2.20GHz,orientation_search,GHUM-L-P55205,Intel(R) UHD Graphics 630,2018_Nov_08_1408,testMonitor,
332.6,354.1,352.6,341.2,36,60,327.9,321.7,331.5,345.4,8.058,7.544,8.421,8.347,8.371,7.947,7.526,5.11,-5.083,-8.415,1.891,-1.831,7.522,5.145,-4.637,-8.303,343.5,347.6,-8.158,327.6,340.5,333.6,332.6,330.2,36,351.8,2,5,prime,10,0,66,norm,36,-4.964,up,norm,338.751790246,350.0,,337.4,340.2,4,342.9,346.8,351.4,10,5,8.015,4.86,1.461,-1.344,-5.294,-7.701,354.3,5,404.8,-8.259,-8.05,60,-7.999,-8.3,-4.523,-4.546,-5.095,-5.295,4.512,7.739,16,-1.865,1.546,4.341,7.75,-8.183,-7.939,-1.519,1.491,345.2,350.2,319.8,333.1,329.8,344.9,358.7,318.8,349.6,351.5,2,norm,1.346,1.419,-1.468,-1.176,-4.375,-4.322,-1.497,-1.856,-1.13,-1.197,1.926,-1.913,340.4,358.8,-4.984,-7.573,2.022,-1.322,8.149,4.812,-4.631,-7.503,14,4.514,4.831,4.833,4.744,1.236,1.64,2.095,1.941,14,4.349,5.063,-20,295.521299808,norm,0,49,49,49,145.587,145.596,145.608722,145.609,145.61,145.612,up,1,1.52188849996,8.47811150004,001,316,1366_768,Intel(R) Core(TM) i7-8750H CPU @ 2.20GHz,orientation_search,GHUM-L-P55205,Intel(R) UHD Graphics 630,2018_Nov_08_1408,testMonitor,
338.8,325.0,329.4,356.9,36,60,318.8,344.2,344.8,331.5,8.004,7.623,8.115,8.449,8.195,8.278,7.779,4.663,-4.978,-7.914,1.359,-1.204,7.932,5.074,-4.784,-7.883,355.2,336.0,-7.935,351.3,335.2,338.8,340.5,341.3,36,337.3,1,5,prime,10,0,72,norm,36,-5.106,up,norm,338.751790246,333.7,328.7,342.4,347.2,4,351.1,327.2,352.9,10,5,7.593,5.038,2.091,-1.86,-5.253,-8.173,,5,410.8,-8.393,-8.482,60,-8.129,-8.405,-5.001,-5.089,-4.45,-4.752,4.72,8.14,10,-1.309,1.829,4.877,7.556,-8.244,-8.232,-1.377,1.316,344.1,335.9,350.4,347.4,327.6,336.8,332.1,348.8,343.8,341.7,3,norm,2.09,2.017,-1.592,-1.488,-5.299,-5.145,-1.122,-1.152,-1.415,-1.647,1.648,-1.565,347.3,358.8,-4.627,-8.259,1.685,-1.22,8.429,4.609,-4.92,-8.223,14,5.119,5.215,5.001,5.283,1.517,1.318,2.087,2.06,14,5.223,4.782,-20,295.521299808,norm,0,50,50,50,147.158,147.168,147.1760072,147.176,147.178,147.179,up,1,1.85013289994,8.14986710006,001,316,1366_768,Intel(R) Core(TM) i7-8750H CPU @ 2.20GHz,orientation_search,GHUM-L-P55205,Intel(R) UHD Graphics 630,2018_Nov_08_1408,testMonitor,
347.5,342.3,346.0,343.7,36,60,337.2,337.5,344.8,334.4,7.503,8.318,8.255,8.352,8.32,8.141,8.231,5.206,-4.5,-7.831,1.662,-1.575,7.779,4.41,-5.036,-8.334,352.5,337.7,-8.043,335.0,324.4,318.8,334.4,336.4,36,353.5,2,5,prime,10,0,110,norm,36,-4.742,up,norm,338.751790246,337.7,357.4,,334.2,3,339.0,337.7,351.6,10,5,8.25,4.654,2.081,-1.281,-4.537,-7.601,344.1,5,448.8,-7.542,-7.644,60,-7.875,-7.99,-4.602,-4.846,-4.607,-4.963,5.221,8.402,15,-1.501,1.818,4.98,8.09,-7.556,-7.565,-1.216,1.405,341.5,323.2,343.4,341.6,327.8,339.5,327.9,333.9,349.5,348.2,4,norm,1.101,1.422,-1.706,-1.397,-5.084,-4.478,-1.999,-1.119,-1.451,-1.99,1.948,-1.992,358.8,334.0,-4.325,-7.584,1.961,-2.083,7.532,4.327,-4.331,-8.492,14,5.183,4.675,4.635,4.804,1.253,1.61,1.629,1.608,14,4.8,4.771,-20,295.521299808,norm,0,51,51,51,149.051,149.06,149.0747696,149.075,149.076,149.078,up,1,2.36762000003,7.63237999997,001,316,1366_768,Intel(R) Core(TM) i7-8750H CPU @ 2.20GHz,orientation_search,GHUM-L-P55205,Intel(R) UHD Graphics 630,2018_Nov_08_1408,testMonitor,
479.0,467.8,468.9,472.8,36,-80,466.1,481.9,479.9,480.6,7.746,8.293,7.662,7.735,8.403,8.176,7.857,4.364,-4.626,-8.472,1.405,-1.242,8.446,4.506,-4.749,-7.549,472.9,475.1,-8.02,476.4,469.2,471.5,,478.9,36,474.5,5,5,probe,5,0,69,norm,36,-5.035,down,norm,476.055448198,472.8,479.8,486.1,484.8,2,472.1,475.2,475.7,10,5,8.354,4.528,1.619,-1.549,-4.796,-8.102,474.1,1,407.1,-7.547,-8.076,60,-8.227,-7.822,-4.784,-5.226,-5.238,-5.055,5.057,7.969,32,-2.061,1.899,5.014,7.882,-8.43,-8.292,-1.374,1.716,474.8,476.4,470.0,479.2,479.4,476.7,484.0,477.8,474.8,481.2,0,norm,1.956,1.951,-1.273,-1.698,-4.466,-4.344,-1.177,-1.297,-1.318,-1.549,1.858,-1.209,468.8,476.1,-4.462,-8.173,2.03,-1.461,7.541,4.869,-5.226,-8.404,15,4.976,4.761,4.817,5.076,1.731,2.005,1.385,1.923,15,5.018,4.947,60,338.751790246,norm,0,52,52,52,151.467,151.473,151.4907271,151.491,151.492,151.494,down,1,1.1851457,8.8148543,001,316,1366_768,Intel(R) Core(TM) i7-8750H CPU @ 2.20GHz,orientation_search,GHUM-L-P55205,Intel(R) UHD Graphics 630,2018_Nov_08_1408,testMonitor,
220.0,223.1,212.9,211.8,36,80,214.0,211.8,224.8,244.0,7.863,7.709,7.72,7.796,7.548,8.443,8.225,4.572,-4.435,-7.66,1.644,-1.768,8.416,5.132,-5.059,-8.143,215.7,225.1,-8.182,222.0,234.7,225.9,223.8,228.8,36,220.5,1,5,prime,10,0,89,norm,36,-5.002,up,norm,223.994717029,227.6,229.8,220.7,219.3,4,228.4,223.5,227.2,10,6,8.482,4.875,1.603,-1.646,-5.202,-7.812,,6,313.0,-8.191,-8.212,80,-8.012,-8.301,-4.346,-4.859,-5.176,-4.655,4.601,7.686,10,-1.112,1.29,4.416,7.544,-7.817,-8.145,-1.913,1.701,221.5,224.7,206.4,238.1,220.5,230.2,217.8,232.7,220.4,233.1,0,norm,1.835,1.197,-1.255,-1.762,-4.924,-4.615,-1.743,-1.567,-1.502,-1.448,1.515,-2.004,227.0,229.0,-4.397,-7.816,1.436,-1.542,8.107,4.334,-4.346,-7.73,16,5.109,4.679,4.584,4.836,1.284,1.791,1.413,1.345,16,4.738,4.424,-80,338.751790246,norm,0,53,53,53,152.702,152.712,152.723492,152.724,152.725,152.727,up,1,0.9680009,9.0319991,001,316,1366_768,Intel(R) Core(TM) i7-8750H CPU @ 2.20GHz,orientation_search,GHUM-L-P55205,Intel(R) UHD Graphics 630,2018_Nov_08_1408,testMonitor,
236.9,228.6,215.3,230.1,36,80,204.0,236.9,220.1,211.9,8.028,7.73,7.894,8.001,7.789,7.528,7.529,4.45,-4.663,-7.568,1.796,-1.51,7.532,4.351,-4.955,-8.003,239.6,225.2,-7.569,233.1,225.3,244.0,232.5,224.3,36,211.1,2,5,prime,10,0,77,norm,36,-4.895,down,norm,223.994717029,235.3,223.5,218.2,,2,239.1,217.6,224.5,10,6,8.349,5.221,1.59,-1.418,-4.978,-8.121,214.5,6,301.0,-8.317,-8.047,80,-7.638,-7.783,-4.505,-4.975,-4.352,-5.23,4.504,8.262,14,-1.544,1.519,4.889,7.629,-8.113,-8.143,-1.692,1.513,227.6,240.4,231.6,205.1,218.5,226.3,219.4,227.2,238.4,224.8,1,norm,1.122,1.571,-1.324,-1.983,-4.987,-4.91,-1.917,-1.285,-1.452,-1.678,1.243,-1.441,216.8,239.8,-4.469,-7.721,1.31,-1.41,7.885,4.506,-4.63,-8.178,16,4.545,4.498,5.271,4.416,1.874,1.8,1.449,2.039,16,4.408,4.346,-80,338.751790246,norm,0,54,54,54,153.717,153.726,153.7398993,153.74,153.741,153.743,down,1,0.785301399999,9.2146986,001,316,1366_768,Intel(R) Core(TM) i7-8750H CPU @ 2.20GHz,orientation_search,GHUM-L-P55205,Intel(R) UHD Graphics 630,2018_Nov_08_1408,testMonitor,
231.6,233.0,208.1,233.0,36,80,224.7,212.4,215.7,222.6,7.587,7.681,8.207,8.298,7.785,7.503,8.008,5.035,-4.995,-8.405,1.506,-1.681,7.523,4.405,-4.736,-8.218,220.9,242.1,-8.222,232.8,226.2,206.7,226.7,220.1,36,228.8,0,5,prime,10,0,68,norm,36,-4.641,up,norm,223.994717029,228.9,212.8,234.5,214.4,3,227.9,224.0,228.5,10,6,7.986,4.691,1.366,-1.418,-5.16,-8.476,226.0,6,292.0,-7.615,-8.018,80,-8.365,-7.941,-4.739,-5.038,-4.373,-5.262,4.44,7.723,3,-1.221,1.29,4.464,8.089,-7.98,-8.16,-2.042,1.532,204.0,214.1,,237.6,213.5,222.4,221.5,237.4,226.7,219.3,2,norm,1.619,1.22,-1.343,-1.945,-5.228,-5.124,-1.296,-1.818,-1.874,-1.666,1.329,-1.344,226.3,244.0,-4.674,-8.462,1.678,-1.276,7.776,4.475,-5.059,-8.11,16,4.493,5.229,5.012,5.257,1.119,1.574,1.278,1.229,16,5.031,5.088,-80,338.751790246,norm,0,55,55,55,154.549,154.559,154.5730457,154.573,154.575,154.576,up,1,0.565715600038,9.43428439996,001,316,1366_768,Intel(R) Core(TM) i7-8750H CPU @ 2.20GHz,orientation_search,GHUM-L-P55205,Intel(R) UHD Graphics 630,2018_Nov_08_1408,testMonitor,
244.0,220.5,235.2,221.0,36,80,213.3,235.8,228.3,238.0,8.106,8.494,8.483,8.183,8.386,7.615,8.428,4.379,-5.173,-8.033,1.902,-1.138,7.771,5.279,-4.8,-8.495,221.1,,-7.694,235.5,222.4,204.0,231.7,214.7,36,204.3,5,5,prime,10,0,90,norm,36,-4.728,up,norm,223.994717029,221.3,231.9,226.7,209.9,4,218.6,243.2,219.4,10,6,8.027,5.236,1.718,-1.998,-5.072,-8.309,224.7,6,314.0,-8.057,-8.258,80,-7.809,-7.625,-5.176,-4.558,-4.901,-4.527,5.136,8.277,34,-1.824,1.252,4.863,7.971,-7.785,-7.902,-1.191,1.562,228.2,222.9,227.1,224.6,208.5,231.3,228.0,219.8,223.0,217.1,3,norm,1.532,1.604,-1.324,-1.803,-5.074,-4.302,-2.002,-1.453,-1.586,-1.51,1.685,-1.214,217.2,230.3,-5.272,-7.73,1.465,-1.807,8.34,4.992,-5.171,-7.59,16,4.644,4.419,4.44,5.266,2.002,1.261,2.096,1.529,16,4.981,4.802,-80,338.751790246,norm,0,56,56,56,155.158,155.166,155.173696,155.174,155.175,155.177,down,0,0.781936399988,-10,001,316,1366_768,Intel(R) Core(TM) i7-8750H CPU @ 2.20GHz,orientation_search,GHUM-L-P55205,Intel(R) UHD Graphics 630,2018_Nov_08_1408,testMonitor,
214.7,208.2,225.9,230.4,36,80,223.9,227.9,230.8,240.0,8.204,7.57,7.566,7.656,7.984,7.985,7.587,4.567,-5.117,-7.825,1.928,-2.037,8.151,4.962,-4.351,-8.307,232.2,236.1,-7.531,227.4,239.5,232.1,221.8,216.4,36,210.7,2,5,prime,10,0,99,norm,36,-4.702,up,norm,223.994717029,232.2,,232.0,204.0,4,212.1,218.7,204.9,10,6,7.531,4.992,2.1,-2.008,-4.895,-8.297,231.9,6,323.0,-8.241,-8.263,80,-8.347,-7.96,-4.886,-4.883,-4.783,-5.25,5.243,7.619,16,-1.276,1.448,4.859,8.216,-8.453,-8.289,-1.644,1.206,237.7,226.8,230.6,244.0,227.2,213.6,216.1,213.0,209.1,233.2,4,norm,1.671,1.39,-1.645,-1.636,-4.924,-4.535,-1.418,-1.569,-1.598,-1.493,2.022,-1.425,214.0,212.7,-4.509,-8.129,1.139,-1.808,7.817,4.9,-5.237,-8.248,16,4.812,4.616,4.663,5.025,1.136,1.47,1.444,1.619,16,4.864,4.925,-80,338.751790246,norm,0,57,57,57,156.995,157.001,157.0064464,157.007,157.008,157.009,up,1,0.752011999954,9.24798800005,001,316,1366_768,Intel(R) Core(TM) i7-8750H CPU @ 2.20GHz,orientation_search,GHUM-L-P55205,Intel(R) UHD Graphics 630,2018_Nov_08_1408,testMonitor,
238.6,222.5,213.2,222.9,36,80,227.2,230.4,219.9,244.0,7.813,7.74,8.365,7.621,7.552,7.767,8.104,5.2,-5.091,-7.544,1.459,-1.588,8.151,4.821,-5.068,-8.217,223.6,233.0,-7.675,225.7,224.5,235.6,227.2,217.6,36,211.3,0,5,prime,10,0,84,norm,36,-5.14,down,norm,223.994717029,229.9,216.7,236.3,204.0,2,238.7,224.3,229.2,10,6,7.926,4.823,1.789,-1.779,-4.817,-8.036,219.2,6,308.0,-8.402,-8.256,80,-8.319,-7.843,-5.276,-4.934,-4.402,-4.954,5.227,8.344,2,-1.922,1.789,4.448,7.7,-8.425,-7.914,-1.396,1.921,218.3,221.7,226.7,,213.0,233.0,225.2,237.9,224.1,214.3,5,norm,1.956,1.391,-1.902,-1.776,-4.332,-4.989,-1.674,-1.48,-1.454,-1.616,1.732,-1.381,234.9,208.2,-4.674,-7.644,1.575,-1.126,7.646,5.106,-4.507,-7.786,16,4.663,4.803,4.813,4.534,1.463,1.468,1.182,1.977,16,5.285,4.747,-80,338.751790246,norm,0,58,58,58,157.784,157.794,157.8051644,157.805,157.807,157.809,down,1,1.25151039998,8.74848960002,001,316,1366_768,Intel(R) Core(TM) i7-8750H CPU @ 2.20GHz,orientation_search,GHUM-L-P55205,Intel(R) UHD Graphics 630,2018_Nov_08_1408,testMonitor,
401.4,407.3,409.8,419.0,36,0,399.0,414.2,399.2,413.9,7.779,8.078,7.917,7.677,8.482,8.367,7.928,4.972,-5.296,-8.145,1.386,-2.071,7.59,4.972,-5.061,-8.288,412.4,408.9,-7.651,412.0,403.7,410.6,406.2,410.1,36,414.0,2,5,probe,5,0,97,norm,36,-5.066,down,norm,408.991868714,414.1,405.9,409.7,414.1,0,413.0,408.6,,10,6,8.279,4.346,1.3,-2.048,-5.165,-7.788,409.9,2,312.0,-8.445,-7.873,80,-7.526,-7.851,-5.13,-4.65,-5.066,-4.819,4.388,7.886,12,-1.808,1.951,4.4,7.621,-8.186,-7.81,-1.448,1.514,403.4,408.1,413.1,414.5,404.1,406.3,413.9,409.2,405.6,413.0,0,norm,2.087,1.709,-1.598,-1.763,-4.566,-5.085,-1.802,-2.039,-1.107,-2.002,1.679,-2.024,418.3,408.0,-4.945,-8.007,1.888,-1.154,8.12,5.062,-4.907,-8.35,17,4.954,4.979,4.7,4.647,1.748,1.274,2.034,1.787,17,4.433,4.898,80,223.994717029,norm,0,59,59,59,159.082,159.091,159.1050908,159.105,159.107,159.108,down,1,0.751595500042,9.24840449996,001,316,1366_768,Intel(R) Core(TM) i7-8750H CPU @ 2.20GHz,orientation_search,GHUM-L-P55205,Intel(R) UHD Graphics 630,2018_Nov_08_1408,testMonitor,
410.2,407.1,406.3,409.3,36,0,408.2,410.5,412.1,405.5,8.099,8.301,8.404,7.622,8.479,7.668,7.656,5.236,-4.309,-7.789,1.337,-1.236,7.902,5.081,-4.596,-8.174,414.3,400.8,-8.378,399.3,405.5,407.3,399.4,414.3,36,414.7,2,5,probe,5,0,96,norm,36,-5.262,up,norm,407.991868714,,409.2,412.7,410.4,5,417.5,403.8,413.4,10,6,7.956,5.036,1.581,-1.755,-4.643,-8.351,410.0,2,312.0,-7.993,-7.587,80,-8.217,-7.783,-4.438,-4.686,-4.885,-4.434,5.266,7.54,17,-1.856,1.234,4.965,8.461,-8.04,-8.092,-1.783,2.092,398.0,414.5,404.7,401.6,413.0,403.8,404.2,406.4,410.8,408.2,1,norm,1.321,1.914,-1.113,-2.0,-4.953,-4.969,-1.617,-1.755,-1.424,-1.267,1.219,-1.407,398.9,418.0,-5.04,-8.267,1.807,-1.768,8.474,4.39,-4.708,-7.622,17,5.148,4.704,4.743,5.208,1.864,1.672,1.509,1.28,17,4.729,5.103,80,223.994717029,norm,0,60,60,60,159.882,159.891,159.9050689,159.905,159.907,159.908,up,1,0.637228199979,9.36277180002,001,316,1366_768,Intel(R) Core(TM) i7-8750H CPU @ 2.20GHz,orientation_search,GHUM-L-P55205,Intel(R) UHD Graphics 630,2018_Nov_08_1408,testMonitor,
245.7,,244.6,239.9,36,60,259.0,235.5,242.8,246.5,8.283,7.522,7.85,8.214,7.815,8.362,7.563,5.209,-5.099,-7.691,1.649,-2.005,8.029,5.278,-4.399,-7.899,260.4,238.8,-8.224,226.5,237.1,257.2,248.4,241.7,36,261.9,3,5,prime,10,0,99,norm,36,-4.468,up,norm,246.401512309,249.5,245.6,235.6,250.9,5,237.8,227.5,251.1,10,6,7.701,4.948,1.943,-1.81,-5.061,-8.32,260.2,6,345.4,-8.099,-7.76,60,-8.058,-8.235,-4.574,-4.821,-4.553,-4.844,4.685,8.297,23,-1.207,1.825,4.998,8.235,-8.425,-8.418,-1.756,1.957,264.0,234.7,240.7,252.8,239.9,254.7,266.4,248.6,233.4,266.2,0,norm,1.48,1.945,-1.513,-1.635,-4.34,-5.101,-1.985,-1.917,-2.044,-1.694,1.987,-1.27,226.4,237.4,-5.069,-8.367,1.521,-1.998,7.72,5.019,-5.119,-8.453,18,4.613,5.179,4.486,4.411,1.414,1.707,1.163,1.798,18,4.592,4.551,0,223.994717029,norm,0,61,61,61,160.567,177.619,177.6337366,177.634,177.638,177.642,up,1,0.994659199961,9.00534080004,001,316,1366_768,Intel(R) Core(TM) i7-8750H CPU @ 2.20GHz,orientation_search,GHUM-L-P55205,Intel(R) UHD Graphics 630,2018_Nov_08_1408,testMonitor,
232.9,254.3,258.9,232.2,36,60,263.4,236.1,246.1,247.0,7.864,8.04,8.379,8.146,7.985,7.701,8.423,4.606,-4.618,-8.273,1.418,-1.712,8.441,4.913,-4.543,-7.51,252.4,266.4,-7.832,231.5,244.6,226.4,244.3,242.9,36,234.9,1,5,prime,10,0,70,norm,36,-4.748,up,norm,246.401512309,249.0,248.0,247.8,246.7,5,,244.1,252.1,10,6,8.337,5.146,1.252,-1.605,-4.511,-8.045,257.4,6,316.4,-7.57,-8.458,60,-8.493,-7.925,-5.095,-4.577,-5.024,-4.587,5.16,8.453,11,-1.506,1.808,5.027,8.42,-8.344,-7.512,-1.457,2.06,242.9,237.9,251.3,253.7,240.9,238.5,238.9,262.5,227.9,249.5,1,norm,1.871,1.519,-1.682,-2.058,-4.788,-4.877,-1.112,-1.343,-2.008,-2.033,1.398,-1.903,255.8,235.2,-4.551,-8.148,1.727,-1.204,7.705,4.831,-4.416,-8.308,18,4.472,4.883,4.977,5.182,1.118,1.794,1.658,1.649,18,5.278,5.238,0,223.994717029,norm,0,62,62,62,178.654,178.663,178.6676583,178.668,178.669,178.671,up,1,1.18355090008,8.81644909992,001,316,1366_768,Intel(R) Core(TM) i7-8750H CPU @ 2.20GHz,orientation_search,GHUM-L-P55205,Intel(R) UHD Graphics 630,2018_Nov_08_1408,testMonitor,
250.9,,252.4,251.8,36,60,251.6,245.7,254.1,253.2,8.137,8.291,7.505,8.168,8.372,7.557,8.478,5.031,-4.526,-7.515,1.726,-1.933,8.113,4.867,-5.125,-7.545,241.9,239.2,-7.659,245.8,226.7,245.2,226.4,246.5,36,242.7,3,5,prime,10,0,104,norm,36,-4.878,up,norm,246.401512309,244.2,231.7,240.6,245.2,5,236.5,236.5,245.9,10,6,7.584,4.786,1.681,-1.151,-5.273,-7.656,254.3,6,350.4,-8.469,-7.988,60,-7.999,-8.099,-4.437,-5.285,-4.479,-5.075,4.885,7.901,23,-1.786,1.954,4.955,8.011,-7.751,-8.354,-1.922,1.941,244.8,257.6,253.4,256.2,247.8,239.7,257.1,250.9,246.7,252.9,2,norm,1.943,1.999,-1.482,-1.999,-4.429,-4.459,-2.064,-1.951,-2.072,-1.736,1.559,-1.596,248.5,266.4,-4.469,-8.417,1.209,-1.586,8.092,4.688,-5.071,-8.432,18,4.917,5.179,5.163,5.193,1.982,1.735,1.769,1.981,18,4.778,4.365,0,223.994717029,norm,0,63,63,63,179.877,179.883,179.8994006,179.9,179.901,179.902,up,1,1.15161040006,8.84838959994,001,316,1366_768,Intel(R) Core(TM) i7-8750H CPU @ 2.20GHz,orientation_search,GHUM-L-P55205,Intel(R) UHD Graphics 630,2018_Nov_08_1408,testMonitor,
242.0,241.2,236.5,253.4,36,60,242.0,240.6,236.3,232.3,8.233,7.888,7.865,8.083,8.41,7.752,8.151,4.765,-5.169,-8.207,1.532,-2.095,7.507,4.704,-4.881,-7.823,227.3,254.3,-8.498,234.9,255.1,257.9,261.2,254.9,36,253.4,2,5,prime,10,0,116,norm,36,-4.824,up,norm,246.401512309,236.1,,238.0,266.4,4,239.3,226.4,253.3,10,6,7.65,5.006,1.991,-1.143,-4.532,-8.028,231.6,6,362.4,-7.87,-8.305,60,-8.1,-8.298,-5.069,-5.226,-4.85,-4.952,4.767,8.06,16,-2.059,2.071,4.968,8.403,-7.526,-7.853,-1.475,1.898,250.8,259.6,245.4,257.1,259.1,241.4,264.9,235.9,243.2,258.4,3,norm,1.316,1.931,-1.427,-1.312,-4.757,-4.675,-1.221,-1.628,-1.203,-1.62,1.511,-1.552,257.4,255.7,-4.556,-8.366,1.873,-1.653,7.643,5.285,-4.437,-7.68,18,4.913,5.151,4.871,4.859,2.072,2.095,1.888,1.285,18,5.047,5.046,0,223.994717029,norm,0,64,64,64,181.078,181.087,181.0990782,181.099,181.101,181.102,down,0,1.03787929995,-10,001,316,1366_768,Intel(R) Core(TM) i7-8750H CPU @ 2.20GHz,orientation_search,GHUM-L-P55205,Intel(R) UHD Graphics 630,2018_Nov_08_1408,testMonitor,
239.5,257.3,254.0,243.7,36,60,,232.8,266.4,244.6,7.665,8.335,8.334,7.778,7.787,7.535,8.002,5.153,-5.109,-7.667,1.593,-1.687,8.049,4.659,-4.771,-8.45,248.2,247.6,-7.974,247.0,234.5,244.5,246.5,259.7,36,258.8,4,5,prime,10,0,97,norm,36,-5.152,down,norm,246.401512309,251.8,226.4,233.6,257.8,0,243.3,238.6,241.2,10,6,7.577,5.222,1.932,-1.353,-4.368,-7.536,247.3,6,343.4,-7.806,-8.455,60,-7.54,-8.148,-4.512,-5.223,-4.996,-4.408,4.561,8.074,24,-1.283,1.275,4.546,7.808,-8.15,-7.971,-1.347,2.054,246.9,259.3,237.1,242.8,242.4,242.2,238.2,252.9,236.9,258.4,4,norm,1.828,1.342,-1.962,-2.005,-4.37,-4.949,-1.547,-1.657,-1.692,-1.479,2.04,-1.841,244.8,253.8,-5.235,-7.961,1.705,-1.211,7.668,4.577,-5.194,-7.661,18,4.923,4.74,4.942,4.927,1.703,1.739,1.138,1.416,18,4.598,4.556,0,223.994717029,norm,0,65,65,65,183.163,183.169,183.1818826,183.182,183.183,183.185,down,1,1.43237730011,8.56762269989,001,316,1366_768,Intel(R) Core(TM) i7-8750H CPU @ 2.20GHz,orientation_search,GHUM-L-P55205,Intel(R) UHD Graphics 630,2018_Nov_08_1408,testMonitor,
250.4,243.6,253.2,244.0,36,60,243.2,260.2,252.6,252.8,8.144,7.561,7.931,7.624,8.196,7.891,8.168,4.546,-4.92,-7.921,1.495,-2.02,8.244,4.771,-4.898,-7.679,233.0,247.5,-7.543,254.7,266.4,,247.4,249.1,36,255.3,5,5,prime,10,0,112,norm,36,-5.268,up,norm,246.401512309,253.7,245.8,243.2,240.9,3,240.7,257.1,254.3,10,6,8.476,4.683,1.313,-2.041,-4.914,-7.567,247.1,6,358.4,-7.825,-7.756,60,-7.524,-7.571,-5.012,-4.771,-4.587,-5.204,4.448,7.759,33,-1.255,1.101,4.82,7.643,-8.014,-8.318,-1.178,1.428,243.0,253.0,256.7,235.6,242.0,247.4,236.7,241.3,226.4,258.1,5,norm,1.143,1.199,-1.746,-1.751,-4.751,-4.554,-1.835,-1.961,-1.325,-1.788,1.896,-1.852,260.8,250.3,-4.928,-8.473,1.689,-1.511,8.314,4.545,-5.136,-7.842,18,4.789,4.519,4.996,4.772,1.755,1.617,2.039,1.847,18,4.852,4.576,0,223.994717029,norm,0,66,66,66,184.634,184.643,184.6492046,184.649,184.651,184.653,down,0,2.75325349998,-10,001,316,1366_768,Intel(R) Core(TM) i7-8750H CPU @ 2.20GHz,orientation_search,GHUM-L-P55205,Intel(R) UHD Graphics 630,2018_Nov_08_1408,testMonitor,
390.8,386.2,388.8,397.1,36,-40,393.3,383.9,395.7,390.1,8.182,7.549,8.034,7.575,8.079,7.628,7.707,5.262,-4.75,-7.836,1.352,-1.242,8.067,4.767,-4.806,-7.539,393.8,388.4,-8.37,389.5,393.3,392.8,392.3,393.0,36,389.5,3,5,probe,5,0,81,norm,36,-4.485,down,norm,393.916068791,391.1,390.6,392.3,390.6,1,401.1,395.3,401.9,10,6,7.823,4.988,1.874,-1.959,-5.155,-7.898,398.7,1,312.9,-7.783,-7.988,60,-8.424,-8.016,-5.243,-5.226,-4.948,-4.414,4.959,8.102,19,-1.345,2.058,4.579,7.662,-7.666,-7.861,-1.307,1.458,400.4,400.4,389.2,388.9,398.0,396.3,398.0,403.9,392.3,395.3,0,norm,1.401,1.142,-2.049,-1.816,-4.833,-4.553,-1.471,-1.413,-1.822,-1.445,1.777,-2.036,,399.7,-4.471,-8.335,1.209,-1.399,7.821,4.574,-5.12,-7.823,19,4.345,4.59,4.866,4.946,1.329,1.894,1.672,1.887,19,4.909,4.843,60,246.401512309,norm,0,67,67,67,188.447,188.453,188.4645437,188.465,188.466,188.468,down,1,0.871736600064,9.12826339994,001,316,1366_768,Intel(R) Core(TM) i7-8750H CPU @ 2.20GHz,orientation_search,GHUM-L-P55205,Intel(R) UHD Graphics 630,2018_Nov_08_1408,testMonitor,
249.2,266.6,260.2,252.5,36,40,263.1,264.6,255.4,260.1,8.202,7.745,7.71,8.426,8.221,8.135,8.199,4.477,-4.688,-7.775,1.515,-2.089,8.455,4.678,-5.099,-8.107,259.9,,-7.672,274.5,257.7,281.0,250.2,266.0,36,264.0,5,5,prime,10,0,93,norm,36,-5.198,up,norm,260.960168251,245.3,264.6,255.1,275.2,4,245.0,269.2,274.1,10,6,7.679,5.272,1.902,-1.149,-4.414,-8.463,270.5,6,354.0,-8.351,-7.875,40,-7.997,-7.671,-4.361,-4.453,-4.642,-5.154,4.351,8.054,34,-1.499,1.883,4.745,7.984,-7.607,-7.605,-1.775,2.062,255.4,275.9,243.7,259.6,245.2,244.8,241.0,261.8,267.2,270.4,0,norm,1.598,1.277,-1.485,-1.518,-5.21,-4.529,-1.152,-1.381,-1.982,-1.376,1.27,-1.65,267.8,246.3,-4.719,-7.948,1.609,-1.707,7.797,5.06,-5.137,-8.063,20,4.733,5.286,4.599,4.736,1.448,1.819,1.808,1.305,20,5.268,5.021,-40,246.401512309,norm,0,68,68,68,189.36,189.369,189.3805177,189.381,189.382,189.384,up,1,1.8179123,8.1820877,001,316,1366_768,Intel(R) Core(TM) i7-8750H CPU @ 2.20GHz,orientation_search,GHUM-L-P55205,Intel(R) UHD Graphics 630,2018_Nov_08_1408,testMonitor,
272.9,281.0,255.1,259.8,36,40,241.9,263.8,250.1,260.0,8.113,7.562,7.816,8.406,8.421,8.009,8.313,5.175,-4.645,-7.808,1.337,-1.865,8.137,4.747,-5.142,-7.832,252.4,,-8.357,255.3,259.4,268.2,262.4,266.6,36,256.2,5,5,prime,10,0,82,norm,36,-4.991,up,norm,260.960168251,254.9,262.6,266.8,250.7,4,263.4,254.4,261.0,10,6,7.611,4.416,1.941,-1.29,-4.727,-8.305,241.0,6,343.0,-8.467,-8.496,40,-8.18,-8.207,-5.115,-5.015,-5.113,-5.064,5.088,7.854,34,-1.322,1.313,4.922,7.653,-7.823,-8.098,-1.894,1.416,260.9,250.6,267.6,269.7,262.2,248.9,252.5,263.0,268.0,256.8,1,norm,1.79,1.479,-1.892,-2.015,-4.693,-4.33,-1.967,-1.683,-1.917,-1.785,1.662,-1.967,256.9,257.0,-4.713,-7.805,1.748,-1.728,8.096,4.556,-4.639,-7.586,20,5.217,5.254,5.218,4.52,1.589,1.828,1.409,1.878,20,4.364,5.231,-40,246.401512309,norm,0,69,69,69,191.224,191.234,191.2463941,191.247,191.248,191.25,down,0,2.68097670004,-10,001,316,1366_768,Intel(R) Core(TM) i7-8750H CPU @ 2.20GHz,orientation_search,GHUM-L-P55205,Intel(R) UHD Graphics 630,2018_Nov_08_1408,testMonitor,
241.0,265.6,259.4,249.6,36,40,246.2,252.1,264.8,273.0,8.194,7.815,7.61,8.42,8.283,7.645,7.886,4.779,-4.943,-7.903,1.307,-1.89,8.399,4.727,-4.357,-7.774,256.3,277.1,-8.262,250.7,262.5,261.9,246.9,244.0,36,254.0,1,5,prime,10,0,83,norm,36,-5.133,up,norm,260.960168251,259.7,260.9,270.1,267.3,3,265.7,252.8,255.8,10,6,8.312,4.71,1.534,-1.341,-4.946,-7.513,265.4,6,344.0,-8.011,-7.854,40,-8.365,-7.883,-4.307,-4.922,-4.34,-5.206,4.681,8.464,9,-1.543,1.869,5.041,8.31,-8.082,-7.792,-1.54,1.199,,259.6,264.1,270.3,268.4,241.6,247.7,270.4,249.9,254.6,2,norm,1.889,1.309,-2.099,-1.565,-5.162,-4.722,-2.047,-1.828,-1.648,-1.681,1.992,-1.255,261.5,265.8,-5.111,-8.474,1.153,-1.333,7.721,5.193,-5.189,-7.625,20,4.796,4.812,4.537,5.265,1.434,2.055,1.43,1.246,20,4.896,4.916,-40,246.401512309,norm,0,70,70,70,194.975,194.981,194.9954919,194.996,194.997,194.999,down,0,5.20271640003,-10,001,316,1366_768,Intel(R) Core(TM) i7-8750H CPU @ 2.20GHz,orientation_search,GHUM-L-P55205,Intel(R) UHD Graphics 630,2018_Nov_08_1408,testMonitor,
267.2,,253.4,253.4,36,40,281.0,261.2,260.9,258.5,8.317,7.566,8.247,7.578,8.352,7.869,7.885,4.524,-4.89,-8.164,1.413,-1.612,8.062,5.185,-5.21,-7.523,259.7,241.0,-7.798,268.8,268.1,248.7,262.4,267.3,36,264.0,3,5,prime,10,0,66,norm,36,-5.049,up,norm,260.960168251,261.1,266.2,251.6,264.8,5,248.8,263.2,274.6,10,6,8.066,4.532,1.363,-1.562,-4.775,-7.872,265.3,6,327.0,-8.478,-8.179,40,-7.573,-8.161,-5.189,-4.968,-4.415,-4.56,5.175,7.802,23,-1.828,1.252,5.079,8.034,-8.431,-7.865,-1.724,1.852,264.6,261.4,257.7,265.9,265.9,264.7,255.8,266.9,254.4,262.4,3,norm,1.341,1.248,-1.753,-1.634,-5.068,-5.243,-1.736,-1.221,-1.784,-2.013,1.142,-1.648,261.9,258.5,-4.365,-8.084,1.111,-1.837,8.244,4.676,-5.037,-7.618,20,5.276,4.603,5.272,4.725,1.598,2.032,1.523,1.628,20,5.149,4.922,-40,246.401512309,norm,0,71,71,71,201.236,201.243,201.2605173,201.261,201.262,201.264,down,0,1.38804330002,-10,001,316,1366_768,Intel(R) Core(TM) i7-8750H CPU @ 2.20GHz,orientation_search,GHUM-L-P55205,Intel(R) UHD Graphics 630,2018_Nov_08_1408,testMonitor,
253.5,253.4,266.4,247.1,36,40,241.0,256.4,254.1,247.6,8.079,8.064,7.886,7.551,8.486,7.833,7.812,4.921,-4.465,-8.134,1.724,-1.69,8.223,5.12,-4.569,-8.159,269.7,251.8,-7.593,281.0,251.0,278.9,268.1,264.2,36,264.6,2,5,prime,10,0,118,norm,36,-4.877,up,norm,260.960168251,,266.7,270.0,257.9,5,255.1,264.4,257.7,10,6,8.081,4.854,1.764,-1.333,-4.829,-7.626,255.6,6,379.0,-8.247,-8.361,40,-7.574,-7.705,-4.93,-5.165,-5.005,-4.41,4.601,8.328,17,-1.68,1.916,5.043,8.056,-8.231,-8.364,-1.803,1.745,273.1,253.0,272.2,272.9,259.2,250.9,280.9,245.1,268.4,256.8,4,norm,1.155,1.186,-1.463,-1.371,-5.272,-5.005,-1.494,-1.649,-2.04,-1.694,1.939,-1.205,263.2,269.9,-4.596,-8.019,1.394,-1.656,7.58,5.249,-4.464,-8.118,20,4.461,4.345,5.228,4.361,1.636,1.369,1.158,1.191,20,4.945,5.143,-40,246.401512309,norm,0,72,72,72,203.683,203.689,203.6940232,203.694,203.696,203.697,up,1,0.303630599985,9.69636940002,001,316,1366_768,Intel(R) Core(TM) i7-8750H CPU @ 2.20GHz,orientation_search,GHUM-L-P55205,Intel(R) UHD Graphics 630,2018_Nov_08_1408,testMonitor,
260.3,266.6,267.6,268.7,36,40,250.6,261.7,263.4,281.0,8.109,8.356,7.995,7.8,8.397,8.013,7.722,4.894,-4.797,-7.881,1.926,-1.363,8.272,5.065,-4.391,-7.677,249.1,254.2,-8.092,277.2,268.6,252.7,258.0,256.8,36,256.8,3,5,prime,10,0,96,norm,36,-4.847,down,norm,260.960168251,257.3,264.0,264.8,256.8,1,256.0,257.8,266.3,10,6,8.402,4.334,2.096,-1.196,-4.845,-7.929,266.3,6,357.0,-7.908,-8.34,40,-8.438,-7.761,-4.941,-4.661,-4.373,-4.921,4.861,8.416,19,-2.047,1.914,4.727,8.333,-7.961,-7.78,-1.594,1.788,246.6,280.2,266.6,248.6,248.5,259.8,262.0,241.0,249.3,254.6,5,norm,1.456,1.285,-1.627,-1.491,-5.231,-4.947,-1.153,-1.771,-1.217,-1.313,1.5,-1.253,,259.2,-5.22,-8.436,1.726,-1.894,7.942,4.6,-4.348,-8.157,20,4.506,5.27,4.933,4.654,1.477,1.335,1.836,1.528,20,4.868,4.498,-40,246.401512309,norm,0,73,73,73,204.022,204.031,204.0431932,204.043,204.045,204.046,down,1,3.13137169997,6.86862830003,001,316,1366_768,Intel(R) Core(TM) i7-8750H CPU @ 2.20GHz,orientation_search,GHUM-L-P55205,Intel(R) UHD Graphics 630,2018_Nov_08_1408,testMonitor,
412.4,414.6,408.6,410.1,36,-20,413.9,415.0,415.0,418.6,8.495,7.649,7.579,8.26,7.847,8.092,8.327,4.493,-4.68,-7.879,1.449,-1.539,7.727,4.636,-4.51,-8.478,410.7,412.7,-8.294,407.1,422.9,403.0,408.6,402.9,36,414.1,0,5,probe,5,0,107,norm,36,-4.538,down,norm,412.931139151,413.3,413.6,416.1,413.7,1,409.9,413.4,420.4,10,6,8.499,5.074,1.936,-1.389,-4.884,-7.576,410.9,2,305.9,-8.363,-8.317,40,-8.026,-7.52,-4.541,-4.677,-4.941,-4.666,4.464,8.266,1,-1.137,1.941,4.785,7.833,-7.669,-8.374,-1.123,1.942,420.7,414.6,414.7,413.9,,407.0,412.4,407.0,422.1,408.3,0,norm,1.311,1.964,-2.011,-1.515,-5.021,-5.031,-1.707,-1.179,-1.838,-1.19,1.548,-1.652,414.1,413.2,-5.058,-8.361,1.408,-1.271,7.631,4.379,-5.146,-7.869,21,5.28,4.786,4.419,4.952,1.432,1.218,1.496,1.876,21,5.168,5.201,40,260.960168251,norm,0,74,74,74,207.194,207.201,207.2100172,207.21,207.212,207.213,down,1,1.27120999992,8.72879000008,001,316,1366_768,Intel(R) Core(TM) i7-8750H CPU @ 2.20GHz,orientation_search,GHUM-L-P55205,Intel(R) UHD Graphics 630,2018_Nov_08_1408,testMonitor,
422.3,419.1,415.1,424.2,36,-20,420.5,415.8,424.1,417.6,7.596,8.374,7.567,8.359,8.289,7.946,8.443,4.445,-4.303,-8.318,1.165,-1.48,8.078,4.61,-4.318,-7.63,417.6,415.5,-8.464,425.6,424.1,417.2,422.7,429.9,36,417.2,3,5,probe,5,0,114,norm,36,-5.121,down,norm,419.931139151,419.1,417.1,419.7,424.8,1,424.5,418.8,420.0,10,6,8.358,4.462,1.804,-1.742,-4.362,-7.971,421.9,2,305.9,-7.854,-8.161,40,-7.528,-7.585,-4.802,-4.319,-5.051,-4.681,4.476,7.704,19,-1.612,1.189,4.601,8.016,-8.126,-8.401,-1.197,1.788,418.5,422.8,419.9,416.4,419.1,409.9,424.6,429.0,426.6,422.5,1,norm,1.805,2.097,-1.774,-1.105,-5.291,-5.279,-1.748,-2.083,-1.803,-1.548,1.108,-1.843,,425.3,-4.499,-8.17,1.54,-1.935,8.452,4.966,-5.23,-8.437,21,4.751,4.86,4.6,4.49,1.256,1.453,2.096,1.351,21,5.072,4.965,40,260.960168251,norm,0,75,75,75,208.509,208.516,208.5265283,208.527,208.528,208.53,down,1,0.93374820007,9.06625179993,001,316,1366_768,Intel(R) Core(TM) i7-8750H CPU @ 2.20GHz,orientation_search,GHUM-L-P55205,Intel(R) UHD Graphics 630,2018_Nov_08_1408,testMonitor,
293.8,287.1,290.5,295.7,36,-80,278.8,317.1,292.1,312.2,8.361,7.507,8.485,8.012,8.326,8.347,8.146,4.311,-4.384,-7.966,1.103,-1.355,8.329,4.466,-5.09,-8.434,290.2,303.4,-8.443,318.8,288.2,302.0,287.3,311.9,36,294.0,3,5,prime,10,0,113,norm,36,-5.07,down,norm,298.82455321,294.2,291.0,278.9,298.4,1,293.1,284.4,305.5,10,5,7.898,4.647,1.724,-1.768,-5.019,-7.737,317.5,5,411.8,-8.084,-7.516,-80,-8.077,-7.573,-5.068,-4.589,-4.912,-4.804,5.282,8.365,19,-2.019,1.339,5.068,7.523,-8.391,-7.747,-1.479,1.854,289.1,297.0,311.6,302.5,292.2,293.3,285.9,297.9,286.4,295.6,0,norm,1.388,1.546,-1.854,-1.451,-4.73,-4.713,-1.127,-1.966,-1.534,-1.249,1.858,-1.5,,310.7,-4.378,-8.104,1.178,-1.631,8.083,4.806,-5.144,-7.587,22,5.245,4.931,4.516,4.668,1.883,1.557,1.542,1.638,22,5.253,4.717,-20,260.960168251,norm,0,76,76,76,209.484,209.493,209.5084676,209.509,209.51,209.512,down,1,1.30333190004,8.69666809996,001,316,1366_768,Intel(R) Core(TM) i7-8750H CPU @ 2.20GHz,orientation_search,GHUM-L-P55205,Intel(R) UHD Graphics 630,2018_Nov_08_1408,testMonitor,
278.8,291.7,298.5,318.8,36,-80,307.3,297.4,307.6,290.5,7.571,7.668,7.661,7.512,7.595,7.747,8.495,4.43,-4.424,-8.078,1.302,-1.597,8.095,4.829,-4.973,-7.909,300.4,297.0,-7.538,,294.0,306.7,309.9,291.8,36,313.3,5,5,prime,10,0,92,norm,36,-4.477,down,norm,298.82455321,305.7,310.0,313.1,313.9,1,304.0,312.4,307.5,10,5,7.895,5.285,2.041,-1.248,-4.728,-8.392,306.0,5,390.8,-8.043,-8.161,-80,-7.826,-8.041,-5.062,-5.14,-4.447,-4.66,5.236,7.759,31,-1.617,1.462,4.324,8.0,-8.027,-7.865,-1.884,2.0,284.5,280.4,298.1,306.8,295.5,299.6,313.1,291.2,304.1,304.5,1,norm,1.384,1.285,-2.017,-1.726,-4.643,-4.546,-1.352,-1.162,-1.247,-1.11,1.326,-1.267,301.0,304.4,-4.393,-8.23,1.717,-1.162,8.216,4.407,-4.909,-7.637,22,4.872,4.564,4.378,4.927,1.345,1.564,2.021,1.178,22,4.708,4.332,-20,260.960168251,norm,0,77,77,77,210.836,210.845,210.8578968,210.858,210.859,210.861,down,1,1.28514439997,8.71485560003,001,316,1366_768,Intel(R) Core(TM) i7-8750H CPU @ 2.20GHz,orientation_search,GHUM-L-P55205,Intel(R) UHD Graphics 630,2018_Nov_08_1408,testMonitor,
307.4,289.4,291.5,307.0,36,-80,297.0,310.3,291.5,293.3,8.207,8.061,7.907,8.031,7.773,7.94,8.208,4.471,-5.021,-8.172,2.062,-1.142,7.723,4.79,-4.782,-8.156,315.8,298.2,-8.035,302.1,309.6,297.2,295.4,290.9,36,308.9,1,5,prime,10,0,91,norm,36,-5.276,down,norm,298.82455321,300.6,278.8,295.5,311.6,0,301.7,297.2,309.7,10,5,7.511,5.23,1.193,-1.143,-4.391,-7.681,286.9,5,389.8,-8.253,-7.988,-80,-8.158,-8.411,-4.496,-4.357,-4.865,-5.109,4.8,7.975,6,-1.42,1.968,4.493,7.795,-8.48,-8.188,-1.449,1.153,308.6,318.8,295.8,296.0,302.3,310.8,294.8,,299.2,296.3,2,norm,1.9,1.464,-1.975,-1.853,-5.054,-4.743,-1.265,-1.423,-1.564,-1.51,1.897,-1.149,287.9,308.0,-5.289,-7.794,1.704,-1.358,8.26,4.832,-4.546,-8.253,22,5.124,5.074,4.553,4.713,1.492,1.116,1.14,1.801,22,4.52,5.137,-20,260.960168251,norm,0,78,78,78,212.167,212.175,212.1912978,212.192,212.193,212.194,down,1,1.08143000002,8.91856999998,001,316,1366_768,Intel(R) Core(TM) i7-8750H CPU @ 2.20GHz,orientation_search,GHUM-L-P55205,Intel(R) UHD Graphics 630,2018_Nov_08_1408,testMonitor,
295.0,300.8,305.5,296.0,36,-80,313.8,293.1,316.8,310.1,8.27,8.294,8.313,8.05,7.944,7.921,8.441,4.409,-4.731,-8.164,1.724,-1.689,8.301,5.077,-4.656,-8.181,304.8,299.6,-7.631,300.0,299.6,303.8,,285.1,36,293.1,5,5,prime,10,0,70,norm,36,-4.871,down,norm,298.82455321,293.9,278.8,285.1,286.7,2,296.1,309.2,290.6,10,5,8.098,4.362,1.751,-1.731,-5.044,-8.171,294.2,5,368.8,-8.054,-8.315,-80,-7.75,-8.081,-5.136,-4.455,-5.092,-4.969,4.354,8.008,32,-1.343,2.029,4.461,7.74,-8.259,-8.387,-1.227,1.396,301.7,291.3,294.6,293.1,292.7,304.2,310.5,305.3,299.7,294.8,3,norm,1.312,1.622,-2.045,-1.227,-4.692,-4.369,-1.256,-1.783,-1.252,-1.442,1.341,-1.384,286.7,307.6,-4.692,-8.264,2.05,-1.711,7.812,4.623,-4.497,-8.196,22,5.037,5.217,5.295,4.982,1.682,1.852,1.499,1.449,22,4.955,4.836,-20,260.960168251,norm,0,79,79,79,213.292,213.299,213.308464,213.309,213.31,213.312,down,1,1.10099830001,8.89900169999,001,316,1366_768,Intel(R) Core(TM) i7-8750H CPU @ 2.20GHz,orientation_search,GHUM-L-P55205,Intel(R) UHD Graphics 630,2018_Nov_08_1408,testMonitor,
306.4,286.6,308.6,299.9,36,-80,304.5,283.3,295.7,293.9,7.854,8.048,8.008,8.095,8.253,8.202,8.13,4.474,-5.023,-8.432,1.518,-2.037,8.359,4.606,-5.12,-7.563,291.0,289.8,-7.953,296.2,298.2,291.5,302.4,303.6,36,310.0,2,5,prime,10,0,104,norm,36,-5.15,up,norm,298.82455321,301.0,,318.8,303.4,4,293.2,306.0,311.9,10,5,8.014,5.221,2.094,-1.713,-4.715,-7.601,315.2,5,402.8,-7.789,-7.898,-80,-8.347,-8.196,-4.499,-4.583,-4.43,-4.449,5.264,7.739,16,-1.222,1.386,5.211,8.012,-8.032,-7.599,-1.417,1.405,293.2,298.0,287.2,291.0,312.1,291.9,302.1,300.4,298.7,288.8,4,norm,1.826,1.374,-1.567,-2.083,-4.954,-5.249,-2.033,-1.851,-1.111,-1.265,1.526,-1.408,300.6,302.2,-5.153,-7.555,2.088,-1.96,8.473,4.56,-5.29,-8.46,22,5.278,4.685,4.597,4.657,1.139,1.817,1.378,1.728,22,5.115,5.277,-20,260.960168251,norm,0,80,80,80,214.435,214.444,214.4572511,214.457,214.459,214.461,up,1,1.89943869994,8.10056130006,001,316,1366_768,Intel(R) Core(TM) i7-8750H CPU @ 2.20GHz,orientation_search,GHUM-L-P55205,Intel(R) UHD Graphics 630,2018_Nov_08_1408,testMonitor,
326.3,321.0,333.6,325.4,36,-10,,324.3,330.0,325.0,7.923,8.498,8.44,8.227,7.943,7.845,7.632,5.041,-5.197,-8.075,1.888,-1.936,7.794,5.264,-5.182,-8.274,319.6,324.1,-7.965,319.1,327.5,317.8,320.6,324.2,36,322.3,4,5,probe,5,0,109,norm,36,-4.569,down,norm,324.742306972,325.7,314.7,323.3,325.0,0,323.7,326.7,320.8,10,5,7.59,4.354,1.475,-1.154,-5.066,-7.964,327.5,2,215.7,-7.975,-8.398,-80,-8.205,-8.134,-4.895,-4.334,-4.587,-4.477,5.184,8.43,24,-1.694,1.768,4.782,7.951,-8.231,-7.533,-1.108,1.684,334.7,331.7,327.0,324.4,323.4,320.3,327.0,323.8,323.4,326.8,0,norm,1.782,1.675,-1.734,-1.482,-5.03,-4.585,-1.611,-1.978,-1.875,-1.608,2.031,-1.684,331.6,321.2,-4.577,-8.133,1.272,-1.578,8.204,4.845,-4.413,-7.773,23,4.637,5.235,4.554,5.132,1.158,1.595,2.029,1.669,23,5.278,4.72,-80,298.82455321,norm,0,81,81,81,216.375,216.386,216.3906473,216.391,216.392,216.394,down,1,0.86824370001,9.13175629999,001,316,1366_768,Intel(R) Core(TM) i7-8750H CPU @ 2.20GHz,orientation_search,GHUM-L-P55205,Intel(R) UHD Graphics 630,2018_Nov_08_1408,testMonitor,
299.7,308.7,308.4,289.6,36,-10,288.7,304.5,297.4,304.9,8.434,7.899,7.546,8.229,8.278,7.931,7.944,4.385,-4.77,-7.895,1.794,-1.64,7.971,4.677,-4.505,-7.925,302.5,303.3,-8.169,300.4,307.3,304.7,298.4,295.5,36,290.4,1,5,probe,5,0,83,norm,36,-5.089,down,norm,298.742306972,293.0,297.7,302.2,297.3,0,291.2,295.1,300.4,10,5,7.748,4.971,1.52,-1.781,-5.054,-7.666,293.9,2,215.7,-8.241,-8.429,-80,-8.449,-8.041,-4.318,-4.837,-4.662,-4.697,4.335,8.085,6,-1.371,1.809,4.651,8.005,-8.454,-8.237,-2.054,2.07,307.6,301.1,306.9,298.2,295.2,300.4,294.2,,299.1,298.2,1,norm,1.412,1.607,-1.45,-1.441,-4.882,-5.07,-1.567,-1.28,-1.45,-1.258,1.584,-1.252,304.8,297.2,-4.979,-7.621,1.822,-1.771,7.65,4.764,-4.501,-8.163,23,4.499,4.721,4.675,5.286,1.625,1.335,1.771,2.002,23,4.809,4.591,-80,298.82455321,norm,0,82,82,82,217.283,217.294,217.3060573,217.306,217.308,217.309,down,1,0.91803359997,9.08196640003,001,316,1366_768,Intel(R) Core(TM) i7-8750H CPU @ 2.20GHz,orientation_search,GHUM-L-P55205,Intel(R) UHD Graphics 630,2018_Nov_08_1408,testMonitor,
280.1,296.5,302.4,290.3,36,20,282.7,282.9,304.2,307.9,7.99,8.135,8.374,7.6,7.638,8.073,8.008,5.248,-5.221,-8.048,1.303,-1.834,8.26,4.754,-4.381,-7.697,,267.9,-7.803,281.7,307.7,301.9,290.8,297.3,36,294.2,5,5,prime,10,0,102,norm,36,-4.951,up,norm,287.935730526,284.7,301.1,286.2,284.0,5,278.0,286.2,294.7,10,5,7.962,5.044,1.879,-1.286,-4.752,-7.976,284.2,5,389.9,-7.634,-8.316,20,-7.914,-7.583,-4.639,-4.372,-4.779,-4.555,4.655,7.62,35,-1.314,1.945,4.812,7.597,-8.019,-8.487,-1.607,1.185,290.3,290.1,303.2,294.3,289.8,277.5,298.4,303.3,281.7,303.2,0,norm,1.981,2.07,-1.628,-1.498,-4.86,-5.266,-1.216,-1.363,-2.092,-1.818,1.832,-2.067,286.6,299.6,-4.987,-8.329,1.194,-1.782,8.126,4.867,-4.685,-8.33,24,5.293,4.913,4.415,4.726,1.729,1.496,1.732,1.453,24,4.644,4.646,-10,298.82455321,norm,0,83,83,83,218.248,218.257,218.2725599,218.273,218.274,218.276,up,1,2.91799670004,7.08200329996,001,316,1366_768,Intel(R) Core(TM) i7-8750H CPU @ 2.20GHz,orientation_search,GHUM-L-P55205,Intel(R) UHD Graphics 630,2018_Nov_08_1408,testMonitor,
287.0,279.9,291.3,293.5,36,20,285.4,271.9,298.4,271.1,8.232,7.519,7.848,7.645,7.631,8.071,7.954,5.27,-4.862,-8.122,2.077,-1.923,7.759,4.388,-4.684,-7.934,271.3,276.4,-7.548,289.6,294.9,293.5,307.7,287.8,36,307.9,2,5,prime,10,0,73,norm,36,-4.775,up,norm,287.935730526,,287.5,287.5,294.0,5,305.5,280.3,297.8,10,5,8.34,5.112,2.074,-1.925,-4.483,-8.018,292.0,5,360.9,-7.9,-7.712,20,-8.427,-7.671,-4.681,-4.812,-4.902,-4.757,5.004,8.18,17,-1.316,1.853,4.429,8.066,-7.787,-8.22,-1.491,1.96,299.6,276.2,280.2,280.7,284.6,301.1,280.5,284.1,294.5,296.1,1,norm,1.148,1.933,-1.465,-1.259,-5.212,-4.975,-1.396,-1.402,-1.425,-1.342,1.727,-1.383,267.9,295.1,-5.233,-8.332,1.773,-1.398,7.806,4.803,-4.324,-8.242,24,4.592,5.028,4.733,4.973,1.959,1.53,1.153,1.377,24,4.504,5.022,-10,298.82455321,norm,0,84,84,84,221.216,221.225,221.2388063,221.239,221.24,221.242,up,1,0.703705699998,9.2962943,001,316,1366_768,Intel(R) Core(TM) i7-8750H CPU @ 2.20GHz,orientation_search,GHUM-L-P55205,Intel(R) UHD Graphics 630,2018_Nov_08_1408,testMonitor,
275.9,295.2,293.9,291.5,36,20,295.2,293.1,298.4,283.5,7.689,7.676,7.633,7.615,7.84,7.884,8.055,5.205,-5.166,-8.261,1.877,-1.635,8.317,4.699,-4.904,-7.571,269.9,267.9,-7.989,283.6,307.9,286.7,280.3,277.2,36,294.8,1,5,prime,10,0,112,norm,36,-4.346,down,norm,287.935730526,271.5,288.6,288.9,281.9,2,291.1,281.8,287.0,10,5,8.328,5.075,1.174,-1.888,-4.5,-7.746,299.6,5,399.9,-8.193,-7.972,20,-8.337,-7.503,-4.315,-5.194,-4.995,-4.379,4.67,7.829,8,-1.91,1.121,4.599,7.933,-7.755,-7.847,-1.948,1.619,299.4,,280.4,283.2,283.9,286.2,277.8,284.8,282.1,294.3,2,norm,1.393,1.15,-1.643,-1.569,-4.367,-5.186,-1.739,-2.002,-2.071,-1.775,1.959,-2.016,280.6,294.6,-4.475,-8.389,1.819,-1.876,7.775,4.977,-4.895,-7.643,24,4.378,4.491,5.049,4.621,1.194,1.134,1.702,1.79,24,4.833,4.577,-10,298.82455321,norm,0,85,85,85,221.968,221.978,221.9885765,221.989,221.99,221.992,down,1,1.08583190001,8.91416809999,001,316,1366_768,Intel(R) Core(TM) i7-8750H CPU @ 2.20GHz,orientation_search,GHUM-L-P55205,Intel(R) UHD Graphics 630,2018_Nov_08_1408,testMonitor,
291.6,268.6,299.7,303.9,36,20,284.0,279.3,284.8,286.8,8.496,7.58,7.849,8.186,7.592,8.308,8.025,4.549,-4.317,-7.535,1.466,-1.795,7.764,4.777,-5.082,-8.36,289.3,,-8.158,280.7,293.9,284.4,273.7,281.3,36,292.5,5,5,prime,10,0,74,norm,36,-4.99,up,norm,287.935730526,289.7,284.3,285.1,290.0,4,273.2,279.6,279.5,10,5,8.328,4.616,1.595,-1.472,-5.181,-7.522,290.9,5,361.9,-7.691,-8.173,20,-7.685,-8.229,-4.857,-4.771,-4.646,-5.007,4.397,8.438,34,-1.66,1.765,5.22,8.316,-7.871,-8.468,-1.498,1.245,295.7,267.9,300.1,295.7,307.9,297.8,287.2,278.4,297.5,288.7,3,norm,1.676,1.972,-1.796,-2.018,-4.86,-4.65,-1.647,-1.217,-1.38,-1.358,1.66,-1.702,294.0,290.2,-4.519,-8.241,1.23,-1.327,7.803,4.528,-5.299,-7.606,24,5.084,4.767,4.977,4.752,1.704,1.613,2.053,1.466,24,5.198,4.79,-10,298.82455321,norm,0,86,86,86,223.148,223.154,223.1713678,223.172,223.173,223.174,down,0,0.818706299993,-10,001,316,1366_768,Intel(R) Core(TM) i7-8750H CPU @ 2.20GHz,orientation_search,GHUM-L-P55205,Intel(R) UHD Graphics 630,2018_Nov_08_1408,testMonitor,
283.4,289.2,282.3,293.0,36,20,299.3,299.6,292.8,277.4,8.316,7.687,8.135,8.276,7.531,8.234,7.64,4.451,-5.178,-7.655,2.054,-1.958,7.796,5.16,-4.743,-8.281,270.3,,-7.72,299.0,272.9,298.6,291.8,279.3,36,291.4,5,5,prime,10,0,114,norm,36,-4.572,up,norm,287.935730526,295.3,275.7,290.5,307.9,4,294.8,288.5,280.7,10,5,7.526,4.394,1.727,-1.13,-4.317,-8.094,275.6,5,401.9,-8.39,-8.15,20,-8.473,-7.913,-4.406,-5.007,-5.031,-4.795,4.965,8.401,34,-1.686,1.736,4.747,8.089,-8.289,-8.059,-2.027,1.93,305.5,300.1,293.6,296.9,267.9,300.1,274.9,297.6,283.8,281.3,4,norm,1.967,1.643,-2.055,-1.328,-5.099,-5.012,-1.915,-1.786,-1.208,-1.806,1.645,-1.922,290.5,294.5,-4.96,-7.643,2.014,-1.104,7.645,4.884,-5.117,-7.761,24,4.648,4.852,5.121,4.543,2.082,2.071,1.551,1.521,24,4.677,4.458,-10,298.82455321,norm,0,87,87,87,225.036,225.042,225.0542516,225.054,225.056,225.057,up,1,1.36888940004,8.63111059996,001,316,1366_768,Intel(R) Core(TM) i7-8750H CPU @ 2.20GHz,orientation_search,GHUM-L-P55205,Intel(R) UHD Graphics 630,2018_Nov_08_1408,testMonitor,
372.8,368.1,372.0,378.1,36,-40,374.1,372.6,365.6,372.6,8.317,8.273,8.269,7.928,7.72,7.581,8.372,4.585,-4.804,-7.66,1.142,-1.926,7.636,5.135,-4.398,-8.151,366.6,374.3,-7.598,373.0,366.0,365.0,370.6,374.9,36,364.2,3,5,probe,5,0,60,norm,36,-4.73,down,norm,371.023989354,361.0,374.2,366.4,371.1,0,374.6,363.4,367.1,10,5,8.356,4.882,1.371,-1.644,-5.212,-8.492,368.9,2,311.0,-8.361,-7.955,20,-7.833,-7.692,-4.416,-4.426,-4.461,-4.382,4.831,8.113,18,-1.771,2.069,5.275,7.653,-8.415,-7.71,-1.859,1.216,367.2,375.3,372.6,373.7,375.9,369.9,369.9,374.6,372.8,371.4,0,norm,1.951,1.107,-1.313,-1.661,-4.734,-5.144,-2.083,-1.728,-2.045,-1.644,1.77,-1.106,377.8,,-4.721,-8.459,2.073,-1.444,8.224,4.883,-5.181,-8.345,25,4.94,5.064,4.574,5.2,1.4,1.117,1.822,1.202,25,4.977,4.879,20,287.935730526,norm,0,88,88,88,226.449,226.458,226.4707172,226.471,226.472,226.474,down,1,1.12056900002,8.87943099998,001,316,1366_768,Intel(R) Core(TM) i7-8750H CPU @ 2.20GHz,orientation_search,GHUM-L-P55205,Intel(R) UHD Graphics 630,2018_Nov_08_1408,testMonitor,
406.3,388.0,394.2,405.8,36,-40,407.0,395.4,394.9,399.4,8.16,7.579,7.659,8.009,7.885,8.078,8.278,4.414,-4.504,-8.12,1.382,-1.631,7.81,5.04,-5.286,-7.509,406.7,396.2,-8.089,398.5,395.0,400.1,399.8,,36,398.6,4,5,probe,5,0,87,norm,36,-5.057,down,norm,398.023989354,395.6,403.7,406.7,404.5,2,395.2,395.3,403.1,10,5,7.707,4.461,1.967,-1.896,-5.08,-7.985,396.4,2,311.0,-7.557,-8.05,20,-7.612,-8.359,-4.705,-4.991,-5.141,-4.998,4.819,8.316,26,-1.488,1.69,4.739,7.554,-8.438,-8.055,-1.877,1.94,408.0,404.7,396.8,398.4,395.7,401.5,392.5,405.1,396.1,401.9,1,norm,1.933,1.983,-1.459,-1.374,-4.891,-5.299,-1.898,-1.547,-1.501,-1.657,1.682,-1.741,389.6,407.9,-5.215,-7.859,2.008,-1.42,8.191,4.982,-5.008,-8.461,25,5.197,4.423,4.363,4.412,1.394,1.275,2.081,1.745,25,4.872,5.089,20,287.935730526,norm,0,89,89,89,227.616,227.625,227.6370948,227.637,227.639,227.64,down,1,0.718964500003,9.2810355,001,316,1366_768,Intel(R) Core(TM) i7-8750H CPU @ 2.20GHz,orientation_search,GHUM-L-P55205,Intel(R) UHD Graphics 630,2018_Nov_08_1408,testMonitor,
171.0,172.3,192.1,184.9,36,-40,182.3,175.0,174.8,177.9,7.655,7.522,8.199,8.4,8.181,8.455,8.221,5.0,-4.941,-8.358,1.593,-1.636,8.375,5.042,-4.826,-7.525,170.3,,-7.692,159.9,163.1,155.9,177.3,169.8,36,193.5,5,5,prime,10,0,95,norm,36,-4.943,up,norm,173.511667821,185.2,178.5,157.4,173.7,4,187.0,153.5,156.3,10,5,7.716,4.959,1.561,-1.226,-5.066,-7.563,167.6,5,268.5,-7.667,-7.575,-40,-8.422,-7.949,-5.022,-5.207,-4.309,-5.001,5.144,7.922,34,-1.946,1.449,5.136,8.354,-8.235,-7.659,-1.909,1.365,164.9,170.9,191.6,183.9,164.6,154.3,182.3,177.4,159.4,171.6,0,norm,1.605,1.544,-1.152,-1.771,-5.079,-4.58,-1.657,-1.236,-2.018,-1.815,1.263,-1.17,162.9,177.1,-4.573,-8.124,1.414,-1.117,8.066,4.316,-4.359,-7.977,26,4.571,4.947,5.114,4.589,1.483,1.675,1.817,2.025,26,4.397,4.371,-40,287.935730526,norm,0,90,90,90,228.382,228.391,228.4035121,228.404,228.405,228.407,up,1,2.86971740006,7.13028259994,001,316,1366_768,Intel(R) Core(TM) i7-8750H CPU @ 2.20GHz,orientation_search,GHUM-L-P55205,Intel(R) UHD Graphics 630,2018_Nov_08_1408,testMonitor,
153.5,169.6,179.2,182.5,36,-40,158.3,169.5,177.7,181.4,8.465,7.861,8.423,7.646,8.332,8.112,7.761,4.865,-4.398,-8.402,1.577,-1.242,7.826,5.073,-4.62,-8.419,177.8,179.6,-7.962,187.1,193.5,161.4,170.7,,36,166.7,4,5,prime,10,0,115,norm,36,-5.172,down,norm,173.511667821,164.5,171.8,172.7,189.0,2,179.3,160.8,172.5,10,5,7.833,4.336,1.875,-2.093,-5.257,-8.217,172.3,5,288.5,-8.155,-7.598,-40,-7.919,-8.072,-5.014,-4.406,-4.665,-4.499,4.535,7.971,26,-1.668,1.657,4.41,8.074,-7.903,-7.835,-1.322,1.658,170.5,179.0,185.7,183.6,174.3,173.6,176.4,181.8,166.0,175.9,1,norm,1.979,1.41,-1.948,-1.75,-4.883,-4.803,-1.502,-1.882,-1.737,-1.706,2.058,-1.689,179.3,159.7,-4.661,-8.095,1.938,-1.601,8.461,4.887,-4.37,-7.677,26,5.123,4.354,4.999,5.012,1.314,1.195,1.797,1.542,26,5.02,4.912,-40,287.935730526,norm,0,91,91,91,231.299,231.306,231.3195554,231.32,231.321,231.323,up,0,0.751327200094,-10,001,316,1366_768,Intel(R) Core(TM) i7-8750H CPU @ 2.20GHz,orientation_search,GHUM-L-P55205,Intel(R) UHD Graphics 630,2018_Nov_08_1408,testMonitor,
161.5,172.0,156.0,184.0,36,-40,160.7,164.5,172.5,153.5,8.464,8.003,7.659,7.757,8.04,7.963,8.27,4.51,-4.975,-8.074,1.664,-1.899,8.209,5.011,-4.807,-7.626,177.5,178.8,-7.858,165.9,170.2,170.1,176.1,174.5,36,183.5,0,5,prime,10,0,116,norm,36,-4.821,down,norm,173.511667821,193.5,187.9,162.6,187.8,1,179.5,181.7,173.4,10,5,7.837,4.996,1.665,-1.453,-4.54,-8.316,169.8,5,289.5,-8.189,-8.448,-40,-7.94,-8.377,-5.222,-4.515,-5.221,-5.192,4.38,8.217,1,-1.866,1.864,5.044,7.64,-8.004,-8.352,-1.779,1.292,177.1,182.4,175.9,169.6,,169.6,175.7,178.9,179.1,181.4,2,norm,1.833,1.602,-1.911,-1.636,-5.272,-4.792,-1.874,-1.143,-1.919,-1.621,1.819,-1.623,177.6,179.5,-4.501,-7.726,1.602,-1.325,8.149,4.751,-4.944,-8.049,26,4.771,4.639,5.085,5.115,1.329,1.733,1.334,1.65,26,4.937,4.304,-40,287.935730526,norm,0,92,92,92,233.107,233.113,233.1197693,233.12,233.121,233.123,down,1,1.00137369998,8.99862630002,001,316,1366_768,Intel(R) Core(TM) i7-8750H CPU @ 2.20GHz,orientation_search,GHUM-L-P55205,Intel(R) UHD Graphics 630,2018_Nov_08_1408,testMonitor,
172.4,165.0,166.6,179.1,36,-40,177.8,184.7,193.5,171.3,8.23,7.649,7.677,8.493,8.206,8.057,7.515,4.815,-4.778,-7.86,1.996,-1.839,8.27,4.318,-5.258,-8.029,172.9,172.4,-7.603,173.5,170.4,153.8,166.7,189.0,36,172.3,3,5,prime,10,0,104,norm,36,-4.762,down,norm,173.511667821,189.1,154.8,153.5,159.9,1,185.9,169.0,160.4,10,5,8.183,5.16,1.263,-1.995,-5.062,-7.675,167.5,5,277.5,-7.545,-7.506,-40,-7.689,-8.114,-5.281,-4.571,-5.069,-5.057,4.343,8.071,19,-2.084,1.302,4.962,8.036,-8.318,-8.043,-1.26,1.736,182.7,185.0,174.1,166.8,185.6,178.0,181.0,180.0,166.9,192.0,3,norm,1.841,1.899,-1.595,-1.35,-4.668,-5.195,-1.472,-1.67,-2.011,-1.96,1.902,-1.713,,189.1,-4.939,-8.416,1.353,-1.51,7.948,5.098,-4.447,-8.1,26,4.785,4.394,4.928,4.758,1.144,1.743,1.7,1.913,26,4.446,5.122,-40,287.935730526,norm,0,93,93,93,234.143,234.152,234.1688633,234.169,234.171,234.172,down,1,2.3510426,7.6489574,001,316,1366_768,Intel(R) Core(TM) i7-8750H CPU @ 2.20GHz,orientation_search,GHUM-L-P55205,Intel(R) UHD Graphics 630,2018_Nov_08_1408,testMonitor,
172.9,171.1,186.5,182.4,36,-40,177.2,157.5,168.1,185.7,8.204,8.034,8.411,7.671,8.207,7.578,7.714,4.68,-4.882,-8.386,1.293,-1.283,7.908,5.231,-4.902,-8.34,178.7,187.4,-8.073,182.7,166.1,153.5,185.7,178.5,36,184.1,3,5,prime,10,0,81,norm,36,-5.077,down,norm,173.511667821,191.2,188.4,182.6,172.6,1,165.2,178.7,159.3,10,5,7.84,4.371,1.193,-1.514,-4.587,-8.29,188.5,5,254.5,-7.776,-8.011,-40,-8.498,-7.679,-4.771,-4.351,-4.487,-5.221,5.155,7.715,19,-1.759,1.936,4.902,7.511,-8.176,-7.653,-1.919,1.672,182.0,180.2,184.1,165.7,162.8,193.5,155.5,164.5,172.4,190.2,4,norm,1.879,1.73,-1.982,-1.178,-5.202,-4.56,-1.27,-1.827,-1.158,-1.933,1.101,-1.639,,192.0,-5.273,-7.733,1.673,-1.595,7.587,4.667,-4.76,-7.654,26,4.341,4.796,4.592,5.011,1.216,1.796,1.468,1.458,26,5.255,4.975,-40,287.935730526,norm,0,94,94,94,236.545,236.553,236.568249,236.568,236.57,236.571,down,1,1.08388759999,8.91611240001,001,316,1366_768,Intel(R) Core(TM) i7-8750H CPU @ 2.20GHz,orientation_search,GHUM-L-P55205,Intel(R) UHD Graphics 630,2018_Nov_08_1408,testMonitor,
211.5,225.6,214.9,218.3,36,20,219.9,219.9,,220.8,8.243,7.831,8.441,8.132,7.772,8.419,8.122,4.85,-4.828,-8.132,1.618,-1.996,8.082,5.018,-5.001,-8.397,218.1,219.6,-8.302,225.3,220.0,219.8,213.1,224.0,36,208.8,4,5,probe,5,0,94,norm,36,-4.932,up,norm,218.750357185,219.6,215.8,222.1,214.3,4,217.3,223.3,218.5,10,5,8.085,4.958,2.099,-1.112,-4.449,-7.815,221.2,1,124.8,-8.371,-8.314,-40,-7.908,-7.807,-4.831,-4.356,-4.386,-4.742,5.066,8.466,28,-1.365,1.197,4.938,7.749,-8.45,-7.504,-2.01,1.34,221.3,218.5,219.2,228.8,220.4,221.4,220.3,215.4,215.5,213.2,0,norm,1.187,1.863,-1.415,-1.138,-4.649,-5.188,-1.678,-1.337,-1.523,-1.818,1.767,-1.181,214.1,222.5,-4.901,-7.767,1.774,-1.528,7.66,4.694,-4.644,-8.366,27,4.546,4.864,4.949,5.214,1.82,1.694,2.023,1.645,27,4.396,4.618,-40,173.511667821,norm,0,95,95,95,237.675,237.683,237.7010829,237.701,237.703,237.705,up,1,1.06760399998,8.93239600002,001,316,1366_768,Intel(R) Core(TM) i7-8750H CPU @ 2.20GHz,orientation_search,GHUM-L-P55205,Intel(R) UHD Graphics 630,2018_Nov_08_1408,testMonitor,
