d_ori_22,d_ori_23,d_ori_20,d_ori_21,set_size,ctpd,d_ori_24,d_ori_25,d_ori_28,d_ori_29,stim_pos_x_30,stim_pos_x_31,stim_pos_x_32,stim_pos_x_33,stim_pos_x_34,stim_pos_x_35,stim_pos_y_11,stim_pos_y_10,stim_pos_y_13,stim_pos_y_12,stim_pos_y_15,stim_pos_y_14,stim_pos_y_17,stim_pos_y_16,stim_pos_y_19,stim_pos_y_18,d_ori_35,d_ori_34,stim_pos_x_3,d_ori_31,d_ori_30,d_ori_33,d_ori_32,d_ori_26,test_set_size,d_ori_27,targetCol,dsd_test,seq_type,dsd,blockRepN,targetDist,dtype_test,prime_set_size,stim_pos_y_25,correctResponse,dtype,distrMean,d_ori_17,d_ori_16,stim_pos_y_3,d_ori_14,targetRow,d_ori_11,d_ori_13,d_ori_12,dsd_prime,streak_length_prime,stim_pos_y_35,stim_pos_y_34,stim_pos_y_33,stim_pos_y_32,stim_pos_y_31,stim_pos_y_30,d_ori_10,nextProbe,targetOri,stim_pos_x_1,stim_pos_x_2,ctpd_prime,stim_pos_x_4,stim_pos_x_5,stim_pos_x_6,stim_pos_x_7,stim_pos_x_8,stim_pos_x_9,stim_pos_y_28,stim_pos_y_29,targetPos,stim_pos_y_20,stim_pos_y_21,stim_pos_y_22,stim_pos_y_23,stim_pos_y_24,stim_pos_x_0,stim_pos_y_26,stim_pos_y_27,d_ori_9,d_ori_8,d_ori_3,d_ori_2,d_ori_1,d_ori_0,d_ori_7,d_ori_6,d_ori_5,d_ori_4,trialN,dtype_prime,stim_pos_x_18,stim_pos_x_19,stim_pos_x_12,stim_pos_x_13,stim_pos_x_10,stim_pos_x_11,stim_pos_x_16,stim_pos_x_17,stim_pos_x_14,stim_pos_x_15,stim_pos_y_9,stim_pos_y_8,d_ori_19,d_ori_18,stim_pos_y_1,stim_pos_y_0,d_ori_15,stim_pos_y_2,stim_pos_y_5,stim_pos_y_4,stim_pos_y_7,stim_pos_y_6,totBlockN,stim_pos_x_27,stim_pos_x_26,stim_pos_x_25,stim_pos_x_24,stim_pos_x_23,stim_pos_x_22,stim_pos_x_21,stim_pos_x_20,blockN,stim_pos_x_29,stim_pos_x_28,prevDistrCTPD,prevDistrMean,prevDistrType,trials.thisRepN,trials.thisTrialN,trials.thisN,trials.thisIndex,timeStart,timeBeforeDraw,timeDraw,timeAfterSaving,timeAfterWritingToTemp,timeAfterPreparingNext,answer,correct,rt,trialScore,session,participant,resolution,cpu_info,expName,pc_name,graphic_card,date,monitorName,
233.7,233.5,240.1,232.2,36,-30,240.9,231.1,240.0,257.3,8.41,7.54,8.29,7.68,7.745,7.877,7.807,5.157,-5.013,-7.807,1.687,-1.18,7.72,5.226,-5.191,-7.824,250.3,233.9,-8.127,261.3,230.9,251.4,241.7,244.4,36,234.7,1,5,prime,10,0,71,norm,36,-5.103,down,norm,241.276638117,251.3,249.5,1.965,235.9,0,245.8,241.5,226.4,10,6,8.28,5.208,1.433,-1.778,-4.537,-8.397,237.2,6,312.3,-8.154,-7.644,-30,-8.325,-8.261,-5.102,-5.048,-5.151,-4.654,5.027,8.097,6,-1.781,1.104,5.063,8.177,-7.864,-8.328,-1.272,1.693,225.7,236.5,254.1,238.8,221.3,241.2,224.3,,255.8,250.5,0,norm,1.223,2.072,-1.496,-1.206,-5.291,-5.185,-2.008,-1.268,-1.428,-1.827,1.692,-1.868,233.8,248.7,-4.736,-7.968,226.8,-1.202,8.231,4.733,-4.805,-8.404,0,4.86,4.427,4.649,5.064,1.721,1.2,1.972,1.491,0,4.641,5.121,,,,0,0,0,0,1061.926,1061.937,1061.94231621,1061.943,1061.943,1061.947,down,1,3.29677732058,6.70322267942,001,321,1600_900,Intel(R) Core(TM) i7-2670QM CPU @ 2.20GHz,orientation_search,GRVLAPTOP3,Intel(R) HD Graphics Family,2018_nov_08_1347,testMonitor,
225.6,250.8,243.0,,36,-30,239.4,247.6,227.2,248.2,8.218,8.282,8.067,8.173,8.105,7.653,8.142,5.156,-5.097,-8.396,1.372,-1.902,8.255,4.792,-4.578,-8.219,248.9,237.4,-8.402,243.8,241.9,242.4,241.0,234.4,36,238.2,3,5,prime,10,0,99,norm,36,-5.07,up,norm,241.276638117,252.4,221.3,1.382,223.2,3,239.1,227.1,236.3,10,6,7.997,4.896,1.959,-1.403,-5.003,-8.355,248.7,6,340.3,-8.382,-7.631,-30,-7.822,-7.717,-4.865,-4.318,-4.601,-4.978,5.031,8.308,21,-1.67,1.588,4.531,8.243,-7.763,-8.039,-1.194,1.439,227.6,259.6,240.6,249.3,234.2,253.9,235.0,255.8,234.8,234.1,1,norm,1.286,1.987,-1.389,-1.992,-4.618,-4.667,-1.71,-1.658,-1.758,-1.621,1.458,-2.042,261.3,261.2,-4.301,-7.767,259.7,-1.39,7.771,4.446,-4.556,-7.801,0,5.12,4.903,4.484,4.791,1.309,1.588,1.598,1.112,0,4.432,4.749,,,,0,1,1,1,1065.253,1065.26,1065.26213221,1065.263,1065.264,1065.268,up,1,2.0371726937,7.9628273063,001,321,1600_900,Intel(R) Core(TM) i7-2670QM CPU @ 2.20GHz,orientation_search,GRVLAPTOP3,Intel(R) HD Graphics Family,2018_nov_08_1347,testMonitor,
240.0,238.0,231.8,227.6,36,-30,232.5,261.3,247.1,236.2,8.098,8.308,7.829,8.328,7.82,7.517,7.997,5.19,-4.909,-7.638,1.816,-1.777,7.659,4.758,-4.582,-8.264,248.5,234.1,-7.624,255.0,250.4,242.9,241.9,241.5,36,221.3,2,5,prime,10,0,110,norm,36,-5.163,up,norm,241.276638117,230.7,247.2,1.774,242.0,3,243.7,242.5,243.7,10,6,7.917,5.296,1.104,-1.563,-4.81,-7.708,255.8,6,351.3,-8.265,-7.602,-30,-7.57,-7.613,-4.699,-5.199,-4.767,-4.58,4.643,8.185,15,-1.294,1.194,5.103,8.058,-8.204,-8.137,-1.138,1.411,234.0,253.0,244.8,235.1,241.7,234.1,243.1,224.4,233.7,251.7,2,norm,1.123,1.781,-1.483,-1.909,-5.078,-5.208,-1.383,-1.164,-1.531,-1.917,1.281,-1.453,237.6,239.6,-4.516,-8.142,,-1.693,8.189,5.206,-4.729,-8.003,0,4.907,4.437,4.777,5.16,1.173,1.337,1.665,1.592,0,4.97,5.102,,,,0,2,2,2,1067.315,1067.322,1067.323482,1067.324,1067.326,1067.33,up,1,1.09057832284,8.90942167716,001,321,1600_900,Intel(R) Core(TM) i7-2670QM CPU @ 2.20GHz,orientation_search,GRVLAPTOP3,Intel(R) HD Graphics Family,2018_nov_08_1347,testMonitor,
240.9,241.5,249.3,230.8,36,-30,245.7,223.6,253.2,248.9,7.577,8.484,7.969,8.2,7.867,8.12,8.059,4.584,-5.194,-7.648,1.958,-1.103,7.971,5.071,-4.581,-7.744,224.3,241.0,-8.075,246.0,237.6,230.8,221.3,249.0,36,241.7,2,5,prime,10,0,83,norm,36,-5.047,up,norm,241.276638117,234.4,232.9,1.41,261.3,3,241.9,237.5,224.8,10,6,8.389,4.705,2.058,-1.932,-4.5,-8.007,242.1,6,324.3,-8.054,-8.0,-30,-8.204,-7.84,-5.23,-4.692,-4.915,-4.683,4.427,7.744,15,-1.406,1.191,4.951,8.104,-8.469,-7.974,-1.629,1.269,242.3,240.7,230.1,250.5,227.9,260.5,242.6,245.5,234.1,257.6,3,norm,1.935,1.132,-1.447,-1.167,-4.323,-4.691,-1.205,-1.872,-1.327,-1.949,1.202,-1.664,252.5,243.9,-4.855,-7.559,,-2.045,7.779,4.715,-4.742,-7.644,0,4.513,4.498,5.033,4.422,1.946,1.345,1.592,1.781,0,4.958,5.108,,,,0,3,3,3,1068.429,1068.435,1068.43745436,1068.438,1068.441,1068.445,up,1,1.57625940197,8.42374059803,001,321,1600_900,Intel(R) Core(TM) i7-2670QM CPU @ 2.20GHz,orientation_search,GRVLAPTOP3,Intel(R) HD Graphics Family,2018_nov_08_1347,testMonitor,
242.5,221.3,233.9,247.1,36,-30,239.0,250.2,261.3,240.2,7.628,8.386,8.42,7.742,8.071,8.046,8.226,4.62,-4.363,-8.122,1.435,-1.484,7.904,4.46,-5.08,-8.014,238.1,243.2,-7.566,261.2,251.2,240.8,240.3,228.7,36,233.4,0,5,prime,10,0,93,norm,36,-5.065,up,norm,241.276638117,254.5,235.9,1.147,237.1,5,246.6,259.7,239.6,10,6,7.6,5.035,1.484,-1.495,-4.758,-7.771,251.6,6,334.3,-8.095,-7.764,-30,-8.115,-8.092,-4.478,-5.114,-4.587,-4.847,4.62,7.952,5,-1.851,1.372,4.54,8.086,-8.348,-7.641,-1.772,1.225,230.3,250.0,245.0,247.9,233.6,238.0,222.9,224.8,,239.7,4,norm,2.04,1.372,-1.778,-1.328,-4.804,-5.21,-1.18,-1.293,-1.226,-1.639,1.41,-1.684,235.5,233.5,-4.42,-8.078,247.7,-1.46,7.932,5.068,-4.386,-7.817,0,4.401,5.138,4.377,5.063,1.274,1.995,1.266,1.676,0,4.522,4.979,,,,0,4,4,4,1070.029,1070.037,1070.03925714,1070.04,1070.042,1070.046,up,1,0.858546432246,9.14145356775,001,321,1600_900,Intel(R) Core(TM) i7-2670QM CPU @ 2.20GHz,orientation_search,GRVLAPTOP3,Intel(R) HD Graphics Family,2018_nov_08_1347,testMonitor,
228.0,240.5,242.0,261.3,36,-30,242.9,229.1,232.8,225.6,7.766,7.804,8.21,7.597,7.868,8.487,7.835,4.9,-4.448,-8.348,1.819,-1.921,7.793,4.883,-4.568,-8.017,256.7,,-8.225,241.7,243.4,229.4,241.3,230.2,36,224.4,5,5,prime,10,0,80,norm,36,-4.433,up,norm,241.276638117,252.9,238.8,1.96,234.7,4,224.0,256.6,251.3,10,6,7.517,4.386,1.692,-1.288,-5.113,-7.853,221.3,6,321.3,-7.786,-8.086,-30,-7.581,-7.645,-4.915,-5.208,-4.37,-4.484,4.739,8.217,34,-1.39,1.398,4.319,7.896,-7.9,-8.053,-1.361,1.814,236.1,229.8,242.5,228.7,228.6,249.2,243.9,240.5,255.2,241.5,5,norm,1.639,1.433,-1.567,-1.664,-5.076,-4.647,-2.012,-1.693,-1.647,-1.135,1.164,-1.938,239.3,232.4,-4.852,-8.17,254.0,-1.203,7.974,5.296,-5.077,-7.588,0,4.507,4.79,4.53,4.577,1.529,1.479,1.219,1.125,0,4.39,5.297,,,,0,5,5,5,1070.912,1070.918,1070.91970571,1070.92,1070.923,1070.926,up,1,0.97095357989,9.02904642011,001,321,1600_900,Intel(R) Core(TM) i7-2670QM CPU @ 2.20GHz,orientation_search,GRVLAPTOP3,Intel(R) HD Graphics Family,2018_nov_08_1347,testMonitor,
,334.0,322.5,333.4,36,-40,325.4,329.9,336.5,331.6,7.692,7.916,7.948,8.085,7.896,7.54,8.148,4.622,-4.534,-8.303,1.338,-1.418,7.814,4.649,-4.987,-7.697,338.5,321.6,-7.913,339.8,324.4,335.0,326.8,334.5,36,338.8,3,5,probe,5,0,114,norm,36,-4.823,up,norm,329.819119244,328.7,331.2,1.16,324.8,4,329.3,338.7,324.6,10,6,8.265,4.971,1.697,-1.894,-4.323,-8.411,326.2,1,215.8,-7.772,-8.294,-30,-7.834,-8.34,-4.774,-4.514,-4.486,-5.083,4.417,8.433,22,-1.238,1.666,4.976,8.45,-7.744,-7.511,-1.268,1.242,332.9,321.7,329.6,329.4,333.9,324.9,338.3,329.4,325.1,332.5,0,norm,1.923,1.259,-1.241,-1.465,-4.331,-4.792,-1.74,-1.719,-1.696,-2.051,1.294,-1.838,319.8,333.2,-4.751,-8.044,330.2,-1.937,8.035,5.139,-5.051,-7.997,1,4.441,4.725,4.628,5.063,1.934,2.066,1.645,1.192,1,5.202,4.587,-30,241.276638117,norm,0,6,6,6,1071.905,1071.911,1071.91309188,1071.914,1071.916,1071.92,down,0,7.61082046273,-10,001,321,1600_900,Intel(R) Core(TM) i7-2670QM CPU @ 2.20GHz,orientation_search,GRVLAPTOP3,Intel(R) HD Graphics Family,2018_nov_08_1347,testMonitor,
132.8,117.9,,146.1,36,-60,125.4,125.3,139.6,131.3,8.0,7.58,8.095,7.703,8.083,7.575,7.6,4.519,-4.854,-8.213,2.091,-1.547,7.641,4.831,-4.507,-7.73,118.5,126.5,-8.157,122.3,130.5,141.0,141.0,130.5,36,137.4,3,5,prime,10,0,115,norm,36,-4.908,down,norm,126.08607957,141.2,114.2,1.508,120.4,2,134.8,139.6,128.2,10,6,8.152,5.278,1.105,-1.377,-4.443,-8.029,122.2,6,241.1,-7.593,-7.97,-60,-8.176,-8.171,-4.314,-4.449,-5.29,-4.898,4.473,7.969,20,-1.569,1.961,4.716,8.134,-8.212,-7.593,-1.132,1.98,133.9,113.0,137.0,124.9,123.1,125.5,117.4,106.1,129.0,143.2,0,norm,2.082,1.768,-1.301,-2.055,-4.796,-4.346,-1.591,-1.345,-1.291,-1.988,1.327,-1.483,116.1,122.3,-5.253,-7.578,124.1,-1.744,7.721,4.995,-5.029,-8.227,2,4.729,4.332,4.449,4.325,1.465,1.728,2.057,1.413,2,4.664,4.791,-40,241.276638117,norm,0,7,7,7,1080.546,1080.553,1080.55487838,1080.555,1080.558,1080.562,up,0,0.519661725128,-10,001,321,1600_900,Intel(R) Core(TM) i7-2670QM CPU @ 2.20GHz,orientation_search,GRVLAPTOP3,Intel(R) HD Graphics Family,2018_nov_08_1347,testMonitor,
119.9,142.9,135.6,144.6,36,-60,134.0,146.1,140.6,117.8,8.218,8.254,7.563,8.076,8.063,7.733,8.471,5.294,-4.519,-7.948,1.911,-2.004,8.446,5.045,-4.442,-7.573,129.4,122.5,-8.303,138.4,121.0,116.8,121.7,129.3,36,126.3,1,5,prime,10,0,118,norm,36,-5.247,up,norm,126.08607957,133.7,130.6,1.394,124.9,4,129.4,139.4,117.3,10,6,8.406,4.579,2.056,-2.001,-4.389,-7.875,,6,244.1,-8.008,-7.796,-60,-8.32,-7.512,-4.724,-5.144,-4.805,-4.866,4.665,7.683,10,-1.406,1.371,4.372,7.677,-8.237,-8.078,-1.123,1.54,109.9,125.0,145.7,126.0,124.5,113.2,125.7,129.8,143.2,122.0,1,norm,2.026,1.113,-2.08,-1.794,-5.2,-4.4,-1.878,-2.031,-1.982,-1.965,1.902,-1.726,106.1,128.7,-5.251,-7.764,119.5,-2.034,8.398,5.046,-5.049,-8.385,2,5.087,4.902,4.872,5.055,1.883,1.831,1.334,2.088,2,4.95,4.539,-40,241.276638117,norm,0,8,8,8,1082.09,1082.095,1082.09733738,1082.098,1082.101,1082.104,up,1,10.5411977743,-0.541197774342,001,321,1600_900,Intel(R) Core(TM) i7-2670QM CPU @ 2.20GHz,orientation_search,GRVLAPTOP3,Intel(R) HD Graphics Family,2018_nov_08_1347,testMonitor,
138.0,131.8,123.6,127.6,36,-60,146.1,142.4,143.6,117.8,8.415,8.015,8.483,7.609,8.489,7.653,8.143,4.664,-4.837,-7.692,1.119,-1.132,7.559,4.992,-4.813,-7.788,126.8,109.0,-8.374,128.5,115.4,114.5,133.6,124.6,36,125.1,1,5,prime,10,0,77,norm,36,-5.187,up,norm,126.08607957,118.3,143.6,1.902,127.4,3,141.7,106.1,112.4,10,6,8.442,4.804,1.367,-1.145,-4.481,-8.348,143.4,6,203.1,-8.378,-7.708,-60,-8.12,-8.477,-4.375,-4.727,-4.874,-4.544,5.213,8.466,9,-1.567,1.362,4.477,8.139,-7.609,-7.768,-1.469,1.772,,137.5,139.8,129.0,118.6,117.0,118.8,131.1,110.1,137.0,2,norm,1.879,1.572,-1.103,-1.67,-4.769,-5.115,-1.527,-2.094,-1.215,-2.069,1.835,-1.728,136.3,137.0,-5.291,-7.596,133.6,-1.244,8.301,4.357,-4.513,-8.434,2,4.447,4.898,4.682,4.609,2.096,1.869,2.012,1.846,2,4.352,5.041,-40,241.276638117,norm,0,9,9,9,1092.654,1092.659,1092.66104665,1092.662,1092.665,1092.668,up,1,6.41944468829,3.58055531171,001,321,1600_900,Intel(R) Core(TM) i7-2670QM CPU @ 2.20GHz,orientation_search,GRVLAPTOP3,Intel(R) HD Graphics Family,2018_nov_08_1347,testMonitor,
132.6,113.5,133.7,139.4,36,-60,146.1,126.0,143.2,124.5,8.399,8.401,7.579,8.001,8.006,7.934,7.929,4.819,-4.788,-8.065,1.544,-1.8,8.335,5.04,-5.064,-8.422,123.0,124.2,-7.784,124.4,133.7,121.3,137.0,127.3,36,123.3,0,5,prime,10,0,76,norm,36,-4.603,up,norm,126.08607957,144.3,121.2,1.827,123.3,4,106.1,120.4,111.0,10,6,7.512,5.231,1.855,-1.806,-4.582,-8.114,131.7,6,202.1,-8.056,-8.02,-60,-8.495,-8.008,-4.85,-4.528,-4.824,-4.863,5.229,8.194,4,-1.432,1.944,4.562,8.087,-7.849,-8.056,-1.581,1.387,135.4,132.0,133.1,128.5,109.9,119.4,131.5,128.9,119.1,,3,norm,1.991,1.372,-1.56,-1.91,-4.475,-4.431,-1.294,-1.405,-1.738,-1.568,1.782,-1.207,117.8,132.6,-4.83,-7.928,125.4,-1.679,7.695,5.204,-4.661,-8.417,2,4.464,4.529,4.629,4.662,2.034,1.918,1.736,1.826,2,4.326,5.289,-40,241.276638117,norm,0,10,10,10,1099.097,1099.102,1099.1042085,1099.105,1099.108,1099.111,up,1,4.93898687506,5.06101312494,001,321,1600_900,Intel(R) Core(TM) i7-2670QM CPU @ 2.20GHz,orientation_search,GRVLAPTOP3,Intel(R) HD Graphics Family,2018_nov_08_1347,testMonitor,
118.4,134.9,124.7,131.5,36,-60,126.3,116.2,130.2,,8.17,7.598,7.521,7.755,7.877,8.36,8.49,4.534,-5.237,-7.952,2.045,-1.859,8.309,4.552,-4.662,-8.218,121.1,129.5,-7.583,119.8,108.4,125.8,122.6,130.0,36,124.2,4,5,prime,10,0,84,norm,36,-4.348,up,norm,126.08607957,136.2,127.3,1.762,112.5,5,110.3,125.7,136.1,10,6,7.855,4.303,1.726,-2.015,-5.229,-7.656,123.9,6,210.1,-7.584,-7.91,-60,-7.604,-7.599,-5.057,-5.262,-4.572,-4.701,4.454,8.041,29,-1.543,1.221,4.385,8.005,-7.522,-7.744,-1.234,1.91,121.3,123.9,137.1,128.6,106.1,129.6,146.1,123.6,120.0,116.6,4,norm,1.442,2.013,-1.852,-2.03,-5.231,-4.353,-1.982,-1.954,-1.633,-1.305,1.644,-1.617,124.0,116.5,-5.224,-7.787,129.4,-1.702,7.866,5.08,-4.747,-8.335,2,5.214,5.134,4.859,5.273,1.239,1.735,2.067,1.975,2,4.909,4.528,-40,241.276638117,norm,0,11,11,11,1104.058,1104.064,1104.06599031,1104.066,1104.069,1104.073,down,0,9.62600043333,-10,001,321,1600_900,Intel(R) Core(TM) i7-2670QM CPU @ 2.20GHz,orientation_search,GRVLAPTOP3,Intel(R) HD Graphics Family,2018_nov_08_1347,testMonitor,
131.3,131.6,131.4,128.5,36,-60,117.6,118.7,132.0,110.1,7.629,7.86,8.04,8.18,7.794,8.029,7.866,4.87,-5.127,-8.339,2.024,-2.097,7.776,4.986,-4.576,-8.389,127.4,130.0,-8.028,115.4,106.1,116.3,121.3,117.6,36,126.1,1,5,prime,10,0,66,norm,36,-4.896,down,norm,126.08607957,118.2,124.4,1.763,120.6,2,128.2,129.6,134.2,10,6,8.196,4.873,1.193,-1.946,-5.259,-8.445,136.3,6,192.1,-7.88,-7.783,-60,-8.266,-7.854,-4.659,-5.268,-4.594,-4.3,5.036,8.029,8,-1.444,1.645,4.393,8.143,-8.036,-7.502,-1.139,2.049,146.1,,134.9,123.3,131.5,112.0,116.0,123.3,125.3,130.5,5,norm,1.309,1.534,-1.257,-1.292,-5.229,-4.746,-1.369,-1.729,-1.838,-1.181,1.879,-1.514,124.1,135.7,-4.497,-8.014,118.9,-1.965,8.299,4.533,-5.083,-7.648,2,4.602,5.154,5.003,5.074,1.201,1.27,1.821,1.845,2,4.319,4.52,-40,241.276638117,norm,0,12,12,12,1114.708,1114.714,1114.71623555,1114.717,1114.72,1114.723,down,1,4.09290231662,5.90709768338,001,321,1600_900,Intel(R) Core(TM) i7-2670QM CPU @ 2.20GHz,orientation_search,GRVLAPTOP3,Intel(R) HD Graphics Family,2018_nov_08_1347,testMonitor,
173.4,175.4,174.7,171.2,36,-20,169.2,178.1,171.8,158.1,7.599,7.927,8.373,8.309,8.235,8.012,7.803,5.147,-4.813,-7.795,1.425,-1.829,7.529,5.168,-5.262,-8.078,168.9,168.4,-7.605,169.5,165.1,170.0,,161.9,36,165.5,5,5,probe,5,0,96,norm,36,-4.672,down,norm,168.086043116,169.2,175.3,1.404,160.8,2,163.7,166.6,162.5,10,6,8.252,5.144,1.165,-1.445,-4.397,-7.519,169.7,2,72.1,-7.629,-7.755,-60,-8.37,-8.246,-5.146,-4.789,-5.13,-5.125,5.19,8.34,32,-1.2,1.354,5.263,7.878,-8.391,-8.398,-2.02,2.019,167.7,168.4,178.0,169.1,165.2,176.0,175.9,167.5,167.1,170.4,0,norm,1.11,1.563,-2.029,-1.743,-4.65,-4.845,-1.614,-1.861,-1.875,-1.351,1.899,-1.136,176.5,169.3,-4.331,-7.994,170.3,-1.765,7.522,4.943,-4.717,-7.623,3,4.81,4.623,5.17,5.035,1.503,1.556,1.659,1.337,3,5.195,4.587,-60,126.08607957,norm,0,13,13,13,1118.824,1118.83,1118.8320841,1118.832,1118.835,1118.839,down,1,2.39492438265,7.60507561735,001,321,1600_900,Intel(R) Core(TM) i7-2670QM CPU @ 2.20GHz,orientation_search,GRVLAPTOP3,Intel(R) HD Graphics Family,2018_nov_08_1347,testMonitor,
182.8,191.9,183.7,189.6,36,-20,183.9,190.4,186.2,179.3,7.977,8.347,7.666,7.633,8.154,8.362,8.189,4.45,-4.631,-8.359,1.485,-1.829,8.031,4.836,-4.638,-7.938,188.5,184.7,-8.208,182.2,176.9,185.2,176.1,186.1,36,186.9,1,5,probe,5,0,114,norm,36,-4.89,up,norm,186.086043116,181.4,185.5,2.01,183.3,5,,190.5,179.8,10,6,8.431,5.081,1.381,-1.521,-5.284,-8.326,179.5,2,72.1,-8.162,-8.374,-60,-8.255,-7.521,-5.24,-4.962,-4.843,-4.58,5.05,8.002,11,-1.536,2.075,5.238,7.65,-7.859,-8.333,-1.332,1.868,177.6,179.1,183.5,182.5,196.1,188.9,190.4,184.2,182.5,179.8,1,norm,1.355,1.256,-1.376,-2.088,-5.198,-4.353,-1.959,-1.895,-1.645,-2.065,2.089,-1.63,185.4,184.4,-4.674,-7.639,183.8,-1.262,8.442,4.364,-4.902,-8.358,3,4.558,5.007,5.209,5.144,1.158,1.982,1.591,2.074,3,5.296,4.456,-60,126.08607957,norm,0,14,14,14,1121.242,1121.247,1121.24940324,1121.25,1121.253,1121.256,up,1,1.81801032139,8.18198967861,001,321,1600_900,Intel(R) Core(TM) i7-2670QM CPU @ 2.20GHz,orientation_search,GRVLAPTOP3,Intel(R) HD Graphics Family,2018_nov_08_1347,testMonitor,
2.2,5.2,10.3,18.4,36,-60,4.8,11.1,5.2,16.3,7.723,8.174,8.197,8.131,8.273,8.273,7.776,4.827,-5.267,-8.326,1.412,-1.805,7.989,5.237,-5.121,-7.605,-10.6,11.9,-8.253,19.9,13.3,0.0,16.2,9.4,36,18.2,1,5,prime,10,0,101,norm,36,-4.413,up,norm,9.44488834764,17.9,-8.0,1.739,21.6,5,,8.3,25.7,10,5,8.117,5.297,1.477,-1.135,-4.932,-7.633,5.8,5,110.4,-8.3,-8.351,-60,-8.111,-7.945,-4.391,-5.084,-4.392,-4.888,4.564,8.122,11,-1.667,1.346,4.856,8.088,-7.966,-8.05,-1.85,1.979,0.8,17.1,13.7,-6.6,29.4,-1.7,15.5,-6.5,16.2,7.5,0,norm,1.543,1.88,-1.748,-1.831,-4.827,-4.721,-1.192,-1.904,-1.167,-1.714,1.136,-1.809,2.8,6.5,-5.013,-7.597,11.6,-1.606,7.94,4.654,-4.874,-8.361,4,4.687,5.003,4.734,4.997,1.11,1.216,1.746,1.477,4,5.07,4.735,-20,126.08607957,norm,0,15,15,15,1123.082,1123.088,1123.08957205,1123.09,1123.093,1123.096,up,1,3.79308423906,6.20691576094,001,321,1600_900,Intel(R) Core(TM) i7-2670QM CPU @ 2.20GHz,orientation_search,GRVLAPTOP3,Intel(R) HD Graphics Family,2018_nov_08_1347,testMonitor,
13.8,-0.1,23.7,-1.8,36,-60,5.5,12.1,2.8,-1.6,8.138,8.266,8.23,8.181,7.691,7.501,7.957,4.49,-5.011,-7.794,1.39,-1.287,8.105,5.076,-4.436,-7.767,-10.6,20.3,-7.727,13.7,14.2,3.0,14.7,,36,17.4,4,5,prime,10,0,85,norm,36,-4.899,down,norm,9.44488834764,3.0,6.2,1.596,10.0,2,-2.3,16.4,13.4,10,5,7.762,5.055,1.592,-1.213,-4.92,-8.483,14.1,5,94.4,-7.989,-8.327,-60,-7.965,-8.462,-4.592,-4.464,-4.871,-4.942,5.252,8.064,26,-1.538,1.188,4.82,7.969,-8.146,-8.006,-1.569,1.117,4.8,29.4,1.0,1.0,28.9,6.9,8.8,3.1,4.0,14.6,1,norm,1.715,1.841,-1.434,-2.069,-4.795,-5.248,-1.824,-1.612,-1.869,-1.276,1.939,-1.617,15.0,18.3,-4.36,-8.305,5.1,-1.747,8.167,4.617,-4.79,-7.797,4,4.792,5.111,5.204,5.068,1.103,2.064,1.295,1.687,4,5.098,4.58,-20,126.08607957,norm,0,16,16,16,1126.899,1126.905,1126.9065747,1126.907,1126.91,1126.914,down,1,2.51497918352,7.48502081648,001,321,1600_900,Intel(R) Core(TM) i7-2670QM CPU @ 2.20GHz,orientation_search,GRVLAPTOP3,Intel(R) HD Graphics Family,2018_nov_08_1347,testMonitor,
13.3,-1.8,29.4,9.0,36,-60,17.8,13.2,13.8,-0.8,8.43,8.482,8.019,8.46,7.622,7.906,7.643,4.432,-5.258,-7.797,1.983,-2.047,8.437,4.782,-4.395,-8.391,11.4,3.4,-7.843,-10.6,-6.0,-6.5,14.5,2.9,36,7.9,2,5,prime,10,0,65,norm,36,-4.413,down,norm,9.44488834764,5.7,22.8,1.451,20.9,0,-1.5,16.8,,10,5,8.44,4.969,1.278,-1.286,-4.613,-7.858,1.1,5,74.4,-7.52,-7.653,-60,-7.596,-8.386,-4.927,-4.909,-4.452,-5.16,4.415,7.808,12,-1.579,1.365,5.277,8.145,-8.27,-7.848,-1.778,1.585,23.9,2.7,-0.6,4.9,23.0,3.9,10.2,10.5,13.8,11.1,2,norm,1.628,1.311,-2.032,-2.054,-5.263,-4.914,-1.244,-1.68,-1.888,-1.217,1.746,-1.348,9.0,8.5,-4.495,-8.294,4.7,-1.462,8.212,4.781,-4.723,-8.135,4,5.288,4.592,5.079,4.554,1.679,1.986,1.36,1.301,4,4.461,4.867,-20,126.08607957,norm,0,17,17,17,1129.437,1129.443,1129.445095,1129.446,1129.449,1129.452,down,1,6.71238090524,3.28761909476,001,321,1600_900,Intel(R) Core(TM) i7-2670QM CPU @ 2.20GHz,orientation_search,GRVLAPTOP3,Intel(R) HD Graphics Family,2018_nov_08_1347,testMonitor,
5.3,21.6,2.6,3.8,36,-60,1.6,14.6,17.7,20.4,7.712,8.155,8.328,7.991,8.099,8.214,8.297,5.287,-5.018,-8.263,1.544,-1.885,8.436,5.013,-4.527,-8.205,-7.5,6.1,-8.36,1.4,29.4,15.2,-7.0,-10.6,36,-6.1,2,5,prime,10,0,107,norm,36,-5.169,up,norm,9.44488834764,7.5,,1.869,4.6,4,24.6,-3.0,-0.3,10,5,8.373,4.7,2.009,-1.129,-4.567,-8.359,10.5,5,116.4,-7.878,-7.585,-60,-7.716,-7.929,-4.494,-4.305,-4.723,-4.623,4.447,7.776,16,-2.006,1.595,4.927,8.122,-7.725,-8.289,-1.963,1.549,8.5,3.4,26.5,-4.4,-2.8,21.7,14.7,-1.3,13.2,8.0,3,norm,1.466,1.442,-1.124,-1.722,-5.138,-4.778,-1.261,-2.028,-1.909,-1.503,1.813,-2.01,7.0,22.5,-4.31,-8.365,10.0,-1.731,8.019,4.453,-4.562,-7.659,4,4.724,4.78,5.25,4.845,1.676,1.318,1.846,1.433,4,4.97,4.685,-20,126.08607957,norm,0,18,18,18,1136.173,1136.178,1136.18060518,1136.181,1136.184,1136.187,up,1,3.47702715575,6.52297284425,001,321,1600_900,Intel(R) Core(TM) i7-2670QM CPU @ 2.20GHz,orientation_search,GRVLAPTOP3,Intel(R) HD Graphics Family,2018_nov_08_1347,testMonitor,
1.4,-5.7,3.4,-10.6,36,-60,-5.5,1.9,6.0,5.0,7.794,7.851,8.327,8.42,8.189,8.251,8.448,4.62,-4.98,-7.579,1.953,-1.447,7.958,4.962,-4.468,-8.279,7.1,,-7.883,0.3,3.9,3.0,8.0,7.0,36,7.4,5,5,prime,10,0,61,norm,36,-4.497,up,norm,9.44488834764,26.7,-0.3,1.209,21.7,4,1.4,0.5,10.2,10,5,8.396,4.679,1.344,-1.738,-5.225,-7.609,-8.7,5,70.4,-7.895,-8.416,-60,-8.015,-7.633,-5.29,-4.74,-4.781,-5.23,4.803,7.716,34,-1.355,1.634,4.301,7.538,-8.17,-8.433,-1.907,1.823,-8.2,23.1,29.4,29.2,2.7,13.5,2.8,15.8,2.1,-1.0,4,norm,1.455,1.52,-1.246,-1.76,-5.085,-4.362,-1.715,-1.787,-1.235,-1.611,2.083,-1.145,12.9,15.9,-4.854,-8.442,12.0,-1.699,7.757,4.409,-5.07,-7.811,4,4.685,4.39,5.106,4.811,1.51,1.481,1.68,1.819,4,4.306,4.365,-20,126.08607957,norm,0,19,19,19,1139.673,1139.679,1139.68117019,1139.682,1139.685,1139.688,up,1,4.76705803027,5.23294196973,001,321,1600_900,Intel(R) Core(TM) i7-2670QM CPU @ 2.20GHz,orientation_search,GRVLAPTOP3,Intel(R) HD Graphics Family,2018_nov_08_1347,testMonitor,
48.5,54.6,59.0,59.1,36,80,64.8,59.9,49.8,49.1,8.121,8.121,7.515,8.084,8.227,8.481,7.657,4.598,-4.951,-8.287,1.818,-1.498,8.355,4.64,-4.838,-7.859,59.6,,-7.905,57.4,59.4,55.7,54.4,58.0,36,59.3,5,5,probe,5,0,109,norm,36,-5.299,up,norm,58.5492866322,65.0,60.3,1.649,55.5,4,60.0,61.0,63.1,10,5,8.214,5.154,1.183,-1.913,-5.237,-7.59,57.2,2,-50.5,-7.748,-8.074,-60,-7.632,-7.895,-4.403,-5.109,-5.223,-5.295,5.27,8.407,34,-1.105,1.648,4.892,8.361,-8.216,-7.969,-1.913,2.013,52.1,56.0,61.9,59.8,59.2,55.5,68.5,51.6,51.4,53.5,0,norm,1.268,1.486,-1.575,-1.669,-4.502,-4.909,-1.433,-2.015,-1.168,-1.344,1.935,-1.798,59.2,51.3,-5.219,-8.204,64.0,-1.524,7.728,4.417,-4.307,-8.205,5,5.186,4.605,4.984,5.143,1.317,1.441,1.471,2.087,5,4.733,4.964,-60,9.44488834764,norm,0,20,20,20,1144.464,1144.469,1144.47144154,1144.472,1144.475,1144.479,up,1,2.02734626714,7.97265373286,001,321,1600_900,Intel(R) Core(TM) i7-2670QM CPU @ 2.20GHz,orientation_search,GRVLAPTOP3,Intel(R) HD Graphics Family,2018_nov_08_1347,testMonitor,
21.2,33.3,29.2,28.1,36,80,21.1,26.5,30.7,29.4,7.578,8.089,7.882,7.579,7.96,8.407,8.044,4.874,-4.82,-7.863,1.478,-1.401,8.102,4.884,-4.953,-7.667,33.1,21.7,-8.033,24.4,25.6,18.6,23.1,34.7,36,17.5,2,5,probe,5,0,76,norm,36,-5.291,down,norm,25.5492866322,16.4,27.9,2.017,,2,18.8,29.4,28.3,10,5,8.31,5.14,1.909,-1.588,-5.011,-7.858,28.9,2,-50.5,-8.15,-7.727,-60,-7.553,-8.028,-4.743,-4.835,-4.491,-4.388,4.555,7.936,14,-1.875,1.194,4.924,7.732,-8.249,-7.87,-1.731,1.772,27.0,30.8,22.7,28.4,30.3,23.1,23.3,23.7,35.5,26.4,1,norm,1.237,2.045,-1.49,-1.998,-4.719,-4.833,-1.828,-1.142,-1.327,-1.757,1.913,-1.47,15.5,23.6,-4.653,-8.249,24.5,-1.179,8.1,5.232,-4.781,-8.26,5,4.433,4.348,5.031,4.532,1.907,1.536,1.261,2.018,5,4.689,4.743,-60,9.44488834764,norm,0,21,21,21,1146.514,1146.521,1146.52314328,1146.524,1146.527,1146.53,down,1,2.03385270259,7.96614729741,001,321,1600_900,Intel(R) Core(TM) i7-2670QM CPU @ 2.20GHz,orientation_search,GRVLAPTOP3,Intel(R) HD Graphics Family,2018_nov_08_1347,testMonitor,
246.0,266.2,265.2,257.3,36,-10,263.2,280.7,277.9,263.7,7.844,8.205,8.062,7.604,8.024,7.883,8.108,4.827,-4.399,-8.033,1.746,-1.54,7.693,4.496,-4.403,-8.409,258.0,267.5,-7.971,277.3,271.6,249.7,251.2,250.6,36,255.1,0,5,prime,10,0,118,norm,36,-4.597,up,norm,260.714697853,256.5,256.6,1.897,249.3,3,240.7,273.2,256.9,10,5,8.476,5.259,1.469,-1.783,-4.335,-8.286,261.4,5,378.7,-8.007,-8.135,-10,-7.759,-8.012,-5.112,-4.922,-4.75,-4.943,4.82,7.749,3,-1.876,1.851,4.684,7.697,-8.233,-7.582,-1.735,1.755,260.7,279.3,,279.9,248.7,253.1,258.4,264.2,267.2,257.9,0,norm,1.381,1.5,-1.311,-1.288,-4.789,-4.533,-1.739,-1.386,-1.107,-1.754,1.572,-1.332,260.6,251.6,-4.432,-8.4,253.8,-1.58,7.933,4.608,-4.374,-7.933,6,4.617,4.652,4.74,4.851,1.979,1.936,1.251,1.892,6,4.502,5.247,80,9.44488834764,norm,0,22,22,22,1148.572,1148.578,1148.58049414,1148.581,1148.584,1148.587,up,1,8.47930819043,1.52069180957,001,321,1600_900,Intel(R) Core(TM) i7-2670QM CPU @ 2.20GHz,orientation_search,GRVLAPTOP3,Intel(R) HD Graphics Family,2018_nov_08_1347,testMonitor,
249.5,263.1,,255.4,36,-10,265.6,268.6,256.6,241.5,7.713,7.901,7.63,7.922,7.663,7.798,7.586,4.403,-4.37,-7.911,1.52,-2.071,8.134,4.415,-4.814,-8.352,272.7,252.5,-7.831,265.4,244.5,252.0,242.1,276.1,36,249.2,3,5,prime,10,0,117,norm,36,-4.368,down,norm,260.714697853,270.5,256.5,1.702,262.4,2,240.7,250.5,264.8,10,5,7.8,4.363,2.033,-1.773,-5.163,-7.784,266.7,5,377.7,-7.773,-8.014,-10,-7.572,-8.185,-4.581,-4.724,-4.459,-4.842,4.942,8.21,20,-1.884,1.907,4.775,8.216,-7.665,-8.31,-1.576,2.03,276.3,253.1,246.0,280.7,268.5,253.9,274.9,265.2,249.9,255.5,1,norm,1.64,1.176,-1.554,-1.742,-4.717,-4.518,-1.233,-1.498,-1.396,-1.772,1.274,-1.111,260.5,260.6,-4.587,-7.752,255.0,-1.552,8.092,4.822,-4.971,-7.976,6,4.649,5.134,5.04,4.614,1.747,1.369,1.965,2.072,6,4.473,5.07,80,9.44488834764,norm,0,23,23,23,1157.075,1157.08,1157.08217422,1157.082,1157.085,1157.089,up,0,1.92183872408,-10,001,321,1600_900,Intel(R) Core(TM) i7-2670QM CPU @ 2.20GHz,orientation_search,GRVLAPTOP3,Intel(R) HD Graphics Family,2018_nov_08_1347,testMonitor,
258.7,263.2,261.5,259.5,36,-10,267.3,273.9,251.8,259.3,7.824,7.871,8.456,7.5,8.224,8.27,8.163,4.869,-4.827,-8.289,1.951,-2.085,8.405,4.437,-4.624,-8.412,240.7,260.0,-7.618,264.3,251.8,253.2,264.6,270.7,36,254.0,1,5,prime,10,0,82,norm,36,-4.615,up,norm,260.714697853,251.5,258.5,2.031,251.5,4,255.7,269.6,256.0,10,5,8.485,5.154,2.03,-1.53,-4.872,-7.977,,5,342.7,-7.594,-7.852,-10,-7.745,-7.674,-4.871,-4.433,-4.407,-4.316,4.795,8.023,10,-1.698,2.034,4.439,7.566,-7.536,-7.96,-1.901,1.826,267.3,264.3,280.7,269.9,265.2,267.5,255.4,255.8,266.3,255.6,2,norm,1.652,1.446,-2.092,-1.813,-4.965,-4.673,-1.117,-1.773,-1.955,-1.921,2.017,-1.846,264.7,257.3,-4.526,-7.983,272.9,-1.272,7.55,5.254,-5.196,-8.191,6,4.724,4.588,4.71,4.945,1.153,1.167,1.117,1.776,6,5.221,4.923,80,9.44488834764,norm,0,24,24,24,1160.024,1160.03,1160.03214368,1160.033,1160.036,1160.039,down,0,0.944739191586,-10,001,321,1600_900,Intel(R) Core(TM) i7-2670QM CPU @ 2.20GHz,orientation_search,GRVLAPTOP3,Intel(R) HD Graphics Family,2018_nov_08_1347,testMonitor,
263.2,259.8,258.3,270.5,36,-10,243.3,260.4,262.5,240.7,7.603,8.025,7.872,8.391,7.565,8.388,7.687,4.663,-4.655,-7.997,1.558,-1.697,8.168,5.043,-4.489,-8.409,257.7,252.3,-7.841,262.9,240.9,251.0,259.5,257.4,36,263.2,2,5,prime,10,0,116,norm,36,-4.486,down,norm,260.714697853,262.1,240.9,1.584,256.9,0,270.8,267.3,,10,5,7.509,5.09,1.52,-2.096,-4.991,-8.173,264.6,5,376.7,-8.331,-8.196,-10,-8.391,-7.943,-4.357,-4.574,-5.053,-4.98,5.071,7.712,12,-1.558,1.413,5.066,7.586,-7.897,-7.823,-1.708,1.75,254.3,259.3,252.5,246.9,248.0,256.4,245.8,278.9,259.5,264.3,3,norm,1.952,1.308,-1.225,-1.92,-4.974,-4.389,-1.568,-1.718,-1.645,-1.808,2.015,-1.37,264.1,280.7,-5.142,-8.403,270.9,-1.15,7.861,4.762,-4.905,-8.424,6,5.286,4.497,5.213,4.816,1.573,1.156,1.736,2.004,6,4.486,5.207,80,9.44488834764,norm,0,25,25,25,1162.006,1162.012,1162.01445293,1162.015,1162.018,1162.021,down,1,3.8482694021,6.1517305979,001,321,1600_900,Intel(R) Core(TM) i7-2670QM CPU @ 2.20GHz,orientation_search,GRVLAPTOP3,Intel(R) HD Graphics Family,2018_nov_08_1347,testMonitor,
248.1,253.8,242.3,255.8,36,-10,278.4,266.2,267.1,267.2,8.193,7.912,7.517,7.699,8.046,8.405,7.953,4.689,-5.25,-8.043,2.01,-1.98,7.636,4.447,-4.613,-7.595,263.0,274.1,-8.136,261.2,265.6,276.8,248.9,254.8,36,260.9,1,5,prime,10,0,111,norm,36,-5.009,up,norm,260.714697853,268.7,266.6,1.988,263.8,4,277.0,240.7,273.1,10,5,8.11,5.132,1.72,-1.764,-5.199,-8.469,,5,371.7,-8.489,-7.827,-10,-8.367,-8.349,-4.68,-4.571,-4.933,-5.285,5.224,8.444,10,-1.837,1.904,4.74,7.651,-8.355,-8.386,-1.456,2.042,266.9,274.3,262.6,269.3,257.4,257.5,269.1,280.7,264.5,267.7,4,norm,1.183,1.348,-1.986,-1.853,-5.18,-4.804,-1.492,-1.939,-1.693,-1.822,2.072,-1.575,273.0,254.0,-5.202,-8.084,253.1,-1.698,7.991,4.948,-4.301,-8.198,6,5.188,4.331,4.671,4.407,1.309,1.216,1.984,1.243,6,4.919,4.475,80,9.44488834764,norm,0,26,26,26,1165.878,1165.883,1165.8856172,1165.886,1165.889,1165.892,up,1,1.88404218957,8.11595781043,001,321,1600_900,Intel(R) Core(TM) i7-2670QM CPU @ 2.20GHz,orientation_search,GRVLAPTOP3,Intel(R) HD Graphics Family,2018_nov_08_1347,testMonitor,
353.1,365.4,373.1,366.4,36,60,366.9,359.1,366.4,366.2,8.224,7.647,8.281,8.372,7.975,7.621,8.056,5.149,-4.636,-8.354,1.19,-1.114,8.284,5.146,-4.441,-8.033,358.8,355.3,-8.299,355.3,362.3,366.0,358.9,362.4,36,367.6,1,5,probe,5,0,108,norm,36,-5.247,up,norm,363.066898263,362.2,358.9,1.308,367.1,5,,361.6,362.3,10,5,7.838,4.414,1.649,-1.5,-5.057,-8.063,360.6,1,255.1,-8.202,-8.333,-10,-8.414,-8.248,-4.967,-4.48,-4.889,-4.345,4.545,8.184,11,-2.023,1.122,5.259,7.813,-8.228,-7.967,-1.682,1.876,363.5,366.9,364.0,361.7,357.1,355.7,354.9,370.1,356.8,364.7,0,norm,1.872,1.27,-1.507,-1.216,-5.246,-4.337,-2.012,-1.672,-1.959,-1.679,1.959,-1.982,360.1,368.2,-4.458,-7.78,366.3,-1.827,7.794,4.911,-4.37,-8.425,7,4.754,4.931,4.323,4.319,1.162,1.978,1.763,1.299,7,5.066,4.317,-10,260.714697853,norm,0,27,27,27,1167.784,1167.79,1167.79183049,1167.792,1167.795,1167.799,up,1,2.94682270781,7.05317729219,001,321,1600_900,Intel(R) Core(TM) i7-2670QM CPU @ 2.20GHz,orientation_search,GRVLAPTOP3,Intel(R) HD Graphics Family,2018_nov_08_1347,testMonitor,
55.9,57.1,49.4,46.9,36,20,54.6,56.0,78.4,62.9,7.57,7.618,8.462,8.432,8.103,8.461,8.306,4.555,-4.945,-7.857,1.456,-1.731,7.501,4.342,-4.497,-7.768,42.4,59.0,-8.189,68.7,70.8,79.1,,52.6,36,60.5,5,5,prime,10,0,99,norm,36,-4.623,down,norm,59.124747377,55.1,59.6,1.885,67.6,2,55.9,73.7,48.1,10,5,8.483,5.102,1.661,-1.319,-4.391,-7.893,58.7,5,158.1,-7.904,-8.215,20,-7.998,-8.385,-4.342,-4.628,-4.911,-4.963,4.776,8.231,32,-1.332,1.139,4.734,7.621,-7.71,-7.807,-1.755,1.604,57.4,63.7,57.3,46.6,72.5,62.4,51.5,66.0,65.0,72.6,0,norm,1.139,1.395,-1.296,-2.028,-4.799,-4.945,-1.848,-1.14,-1.703,-1.768,1.398,-2.074,59.6,39.1,-5.073,-7.963,56.9,-1.277,8.118,5.083,-4.851,-7.825,8,5.021,5.24,4.699,4.593,2.056,1.749,1.854,1.354,8,5.028,4.658,60,260.714697853,norm,0,28,28,28,1170.754,1170.76,1170.76202014,1170.762,1170.765,1170.769,up,0,4.49598519219,-10,001,321,1600_900,Intel(R) Core(TM) i7-2670QM CPU @ 2.20GHz,orientation_search,GRVLAPTOP3,Intel(R) HD Graphics Family,2018_nov_08_1347,testMonitor,
40.5,48.8,63.8,53.1,36,20,75.6,48.8,77.1,69.7,8.05,8.155,8.476,7.719,8.32,8.345,8.488,4.451,-4.653,-8.179,1.309,-1.622,7.896,5.197,-4.981,-7.632,59.3,43.4,-8.193,60.5,49.2,67.8,67.1,41.6,36,48.3,2,5,prime,10,0,91,norm,36,-4.494,up,norm,59.124747377,55.8,55.7,1.15,79.1,3,68.9,59.5,55.6,10,5,7.976,4.811,2.056,-1.318,-5.029,-8.323,65.3,5,150.1,-8.237,-7.923,20,-7.901,-8.172,-4.605,-4.776,-4.769,-4.949,4.408,7.734,15,-1.441,1.347,4.555,7.781,-8.046,-7.767,-1.988,1.419,72.5,60.5,39.1,65.2,66.4,53.8,67.0,56.4,50.5,71.2,1,norm,1.829,1.522,-1.165,-1.473,-4.409,-5.2,-1.931,-1.421,-1.575,-1.647,1.189,-1.456,54.8,68.3,-4.515,-7.842,,-1.515,7.669,4.378,-4.558,-8.101,8,5.177,4.304,4.989,4.521,1.468,1.415,1.203,1.103,8,4.989,5.235,60,260.714697853,norm,0,29,29,29,1176.279,1176.284,1176.28661049,1176.287,1176.29,1176.293,up,1,1.25598158736,8.74401841264,001,321,1600_900,Intel(R) Core(TM) i7-2670QM CPU @ 2.20GHz,orientation_search,GRVLAPTOP3,Intel(R) HD Graphics Family,2018_nov_08_1347,testMonitor,
58.3,43.8,68.4,44.9,36,20,43.1,45.5,70.9,66.7,8.167,8.083,7.987,8.276,7.856,8.351,8.443,5.282,-4.62,-8.186,1.754,-1.599,8.068,4.744,-4.418,-7.661,52.4,68.0,-8.298,73.7,56.0,79.1,60.7,59.2,36,65.7,0,5,prime,10,0,119,norm,36,-4.946,down,norm,59.124747377,49.8,50.0,1.202,46.5,2,47.6,55.6,65.9,10,5,7.795,4.596,1.562,-1.22,-4.725,-8.115,68.2,5,178.1,-8.305,-7.532,20,-8.275,-8.433,-4.88,-4.321,-4.744,-4.887,5.076,7.873,2,-1.518,1.733,5.174,8.387,-7.82,-8.484,-1.374,1.749,45.8,56.0,54.5,,62.5,50.4,60.4,59.3,44.5,52.4,2,norm,1.976,1.861,-1.486,-1.973,-4.982,-4.801,-2.08,-1.395,-1.567,-1.633,1.485,-1.59,61.9,54.8,-4.645,-7.661,56.8,-1.182,8.381,4.576,-4.786,-8.334,8,4.593,4.821,4.749,4.804,1.762,1.692,1.442,1.336,8,4.587,5.066,60,260.714697853,norm,0,30,30,30,1177.557,1177.563,1177.56476644,1177.565,1177.568,1177.571,down,1,1.49004422919,8.50995577081,001,321,1600_900,Intel(R) Core(TM) i7-2670QM CPU @ 2.20GHz,orientation_search,GRVLAPTOP3,Intel(R) HD Graphics Family,2018_nov_08_1347,testMonitor,
63.6,51.8,43.6,59.1,36,20,57.7,46.3,56.3,39.1,8.046,7.97,7.971,7.541,7.51,7.565,7.829,5.29,-5.043,-7.634,1.913,-2.016,8.435,5.138,-5.02,-8.07,55.4,60.7,-8.069,61.0,65.9,66.8,49.0,59.7,36,50.0,2,5,prime,10,0,78,norm,36,-4.964,down,norm,59.124747377,43.1,55.9,2.025,61.4,0,65.0,61.8,,10,5,8.271,4.563,1.938,-2.038,-4.382,-8.391,52.1,5,137.1,-8.44,-8.317,20,-7.745,-8.046,-5.26,-5.1,-4.363,-4.592,4.874,8.097,12,-1.161,1.67,4.751,8.011,-8.026,-8.205,-1.195,1.304,67.7,60.3,60.4,68.1,67.0,62.6,53.0,63.6,56.2,51.7,3,norm,1.388,1.857,-1.12,-2.078,-4.333,-4.665,-1.958,-1.647,-1.69,-1.552,2.024,-1.207,62.0,58.3,-4.704,-8.401,79.1,-1.943,7.627,4.378,-5.19,-7.65,8,4.811,4.654,4.698,4.337,1.563,2.088,1.678,1.134,8,5.006,5.086,60,260.714697853,norm,0,31,31,31,1179.07,1179.077,1179.07918109,1179.08,1179.083,1179.086,down,1,1.24877566572,8.75122433428,001,321,1600_900,Intel(R) Core(TM) i7-2670QM CPU @ 2.20GHz,orientation_search,GRVLAPTOP3,Intel(R) HD Graphics Family,2018_nov_08_1347,testMonitor,
45.3,65.2,69.4,54.3,36,20,58.8,75.1,59.6,70.3,8.248,7.917,8.135,7.759,7.821,8.016,7.859,4.765,-4.528,-8.246,1.459,-1.171,8.125,4.332,-4.598,-7.971,69.7,39.1,-8.322,51.6,59.0,57.4,62.7,69.7,36,71.4,0,5,prime,10,0,69,norm,36,-5.046,up,norm,59.124747377,40.3,59.5,1.697,79.1,5,45.2,66.1,40.9,10,5,8.172,4.945,1.87,-1.409,-4.9,-8.005,60.7,5,128.1,-8.433,-8.005,20,-8.345,-7.929,-4.91,-5.279,-5.26,-4.926,4.402,7.747,5,-2.081,1.248,4.48,8.169,-7.609,-8.482,-1.298,1.673,65.6,74.3,50.8,56.6,74.0,63.2,62.0,64.3,,78.7,4,norm,1.552,1.762,-1.574,-1.461,-4.467,-5.223,-1.107,-1.176,-1.146,-1.409,1.6,-2.079,62.9,55.4,-5.043,-8.346,62.0,-1.14,8.19,5.103,-5.28,-8.112,8,4.87,4.461,5.126,4.412,1.273,1.731,1.133,1.524,8,4.548,5.096,60,260.714697853,norm,0,32,32,32,1180.343,1180.348,1180.35049487,1180.351,1180.354,1180.357,up,1,0.979914287262,9.02008571274,001,321,1600_900,Intel(R) Core(TM) i7-2670QM CPU @ 2.20GHz,orientation_search,GRVLAPTOP3,Intel(R) HD Graphics Family,2018_nov_08_1347,testMonitor,
139.0,149.9,144.0,145.3,36,-80,141.6,142.8,132.6,136.7,8.171,7.738,8.417,7.818,8.354,8.472,7.586,5.019,-4.684,-7.984,1.117,-1.832,8.053,5.179,-4.647,-8.032,152.2,142.6,-8.173,141.4,142.6,,144.5,136.5,36,142.0,5,5,probe,5,0,68,norm,36,-4.448,up,norm,142.237756556,147.2,147.3,1.388,144.5,3,140.8,143.8,147.3,10,5,7.53,4.476,1.338,-1.993,-4.909,-7.629,143.5,1,74.2,-8.119,-7.655,20,-8.128,-7.528,-4.623,-5.212,-4.475,-4.386,4.874,8.245,33,-1.209,1.885,5.083,7.568,-8.489,-7.919,-1.232,1.355,142.1,142.0,143.9,139.5,132.2,151.3,149.1,145.3,147.5,141.0,0,norm,1.369,1.502,-1.972,-1.349,-5.167,-4.318,-1.709,-1.333,-1.432,-1.116,1.669,-1.721,147.0,134.9,-4.549,-7.696,138.9,-1.269,8.487,4.469,-5.249,-7.967,9,4.502,4.645,4.403,4.319,1.321,2.033,1.698,1.112,9,4.64,4.877,20,59.124747377,norm,0,33,33,33,1181.345,1181.351,1181.3526517,1181.353,1181.356,1181.359,up,1,2.08771640646,7.91228359354,001,321,1600_900,Intel(R) Core(TM) i7-2670QM CPU @ 2.20GHz,orientation_search,GRVLAPTOP3,Intel(R) HD Graphics Family,2018_nov_08_1347,testMonitor,
130.8,156.6,142.6,143.6,36,20,132.3,164.8,141.3,161.8,7.637,7.552,7.782,8.006,8.319,7.533,7.535,4.37,-4.792,-8.333,1.966,-1.516,7.544,4.369,-4.676,-7.965,144.0,153.0,-8.378,167.2,150.2,157.5,151.1,152.6,36,145.1,0,5,prime,10,0,69,norm,36,-4.994,down,norm,150.789883328,157.9,135.1,1.737,134.3,0,170.8,151.7,144.0,10,6,7.559,5.096,1.431,-1.471,-4.762,-8.437,162.2,6,219.8,-7.581,-8.171,20,-8.442,-7.875,-4.869,-5.225,-4.616,-5.149,5.16,7.875,0,-1.587,1.36,4.41,7.826,-7.791,-8.218,-1.213,1.118,147.5,141.3,147.2,157.5,149.0,,142.9,159.2,152.5,137.3,0,norm,1.296,1.417,-1.543,-1.341,-5.202,-4.327,-1.889,-1.428,-1.135,-1.376,1.788,-1.947,157.6,142.0,-4.468,-7.846,149.7,-1.959,7.863,4.522,-4.634,-7.864,10,5.028,4.512,4.384,5.283,1.855,1.349,1.893,1.557,10,4.423,4.502,-80,59.124747377,norm,0,34,34,34,1183.456,1183.462,1183.46396479,1183.464,1183.467,1183.471,down,1,1.78309764976,8.21690235024,001,321,1600_900,Intel(R) Core(TM) i7-2670QM CPU @ 2.20GHz,orientation_search,GRVLAPTOP3,Intel(R) HD Graphics Family,2018_nov_08_1347,testMonitor,
150.6,155.6,155.1,161.6,36,20,140.7,148.3,141.7,170.8,8.216,7.692,8.119,8.07,7.765,7.637,8.008,4.601,-4.77,-8.128,1.389,-1.588,7.562,5.235,-4.334,-7.787,155.2,141.8,-7.723,,163.7,162.7,137.9,142.9,36,157.5,5,5,prime,10,0,95,norm,36,-4.375,down,norm,150.789883328,154.9,145.0,1.992,157.6,1,155.3,165.1,153.6,10,6,7.7,5.138,1.844,-1.97,-4.628,-7.562,161.0,6,245.8,-8.107,-7.593,20,-8.084,-7.959,-5.271,-4.316,-4.731,-5.098,5.162,8.472,31,-1.276,1.517,4.813,7.996,-7.952,-8.076,-1.196,2.089,169.3,149.8,144.2,151.8,144.3,150.1,158.2,155.1,149.5,150.8,1,norm,1.888,2.052,-2.043,-1.53,-4.336,-5.16,-1.172,-1.647,-2.085,-1.831,1.567,-1.225,155.2,145.4,-4.654,-8.473,157.9,-1.484,8.222,5.034,-4.604,-7.677,10,4.545,4.624,4.333,4.376,1.691,1.334,1.736,1.126,10,4.847,5.254,-80,59.124747377,norm,0,35,35,35,1185.262,1185.268,1185.26990687,1185.27,1185.273,1185.277,down,1,1.46623695118,8.53376304882,001,321,1600_900,Intel(R) Core(TM) i7-2670QM CPU @ 2.20GHz,orientation_search,GRVLAPTOP3,Intel(R) HD Graphics Family,2018_nov_08_1347,testMonitor,
151.1,139.7,156.5,140.5,36,20,146.1,135.6,152.3,161.8,8.129,8.249,7.543,8.407,8.051,8.427,7.619,4.638,-5.28,-8.17,1.497,-1.106,7.767,4.454,-4.565,-8.369,149.6,168.6,-7.823,141.3,135.1,166.9,153.4,148.7,36,164.1,0,5,prime,10,0,109,norm,36,-5.277,up,norm,150.789883328,158.5,143.1,1.444,154.9,4,150.7,153.7,166.9,10,6,7.959,5.199,1.129,-1.143,-4.82,-8.047,130.8,6,259.8,-8.142,-7.758,20,-7.713,-7.867,-4.5,-5.225,-4.726,-4.49,5.1,8.437,4,-1.899,1.929,4.948,8.084,-7.714,-7.581,-1.155,1.273,151.3,156.8,139.8,152.5,155.7,146.3,143.1,170.8,149.0,,2,norm,1.772,2.069,-1.609,-1.759,-4.376,-4.317,-1.406,-1.939,-1.158,-1.679,1.481,-1.782,141.6,143.6,-5.016,-8.311,132.6,-1.671,7.989,4.979,-4.558,-8.115,10,4.822,4.7,5.202,4.951,1.945,1.365,1.203,1.5,10,4.832,4.93,-80,59.124747377,norm,0,36,36,36,1186.751,1186.757,1186.75843352,1186.759,1186.761,1186.765,up,1,1.13183493247,8.86816506753,001,321,1600_900,Intel(R) Core(TM) i7-2670QM CPU @ 2.20GHz,orientation_search,GRVLAPTOP3,Intel(R) HD Graphics Family,2018_nov_08_1347,testMonitor,
130.8,142.1,154.9,,36,20,149.7,156.7,154.7,151.0,8.263,8.188,8.286,8.318,7.655,7.769,8.164,4.511,-5.064,-8.2,1.133,-1.49,8.419,4.745,-5.252,-8.234,154.4,163.3,-8.291,166.0,161.1,137.5,149.8,154.6,36,155.0,3,5,prime,10,0,94,norm,36,-4.907,up,norm,150.789883328,156.5,150.3,1.713,154.4,3,141.1,135.7,133.1,10,6,7.894,4.864,1.387,-1.537,-5.157,-7.877,148.7,6,244.8,-8.307,-8.234,20,-7.761,-7.762,-5.0,-4.611,-4.777,-4.531,5.073,8.175,21,-1.836,1.532,4.604,8.301,-7.845,-7.908,-1.958,1.782,158.9,154.8,152.4,147.6,135.2,161.2,161.2,170.8,139.4,149.4,3,norm,1.2,1.194,-1.237,-1.615,-4.992,-4.552,-2.03,-2.048,-1.458,-1.765,2.048,-1.162,158.8,150.9,-5.29,-7.798,154.6,-1.641,8.421,4.708,-5.239,-8.444,10,4.498,5.145,5.08,4.696,1.525,1.577,1.465,1.157,10,4.678,4.972,-80,59.124747377,norm,0,37,37,37,1187.905,1187.911,1187.91274867,1187.913,1187.916,1187.919,up,1,1.54767339132,8.45232660868,001,321,1600_900,Intel(R) Core(TM) i7-2670QM CPU @ 2.20GHz,orientation_search,GRVLAPTOP3,Intel(R) HD Graphics Family,2018_nov_08_1347,testMonitor,
140.5,153.7,143.1,157.2,36,20,170.6,130.8,153.4,160.4,8.239,8.252,8.325,8.122,7.816,8.13,8.209,4.619,-5.28,-8.307,1.752,-1.268,7.924,5.001,-4.735,-8.271,158.2,162.0,-7.529,,156.5,151.1,162.2,159.3,36,149.4,5,5,prime,10,0,79,norm,36,-5.166,down,norm,150.789883328,153.2,167.2,1.131,142.1,1,158.2,146.8,170.8,10,6,7.948,4.456,1.727,-1.798,-4.858,-7.822,157.0,6,229.8,-8.177,-8.228,20,-7.824,-8.161,-4.736,-5.018,-5.018,-5.024,4.471,7.95,31,-1.781,2.083,5.09,8.301,-8.413,-7.896,-1.4,2.001,156.9,146.0,154.4,149.2,145.7,157.9,169.1,156.6,158.8,155.6,4,norm,1.506,1.756,-1.701,-1.907,-4.888,-4.656,-2.099,-2.092,-1.946,-1.999,1.558,-1.498,160.4,150.6,-4.769,-8.201,144.8,-1.214,8.206,4.912,-5.299,-7.88,10,4.505,4.783,5.23,4.331,1.363,1.517,1.636,1.365,10,5.229,4.567,-80,59.124747377,norm,0,38,38,38,1189.475,1189.481,1189.48341032,1189.484,1189.487,1189.49,down,1,3.15208734518,6.84791265482,001,321,1600_900,Intel(R) Core(TM) i7-2670QM CPU @ 2.20GHz,orientation_search,GRVLAPTOP3,Intel(R) HD Graphics Family,2018_nov_08_1347,testMonitor,
138.1,157.8,167.3,,36,20,145.6,141.3,170.8,155.4,7.679,8.079,7.819,8.449,8.227,8.311,7.818,4.432,-4.628,-8.215,1.807,-2.028,7.716,4.386,-5.055,-8.083,135.9,136.1,-8.034,130.8,152.3,168.3,143.2,163.1,36,158.1,3,5,prime,10,0,116,norm,36,-4.331,up,norm,150.789883328,151.4,144.8,1.198,159.7,3,152.3,140.8,148.5,10,6,7.765,4.648,1.325,-1.216,-4.432,-8.139,153.1,6,266.8,-8.21,-7.845,20,-7.87,-8.069,-5.255,-4.339,-4.859,-4.689,4.813,7.561,21,-1.198,1.796,5.045,8.256,-8.37,-7.793,-1.374,1.937,155.0,165.3,151.1,136.2,153.7,136.6,144.5,148.3,162.4,140.4,5,norm,2.089,1.194,-1.955,-1.337,-4.66,-4.898,-1.792,-1.538,-1.445,-1.421,1.943,-1.298,153.6,162.5,-4.834,-8.263,155.4,-1.837,8.091,4.906,-5.288,-8.452,10,4.797,4.72,4.518,4.864,1.834,1.325,1.196,1.975,10,4.525,5.158,-80,59.124747377,norm,0,39,39,39,1192.65,1192.655,1192.65741567,1192.658,1192.66,1192.664,down,0,1.16060585402,-10,001,321,1600_900,Intel(R) Core(TM) i7-2670QM CPU @ 2.20GHz,orientation_search,GRVLAPTOP3,Intel(R) HD Graphics Family,2018_nov_08_1347,testMonitor,
244.8,252.5,253.0,244.4,36,40,252.8,241.1,246.2,249.8,8.332,8.432,7.669,8.257,8.034,7.95,8.105,5.054,-4.478,-7.994,1.692,-1.704,8.376,5.267,-5.047,-8.411,255.9,245.0,-7.581,245.6,251.0,241.4,247.8,247.3,36,255.2,2,5,probe,5,0,75,norm,36,-5.005,down,norm,247.53537127,243.6,241.6,1.518,,2,253.8,246.0,243.4,10,6,8.109,4.433,1.255,-1.199,-4.909,-8.39,255.0,1,172.5,-7.847,-8.384,20,-7.768,-7.756,-4.657,-4.754,-4.421,-4.95,5.274,7.85,14,-1.725,1.361,4.305,7.806,-8.442,-8.133,-1.521,1.746,255.2,247.2,251.5,247.4,247.1,243.8,253.3,245.2,245.6,257.5,0,norm,1.715,1.407,-1.474,-1.365,-5.03,-4.582,-1.474,-1.612,-1.72,-1.686,1.411,-1.729,237.5,246.8,-4.39,-7.738,238.5,-1.781,7.68,5.242,-4.781,-7.713,11,4.417,4.32,4.863,4.474,1.32,1.558,1.186,1.656,11,4.39,4.454,20,150.789883328,norm,0,40,40,40,1194.842,1194.847,1194.84927147,1194.849,1194.852,1194.856,down,1,2.31360047666,7.68639952334,001,321,1600_900,Intel(R) Core(TM) i7-2670QM CPU @ 2.20GHz,orientation_search,GRVLAPTOP3,Intel(R) HD Graphics Family,2018_nov_08_1347,testMonitor,
-1.5,22.1,6.9,10.1,36,10,16.6,12.5,5.2,13.4,7.533,7.529,8.217,8.195,8.164,7.592,7.881,4.669,-4.473,-8.198,1.682,-1.478,7.544,5.253,-4.65,-8.117,-8.0,6.1,-8.33,0.7,4.9,-6.1,7.9,-11.7,36,1.8,0,5,prime,10,0,72,norm,36,-4.398,up,norm,5.59754544587,25.6,4.5,1.864,15.4,5,-8.8,11.2,8.8,10,5,8.039,5.072,1.152,-1.529,-4.843,-8.414,-14.4,5,77.6,-8.305,-8.497,10,-7.644,-7.635,-4.361,-4.66,-5.007,-4.731,5.139,7.719,5,-1.161,1.683,4.975,8.124,-7.905,-7.887,-1.432,1.565,20.4,10.8,5.3,11.8,3.4,-4.9,12.4,4.3,,9.3,0,norm,1.999,1.995,-1.391,-1.925,-4.739,-5.039,-1.588,-1.165,-1.311,-1.847,1.983,-1.352,10.5,-11.8,-4.532,-8.484,17.6,-1.519,7.826,4.783,-5.239,-8.189,12,4.937,5.051,4.903,4.467,1.916,1.352,1.384,1.645,12,5.032,5.077,40,150.789883328,norm,0,41,41,41,1197.177,1197.183,1197.18478342,1197.185,1197.188,1197.192,up,1,2.59585808929,7.40414191071,001,321,1600_900,Intel(R) Core(TM) i7-2670QM CPU @ 2.20GHz,orientation_search,GRVLAPTOP3,Intel(R) HD Graphics Family,2018_nov_08_1347,testMonitor,
1.8,6.1,4.6,-7.4,36,10,11.2,14.4,4.8,1.8,7.544,8.093,8.436,8.367,7.632,7.811,7.653,4.753,-5.299,-8.142,1.244,-1.181,7.641,4.785,-4.729,-8.248,25.6,7.2,-7.735,1.7,-9.6,,5.0,-3.0,36,-0.6,5,5,prime,10,0,66,norm,36,-4.576,up,norm,5.59754544587,7.9,8.8,1.188,6.6,3,17.2,2.3,-1.7,10,5,8.116,5.017,1.227,-1.601,-4.711,-8.095,16.2,5,71.6,-7.846,-8.276,10,-7.569,-8.439,-5.039,-4.657,-4.503,-4.764,4.752,8.35,33,-1.44,1.791,4.892,7.666,-8.198,-7.726,-1.678,1.529,-14.4,18.9,-4.6,7.2,7.5,12.1,7.5,10.8,-5.4,10.7,1,norm,1.216,2.023,-1.63,-1.368,-5.214,-4.474,-1.432,-2.064,-1.776,-1.605,1.639,-1.644,18.2,2.4,-4.401,-8.281,12.0,-2.054,7.821,4.777,-4.334,-7.988,12,5.073,5.142,4.636,5.184,1.968,1.355,1.9,1.108,12,4.665,4.633,40,150.789883328,norm,0,42,42,42,1199.796,1199.802,1199.80383008,1199.804,1199.807,1199.811,up,1,3.04853537495,6.95146462505,001,321,1600_900,Intel(R) Core(TM) i7-2670QM CPU @ 2.20GHz,orientation_search,GRVLAPTOP3,Intel(R) HD Graphics Family,2018_nov_08_1347,testMonitor,
25.6,8.6,3.3,20.2,36,10,11.9,9.1,7.6,,7.523,8.331,7.718,8.121,8.355,8.359,8.033,4.914,-5.026,-7.561,1.91,-1.65,7.875,4.764,-4.504,-7.56,-12.0,0.8,-8.387,11.6,9.7,-14.4,22.3,-11.9,36,2.8,4,5,prime,10,0,110,norm,36,-5.133,up,norm,5.59754544587,17.4,-10.4,1.975,-1.8,5,20.6,2.0,3.1,10,5,7.975,5.098,1.991,-1.187,-4.443,-7.769,5.9,5,115.6,-8.388,-8.297,10,-8.12,-7.525,-4.336,-5.21,-4.615,-4.553,4.63,7.633,29,-1.975,1.171,5.216,8.079,-7.787,-7.647,-1.232,2.054,5.7,11.9,23.1,2.9,3.6,10.1,2.1,5.9,5.8,12.3,2,norm,1.936,1.814,-1.625,-1.61,-5.294,-4.376,-1.82,-1.899,-1.733,-1.912,1.803,-1.129,-2.8,7.7,-4.868,-7.699,4.6,-1.181,8.398,4.59,-4.45,-8.443,12,4.762,4.446,4.378,4.803,1.203,2.097,1.23,1.715,12,5.115,4.312,40,150.789883328,norm,0,43,43,43,1202.867,1202.873,1202.87471726,1202.875,1202.878,1202.882,down,0,1.74881909177,-10,001,321,1600_900,Intel(R) Core(TM) i7-2670QM CPU @ 2.20GHz,orientation_search,GRVLAPTOP3,Intel(R) HD Graphics Family,2018_nov_08_1347,testMonitor,
14.0,2.1,1.3,4.4,36,10,12.9,10.8,13.1,8.0,7.904,7.752,8.059,8.015,8.164,7.693,7.924,4.512,-4.529,-7.932,1.217,-1.274,7.543,4.344,-4.998,-8.239,-3.3,16.9,-8.429,-5.9,2.6,-6.4,17.8,-14.4,36,4.2,2,5,prime,10,0,65,norm,36,-5.261,up,norm,5.59754544587,-1.1,13.3,1.368,7.7,3,25.6,7.3,18.7,10,5,7.545,4.58,1.355,-1.457,-4.925,-7.552,-7.1,5,70.6,-8.481,-8.122,10,-8.432,-8.199,-4.438,-4.65,-4.736,-4.656,5.042,8.187,15,-1.537,1.673,4.51,7.7,-8.042,-7.888,-1.104,1.841,18.4,14.6,6.5,-3.3,10.0,17.2,-0.2,18.7,-5.9,5.1,3,norm,1.912,1.497,-2.049,-1.955,-5.083,-4.381,-1.729,-1.398,-1.639,-1.574,1.862,-1.184,4.5,-5.0,-4.854,-7.923,,-1.92,8.357,4.724,-4.805,-7.51,12,5.102,4.603,4.82,4.651,1.888,1.476,2.042,1.452,12,4.805,4.989,40,150.789883328,norm,0,44,44,44,1205.652,1205.658,1205.65972239,1205.66,1205.663,1205.666,up,1,0.309870506338,9.69012949366,001,321,1600_900,Intel(R) Core(TM) i7-2670QM CPU @ 2.20GHz,orientation_search,GRVLAPTOP3,Intel(R) HD Graphics Family,2018_nov_08_1347,testMonitor,
16.5,-8.5,17.1,-6.9,36,10,-7.9,2.8,20.4,5.0,8.267,8.266,8.113,8.052,8.068,8.242,8.341,5.226,-4.378,-8.422,1.323,-1.498,8.343,4.858,-4.538,-8.21,2.8,-1.4,-7.896,,3.2,8.4,24.3,10.9,36,-7.2,5,5,prime,10,0,109,norm,36,-5.275,down,norm,5.59754544587,-5.7,4.3,1.256,25.6,1,12.9,-3.1,7.9,10,5,7.887,4.558,1.468,-1.666,-5.159,-8.232,15.2,5,114.6,-8.151,-7.71,10,-8.41,-8.483,-4.766,-4.894,-5.147,-4.558,4.734,7.881,31,-1.284,1.691,5.198,7.892,-8.129,-8.358,-1.982,1.433,19.7,-1.7,15.4,25.2,17.9,13.9,19.2,-14.4,5.5,16.1,4,norm,1.481,1.716,-1.403,-1.4,-5.106,-4.525,-2.017,-2.08,-1.45,-1.934,1.958,-1.715,8.9,19.1,-4.72,-8.095,0.5,-2.015,8.268,4.905,-5.28,-7.647,12,5.091,5.265,5.031,5.213,1.505,1.512,1.279,1.98,12,5.101,4.939,40,150.789883328,norm,0,45,45,45,1205.984,1205.989,1205.99160056,1205.992,1205.995,1205.998,down,1,5.57408529809,4.42591470191,001,321,1600_900,Intel(R) Core(TM) i7-2670QM CPU @ 2.20GHz,orientation_search,GRVLAPTOP3,Intel(R) HD Graphics Family,2018_nov_08_1347,testMonitor,
80.7,79.6,77.5,79.4,36,30,88.9,69.7,80.1,73.8,7.943,7.502,7.689,7.901,7.596,7.976,7.853,5.285,-5.228,-8.132,1.158,-1.355,7.583,4.352,-4.434,-7.891,76.1,73.3,-7.679,77.5,74.6,81.6,83.0,79.7,36,81.5,0,5,probe,5,0,64,norm,36,-5.016,up,norm,78.9077881044,80.7,79.4,1.585,74.7,5,72.9,74.9,84.4,10,5,8.311,4.8,1.556,-1.801,-4.887,-7.836,76.1,2,14.9,-7.818,-8.206,10,-8.39,-8.357,-5.108,-4.962,-4.89,-5.042,5.068,7.96,5,-1.841,1.359,4.769,7.844,-7.97,-7.816,-1.787,1.814,80.1,74.8,81.9,73.1,81.3,79.3,71.8,80.7,,68.9,0,norm,1.592,1.211,-1.92,-1.266,-4.555,-4.587,-1.445,-2.089,-1.344,-1.303,1.578,-2.064,77.3,69.0,-4.357,-8.132,85.0,-1.378,8.44,5.141,-4.943,-8.424,13,4.356,4.771,4.676,4.584,1.477,1.204,1.338,1.472,13,5.146,5.21,10,5.59754544587,norm,0,46,46,46,1211.581,1211.586,1211.58853216,1211.589,1211.592,1211.595,down,0,3.8701421199,-10,001,321,1600_900,Intel(R) Core(TM) i7-2670QM CPU @ 2.20GHz,orientation_search,GRVLAPTOP3,Intel(R) HD Graphics Family,2018_nov_08_1347,testMonitor,
99.1,90.8,98.3,93.9,36,30,94.6,97.1,88.2,102.2,8.146,8.342,7.632,8.495,8.152,8.202,7.841,4.395,-4.427,-8.287,1.581,-1.777,7.774,4.794,-4.771,-7.817,88.2,89.9,-7.643,101.6,91.6,92.1,93.9,93.9,36,89.6,2,5,probe,5,0,80,norm,36,-4.546,down,norm,94.9077881044,87.7,87.9,1.701,90.8,0,94.9,97.5,,10,5,7.663,5.085,2.051,-1.233,-5.099,-7.697,92.3,2,14.9,-8.212,-7.902,10,-7.797,-8.269,-4.405,-4.733,-4.374,-4.507,4.391,8.24,12,-1.187,1.272,4.469,7.699,-8.124,-7.624,-1.6,1.311,104.9,93.1,91.5,94.2,95.0,95.5,102.9,100.7,96.9,94.5,1,norm,1.431,1.854,-1.637,-1.713,-5.278,-4.331,-1.26,-1.151,-1.528,-1.179,1.503,-1.299,99.6,89.7,-4.915,-8.22,95.5,-1.463,7.897,4.475,-5.161,-7.989,13,5.083,4.644,4.346,4.571,2.022,1.79,1.523,1.701,13,4.361,4.531,10,5.59754544587,norm,0,47,47,47,1216.479,1216.485,1216.48699367,1216.487,1216.49,1216.493,up,0,0.488368824397,-10,001,321,1600_900,Intel(R) Core(TM) i7-2670QM CPU @ 2.20GHz,orientation_search,GRVLAPTOP3,Intel(R) HD Graphics Family,2018_nov_08_1347,testMonitor,
49.0,41.2,55.9,35.4,36,-80,62.4,42.1,48.0,53.0,7.703,8.348,8.184,8.17,8.031,7.657,7.78,5.132,-4.882,-8.178,1.138,-2.08,7.875,5.259,-4.522,-8.095,48.9,67.8,-7.885,,48.8,47.5,48.4,53.6,36,38.4,5,5,prime,10,0,66,norm,36,-4.61,down,norm,49.1645404259,40.2,55.7,1.979,41.7,1,32.2,69.2,50.0,10,6,7.875,4.699,1.19,-1.363,-4.323,-8.188,50.4,6,115.2,-8.161,-8.424,-80,-8.352,-8.27,-5.072,-5.256,-4.477,-5.089,4.848,7.981,31,-1.459,1.867,4.778,7.919,-7.75,-8.187,-1.96,1.401,61.5,39.9,57.4,45.0,61.0,42.9,46.9,44.2,60.6,47.1,0,norm,1.117,1.56,-1.982,-1.384,-4.461,-5.291,-1.269,-1.321,-1.928,-1.807,1.437,-1.675,51.4,51.2,-5.191,-7.832,49.8,-1.891,8.421,5.117,-4.625,-7.778,14,4.916,5.173,4.858,5.017,1.783,1.587,1.666,1.721,14,4.992,5.077,30,5.59754544587,norm,0,48,48,48,1217.992,1217.998,1217.99968528,1218.0,1218.003,1218.006,down,1,1.31386243376,8.68613756624,001,321,1600_900,Intel(R) Core(TM) i7-2670QM CPU @ 2.20GHz,orientation_search,GRVLAPTOP3,Intel(R) HD Graphics Family,2018_nov_08_1347,testMonitor,
57.9,52.8,60.3,37.4,36,-80,29.6,52.4,54.1,34.1,8.289,7.567,7.904,7.974,8.174,8.457,8.421,4.562,-4.991,-8.023,1.262,-1.956,8.325,4.639,-4.793,-7.652,37.1,47.4,-8.376,,30.5,47.3,53.9,51.8,36,44.4,5,5,prime,10,0,69,norm,36,-4.52,down,norm,49.1645404259,69.2,35.7,1.907,42.1,1,49.0,36.9,49.2,10,6,8.381,5.128,1.242,-2.027,-4.591,-8.358,41.8,6,118.2,-8.067,-8.183,-80,-8.2,-8.206,-4.542,-4.649,-4.463,-5.155,5.173,7.83,31,-1.501,1.481,5.274,7.817,-8.394,-7.692,-1.63,1.28,37.0,50.5,37.8,41.9,54.9,51.4,52.7,58.0,44.8,56.5,1,norm,1.305,1.396,-1.435,-1.645,-4.564,-4.345,-1.125,-1.807,-1.313,-1.735,2.034,-2.0,51.2,48.8,-4.688,-8.444,29.2,-1.205,8.211,5.205,-4.883,-8.411,14,5.253,4.937,4.825,4.508,1.402,1.824,1.24,1.932,14,5.186,5.247,30,5.59754544587,norm,0,49,49,49,1219.328,1219.334,1219.3356553,1219.336,1219.339,1219.343,down,1,0.587435304533,9.41256469547,001,321,1600_900,Intel(R) Core(TM) i7-2670QM CPU @ 2.20GHz,orientation_search,GRVLAPTOP3,Intel(R) HD Graphics Family,2018_nov_08_1347,testMonitor,
42.0,36.9,,48.0,36,-80,46.2,29.2,60.8,51.9,7.704,7.593,8.469,8.474,8.022,8.249,8.242,4.83,-5.077,-7.966,1.349,-1.453,8.198,4.989,-4.905,-7.74,43.7,58.5,-8.091,43.5,29.2,45.2,50.7,45.5,36,48.7,3,5,prime,10,0,108,norm,36,-4.403,down,norm,49.1645404259,35.7,66.8,1.809,34.5,2,53.4,45.9,41.8,10,6,8.3,5.169,1.223,-1.397,-5.255,-8.374,61.9,6,157.2,-8.31,-8.007,-80,-7.572,-7.522,-4.509,-5.21,-4.46,-4.981,4.427,7.916,20,-1.374,2.045,4.654,8.171,-7.96,-8.078,-1.67,1.498,56.1,69.2,41.2,38.9,67.6,53.7,49.2,44.2,37.0,56.7,2,norm,1.495,1.278,-1.471,-1.652,-4.858,-4.59,-2.008,-1.472,-1.412,-1.98,1.475,-1.839,35.7,62.6,-5.047,-8.295,62.6,-1.577,8.286,4.971,-4.557,-7.991,14,4.761,4.344,5.215,5.183,1.132,1.979,1.969,1.845,14,5.17,4.875,30,5.59754544587,norm,0,50,50,50,1219.938,1219.944,1219.945759,1219.946,1219.949,1219.953,down,1,1.9638270392,8.0361729608,001,321,1600_900,Intel(R) Core(TM) i7-2670QM CPU @ 2.20GHz,orientation_search,GRVLAPTOP3,Intel(R) HD Graphics Family,2018_nov_08_1347,testMonitor,
51.6,43.0,51.7,39.5,36,-80,47.7,53.0,50.1,38.5,7.897,8.135,8.041,8.428,7.792,8.082,8.363,4.678,-4.53,-7.896,1.578,-1.819,8.23,5.242,-4.939,-8.315,45.7,35.8,-7.933,33.5,34.2,48.3,57.1,69.2,36,55.3,0,5,prime,10,0,113,norm,36,-4.857,up,norm,49.1645404259,66.1,63.0,1.373,55.2,4,40.2,58.5,54.5,10,6,8.228,5.13,1.767,-1.637,-4.493,-8.383,53.1,6,162.2,-8.461,-7.989,-80,-7.913,-7.595,-4.652,-4.318,-4.748,-4.627,5.233,7.891,4,-1.681,1.804,5.004,7.727,-7.638,-8.042,-1.846,1.988,48.4,50.5,41.5,56.9,47.0,45.3,47.5,29.2,40.2,,3,norm,1.5,1.362,-1.842,-1.172,-4.724,-4.521,-1.593,-1.988,-2.097,-1.448,1.818,-1.235,38.5,38.3,-5.15,-7.84,60.7,-1.423,8.416,4.346,-4.508,-7.817,14,4.648,4.936,4.672,5.154,1.405,1.372,1.909,1.602,14,4.898,4.785,30,5.59754544587,norm,0,51,51,51,1221.925,1221.93,1221.93229506,1221.933,1221.936,1221.939,down,0,1.06501392435,-10,001,321,1600_900,Intel(R) Core(TM) i7-2670QM CPU @ 2.20GHz,orientation_search,GRVLAPTOP3,Intel(R) HD Graphics Family,2018_nov_08_1347,testMonitor,
39.5,48.6,29.2,40.0,36,-80,44.9,64.4,48.5,54.9,7.506,7.789,7.713,7.585,8.388,7.608,8.32,4.327,-5.034,-8.156,1.988,-1.116,7.744,4.676,-5.022,-8.292,35.8,46.1,-7.562,40.4,57.1,60.9,45.5,36.5,36,65.8,0,5,prime,10,0,116,norm,36,-5.212,down,norm,49.1645404259,33.4,55.9,1.382,31.7,0,43.4,55.2,48.1,10,6,7.719,5.242,1.292,-1.491,-4.748,-7.924,58.2,6,165.2,-7.766,-8.347,-80,-7.748,-8.182,-4.456,-4.813,-5.162,-5.149,4.642,7.789,0,-2.092,2.039,4.346,8.186,-7.675,-8.303,-1.355,1.759,52.4,42.6,51.2,69.2,56.2,,45.4,45.8,41.6,57.2,4,norm,1.647,1.723,-1.119,-1.499,-5.174,-5.192,-1.529,-1.783,-1.857,-1.378,1.343,-1.102,43.5,56.8,-4.599,-8.204,49.6,-1.235,8.437,5.253,-4.736,-8.365,14,4.827,4.767,4.324,4.841,2.057,1.541,1.29,1.137,14,4.378,5.285,30,5.59754544587,norm,0,52,52,52,1224.013,1224.019,1224.02088232,1224.021,1224.024,1224.028,down,1,0.982947573091,9.01705242691,001,321,1600_900,Intel(R) Core(TM) i7-2670QM CPU @ 2.20GHz,orientation_search,GRVLAPTOP3,Intel(R) HD Graphics Family,2018_nov_08_1347,testMonitor,
44.6,47.3,46.7,59.6,36,-80,53.1,48.2,52.2,50.9,7.709,8.15,8.316,7.854,8.043,8.352,8.403,4.627,-5.285,-7.65,1.213,-1.676,8.145,4.488,-5.243,-7.78,48.0,52.8,-8.256,60.9,61.5,50.7,43.7,36.4,36,69.2,2,5,prime,10,0,73,norm,36,-4.706,down,norm,49.1645404259,38.8,29.2,1.725,49.6,0,56.9,39.6,,10,6,7.885,4.823,1.865,-1.773,-4.761,-7.57,47.9,6,122.2,-7.882,-8.018,-80,-7.531,-8.39,-4.865,-5.258,-4.4,-4.924,5.236,7.83,12,-1.663,1.274,4.767,7.78,-8.072,-8.288,-1.728,1.752,45.1,34.4,52.9,40.1,41.9,68.7,49.0,44.1,46.4,53.5,5,norm,1.919,1.333,-1.174,-1.866,-4.435,-4.865,-1.129,-1.488,-1.175,-1.895,1.134,-1.587,30.1,48.4,-4.433,-8.037,38.1,-1.491,8.292,4.837,-4.533,-7.924,14,4.874,5.196,4.686,5.037,1.25,1.274,1.719,1.915,14,5.16,4.42,30,5.59754544587,norm,0,53,53,53,1225.019,1225.025,1225.02734066,1225.028,1225.031,1225.034,down,1,0.821970963385,9.17802903662,001,321,1600_900,Intel(R) Core(TM) i7-2670QM CPU @ 2.20GHz,orientation_search,GRVLAPTOP3,Intel(R) HD Graphics Family,2018_nov_08_1347,testMonitor,
56.0,62.1,59.8,55.0,36,30,58.4,49.4,50.5,45.7,8.223,7.935,7.746,8.209,8.326,8.493,8.498,4.35,-5.283,-8.015,1.28,-1.136,8.255,5.197,-5.049,-7.611,48.2,58.9,-7.993,51.8,65.7,61.9,54.8,50.8,36,46.1,0,5,probe,5,0,83,norm,36,-4.941,down,norm,55.6866893542,54.5,53.1,1.676,59.9,1,52.4,54.9,55.4,10,6,7.819,5.246,1.847,-1.444,-4.763,-8.47,45.7,1,-27.3,-7.65,-8.477,-80,-8.252,-8.126,-4.997,-5.072,-4.786,-4.802,4.334,7.553,1,-1.23,1.173,4.817,8.353,-7.503,-7.71,-1.208,1.542,61.0,54.8,56.8,51.0,,58.3,49.7,55.5,51.5,49.7,0,norm,1.576,1.568,-1.474,-1.194,-4.479,-4.813,-1.418,-1.422,-1.957,-1.803,1.27,-1.243,56.1,54.6,-4.738,-8.332,61.3,-1.654,8.403,5.185,-4.631,-8.452,15,4.467,4.411,4.692,4.379,1.68,1.708,1.115,1.911,15,4.559,5.035,-80,49.1645404259,norm,0,54,54,54,1225.865,1225.87,1225.87215653,1225.872,1225.875,1225.879,down,1,0.947487172976,9.05251282702,001,321,1600_900,Intel(R) Core(TM) i7-2670QM CPU @ 2.20GHz,orientation_search,GRVLAPTOP3,Intel(R) HD Graphics Family,2018_nov_08_1347,testMonitor,
346.9,352.6,342.8,357.9,36,60,352.3,342.4,333.6,355.1,7.731,8.464,7.744,7.926,7.723,8.083,7.849,5.043,-4.936,-8.345,1.755,-1.741,7.624,5.0,-4.855,-8.303,336.8,364.7,-7.625,339.6,357.8,372.7,370.3,338.1,36,361.6,2,5,prime,10,0,85,norm,36,-5.055,down,norm,353.649957079,339.2,351.2,1.601,357.5,0,370.5,373.6,,10,6,7.672,4.316,1.748,-2.05,-5.254,-8.403,361.1,6,438.6,-8.434,-7.831,60,-8.13,-7.618,-4.742,-5.232,-5.094,-4.355,5.234,8.289,12,-1.604,1.512,4.95,7.655,-7.996,-7.681,-1.994,1.575,350.1,358.4,367.1,351.7,349.7,350.4,353.6,359.0,343.5,356.4,0,norm,1.824,1.954,-1.989,-1.644,-4.588,-4.916,-1.267,-1.982,-1.198,-1.253,1.458,-1.553,340.5,354.1,-4.307,-8.332,358.2,-1.954,7.601,5.292,-4.453,-8.364,16,5.137,4.919,5.263,5.266,1.656,2.026,1.656,1.749,16,4.4,4.996,30,49.1645404259,norm,0,55,55,55,1226.835,1226.84,1226.84202773,1226.842,1226.845,1226.849,up,0,1.61317480804,-10,001,321,1600_900,Intel(R) Core(TM) i7-2670QM CPU @ 2.20GHz,orientation_search,GRVLAPTOP3,Intel(R) HD Graphics Family,2018_nov_08_1347,testMonitor,
363.7,354.6,361.0,344.4,36,60,350.3,342.3,342.3,350.5,7.786,8.404,7.746,7.891,7.521,8.118,8.012,4.398,-4.969,-7.595,1.547,-1.775,7.834,4.669,-5.252,-7.994,342.7,348.1,-7.554,369.3,348.1,353.7,349.1,371.7,36,347.0,0,5,prime,10,0,86,norm,36,-4.527,down,norm,353.649957079,368.9,357.8,1.5,333.6,0,361.4,346.7,345.4,10,6,7.728,5.113,1.988,-1.705,-4.614,-8.108,364.2,6,439.6,-7.675,-8.398,60,-8.152,-7.736,-4.96,-4.56,-4.603,-4.599,5.295,8.118,0,-1.476,1.277,5.182,7.907,-7.958,-7.556,-2.018,1.9,359.4,352.6,351.0,339.0,359.6,,339.4,359.2,359.7,357.4,1,norm,1.558,2.027,-1.829,-1.545,-4.425,-4.62,-1.577,-1.781,-1.51,-1.134,1.437,-1.249,354.9,373.6,-5.236,-7.691,358.3,-1.731,8.333,4.448,-4.626,-8.19,16,4.934,4.966,4.736,4.424,1.716,1.181,1.389,1.263,16,4.602,5.156,30,49.1645404259,norm,0,56,56,56,1229.473,1229.479,1229.48113442,1229.481,1229.484,1229.488,up,0,2.98595984632,-10,001,321,1600_900,Intel(R) Core(TM) i7-2670QM CPU @ 2.20GHz,orientation_search,GRVLAPTOP3,Intel(R) HD Graphics Family,2018_nov_08_1347,testMonitor,
340.0,355.0,361.1,348.7,36,60,336.9,350.7,352.9,351.8,8.021,8.059,7.704,7.666,7.953,8.433,8.47,4.814,-5.095,-7.636,1.146,-1.562,8.032,4.523,-4.45,-7.818,365.4,347.1,-8.248,373.6,359.4,345.9,,366.7,36,364.3,5,5,prime,10,0,119,norm,36,-4.695,down,norm,353.649957079,334.7,338.9,1.541,349.5,2,368.2,355.3,356.5,10,6,8.261,4.812,1.701,-1.879,-4.475,-7.862,351.6,6,472.6,-7.879,-8.317,60,-7.731,-7.848,-4.782,-4.69,-4.312,-4.572,4.577,8.106,32,-1.638,1.793,4.58,7.643,-7.878,-7.519,-1.152,1.642,352.8,347.8,359.9,356.8,348.7,365.4,341.6,365.4,340.5,363.8,2,norm,1.97,2.097,-1.688,-1.589,-5.089,-5.004,-1.433,-1.417,-1.704,-1.516,1.589,-1.708,349.6,333.6,-4.343,-7.506,362.8,-1.491,7.716,4.407,-4.689,-7.654,16,5.15,4.88,5.025,5.177,1.89,1.846,1.41,1.583,16,5.255,5.163,30,49.1645404259,norm,0,57,57,57,1233.482,1233.488,1233.48968421,1233.49,1233.493,1233.496,down,1,0.723708565485,9.27629143451,001,321,1600_900,Intel(R) Core(TM) i7-2670QM CPU @ 2.20GHz,orientation_search,GRVLAPTOP3,Intel(R) HD Graphics Family,2018_nov_08_1347,testMonitor,
345.1,352.4,350.2,373.6,36,60,352.8,346.7,366.6,333.6,7.69,7.982,7.988,8.429,8.215,7.928,8.269,5.18,-4.776,-7.768,1.101,-1.934,8.345,5.159,-5.248,-7.76,345.9,359.9,-7.777,359.7,365.2,342.3,367.3,338.2,36,364.4,1,5,prime,10,0,111,norm,36,-4.831,down,norm,353.649957079,361.0,360.7,1.177,361.0,0,359.4,361.3,353.5,10,6,7.796,5.249,1.844,-1.753,-5.262,-7.872,343.1,6,464.6,-7.602,-8.415,60,-8.218,-7.528,-4.495,-5.088,-4.958,-4.806,5.276,8.096,6,-1.867,1.143,5.239,8.388,-7.611,-8.214,-1.792,1.33,347.4,361.4,338.6,361.0,352.8,356.6,362.4,,354.6,364.5,3,norm,1.191,1.198,-1.239,-2.046,-5.19,-5.185,-1.681,-2.02,-1.55,-1.878,1.581,-1.374,336.3,358.1,-4.425,-8.069,346.2,-1.537,8.109,5.11,-4.945,-7.603,16,5.156,4.671,5.101,4.465,1.39,1.446,1.665,1.76,16,4.772,4.386,30,49.1645404259,norm,0,58,58,58,1234.228,1234.234,1234.23619098,1234.237,1234.24,1234.243,up,0,2.23593089562,-10,001,321,1600_900,Intel(R) Core(TM) i7-2670QM CPU @ 2.20GHz,orientation_search,GRVLAPTOP3,Intel(R) HD Graphics Family,2018_nov_08_1347,testMonitor,
362.7,371.8,358.6,356.7,36,60,355.5,360.7,344.7,363.4,7.741,8.485,8.136,7.606,7.507,8.031,7.929,4.451,-5.075,-8.486,1.193,-1.621,8.493,5.094,-4.517,-8.322,347.9,346.0,-8.02,347.7,350.6,363.7,354.5,351.1,36,347.9,0,5,prime,10,0,81,norm,36,-4.839,down,norm,353.649957079,348.6,359.0,1.795,369.4,0,352.9,349.1,333.6,10,6,7.728,5.293,1.705,-1.597,-5.192,-7.901,350.6,6,434.6,-7.681,-7.842,60,-8.32,-7.957,-4.923,-4.648,-4.403,-5.192,5.115,8.006,0,-1.168,1.921,4.802,8.16,-8.312,-7.86,-1.123,1.276,337.5,348.2,373.6,352.0,352.8,,357.5,355.0,342.7,355.0,4,norm,1.499,1.517,-1.682,-2.063,-5.238,-4.662,-1.602,-1.317,-1.925,-1.828,1.916,-1.971,358.0,368.7,-5.252,-8.156,355.2,-1.252,8.467,4.465,-4.868,-8.054,16,4.61,4.447,4.718,5.051,1.653,1.937,1.934,1.41,16,5.206,4.89,30,49.1645404259,norm,0,59,59,59,1237.491,1237.496,1237.49848803,1237.499,1237.501,1237.505,down,1,0.649316950352,9.35068304965,001,321,1600_900,Intel(R) Core(TM) i7-2670QM CPU @ 2.20GHz,orientation_search,GRVLAPTOP3,Intel(R) HD Graphics Family,2018_nov_08_1347,testMonitor,
361.0,333.6,369.5,342.8,36,60,348.1,347.3,352.0,356.0,7.876,8.144,8.107,8.4,7.976,7.614,8.43,4.311,-5.032,-8.151,1.392,-1.896,8.281,4.756,-4.966,-8.427,360.9,352.9,-8.344,,346.2,360.1,351.4,372.8,36,361.5,5,5,prime,10,0,98,norm,36,-4.712,down,norm,353.649957079,358.0,359.3,1.943,364.2,1,346.1,346.5,346.5,10,6,7.775,5.251,2.023,-1.221,-5.077,-8.5,353.5,6,451.6,-8.494,-8.364,60,-7.546,-8.218,-4.48,-5.052,-4.403,-4.929,4.531,8.426,31,-1.685,1.779,5.172,8.022,-7.604,-7.6,-1.232,1.45,363.0,335.9,365.6,353.8,351.6,372.7,337.6,349.4,347.1,358.8,5,norm,1.977,2.06,-1.103,-1.434,-4.41,-4.332,-1.741,-1.214,-1.118,-2.077,1.734,-1.511,349.3,373.6,-4.51,-7.888,345.5,-1.695,7.918,4.924,-4.593,-7.829,16,4.715,4.449,5.255,4.603,1.741,1.356,1.661,1.198,16,4.917,4.311,30,49.1645404259,norm,0,60,60,60,1238.163,1238.169,1238.17065968,1238.171,1238.174,1238.178,down,1,3.5749141285,6.4250858715,001,321,1600_900,Intel(R) Core(TM) i7-2670QM CPU @ 2.20GHz,orientation_search,GRVLAPTOP3,Intel(R) HD Graphics Family,2018_nov_08_1347,testMonitor,
493.2,489.1,,497.9,36,0,488.1,493.7,499.0,487.9,8.141,7.889,8.331,7.745,8.163,8.156,7.574,4.666,-4.537,-7.981,1.185,-1.109,8.079,4.728,-4.651,-8.261,485.2,481.3,-8.182,482.5,497.5,491.0,487.1,493.6,36,491.8,3,5,probe,5,0,84,norm,36,-5.057,down,norm,491.274608879,491.2,487.4,1.426,501.3,2,499.3,492.1,495.9,10,6,7.94,4.849,2.024,-1.724,-5.111,-8.394,489.6,2,407.3,-8.4,-8.324,60,-8.238,-8.291,-4.331,-4.35,-4.384,-5.096,4.819,8.004,20,-1.841,1.424,4.907,7.591,-8.5,-7.755,-1.136,1.679,488.3,483.6,485.4,490.6,496.7,493.7,495.9,491.5,482.4,491.8,0,norm,1.135,1.859,-1.911,-2.061,-4.634,-4.322,-1.638,-2.041,-1.99,-1.947,1.839,-1.564,481.6,494.3,-4.866,-7.924,492.8,-1.617,7.637,4.558,-4.49,-7.829,17,4.893,4.995,4.692,5.166,1.391,1.327,1.668,1.717,17,4.829,5.019,60,353.649957079,norm,0,61,61,61,1241.76,1241.766,1241.76828797,1241.769,1241.772,1241.775,down,1,2.79911392192,7.20088607808,001,321,1600_900,Intel(R) Core(TM) i7-2670QM CPU @ 2.20GHz,orientation_search,GRVLAPTOP3,Intel(R) HD Graphics Family,2018_nov_08_1347,testMonitor,
495.7,507.5,497.9,510.2,36,0,505.5,515.3,512.8,,7.599,8.297,8.158,8.029,7.813,8.483,8.196,4.975,-4.969,-8.025,1.858,-1.324,7.922,4.874,-4.878,-8.227,505.9,502.3,-8.167,499.2,504.7,500.2,499.7,508.5,36,507.1,4,5,probe,5,0,98,norm,36,-4.773,up,norm,505.274608879,504.1,502.4,1.722,498.1,5,505.5,509.4,510.2,10,6,7.526,4.918,1.825,-1.944,-4.714,-7.511,503.1,2,407.3,-7.833,-8.055,60,-7.574,-7.638,-4.625,-4.891,-4.465,-5.095,5.124,7.987,29,-1.123,1.614,5.086,8.365,-7.87,-7.856,-1.164,2.003,499.4,504.9,498.2,505.8,509.0,495.3,504.8,509.8,497.9,511.9,1,norm,1.958,1.363,-1.919,-1.313,-5.124,-4.501,-1.781,-1.207,-1.387,-1.229,1.879,-1.765,503.6,505.1,-4.821,-7.6,510.9,-1.728,7.969,4.464,-5.029,-8.275,17,4.328,5.144,4.691,4.801,1.11,1.392,1.475,1.637,17,4.48,4.971,60,353.649957079,norm,0,62,62,62,1244.583,1244.589,1244.59075576,1244.591,1244.594,1244.598,up,1,1.67461192059,8.32538807941,001,321,1600_900,Intel(R) Core(TM) i7-2670QM CPU @ 2.20GHz,orientation_search,GRVLAPTOP3,Intel(R) HD Graphics Family,2018_nov_08_1347,testMonitor,
259.6,263.4,234.0,259.1,36,10,243.7,233.4,254.8,260.8,8.5,7.677,8.379,7.911,7.658,7.612,7.535,4.609,-4.826,-8.284,1.745,-1.205,7.611,4.744,-5.066,-7.539,257.1,258.3,-7.926,255.1,,251.8,262.2,266.4,36,251.4,5,5,prime,10,0,74,norm,36,-5.18,down,norm,253.353653043,272.4,258.7,1.998,245.2,0,247.1,239.0,243.0,10,6,8.22,5.206,1.657,-1.114,-4.593,-8.102,266.8,6,327.4,-8.332,-7.934,10,-7.695,-8.098,-5.255,-4.982,-4.341,-4.701,5.113,8.197,30,-1.562,1.248,4.384,8.365,-7.677,-8.427,-1.602,1.44,273.4,235.7,263.4,247.6,256.8,254.8,259.1,263.8,261.2,253.4,0,norm,1.264,1.298,-2.076,-1.189,-4.348,-5.126,-1.691,-1.432,-1.247,-1.6,1.298,-1.634,255.7,256.9,-4.594,-8.172,261.8,-2.062,7.988,4.646,-4.721,-7.853,18,4.846,5.066,4.625,4.696,1.986,1.102,1.365,1.228,18,4.704,4.563,0,353.649957079,norm,0,63,63,63,1246.28,1251.531,1251.53313127,1251.534,1251.537,1251.542,down,1,4.27529076772,5.72470923228,001,321,1600_900,Intel(R) Core(TM) i7-2670QM CPU @ 2.20GHz,orientation_search,GRVLAPTOP3,Intel(R) HD Graphics Family,2018_nov_08_1347,testMonitor,
268.3,255.6,265.1,253.2,36,10,259.1,,268.7,268.2,8.035,8.359,8.49,7.698,8.349,8.197,7.718,4.581,-4.688,-8.212,1.312,-1.451,7.939,5.064,-5.102,-7.9,238.8,263.9,-8.084,263.0,265.5,258.2,244.8,246.5,36,262.3,4,5,prime,10,0,92,norm,36,-5.232,down,norm,253.353653043,252.7,273.4,1.775,243.2,1,255.6,250.0,238.7,10,6,8.44,5.063,1.916,-2.012,-4.63,-8.04,263.0,6,345.4,-8.302,-7.993,10,-8.34,-7.976,-5.205,-4.76,-5.076,-4.391,4.622,8.453,25,-1.176,1.782,4.354,7.689,-7.793,-8.066,-1.743,2.03,265.4,258.2,266.3,247.0,254.8,240.6,247.8,258.7,233.4,235.1,1,norm,1.821,1.758,-2.066,-1.808,-5.13,-4.915,-1.769,-1.339,-1.82,-1.795,2.072,-1.219,256.2,244.7,-4.703,-7.684,258.5,-1.436,7.75,4.558,-4.642,-7.672,18,4.706,4.353,5.094,4.96,1.189,2.041,1.953,1.397,18,4.867,4.344,0,353.649957079,norm,0,64,64,64,1255.827,1255.834,1255.83692026,1255.837,1255.841,1255.845,down,1,1.74846467921,8.25153532079,001,321,1600_900,Intel(R) Core(TM) i7-2670QM CPU @ 2.20GHz,orientation_search,GRVLAPTOP3,Intel(R) HD Graphics Family,2018_nov_08_1347,testMonitor,
,239.9,260.2,257.6,36,10,241.9,249.9,233.4,273.4,7.696,7.878,8.306,8.181,8.337,8.085,7.507,4.628,-4.772,-8.193,1.454,-1.111,8.357,4.954,-4.669,-7.743,243.3,245.7,-7.807,255.2,247.9,249.5,260.2,244.1,36,256.9,3,5,prime,10,0,85,norm,36,-5.159,up,norm,253.353653043,239.2,255.2,1.101,239.7,4,235.2,258.5,264.3,10,6,8.043,4.952,1.984,-1.364,-4.66,-8.418,247.5,6,338.4,-8.363,-8.358,10,-7.582,-8.061,-5.262,-4.667,-4.584,-4.486,4.428,8.005,22,-1.462,1.633,5.078,8.41,-7.545,-8.046,-1.519,1.406,251.7,265.4,247.8,255.7,255.5,258.4,262.0,260.4,246.5,258.2,2,norm,1.158,1.632,-1.271,-1.555,-4.347,-4.735,-1.603,-1.652,-1.41,-1.604,2.078,-1.144,239.9,251.8,-4.369,-8.493,269.0,-1.286,7.878,4.484,-4.595,-8.362,18,4.37,5.032,4.465,4.668,1.121,1.38,2.087,1.117,18,4.518,5.152,0,353.649957079,norm,0,65,65,65,1257.604,1257.611,1257.61341202,1257.614,1257.618,1257.622,up,1,2.06026320852,7.93973679148,001,321,1600_900,Intel(R) Core(TM) i7-2670QM CPU @ 2.20GHz,orientation_search,GRVLAPTOP3,Intel(R) HD Graphics Family,2018_nov_08_1347,testMonitor,
247.5,248.2,268.6,271.6,36,10,251.7,261.6,248.1,,8.369,7.754,8.367,8.314,7.522,7.843,7.746,4.724,-4.709,-8.194,1.515,-1.625,8.029,4.51,-4.622,-8.013,254.0,248.3,-7.529,250.9,241.0,244.8,259.5,263.7,36,241.9,4,5,prime,10,0,115,norm,36,-4.536,up,norm,253.353653043,241.2,238.8,1.712,260.0,5,258.9,233.8,273.4,10,6,8.035,5.092,1.285,-1.807,-5.079,-7.633,257.8,6,368.4,-8.496,-8.356,10,-8.337,-7.841,-4.969,-4.524,-4.826,-4.752,5.074,7.585,29,-1.643,1.208,4.663,7.644,-8.492,-7.73,-1.414,1.858,253.7,233.4,236.5,256.7,257.5,255.9,250.5,243.0,266.2,255.3,3,norm,1.25,1.545,-1.629,-1.453,-4.604,-4.751,-1.557,-1.787,-1.242,-1.467,2.037,-1.942,258.6,242.5,-4.789,-8.306,244.7,-1.431,8.48,4.854,-4.642,-8.11,18,5.192,5.278,4.988,5.261,1.894,1.462,1.966,1.605,18,4.73,4.853,0,353.649957079,norm,0,66,66,66,1259.692,1259.699,1259.70127551,1259.702,1259.705,1259.71,up,1,2.21200174451,7.78799825549,001,321,1600_900,Intel(R) Core(TM) i7-2670QM CPU @ 2.20GHz,orientation_search,GRVLAPTOP3,Intel(R) HD Graphics Family,2018_nov_08_1347,testMonitor,
256.6,258.3,247.3,256.5,36,10,253.3,254.0,264.9,238.1,8.344,8.164,7.884,7.696,8.025,7.617,7.766,4.753,-4.965,-7.642,1.141,-1.681,7.71,4.617,-4.911,-8.16,257.4,242.1,-7.711,259.0,248.3,271.2,241.8,,36,254.2,4,5,prime,10,0,94,norm,36,-5.132,down,norm,253.353653043,271.5,254.9,1.758,273.4,2,257.0,254.8,247.1,10,6,7.923,5.066,1.559,-1.244,-5.149,-7.982,250.6,6,347.4,-7.979,-7.897,10,-8.292,-8.007,-4.806,-5.069,-4.354,-4.69,5.049,7.896,26,-1.16,1.639,4.892,7.814,-7.582,-8.361,-2.04,1.911,254.0,250.8,255.0,261.0,237.9,237.6,252.6,242.9,259.0,252.0,4,norm,2.052,1.203,-1.447,-1.732,-4.779,-4.727,-1.357,-2.003,-1.888,-1.289,1.234,-1.433,238.2,265.6,-5.232,-7.839,233.4,-1.1,7.814,4.539,-4.765,-8.038,18,4.337,4.809,4.373,5.238,1.958,1.325,1.812,1.84,18,4.794,4.851,0,353.649957079,norm,0,67,67,67,1261.932,1261.938,1261.94076127,1261.941,1261.945,1261.949,down,1,1.60239534323,8.39760465677,001,321,1600_900,Intel(R) Core(TM) i7-2670QM CPU @ 2.20GHz,orientation_search,GRVLAPTOP3,Intel(R) HD Graphics Family,2018_nov_08_1347,testMonitor,
273.4,249.2,245.3,248.7,36,10,245.1,260.6,245.8,254.2,8.231,7.526,7.946,8.216,8.043,7.932,8.056,4.839,-5.269,-7.739,1.582,-1.755,8.247,4.33,-4.788,-8.137,249.5,246.4,-7.601,250.9,,245.8,260.3,238.5,36,250.3,5,5,prime,10,0,79,norm,36,-5.28,down,norm,253.353653043,258.1,268.2,1.788,260.2,0,258.9,254.2,261.6,10,6,8.012,4.721,2.016,-1.387,-5.253,-7.882,248.8,6,332.4,-7.788,-8.416,10,-8.194,-7.56,-5.013,-4.628,-4.974,-4.675,4.452,8.111,30,-1.772,1.733,5.19,8.386,-8.053,-8.309,-1.46,1.67,255.8,256.0,261.9,254.9,239.2,251.6,263.6,241.2,250.9,247.8,5,norm,1.483,1.632,-1.446,-1.487,-5.172,-5.148,-1.125,-1.718,-1.665,-1.222,1.937,-1.564,256.9,249.1,-4.456,-8.424,260.7,-1.271,8.358,4.462,-4.321,-8.163,18,4.971,5.031,4.35,5.04,1.862,1.105,1.27,1.454,18,5.293,4.387,0,353.649957079,norm,0,68,68,68,1263.562,1263.571,1263.57352263,1263.574,1263.577,1263.582,down,1,2.93214890744,7.06785109256,001,321,1600_900,Intel(R) Core(TM) i7-2670QM CPU @ 2.20GHz,orientation_search,GRVLAPTOP3,Intel(R) HD Graphics Family,2018_nov_08_1347,testMonitor,
376.1,375.1,378.3,370.0,36,80,379.0,380.1,377.5,376.9,7.77,8.07,7.72,8.466,7.83,8.019,7.519,4.766,-4.331,-7.555,1.321,-1.162,8.186,4.701,-4.542,-7.635,382.7,385.1,-8.475,375.4,377.4,369.6,377.0,376.9,36,365.7,2,5,probe,5,0,109,norm,36,-5.279,down,norm,375.135444156,370.6,371.9,1.379,372.6,1,371.5,,380.7,10,6,7.79,4.391,1.166,-1.105,-5.185,-8.48,378.2,2,266.1,-7.602,-8.137,10,-8.412,-8.088,-4.585,-5.069,-4.628,-4.648,4.343,8.358,13,-1.201,1.599,4.462,7.759,-8.496,-8.371,-1.827,1.634,365.1,375.4,379.4,370.1,372.5,380.0,375.2,378.6,374.8,380.2,0,norm,1.695,1.794,-1.292,-1.331,-4.704,-5.172,-1.666,-2.068,-1.43,-1.221,1.221,-1.445,372.3,378.4,-5.232,-8.201,379.3,-2.065,7.905,4.655,-4.398,-7.686,19,4.862,5.021,4.401,4.348,1.172,1.829,2.047,1.144,19,4.545,4.41,10,253.353653043,norm,0,69,69,69,1266.524,1266.531,1266.53373036,1266.534,1266.538,1266.542,down,1,3.29368379863,6.70631620137,001,321,1600_900,Intel(R) Core(TM) i7-2670QM CPU @ 2.20GHz,orientation_search,GRVLAPTOP3,Intel(R) HD Graphics Family,2018_nov_08_1347,testMonitor,
330.8,337.4,328.0,333.5,36,80,325.3,320.7,,331.3,7.575,7.998,8.002,8.433,7.78,8.444,7.718,4.752,-5.238,-7.59,1.232,-1.653,8.153,5.184,-4.517,-8.388,331.2,327.9,-8.321,328.4,325.7,333.4,335.4,334.1,36,339.1,4,5,probe,5,0,63,norm,36,-4.727,up,norm,329.135444156,331.9,319.1,2.062,334.6,4,334.4,330.2,324.6,10,6,8.362,4.821,1.557,-1.818,-4.919,-7.887,327.8,2,266.1,-7.919,-7.582,10,-8.422,-8.199,-4.604,-4.733,-4.363,-4.803,4.417,8.443,28,-1.694,1.422,4.427,7.693,-7.66,-8.044,-1.479,1.788,337.2,325.1,337.6,332.7,332.8,331.1,331.5,328.8,337.0,330.7,1,norm,1.756,1.372,-1.279,-1.268,-5.199,-5.194,-1.973,-1.525,-1.56,-1.262,1.275,-1.162,326.6,338.0,-4.905,-7.586,331.0,-2.074,7.924,4.831,-5.168,-7.767,19,5.278,4.605,5.237,4.388,1.959,1.378,2.03,1.872,19,5.085,5.198,10,253.353653043,norm,0,70,70,70,1269.846,1269.853,1269.85559346,1269.856,1269.859,1269.864,up,1,1.7009533184,8.2990466816,001,321,1600_900,Intel(R) Core(TM) i7-2670QM CPU @ 2.20GHz,orientation_search,GRVLAPTOP3,Intel(R) HD Graphics Family,2018_nov_08_1347,testMonitor,
224.6,230.4,248.8,,36,-20,240.4,237.5,238.4,228.3,8.135,8.405,8.212,8.07,7.663,8.013,7.97,5.25,-5.029,-8.01,1.62,-1.816,8.365,4.495,-4.588,-7.883,234.0,234.3,-7.942,232.4,246.0,233.1,256.0,230.3,36,239.4,3,5,prime,10,0,119,norm,36,-4.538,up,norm,236.011805057,237.0,217.2,1.593,216.0,3,240.7,232.4,238.9,10,6,8.44,4.389,1.203,-1.992,-5.061,-8.023,241.8,6,355.0,-8.24,-7.573,-20,-7.955,-7.959,-5.212,-4.958,-4.878,-4.485,5.041,7.925,21,-1.818,1.48,4.754,8.444,-7.812,-8.203,-1.867,1.72,242.8,236.6,226.9,234.6,229.2,243.4,230.7,239.0,238.0,230.1,0,norm,1.619,1.584,-1.535,-1.669,-4.33,-5.181,-1.968,-1.885,-1.268,-1.321,1.65,-1.752,235.1,249.6,-4.842,-8.068,250.7,-1.779,8.195,4.506,-5.269,-7.707,20,5.027,5.231,4.9,5.156,1.935,1.463,1.523,1.154,20,4.564,4.721,80,253.353653043,norm,0,71,71,71,1271.575,1271.582,1271.58460841,1271.585,1271.588,1271.593,up,1,4.46505744378,5.53494255622,001,321,1600_900,Intel(R) Core(TM) i7-2670QM CPU @ 2.20GHz,orientation_search,GRVLAPTOP3,Intel(R) HD Graphics Family,2018_nov_08_1347,testMonitor,
225.9,240.6,216.0,232.3,36,-20,224.1,226.9,227.6,241.4,8.291,7.976,7.637,7.599,8.197,7.688,7.652,4.987,-4.934,-7.904,1.981,-1.532,7.672,4.689,-4.454,-7.741,220.7,228.8,-8.119,239.7,251.7,232.3,226.8,228.8,36,229.4,2,5,prime,10,0,108,norm,36,-4.675,down,norm,236.011805057,229.9,238.6,1.133,249.3,1,256.0,,241.0,10,6,8.339,5.009,1.44,-1.728,-4.98,-8.159,241.2,6,344.0,-7.77,-8.484,-20,-7.797,-8.011,-4.676,-4.354,-4.476,-4.929,4.566,8.371,13,-1.768,1.775,4.79,8.324,-7.672,-8.288,-2.039,1.903,240.5,247.3,233.4,249.0,235.5,255.7,252.2,241.3,224.8,243.4,1,norm,1.198,1.438,-1.316,-1.139,-4.859,-4.474,-1.714,-1.513,-1.814,-1.212,1.818,-1.307,236.8,243.6,-4.415,-7.875,217.6,-1.799,7.575,5.249,-4.566,-8.412,20,4.339,4.784,4.612,4.412,1.781,1.918,1.44,1.474,20,4.808,4.41,80,253.353653043,norm,0,72,72,72,1276.068,1276.074,1276.07686176,1276.077,1276.081,1276.085,down,1,2.44686473301,7.55313526699,001,321,1600_900,Intel(R) Core(TM) i7-2670QM CPU @ 2.20GHz,orientation_search,GRVLAPTOP3,Intel(R) HD Graphics Family,2018_nov_08_1347,testMonitor,
242.4,245.5,225.5,222.6,36,-20,241.8,239.8,225.5,239.4,7.611,8.42,8.152,8.411,7.977,8.27,7.769,5.077,-4.894,-8.344,1.289,-2.082,7.81,4.676,-4.47,-7.745,235.2,236.3,-8.043,242.4,236.2,245.3,246.5,232.7,36,224.8,2,5,prime,10,0,74,norm,36,-5.121,up,norm,236.011805057,,233.1,1.883,233.5,5,239.1,221.0,235.7,10,6,8.057,4.559,1.255,-1.246,-4.498,-8.315,246.5,6,310.0,-7.773,-8.472,-20,-7.983,-8.282,-5.154,-4.696,-5.068,-4.941,4.622,8.203,17,-1.901,2.083,4.606,7.795,-8.117,-8.099,-1.688,1.528,230.5,249.9,231.5,228.1,242.8,224.8,225.0,236.5,238.3,216.0,2,norm,1.19,1.614,-1.235,-1.719,-4.658,-5.077,-1.141,-1.965,-1.683,-1.747,2.075,-1.967,238.1,256.0,-4.388,-8.413,236.7,-1.763,8.302,5.18,-4.61,-8.073,20,4.644,5.126,4.763,5.155,1.935,1.89,1.893,1.899,20,4.729,4.31,80,253.353653043,norm,0,73,73,73,1278.542,1278.549,1278.55145893,1278.552,1278.556,1278.56,up,1,1.07861794981,8.92138205019,001,321,1600_900,Intel(R) Core(TM) i7-2670QM CPU @ 2.20GHz,orientation_search,GRVLAPTOP3,Intel(R) HD Graphics Family,2018_nov_08_1347,testMonitor,
216.0,238.0,242.5,238.4,36,-20,243.0,226.7,217.9,243.4,8.399,8.168,8.383,7.943,7.807,8.06,8.165,4.745,-5.161,-8.282,1.101,-2.084,7.596,5.262,-5.087,-8.244,249.9,231.5,-7.686,231.9,248.2,228.0,236.2,237.2,36,229.3,1,5,prime,10,0,85,norm,36,-4.644,down,norm,236.011805057,216.4,241.0,1.311,243.9,0,245.5,256.0,228.8,10,6,7.588,4.844,1.668,-1.842,-5.189,-8.289,246.7,6,321.0,-8.001,-8.437,-20,-7.97,-7.586,-4.597,-4.998,-4.992,-5.223,4.304,8.494,6,-1.895,1.597,4.351,8.265,-7.842,-8.356,-1.345,1.177,229.1,219.2,245.5,234.8,223.2,234.7,226.9,,242.9,229.6,3,norm,1.391,2.093,-1.184,-1.889,-5.186,-4.438,-1.878,-1.891,-1.471,-2.056,1.195,-1.979,235.5,243.0,-4.843,-7.774,227.1,-1.574,7.87,4.322,-5.201,-8.189,20,5.247,4.876,4.861,4.856,1.81,1.216,1.315,2.092,20,4.752,4.98,80,253.353653043,norm,0,74,74,74,1279.649,1279.656,1279.65833089,1279.659,1279.663,1279.667,down,1,1.32499304249,8.67500695751,001,321,1600_900,Intel(R) Core(TM) i7-2670QM CPU @ 2.20GHz,orientation_search,GRVLAPTOP3,Intel(R) HD Graphics Family,2018_nov_08_1347,testMonitor,
233.8,233.0,222.0,245.0,36,-20,225.2,253.0,252.0,235.6,8.403,8.015,7.521,7.788,8.385,7.92,7.857,4.772,-4.533,-8.111,1.608,-1.189,7.577,4.526,-4.317,-7.581,235.0,,-8.435,235.4,227.1,241.0,224.4,225.5,36,241.0,5,5,prime,10,0,101,norm,36,-4.811,up,norm,236.011805057,240.6,254.3,1.878,216.0,4,225.2,233.3,230.1,10,6,7.502,4.752,1.435,-1.678,-4.682,-7.809,256.0,6,337.0,-8.057,-8.283,-20,-8.058,-8.414,-4.466,-4.688,-4.593,-4.817,4.514,7.694,34,-1.299,1.825,4.43,7.906,-7.874,-8.249,-1.866,1.869,233.3,243.1,227.7,235.9,241.4,240.4,220.3,232.9,242.9,238.3,4,norm,1.633,1.231,-1.727,-2.011,-4.309,-4.371,-1.778,-1.613,-1.966,-1.207,1.543,-1.438,225.0,227.5,-4.804,-7.797,248.2,-1.368,7.833,4.414,-4.862,-8.049,20,4.858,4.635,5.223,4.854,1.979,1.452,1.247,1.138,20,5.221,4.497,80,253.353653043,norm,0,75,75,75,1281.003,1281.009,1281.0120547,1281.013,1281.016,1281.021,up,1,1.39693785687,8.60306214313,001,321,1600_900,Intel(R) Core(TM) i7-2670QM CPU @ 2.20GHz,orientation_search,GRVLAPTOP3,Intel(R) HD Graphics Family,2018_nov_08_1347,testMonitor,
242.5,243.2,244.7,256.0,36,-20,230.8,241.4,252.6,235.3,8.194,8.185,7.97,7.693,8.07,8.24,8.347,4.412,-4.703,-8.405,1.114,-1.133,8.411,4.474,-5.242,-8.252,240.1,,-8.498,238.2,247.2,231.4,232.6,255.3,36,253.5,5,5,prime,10,0,104,norm,36,-4.491,up,norm,236.011805057,228.0,246.0,1.623,235.0,4,238.1,240.3,249.6,10,6,8.254,5.208,1.864,-2.038,-4.473,-8.384,229.8,6,340.0,-8.034,-8.315,-20,-8.093,-7.61,-4.563,-4.965,-4.936,-4.758,5.161,7.503,34,-1.613,1.312,4.477,7.913,-8.14,-8.434,-1.126,1.987,239.7,234.1,250.4,229.0,227.1,216.0,232.7,240.0,235.9,221.4,5,norm,1.641,1.684,-1.276,-1.253,-4.382,-4.862,-1.797,-1.716,-1.386,-1.708,1.191,-1.577,228.2,239.4,-4.607,-8.266,231.7,-1.353,8.018,4.304,-5.248,-7.929,20,4.864,4.737,4.738,5.292,1.118,1.132,1.438,2.044,20,4.849,4.363,80,253.353653043,norm,0,76,76,76,1282.428,1282.436,1282.43809314,1282.439,1282.442,1282.447,up,1,4.64149979547,5.35850020453,001,321,1600_900,Intel(R) Core(TM) i7-2670QM CPU @ 2.20GHz,orientation_search,GRVLAPTOP3,Intel(R) HD Graphics Family,2018_nov_08_1347,testMonitor,
281.8,288.9,281.8,279.5,36,0,280.9,281.5,272.3,289.9,7.608,8.373,7.781,8.228,8.438,8.063,8.457,4.838,-4.603,-8.286,1.528,-1.844,7.8,4.985,-4.778,-8.446,286.0,285.9,-7.628,285.0,273.9,280.9,,279.7,36,279.8,5,5,probe,5,0,65,norm,36,-4.91,down,norm,281.767145531,284.9,291.0,1.895,279.0,2,279.7,284.5,291.8,10,6,8.167,4.487,2.094,-1.392,-4.594,-7.517,277.2,2,216.8,-8.301,-7.804,-20,-8.267,-7.989,-4.449,-4.83,-5.268,-4.325,5.159,8.29,32,-1.121,1.924,5.089,8.13,-7.543,-7.593,-1.54,1.436,271.8,281.5,275.5,278.0,279.5,281.5,284.4,278.7,284.3,276.3,0,norm,1.273,1.125,-2.007,-1.432,-5.21,-4.555,-1.265,-1.18,-1.639,-1.687,1.188,-1.154,282.7,275.0,-5.23,-8.294,283.3,-1.789,7.882,4.459,-4.552,-8.496,21,4.521,4.409,5.158,5.165,1.457,1.15,1.435,1.406,21,5.001,4.861,-20,236.011805057,norm,0,77,77,77,1287.098,1287.105,1287.10772367,1287.108,1287.112,1287.116,down,1,2.17410248173,7.82589751827,001,321,1600_900,Intel(R) Core(TM) i7-2670QM CPU @ 2.20GHz,orientation_search,GRVLAPTOP3,Intel(R) HD Graphics Family,2018_nov_08_1347,testMonitor,
333.3,333.5,327.2,,36,0,328.4,334.6,327.1,332.2,8.318,7.647,7.706,7.79,8.377,8.231,7.604,4.911,-5.057,-8.103,1.314,-1.544,8.034,5.298,-4.503,-7.831,334.5,335.6,-7.915,328.4,332.3,334.7,338.7,331.1,36,325.9,3,5,probe,5,0,115,norm,36,-4.712,up,norm,331.767145531,333.5,324.8,1.905,325.7,3,325.3,333.5,331.0,10,6,8.003,5.138,1.104,-1.155,-4.937,-7.795,327.5,2,216.8,-7.549,-7.603,-20,-7.851,-7.752,-5.21,-4.672,-4.677,-4.349,4.667,7.672,21,-1.271,1.906,5.035,8.023,-7.626,-7.961,-2.008,1.548,331.7,341.8,332.7,331.4,335.8,328.5,323.0,336.1,336.9,321.8,1,norm,1.464,1.862,-2.026,-1.226,-4.47,-4.487,-1.463,-2.034,-1.958,-1.694,1.493,-2.086,328.5,326.7,-4.749,-7.922,327.5,-1.639,8.105,4.6,-5.204,-8.207,21,5.284,4.634,4.41,5.197,1.775,1.56,2.026,2.0,21,4.667,4.385,-20,236.011805057,norm,0,78,78,78,1289.301,1289.308,1289.31059988,1289.311,1289.315,1289.319,up,1,1.88730521318,8.11269478682,001,321,1600_900,Intel(R) Core(TM) i7-2670QM CPU @ 2.20GHz,orientation_search,GRVLAPTOP3,Intel(R) HD Graphics Family,2018_nov_08_1347,testMonitor,
173.4,160.3,174.4,164.3,36,-30,175.4,166.9,172.2,167.3,8.235,8.071,7.964,8.169,7.599,7.697,7.793,4.606,-4.31,-8.382,1.109,-1.764,7.82,4.517,-4.681,-7.792,176.5,151.0,-8.327,161.4,165.0,170.9,165.0,161.1,36,173.8,1,5,prime,10,0,79,norm,36,-4.417,up,norm,168.593132562,178.0,188.6,1.676,152.7,5,,159.4,160.9,10,5,7.859,5.058,1.88,-1.406,-5.252,-7.552,180.3,5,247.6,-8.459,-8.472,-30,-7.762,-8.223,-4.502,-4.339,-5.175,-4.896,4.423,8.109,11,-1.579,1.126,4.593,7.642,-7.869,-8.128,-1.423,1.622,163.0,148.6,184.0,162.0,173.1,162.3,179.8,164.7,169.5,158.5,0,norm,1.99,1.343,-1.445,-1.35,-4.665,-4.725,-1.424,-1.473,-1.766,-1.466,2.014,-1.649,160.2,172.1,-4.309,-8.045,185.6,-1.297,7.927,4.573,-5.218,-8.172,22,5.051,5.291,4.313,4.998,1.452,1.194,1.377,1.276,22,4.804,4.584,0,236.011805057,norm,0,79,79,79,1291.216,1291.223,1291.22527097,1291.226,1291.229,1291.234,up,1,4.90577995977,5.09422004023,001,321,1600_900,Intel(R) Core(TM) i7-2670QM CPU @ 2.20GHz,orientation_search,GRVLAPTOP3,Intel(R) HD Graphics Family,2018_nov_08_1347,testMonitor,
180.5,165.4,161.4,163.0,36,-30,188.6,175.2,162.0,164.9,7.75,8.249,8.161,7.505,7.861,7.794,8.355,4.825,-4.492,-7.77,2.014,-1.949,8.306,4.384,-4.896,-7.716,159.3,163.6,-7.681,177.8,168.1,164.8,168.0,160.7,36,,4,5,prime,10,0,79,norm,36,-4.665,up,norm,168.593132562,158.6,170.8,1.487,157.9,3,154.6,159.3,174.1,10,5,7.76,4.981,1.29,-1.524,-4.559,-7.806,151.5,5,247.6,-7.691,-7.908,-30,-7.816,-7.764,-4.96,-4.388,-4.371,-4.463,4.556,7.968,27,-2.093,1.373,5.104,8.487,-8.282,-8.248,-1.217,2.009,148.6,167.4,156.6,171.2,153.2,167.6,162.0,167.2,159.0,177.0,1,norm,1.731,1.493,-2.034,-1.524,-4.695,-4.92,-1.671,-2.01,-1.996,-1.792,1.227,-1.59,161.7,170.9,-5.014,-7.864,174.5,-1.45,8.107,4.722,-4.764,-7.979,22,5.091,4.779,4.728,4.608,1.824,1.816,1.473,1.366,22,5.169,5.206,0,236.011805057,norm,0,80,80,80,1296.15,1296.157,1296.15948331,1296.16,1296.164,1296.169,up,1,1.73297512295,8.26702487705,001,321,1600_900,Intel(R) Core(TM) i7-2670QM CPU @ 2.20GHz,orientation_search,GRVLAPTOP3,Intel(R) HD Graphics Family,2018_nov_08_1347,testMonitor,
165.3,162.4,166.4,159.5,36,-30,179.4,148.6,167.5,179.0,7.606,7.774,8.236,7.968,7.901,7.878,8.149,5.251,-5.082,-7.688,2.05,-2.099,8.293,4.714,-5.262,-8.291,156.9,177.8,-7.603,162.5,180.5,163.0,173.3,188.6,36,161.1,1,5,prime,10,0,115,norm,36,-5.176,up,norm,168.593132562,156.3,148.7,2.074,163.8,3,158.4,161.8,165.1,10,5,7.636,4.459,2.054,-1.909,-4.881,-7.952,171.7,5,283.6,-7.785,-8.109,-30,-7.943,-8.384,-5.124,-4.447,-4.866,-4.904,4.506,7.87,9,-1.101,1.183,4.355,8.43,-8.287,-8.489,-1.681,1.638,,172.2,164.5,155.6,170.7,161.7,161.0,187.6,175.4,178.6,2,norm,1.134,1.244,-2.094,-1.92,-5.25,-4.312,-1.395,-1.841,-2.028,-2.083,1.806,-1.286,174.3,168.9,-4.835,-8.321,158.5,-1.465,7.936,4.321,-4.379,-7.641,22,4.401,4.958,4.432,4.323,2.012,1.51,1.253,2.041,22,4.675,5.231,0,236.011805057,norm,0,81,81,81,1297.912,1297.919,1297.92100663,1297.921,1297.925,1297.929,up,1,1.35752475284,8.64247524716,001,321,1600_900,Intel(R) Core(TM) i7-2670QM CPU @ 2.20GHz,orientation_search,GRVLAPTOP3,Intel(R) HD Graphics Family,2018_nov_08_1347,testMonitor,
165.9,174.1,169.8,168.6,36,-30,163.6,186.1,170.2,178.3,8.34,8.46,8.264,7.505,7.712,8.46,7.806,4.672,-4.347,-8.316,1.673,-2.051,8.205,4.709,-4.874,-8.262,164.7,188.6,-8.146,175.0,167.2,160.0,161.8,183.2,36,162.7,0,5,prime,10,0,82,norm,36,-5.18,down,norm,168.593132562,149.9,177.8,2.022,186.8,2,159.6,180.5,160.4,10,5,7.734,4.672,1.21,-1.575,-5.234,-7.625,165.3,5,250.6,-7.848,-7.8,-30,-8.346,-7.694,-4.64,-4.935,-5.177,-4.761,4.764,8.223,2,-1.622,1.547,4.714,8.453,-7.726,-8.259,-1.445,1.814,175.7,156.6,180.4,,173.8,168.7,179.0,170.5,161.6,181.1,3,norm,1.428,1.188,-1.89,-1.431,-4.627,-4.781,-2.069,-1.952,-1.643,-1.194,1.451,-1.411,164.0,148.6,-4.365,-8.098,166.5,-1.503,7.752,4.898,-4.382,-8.324,22,4.331,5.01,4.695,5.112,1.147,1.654,1.422,1.186,22,5.196,4.416,0,236.011805057,norm,0,82,82,82,1299.297,1299.304,1299.30631424,1299.307,1299.31,1299.315,down,1,2.81278985717,7.18721014283,001,321,1600_900,Intel(R) Core(TM) i7-2670QM CPU @ 2.20GHz,orientation_search,GRVLAPTOP3,Intel(R) HD Graphics Family,2018_nov_08_1347,testMonitor,
162.7,153.4,177.7,171.8,36,-30,166.3,161.4,153.4,165.0,7.734,8.468,7.576,7.999,8.216,7.759,8.494,5.006,-4.518,-7.803,1.844,-1.23,8.278,5.107,-4.943,-8.325,177.9,170.9,-8.139,169.7,173.9,155.2,157.4,166.2,36,181.6,2,5,prime,10,0,117,norm,36,-5.262,up,norm,168.593132562,172.9,166.7,1.736,165.9,3,161.6,185.1,150.6,10,5,8.419,4.553,1.56,-1.661,-4.846,-8.332,161.1,5,285.6,-8.108,-8.192,-30,-7.701,-7.536,-4.82,-4.993,-4.838,-4.349,4.362,7.728,15,-2.006,1.241,4.305,8.062,-8.4,-8.006,-1.526,1.904,156.5,159.0,178.4,181.6,188.6,169.0,159.1,163.0,172.2,167.4,4,norm,1.234,1.691,-1.73,-1.198,-4.691,-4.793,-1.783,-1.327,-2.025,-1.425,1.85,-1.465,153.0,148.6,-4.656,-7.502,,-1.388,7.871,4.527,-4.457,-8.199,22,4.655,4.353,5.235,4.392,1.293,1.701,1.831,1.266,22,4.556,5.285,0,236.011805057,norm,0,83,83,83,1302.138,1302.144,1302.14675855,1302.147,1302.151,1302.155,down,0,6.98106998037,-10,001,321,1600_900,Intel(R) Core(TM) i7-2670QM CPU @ 2.20GHz,orientation_search,GRVLAPTOP3,Intel(R) HD Graphics Family,2018_nov_08_1347,testMonitor,
236.0,236.2,228.2,221.1,36,40,232.1,227.8,226.7,226.9,7.795,8.261,7.58,8.072,7.719,8.476,8.442,4.44,-4.38,-8.005,1.404,-1.983,7.917,5.004,-4.476,-7.921,232.2,229.5,-7.923,229.1,226.3,236.4,227.4,228.7,36,231.0,0,5,probe,5,0,94,norm,36,-4.589,up,norm,231.093167084,241.0,233.0,1.633,227.8,5,231.3,228.9,226.9,10,5,7.532,4.393,1.131,-1.994,-5.027,-7.859,237.0,1,137.1,-7.617,-8.173,-30,-8.174,-7.656,-5.257,-4.436,-4.776,-5.077,5.022,8.471,5,-1.103,1.779,4.91,7.778,-7.794,-7.71,-1.185,2.025,239.9,231.4,241.1,229.4,227.7,222.9,227.4,234.3,,238.7,0,norm,1.348,1.478,-2.095,-1.664,-4.507,-4.968,-1.388,-1.538,-2.084,-1.328,1.943,-1.312,226.7,233.1,-5.046,-8.408,228.7,-1.999,8.38,4.521,-4.474,-7.746,23,4.35,4.821,5.203,5.198,1.285,2.017,1.36,1.499,23,5.192,5.08,-30,168.593132562,norm,0,84,84,84,1310.153,1310.16,1310.16281918,1310.163,1310.167,1310.171,up,1,0.598193756734,9.40180624327,001,321,1600_900,Intel(R) Core(TM) i7-2670QM CPU @ 2.20GHz,orientation_search,GRVLAPTOP3,Intel(R) HD Graphics Family,2018_nov_08_1347,testMonitor,
222.5,209.6,218.4,228.8,36,-40,208.5,223.7,233.3,219.7,7.689,7.501,8.048,8.385,7.893,7.568,7.834,4.588,-5.272,-8.227,1.532,-1.31,8.358,4.963,-4.566,-8.385,218.2,222.7,-8.223,223.7,225.0,211.9,206.3,224.5,36,240.1,1,5,prime,10,0,94,norm,36,-4.938,down,norm,221.895771872,217.3,229.4,1.788,215.9,2,207.7,212.3,237.3,10,5,8.144,5.105,1.603,-1.795,-4.943,-7.514,201.9,5,315.9,-8.368,-7.511,-40,-8.173,-7.724,-5.25,-4.337,-5.232,-4.52,4.372,7.506,8,-1.709,1.867,4.601,8.335,-8.223,-7.863,-1.888,2.033,215.3,,222.7,217.5,217.3,241.9,223.8,225.8,211.3,230.3,0,norm,1.327,1.3,-1.965,-1.817,-4.558,-4.494,-1.881,-1.666,-1.656,-1.768,1.662,-1.942,217.9,219.5,-4.459,-7.868,226.7,-1.424,8.07,4.416,-4.996,-7.781,24,4.836,4.597,5.036,4.963,1.589,1.341,1.791,1.662,24,4.651,4.688,40,168.593132562,norm,0,85,85,85,1310.78,1310.788,1310.79047681,1310.791,1310.795,1310.799,down,1,1.63079317436,8.36920682564,001,321,1600_900,Intel(R) Core(TM) i7-2670QM CPU @ 2.20GHz,orientation_search,GRVLAPTOP3,Intel(R) HD Graphics Family,2018_nov_08_1347,testMonitor,
229.9,240.1,230.2,219.9,36,-40,235.5,227.2,226.8,233.4,7.841,8.454,7.752,7.589,7.779,8.0,7.502,5.009,-5.032,-8.493,1.922,-1.112,8.427,5.243,-5.214,-7.744,224.0,219.9,-8.17,213.0,218.3,223.6,222.1,207.5,36,234.2,1,5,prime,10,0,64,norm,36,-4.977,down,norm,221.895771872,214.1,220.3,1.156,217.6,2,241.9,201.9,222.7,10,5,8.291,4.304,1.421,-1.192,-4.689,-7.54,228.2,5,285.9,-8.414,-7.576,-40,-8.199,-7.576,-4.806,-4.822,-4.303,-4.718,5.215,8.133,8,-1.489,1.896,5.114,8.181,-8.463,-7.999,-1.627,1.794,223.7,,231.2,206.3,220.9,215.4,224.2,212.7,207.0,223.3,1,norm,2.038,1.581,-1.274,-1.676,-4.64,-5.257,-1.101,-1.817,-1.47,-1.441,2.015,-1.405,222.2,239.8,-4.993,-7.953,233.4,-1.401,7.609,4.597,-4.773,-8.403,24,4.8,4.3,4.94,4.516,1.117,1.964,1.211,1.964,24,4.711,4.627,40,168.593132562,norm,0,86,86,86,1312.44,1312.447,1312.44930593,1312.45,1312.453,1312.458,down,1,0.972930165317,9.02706983468,001,321,1600_900,Intel(R) Core(TM) i7-2670QM CPU @ 2.20GHz,orientation_search,GRVLAPTOP3,Intel(R) HD Graphics Family,2018_nov_08_1347,testMonitor,
201.9,219.8,213.5,223.4,36,-40,216.5,241.9,208.3,224.0,8.329,7.985,7.771,8.18,7.957,8.025,8.121,4.31,-4.594,-7.741,1.182,-1.677,7.992,4.881,-4.924,-7.801,220.8,218.6,-7.898,204.6,227.7,228.7,212.7,230.3,36,225.0,2,5,prime,10,0,100,norm,36,-5.28,down,norm,221.895771872,239.5,219.6,1.305,218.0,0,227.4,220.9,,10,5,7.935,4.43,1.715,-1.535,-4.424,-8.267,225.4,5,321.9,-7.87,-8.307,-40,-7.997,-8.313,-5.256,-5.066,-4.737,-5.159,5.052,8.118,12,-1.909,1.266,4.738,8.31,-7.831,-7.519,-1.202,1.384,224.2,232.3,218.4,219.7,223.6,222.2,213.3,219.0,225.9,218.3,2,norm,1.971,1.694,-1.278,-1.308,-4.59,-5.093,-1.987,-2.014,-1.7,-1.253,1.284,-1.571,211.1,210.3,-4.665,-8.193,223.3,-1.205,7.844,5.274,-5.292,-7.748,24,4.517,5.267,5.154,4.825,1.946,1.804,1.981,1.944,24,5.09,5.179,40,168.593132562,norm,0,87,87,87,1313.44,1313.448,1313.45068996,1313.451,1313.455,1313.459,down,1,1.25644106292,8.74355893708,001,321,1600_900,Intel(R) Core(TM) i7-2670QM CPU @ 2.20GHz,orientation_search,GRVLAPTOP3,Intel(R) HD Graphics Family,2018_nov_08_1347,testMonitor,
215.3,224.3,219.6,207.1,36,-40,208.9,216.8,222.2,234.5,7.613,7.679,7.642,8.029,8.27,8.243,7.788,4.57,-4.53,-8.188,1.288,-1.651,8.346,4.624,-5.147,-8.212,221.1,215.0,-8.202,205.4,217.4,232.4,230.3,221.6,36,,4,5,prime,10,0,72,norm,36,-4.938,up,norm,221.895771872,224.7,226.0,1.59,220.9,3,216.5,204.9,208.3,10,5,8.326,4.331,1.625,-1.663,-4.608,-8.322,240.8,5,293.9,-7.808,-7.566,-40,-8.391,-8.208,-4.749,-5.038,-4.422,-4.447,4.817,7.799,27,-2.028,2.005,4.795,8.049,-8.408,-8.086,-1.498,2.048,236.5,213.9,237.6,217.1,207.6,201.9,241.9,241.0,202.4,223.4,3,norm,1.712,1.336,-1.179,-1.864,-4.731,-4.833,-1.297,-1.539,-1.966,-1.725,1.693,-1.679,218.5,227.0,-4.905,-7.61,206.0,-1.728,8.241,4.477,-4.447,-8.152,24,4.588,4.484,4.483,4.924,1.901,2.088,1.47,1.774,24,4.754,4.763,40,168.593132562,norm,0,88,88,88,1314.725,1314.732,1314.7347696,1314.735,1314.739,1314.743,up,1,0.785998322724,9.21400167728,001,321,1600_900,Intel(R) Core(TM) i7-2670QM CPU @ 2.20GHz,orientation_search,GRVLAPTOP3,Intel(R) HD Graphics Family,2018_nov_08_1347,testMonitor,
222.4,231.5,238.1,216.7,36,-40,213.2,224.0,228.2,201.9,8.351,8.109,8.045,8.426,7.668,7.8,8.253,4.401,-4.862,-7.67,1.263,-1.181,7.713,5.297,-5.179,-7.778,224.3,220.1,-7.953,217.0,231.9,231.2,210.2,241.9,36,226.4,0,5,prime,10,0,65,norm,36,-4.548,down,norm,221.895771872,225.7,223.3,1.508,232.8,2,235.7,224.3,221.2,10,5,7.641,4.839,1.884,-1.455,-4.98,-8.497,210.1,5,286.9,-8.177,-8.007,-40,-7.731,-7.664,-5.257,-4.767,-4.683,-5.183,5.22,8.481,2,-1.55,1.32,4.317,8.085,-7.668,-7.697,-1.407,1.47,209.5,218.7,227.5,,207.1,204.9,233.0,240.6,209.7,221.5,4,norm,2.009,1.351,-1.235,-1.299,-4.785,-4.494,-1.222,-1.82,-1.908,-1.617,1.605,-2.045,224.6,233.3,-5.038,-7.687,204.3,-1.62,8.015,4.65,-4.744,-7.784,24,5.117,4.763,4.523,4.966,1.363,2.048,1.495,1.76,24,4.362,4.884,40,168.593132562,norm,0,89,89,89,1315.539,1315.546,1315.54849942,1315.549,1315.553,1315.557,up,0,2.45371624209,-10,001,321,1600_900,Intel(R) Core(TM) i7-2670QM CPU @ 2.20GHz,orientation_search,GRVLAPTOP3,Intel(R) HD Graphics Family,2018_nov_08_1347,testMonitor,
297.5,294.1,295.4,288.8,36,-10,288.2,294.8,296.1,293.2,7.595,7.869,7.655,8.237,8.451,7.848,8.258,4.446,-4.452,-8.327,1.765,-1.21,8.309,5.265,-4.862,-7.618,289.4,287.7,-7.591,285.6,291.5,287.7,295.5,291.1,36,290.5,3,5,probe,5,0,108,norm,36,-4.313,down,norm,289.491275032,293.5,287.6,1.156,287.3,1,279.6,284.1,286.6,10,5,8.0,5.292,1.295,-1.635,-5.008,-7.735,292.5,2,181.5,-8.161,-7.932,-40,-7.713,-8.019,-4.578,-4.42,-4.443,-4.678,4.811,8.064,19,-1.679,1.189,4.389,7.724,-7.739,-8.336,-1.98,1.97,299.5,289.0,286.2,293.3,279.5,286.2,293.1,290.7,296.5,289.8,0,norm,1.541,1.231,-1.128,-1.714,-5.129,-5.286,-1.142,-1.286,-1.411,-2.048,1.138,-1.589,,292.3,-5.113,-8.284,291.1,-1.169,8.265,5.03,-5.006,-7.932,25,5.27,4.482,4.424,4.873,1.639,1.55,2.025,1.112,25,4.973,4.694,-40,221.895771872,norm,0,90,90,90,1319.029,1319.036,1319.03861603,1319.039,1319.043,1319.047,down,1,0.22120199554,9.77879800446,001,321,1600_900,Intel(R) Core(TM) i7-2670QM CPU @ 2.20GHz,orientation_search,GRVLAPTOP3,Intel(R) HD Graphics Family,2018_nov_08_1347,testMonitor,
279.0,269.1,278.0,279.4,36,-10,270.9,274.8,282.1,281.6,7.615,7.789,8.453,8.099,8.215,8.2,7.862,5.133,-5.078,-7.692,1.313,-1.23,8.137,4.453,-4.309,-7.888,269.9,272.1,-8.485,275.5,270.7,273.9,273.2,278.9,36,284.5,1,5,probe,5,0,93,norm,36,-4.359,up,norm,274.491275032,278.2,274.1,1.722,280.9,3,271.4,277.0,278.2,10,5,8.388,4.37,1.642,-1.469,-4.943,-8.362,272.6,2,181.5,-8.422,-7.677,-40,-8.257,-8.173,-4.341,-4.651,-4.371,-4.633,4.888,7.965,9,-1.27,2.065,5.162,7.68,-8.067,-7.693,-1.543,1.151,,283.7,280.7,271.7,274.0,275.7,264.5,283.1,265.8,277.0,1,norm,1.156,1.572,-1.229,-1.261,-4.535,-5.142,-1.618,-1.596,-1.39,-1.673,1.781,-1.542,270.6,267.6,-5.17,-7.951,271.4,-1.412,7.944,5.238,-5.086,-7.653,25,4.672,4.739,4.78,4.836,1.895,1.951,1.759,1.269,25,4.848,4.512,-40,221.895771872,norm,0,91,91,91,1319.277,1319.283,1319.28481461,1319.285,1319.288,1319.291,down,0,1.6370745415,-10,001,321,1600_900,Intel(R) Core(TM) i7-2670QM CPU @ 2.20GHz,orientation_search,GRVLAPTOP3,Intel(R) HD Graphics Family,2018_nov_08_1347,testMonitor,
195.1,185.0,192.1,157.7,36,-10,185.5,192.4,155.1,172.0,7.692,7.504,8.044,7.642,8.482,8.308,7.643,5.052,-5.232,-7.743,2.023,-1.339,8.419,4.477,-5.135,-7.685,172.9,170.9,-7.528,163.7,179.0,171.0,184.8,166.6,36,169.3,3,5,prime,10,0,93,norm,36,-4.983,down,norm,175.089991481,168.3,181.8,1.734,176.4,1,161.9,168.2,179.0,10,6,8.033,4.444,1.269,-1.834,-5.274,-7.651,180.6,6,268.1,-8.267,-8.055,-10,-7.992,-8.253,-4.375,-4.634,-5.172,-5.212,4.52,7.673,19,-1.897,1.158,4.833,8.277,-7.628,-7.792,-1.937,1.462,181.0,172.3,175.6,188.3,165.9,169.6,176.0,187.7,186.8,172.8,0,norm,1.128,1.344,-1.389,-1.324,-4.878,-5.188,-1.448,-1.708,-1.162,-2.0,1.361,-1.596,,180.2,-4.774,-8.333,162.6,-2.007,8.43,4.416,-5.157,-7.705,26,4.453,5.023,4.768,4.837,1.991,1.671,2.044,1.983,26,4.625,5.062,-10,221.895771872,norm,0,92,92,92,1321.946,1321.952,1321.95403517,1321.954,1321.957,1321.96,up,0,0.770196379108,-10,001,321,1600_900,Intel(R) Core(TM) i7-2670QM CPU @ 2.20GHz,orientation_search,GRVLAPTOP3,Intel(R) HD Graphics Family,2018_nov_08_1347,testMonitor,
165.9,165.4,173.7,161.8,36,-10,187.0,174.3,179.0,176.2,8.029,7.909,7.981,8.452,8.291,8.402,8.126,4.394,-4.701,-7.817,1.687,-1.874,7.738,4.892,-4.738,-8.128,179.4,195.1,-7.993,162.0,155.1,175.7,172.3,181.0,36,178.4,2,5,prime,10,0,73,norm,36,-4.914,down,norm,175.089991481,167.9,173.1,1.389,160.0,1,176.5,,174.9,10,6,7.98,5.253,1.59,-1.364,-4.304,-7.957,185.9,6,248.1,-7.641,-7.795,-10,-7.841,-8.3,-5.008,-4.8,-5.044,-4.568,5.07,8.415,13,-1.235,1.247,5.19,7.519,-8.222,-8.298,-1.692,1.433,184.8,184.9,181.1,187.4,174.1,170.4,166.2,159.4,161.6,179.5,1,norm,1.535,1.143,-2.037,-1.239,-4.968,-5.283,-1.135,-1.482,-1.759,-1.369,1.682,-1.811,167.1,176.5,-4.342,-8.248,189.9,-1.36,8.127,4.726,-4.414,-7.56,26,4.815,4.408,5.171,4.665,1.198,1.401,1.227,1.109,26,5.013,4.89,-10,221.895771872,norm,0,93,93,93,1323.74,1323.746,1323.74779788,1323.748,1323.751,1323.754,down,1,2.30065531301,7.69934468699,001,321,1600_900,Intel(R) Core(TM) i7-2670QM CPU @ 2.20GHz,orientation_search,GRVLAPTOP3,Intel(R) HD Graphics Family,2018_nov_08_1347,testMonitor,
162.2,175.3,179.8,174.5,36,-10,177.8,160.5,175.6,182.5,7.836,7.819,8.434,7.624,8.476,8.128,8.278,5.163,-4.934,-7.99,2.093,-1.896,8.302,4.331,-4.562,-7.659,160.0,180.7,-8.457,176.4,163.7,173.4,169.5,177.0,36,166.5,2,5,prime,10,0,77,norm,36,-4.738,down,norm,175.089991481,195.1,178.5,2.06,164.2,1,179.1,,184.1,10,6,8.428,4.569,1.609,-1.281,-4.871,-7.706,169.3,6,252.1,-7.892,-7.674,-10,-7.881,-7.726,-5.019,-5.026,-5.136,-5.108,5.177,8.288,13,-1.137,1.191,4.501,7.922,-8.255,-7.579,-1.557,1.33,182.5,181.7,169.5,177.8,157.8,155.1,159.6,180.8,173.1,178.7,2,norm,1.415,1.484,-1.739,-1.918,-5.179,-4.324,-1.376,-1.52,-1.387,-1.416,1.286,-1.97,185.7,167.2,-4.595,-8.428,175.7,-2.053,7.518,5.029,-4.387,-8.217,26,4.932,5.164,4.991,4.765,1.511,1.781,1.602,1.807,26,5.104,4.493,-10,221.895771872,norm,0,94,94,94,1326.064,1326.069,1326.07132144,1326.072,1326.075,1326.078,down,1,1.08425633133,8.91574366867,001,321,1600_900,Intel(R) Core(TM) i7-2670QM CPU @ 2.20GHz,orientation_search,GRVLAPTOP3,Intel(R) HD Graphics Family,2018_nov_08_1347,testMonitor,
177.3,182.8,172.6,176.3,36,-10,169.7,162.6,158.8,180.6,8.359,7.776,8.007,8.181,7.951,8.387,8.049,4.625,-4.313,-8.006,1.643,-1.271,7.524,4.503,-5.002,-7.66,165.3,169.3,-7.769,173.2,184.3,195.1,192.2,,36,180.5,4,5,prime,10,0,69,norm,36,-5.192,down,norm,175.089991481,184.6,171.0,1.352,183.5,2,184.9,160.1,184.5,10,6,8.104,4.71,1.952,-1.313,-4.947,-7.6,163.1,6,244.1,-8.078,-7.838,-10,-8.477,-8.195,-4.475,-4.504,-4.89,-4.553,5.184,7.786,26,-1.606,1.309,4.527,7.814,-7.538,-7.83,-1.345,1.642,166.9,175.4,169.6,170.0,173.3,175.8,178.4,173.6,163.5,185.4,3,norm,1.555,1.135,-1.986,-1.988,-5.211,-5.206,-1.632,-2.06,-1.501,-1.207,1.283,-1.881,177.2,180.1,-4.969,-8.414,167.1,-1.303,7.762,4.304,-4.796,-8.475,26,4.72,4.4,4.925,4.825,1.331,1.815,2.067,1.368,26,5.27,5.148,-10,221.895771872,norm,0,95,95,95,1327.17,1327.176,1327.17799075,1327.178,1327.181,1327.184,up,0,4.21401288399,-10,001,321,1600_900,Intel(R) Core(TM) i7-2670QM CPU @ 2.20GHz,orientation_search,GRVLAPTOP3,Intel(R) HD Graphics Family,2018_nov_08_1347,testMonitor,
