d_ori_22,d_ori_23,d_ori_20,d_ori_21,set_size,ctpd,d_ori_24,d_ori_25,d_ori_28,d_ori_29,stim_pos_x_30,stim_pos_x_31,stim_pos_x_32,stim_pos_x_33,stim_pos_x_34,stim_pos_x_35,stim_pos_y_11,stim_pos_y_10,stim_pos_y_13,stim_pos_y_12,stim_pos_y_15,stim_pos_y_14,stim_pos_y_17,stim_pos_y_16,stim_pos_y_19,stim_pos_y_18,d_ori_35,d_ori_34,stim_pos_x_3,d_ori_31,d_ori_30,d_ori_33,d_ori_32,d_ori_26,test_set_size,d_ori_27,targetCol,dsd_test,seq_type,dsd,blockRepN,targetDist,dtype_test,prime_set_size,stim_pos_y_25,correctResponse,dtype,distrMean,d_ori_17,d_ori_16,d_ori_15,d_ori_14,targetRow,d_ori_11,d_ori_13,d_ori_12,dsd_prime,streak_length_prime,stim_pos_y_35,stim_pos_y_34,stim_pos_y_33,stim_pos_y_32,stim_pos_y_31,stim_pos_y_30,d_ori_10,nextProbe,targetOri,stim_pos_x_1,stim_pos_x_2,ctpd_prime,stim_pos_x_4,stim_pos_x_5,stim_pos_x_6,stim_pos_x_7,stim_pos_x_8,stim_pos_x_9,stim_pos_y_28,stim_pos_y_29,targetPos,stim_pos_y_20,stim_pos_y_21,stim_pos_y_22,stim_pos_y_23,stim_pos_y_24,stim_pos_x_0,stim_pos_y_26,stim_pos_y_27,d_ori_9,d_ori_8,d_ori_3,d_ori_2,d_ori_1,d_ori_0,d_ori_7,d_ori_6,d_ori_5,d_ori_4,trialN,dtype_prime,stim_pos_x_18,stim_pos_x_19,stim_pos_x_12,stim_pos_x_13,stim_pos_x_10,stim_pos_x_11,stim_pos_x_16,stim_pos_x_17,stim_pos_x_14,stim_pos_x_15,stim_pos_y_9,stim_pos_y_8,d_ori_19,d_ori_18,stim_pos_y_1,stim_pos_y_0,stim_pos_y_3,stim_pos_y_2,stim_pos_y_5,stim_pos_y_4,stim_pos_y_7,stim_pos_y_6,totBlockN,stim_pos_x_27,stim_pos_x_26,stim_pos_x_25,stim_pos_x_24,stim_pos_x_23,stim_pos_x_22,stim_pos_x_21,stim_pos_x_20,blockN,stim_pos_x_29,stim_pos_x_28,prevDistrCTPD,prevDistrMean,prevDistrType,trials.thisRepN,trials.thisTrialN,trials.thisN,trials.thisIndex,timeStart,timeBeforeDraw,timeDraw,timeAfterSaving,timeAfterWritingToTemp,timeAfterPreparingNext,answer,correct,rt,trialScore,session,participant,resolution,cpu_info,expName,pc_name,graphic_card,date,monitorName,
7.4,9.1,-14.2,8.1,36,-40,15.0,3.7,-8.6,-4.8,7.918,8.278,8.123,7.752,7.751,7.796,8.003,4.341,-4.301,-7.619,1.5,-1.704,8.49,5.077,-5.006,-7.898,6.2,16.2,-7.766,13.6,5.4,4.0,10.7,14.4,36,-0.8,0,5,prime,10,0,85,norm,36,-4.415,down,norm,1.86100579842,-4.2,-0.7,-4.1,-13.7,2,12.3,5.6,7.5,10,6,8.143,4.387,2.084,-1.785,-5.089,-8.35,18.0,6,86.9,-7.892,-8.298,-40,-7.634,-8.263,-4.692,-4.912,-5.178,-4.391,4.457,7.734,2,-1.538,1.705,4.724,8.158,-8.236,-8.19,-1.136,1.339,18.2,21.9,-9.4,,10.8,-18.1,12.7,7.4,18.8,-11.8,0,norm,1.163,1.621,-2.077,-2.09,-5.106,-4.976,-1.303,-1.979,-1.917,-1.656,1.993,-1.964,-2.7,4.7,-4.502,-7.682,1.254,-1.379,7.706,5.203,-4.933,-7.701,0,4.568,5.008,5.108,4.33,1.952,1.708,1.592,1.43,0,4.41,4.59,,,,0,0,0,0,1183.696,1183.749,1183.79099285,1183.792,1183.792,1183.799,up,0,1.28969965194,-10,001,322,1366_768,Intel(R) Core(TM) i3-3120M CPU @ 2.50GHz,orientation_search,GHUM-L-P53541,Intel(R) HD Graphics 4000,2018_Nov_08_1354,testMonitor,
-4.9,-0.1,-17.7,1.9,36,-40,-0.9,18.2,,-0.7,8.259,7.562,8.335,8.13,7.517,7.993,7.854,4.71,-4.322,-8.323,1.37,-1.796,7.583,5.234,-5.129,-8.414,7.9,-2.9,-7.78,6.8,0.2,9.0,19.2,21.9,36,7.2,4,5,prime,10,0,66,norm,36,-4.585,up,norm,1.86100579842,-18.1,-11.3,-7.9,12.6,4,-16.3,3.3,0.3,10,6,8.309,5.067,1.166,-1.368,-5.299,-7.512,2.0,6,67.9,-7.701,-8.215,-40,-8.364,-7.913,-4.874,-5.103,-4.665,-5.141,5.162,7.998,28,-1.441,1.221,4.632,7.899,-7.528,-7.762,-1.925,1.216,-2.9,6.0,-17.6,-4.2,-11.9,10.6,-8.1,-3.9,-2.1,-2.3,1,norm,1.826,1.978,-1.576,-1.897,-4.696,-4.698,-1.25,-1.318,-1.117,-1.212,1.133,-1.207,-4.5,-7.4,-4.426,-7.538,1.333,-1.362,8.396,4.958,-4.535,-8.036,0,5.246,4.93,5.1,4.725,1.718,1.233,2.084,1.85,0,4.536,5.009,,,,0,1,1,1,1186.188,1186.201,1186.23379768,1186.234,1186.606,1186.62,down,0,3.29118721519,-10,001,322,1366_768,Intel(R) Core(TM) i3-3120M CPU @ 2.50GHz,orientation_search,GHUM-L-P53541,Intel(R) HD Graphics 4000,2018_Nov_08_1354,testMonitor,
4.5,5.8,8.2,-1.6,36,-40,3.7,11.6,-3.4,17.6,8.101,8.048,8.119,7.932,8.378,8.478,8.271,4.398,-4.332,-7.878,1.992,-1.28,8.179,4.839,-4.433,-8.121,2.4,0.6,-8.08,11.1,0.2,1.4,4.1,-13.0,36,-7.5,0,5,prime,10,0,115,norm,36,-4.308,down,norm,1.86100579842,-18.1,-5.0,-3.1,-14.9,2,10.0,-10.2,8.5,10,6,8.01,5.108,1.41,-1.525,-4.623,-7.83,-0.8,6,116.9,-7.727,-7.973,-40,-8.01,-8.278,-4.874,-4.413,-4.487,-5.022,4.834,7.899,2,-1.666,1.691,4.303,7.74,-8.444,-8.133,-1.529,1.306,3.0,15.2,6.6,,-12.7,2.2,21.9,-5.0,-5.2,6.8,2,norm,2.06,1.277,-1.975,-1.801,-4.836,-5.211,-2.008,-1.9,-1.446,-1.399,1.276,-1.397,8.8,8.7,-5.065,-7.978,1.541,-1.371,7.878,5.249,-4.479,-7.763,0,4.369,4.796,4.373,4.309,1.458,1.441,1.413,1.983,0,4.796,4.727,,,,0,2,2,2,1191.013,1191.031,1191.05918817,1191.06,1191.063,1191.067,down,1,4.32661464304,5.67338535696,001,322,1366_768,Intel(R) Core(TM) i3-3120M CPU @ 2.50GHz,orientation_search,GHUM-L-P53541,Intel(R) HD Graphics 4000,2018_Nov_08_1354,testMonitor,
,6.6,2.0,8.7,36,-40,-0.7,-4.3,-10.9,2.0,7.859,8.48,7.545,7.849,7.687,7.709,8.164,5.225,-5.027,-7.954,1.156,-1.835,7.897,4.335,-5.218,-7.573,-4.3,8.8,-7.807,6.3,5.0,5.7,-0.5,-4.1,36,14.8,3,5,prime,10,0,96,norm,36,-4.49,up,norm,1.86100579842,1.8,1.6,-10.7,2.8,4,21.9,0.9,-3.7,10,6,8.409,5.251,1.447,-1.511,-5.22,-7.606,-5.4,6,97.9,-8.452,-8.062,-40,-8.206,-7.934,-4.358,-5.248,-4.692,-5.194,4.606,7.506,22,-1.592,2.055,4.637,8.469,-8.18,-8.067,-1.79,1.789,4.7,0.9,4.9,5.9,21.0,-7.2,0.3,4.0,20.8,5.2,3,norm,1.409,1.173,-1.587,-1.985,-4.302,-5.074,-1.149,-1.856,-1.709,-1.905,1.399,-1.524,0.9,-7.9,-4.635,-8.354,1.809,-1.344,8.205,4.893,-4.983,-8.272,0,4.337,5.087,4.442,4.395,1.767,1.941,1.665,1.815,0,4.461,4.441,,,,0,3,3,3,1195.456,1195.481,1195.48703108,1195.487,1195.49,1195.494,up,1,5.02567238268,4.97432761732,001,322,1366_768,Intel(R) Core(TM) i3-3120M CPU @ 2.50GHz,orientation_search,GHUM-L-P53541,Intel(R) HD Graphics 4000,2018_Nov_08_1354,testMonitor,
0.8,17.3,7.4,19.3,36,-40,4.5,,-8.7,-5.9,7.55,7.656,8.386,7.791,8.156,7.708,7.788,5.238,-5.172,-7.925,1.651,-1.661,7.573,4.5,-4.306,-8.026,-7.1,-3.9,-8.339,10.2,4.3,1.9,6.4,-18.1,36,14.1,4,5,prime,10,0,110,norm,36,-5.151,down,norm,1.86100579842,-9.7,-15.9,7.6,-17.8,1,21.9,12.7,4.2,10,6,8.332,4.531,1.8,-1.113,-4.33,-8.338,4.5,6,111.9,-8.175,-8.411,-40,-7.682,-7.644,-4.812,-4.813,-4.719,-5.023,4.61,8.08,25,-1.933,1.335,4.947,7.954,-7.919,-7.866,-1.128,1.354,-12.7,19.5,11.6,9.3,-0.8,11.5,8.6,4.5,-5.3,-1.2,4,norm,1.389,1.389,-1.891,-1.228,-4.666,-4.599,-1.407,-1.947,-1.27,-1.743,2.016,-1.169,-11.3,-1.0,-4.889,-7.92,1.615,-1.956,8.357,4.507,-4.865,-7.606,0,4.524,5.18,4.901,4.987,1.837,1.387,1.535,2.031,0,4.78,4.668,,,,0,4,4,4,1200.551,1200.582,1200.61055389,1200.611,1203.944,1203.958,down,1,4.27355630347,5.72644369653,001,322,1366_768,Intel(R) Core(TM) i3-3120M CPU @ 2.50GHz,orientation_search,GHUM-L-P53541,Intel(R) HD Graphics 4000,2018_Nov_08_1354,testMonitor,
-3.4,6.3,-4.9,,36,-40,12.3,13.4,19.5,-3.0,7.543,7.581,7.576,7.889,7.876,8.443,8.11,4.388,-4.469,-7.535,1.742,-1.41,7.682,5.122,-4.928,-7.622,-14.4,-2.7,-8.224,6.2,5.1,12.0,9.7,-4.2,36,9.4,3,5,prime,10,0,84,norm,36,-5.007,up,norm,1.86100579842,-2.0,1.0,8.1,6.8,3,7.0,8.9,10.5,10,6,7.825,5.036,1.923,-1.551,-5.25,-8.418,6.4,6,85.9,-8.405,-8.265,-40,-8.207,-8.19,-5.021,-4.697,-5.205,-4.789,4.799,8.315,21,-1.718,1.108,4.457,8.244,-7.867,-7.546,-1.567,1.805,12.0,-4.3,-3.9,5.6,-9.5,5.2,-18.1,-7.2,-3.0,21.9,5,norm,1.523,1.853,-1.931,-1.187,-4.429,-4.758,-1.899,-1.116,-1.172,-1.127,1.764,-1.944,15.7,18.5,-4.97,-8.015,1.348,-1.996,8.122,5.135,-4.415,-8.269,0,4.443,5.267,4.383,4.528,2.093,1.259,1.959,1.423,0,4.551,4.701,,,,0,5,5,5,1208.25,1208.263,1208.29396263,1208.295,1208.303,1208.312,up,1,1.28792772579,8.71207227421,001,322,1366_768,Intel(R) Core(TM) i3-3120M CPU @ 2.50GHz,orientation_search,GHUM-L-P53541,Intel(R) HD Graphics 4000,2018_Nov_08_1354,testMonitor,
57.1,50.3,61.9,49.6,36,0,64.8,53.3,52.3,50.2,8.054,7.877,7.92,7.788,8.297,8.131,8.371,4.375,-5.209,-8.243,2.01,-1.294,7.805,4.537,-4.381,-8.027,46.3,57.6,-8.461,52.5,62.5,45.7,47.9,55.7,36,55.1,0,5,probe,5,0,95,norm,36,-4.786,up,norm,55.742819128,65.7,49.0,50.0,59.1,5,59.1,55.7,53.7,10,6,8.448,5.103,1.395,-2.056,-4.334,-7.756,53.5,1,-39.3,-7.727,-8.195,-40,-8.135,-7.612,-4.966,-4.722,-4.855,-5.066,4.722,8.339,5,-1.935,1.734,4.752,7.568,-8.273,-7.672,-1.882,1.994,48.9,53.8,54.5,55.2,58.2,58.9,57.4,53.6,,60.1,0,norm,1.123,1.706,-1.877,-1.901,-5.118,-4.666,-1.262,-1.945,-2.042,-1.633,1.738,-1.82,55.1,51.8,-5.012,-7.573,1.692,-1.445,7.582,4.438,-5.206,-8.264,1,4.51,4.586,4.357,4.349,1.614,2.073,1.875,1.982,1,4.741,4.344,-40,1.86100579842,norm,0,6,6,6,1209.67,1209.689,1209.71538477,1209.716,1209.718,1209.722,up,1,1.29714650856,8.70285349144,001,322,1366_768,Intel(R) Core(TM) i3-3120M CPU @ 2.50GHz,orientation_search,GHUM-L-P53541,Intel(R) HD Graphics 4000,2018_Nov_08_1354,testMonitor,
188.5,203.1,198.0,197.3,36,40,196.9,198.1,201.9,193.3,7.815,7.52,8.197,8.01,8.182,7.926,8.431,4.541,-5.18,-8.421,2.076,-1.666,7.827,5.27,-4.731,-8.0,193.4,218.5,-7.55,182.4,195.1,203.3,212.9,193.5,36,215.5,1,5,prime,10,0,72,norm,36,-5.052,up,norm,202.360288821,191.7,186.2,197.6,222.4,4,184.9,217.0,203.5,10,6,7.882,5.125,1.725,-1.72,-4.504,-7.606,,6,274.4,-8.423,-8.395,40,-7.669,-8.427,-4.875,-5.183,-5.221,-4.886,4.508,8.145,10,-1.187,1.505,5.177,8.3,-8.217,-7.956,-1.952,1.773,209.4,205.7,190.8,190.9,195.3,220.3,205.0,184.3,191.0,191.3,0,norm,1.28,1.271,-2.096,-2.061,-4.432,-4.387,-1.374,-1.514,-1.714,-1.114,1.704,-1.511,201.8,194.5,-4.704,-8.379,1.381,-1.281,8.009,4.818,-4.669,-7.807,2,4.392,4.647,5.17,4.561,1.21,1.858,1.441,1.866,2,4.679,4.427,0,1.86100579842,norm,0,7,7,7,1211.082,1211.11,1211.14113071,1211.141,1211.145,1211.15,up,1,1.46337717946,8.53662282054,001,322,1366_768,Intel(R) Core(TM) i3-3120M CPU @ 2.50GHz,orientation_search,GHUM-L-P53541,Intel(R) HD Graphics 4000,2018_Nov_08_1354,testMonitor,
204.6,198.3,191.9,212.9,36,40,200.0,215.6,214.7,215.1,8.351,8.258,8.142,8.096,8.483,7.79,8.386,4.427,-4.924,-8.316,1.866,-1.223,7.944,4.314,-4.969,-8.126,182.4,203.6,-8.387,201.3,210.4,197.9,205.5,195.2,36,209.4,1,5,prime,10,0,63,norm,36,-4.787,up,norm,202.360288821,208.8,211.1,207.3,206.3,3,207.8,222.4,191.7,10,6,8.163,4.739,2.07,-1.11,-5.16,-8.007,198.0,6,265.4,-8.139,-8.058,40,-8.351,-8.463,-4.985,-4.325,-4.803,-4.521,4.544,8.493,9,-2.05,1.837,4.304,7.784,-7.734,-8.191,-1.521,1.242,,190.9,193.3,207.4,201.6,187.1,197.0,202.0,192.0,208.5,1,norm,1.906,1.533,-1.866,-1.678,-4.324,-5.001,-1.484,-1.116,-1.824,-1.868,1.942,-2.018,193.3,208.8,-5.205,-7.859,1.957,-1.168,7.741,5.213,-4.893,-8.31,2,4.373,5.294,4.98,5.12,1.379,1.178,1.353,1.802,2,4.625,5.012,0,1.86100579842,norm,0,8,8,8,1212.645,1212.671,1212.70414751,1212.705,1212.711,1212.719,up,1,4.08255770471,5.91744229529,001,322,1366_768,Intel(R) Core(TM) i3-3120M CPU @ 2.50GHz,orientation_search,GHUM-L-P53541,Intel(R) HD Graphics 4000,2018_Nov_08_1354,testMonitor,
217.9,210.3,205.0,197.3,36,40,214.4,201.9,202.8,211.8,7.942,8.275,8.174,7.641,7.525,8.297,7.855,4.8,-4.708,-7.892,1.55,-1.706,7.733,4.741,-4.444,-7.535,213.7,210.7,-8.192,215.0,184.7,208.6,,222.4,36,210.1,5,5,prime,10,0,69,norm,36,-4.97,down,norm,202.360288821,201.0,211.3,207.9,211.3,2,219.0,209.8,206.1,10,6,7.651,4.344,2.073,-1.38,-4.644,-8.354,217.2,6,271.4,-8.074,-8.345,40,-8.134,-7.988,-5.167,-4.745,-5.132,-4.883,4.489,8.389,32,-1.585,2.093,5.159,8.095,-8.0,-8.206,-1.378,1.932,203.8,182.4,201.8,198.2,200.4,207.6,212.2,203.6,190.7,216.4,2,norm,1.631,1.484,-1.889,-1.636,-4.699,-5.224,-1.825,-1.669,-2.002,-1.64,1.69,-1.783,195.1,190.7,-4.758,-8.092,1.859,-1.204,8.226,4.986,-4.708,-8.186,2,4.668,5.053,5.273,5.273,1.686,1.368,1.744,1.768,2,4.953,5.256,0,1.86100579842,norm,0,9,9,9,1216.864,1216.884,1216.90421079,1216.905,1216.907,1216.911,down,1,1.99656463298,8.00343536702,001,322,1366_768,Intel(R) Core(TM) i3-3120M CPU @ 2.50GHz,orientation_search,GHUM-L-P53541,Intel(R) HD Graphics 4000,2018_Nov_08_1354,testMonitor,
194.8,191.6,217.1,207.0,36,40,219.5,,206.9,217.1,8.029,7.737,7.734,8.106,7.912,8.365,8.163,4.665,-5.067,-7.963,1.968,-1.583,7.642,4.305,-4.684,-8.151,188.8,202.5,-8.216,207.2,182.4,209.7,201.0,191.3,36,193.6,4,5,prime,10,0,79,norm,36,-4.772,down,norm,202.360288821,196.4,197.8,202.0,190.6,1,192.8,195.3,208.9,10,6,7.792,4.484,1.576,-1.674,-5.054,-8.153,211.0,6,281.4,-8.19,-8.495,40,-7.983,-7.724,-4.704,-5.257,-4.301,-4.594,4.331,7.813,25,-2.048,1.507,4.903,8.355,-7.629,-7.605,-1.925,1.948,202.3,187.6,215.3,193.4,191.4,196.6,207.5,206.9,198.3,222.4,3,norm,1.742,1.797,-1.221,-1.951,-5.209,-4.353,-1.496,-1.291,-1.728,-1.975,1.458,-1.425,212.6,213.5,-5.054,-7.714,1.207,-1.804,7.67,4.436,-4.308,-7.837,2,5.063,4.763,4.578,5.108,1.453,1.53,1.242,1.51,2,4.577,4.423,0,1.86100579842,norm,0,10,10,10,1218.939,1218.959,1218.9826966,1218.983,1218.989,1218.997,down,1,1.62862572991,8.37137427009,001,322,1366_768,Intel(R) Core(TM) i3-3120M CPU @ 2.50GHz,orientation_search,GHUM-L-P53541,Intel(R) HD Graphics 4000,2018_Nov_08_1354,testMonitor,
196.8,201.4,206.8,200.8,36,40,,196.6,182.4,185.6,8.284,7.808,8.334,7.547,8.39,8.497,7.761,4.749,-5.171,-7.633,1.926,-1.379,8.384,4.315,-4.301,-8.329,204.4,184.9,-7.73,193.7,204.4,186.2,222.4,189.6,36,205.3,4,5,prime,10,0,96,norm,36,-4.855,down,norm,202.360288821,202.0,218.1,191.6,220.7,0,204.7,209.7,201.0,10,6,8.254,5.06,1.687,-1.149,-4.411,-7.743,199.3,6,298.4,-8.197,-7.749,40,-7.947,-7.689,-4.86,-5.176,-5.007,-5.059,4.83,7.623,24,-1.836,1.788,5.203,7.552,-7.722,-8.051,-1.846,1.383,190.1,200.8,193.3,199.4,211.7,197.8,208.6,205.5,206.0,209.3,4,norm,2.079,1.703,-1.388,-1.917,-4.899,-4.904,-1.741,-1.874,-1.64,-1.27,1.118,-1.988,199.3,214.4,-4.324,-7.648,2.072,-1.263,8.019,4.357,-5.281,-7.721,2,4.834,4.892,5.187,4.697,1.518,1.825,1.315,1.485,2,4.715,5.104,0,1.86100579842,norm,0,11,11,11,1220.658,1220.686,1220.71731532,1220.718,1220.723,1220.73,down,1,0.942130913783,9.05786908622,001,322,1366_768,Intel(R) Core(TM) i3-3120M CPU @ 2.50GHz,orientation_search,GHUM-L-P53541,Intel(R) HD Graphics 4000,2018_Nov_08_1354,testMonitor,
211.5,199.9,203.9,195.9,36,40,194.0,210.5,208.2,202.8,7.821,7.512,7.505,8.351,7.651,7.66,7.708,5.016,-4.45,-7.728,1.205,-1.498,7.801,4.725,-4.975,-7.991,220.2,185.4,-8.209,216.9,,192.9,215.1,217.1,36,203.0,5,5,prime,10,0,119,norm,36,-5.27,down,norm,202.360288821,206.9,205.9,186.4,194.2,0,200.1,206.7,206.2,10,6,7.538,4.496,2.047,-1.178,-4.338,-8.472,201.6,6,321.4,-8.247,-7.926,40,-7.718,-8.173,-5.174,-4.422,-4.727,-4.885,5.236,7.85,30,-1.476,1.587,4.384,7.868,-8.48,-7.918,-1.535,2.085,201.7,222.4,205.6,203.9,200.2,220.5,207.7,187.3,194.7,182.4,5,norm,1.526,1.156,-1.613,-1.155,-4.844,-4.521,-1.641,-1.699,-1.777,-1.809,1.166,-1.275,184.4,207.7,-4.768,-8.251,1.694,-1.49,8.428,4.608,-4.844,-8.162,2,4.454,4.357,4.765,4.973,1.948,2.03,2.024,1.851,2,4.517,5.118,0,1.86100579842,norm,0,12,12,12,1221.705,1221.725,1221.74821554,1221.749,1221.751,1221.755,up,0,2.1215869259,-10,001,322,1366_768,Intel(R) Core(TM) i3-3120M CPU @ 2.50GHz,orientation_search,GHUM-L-P53541,Intel(R) HD Graphics 4000,2018_Nov_08_1354,testMonitor,
339.2,334.0,336.7,337.6,36,40,349.9,341.7,335.5,347.2,8.287,8.228,8.142,8.208,7.913,8.072,8.005,4.884,-4.362,-7.514,1.29,-1.307,8.33,4.36,-5.299,-7.77,336.5,338.2,-8.468,332.1,341.4,329.9,335.1,336.7,36,341.2,0,5,probe,5,0,95,norm,36,-4.473,down,norm,339.946607601,336.4,331.5,347.6,332.5,1,335.1,335.2,330.9,10,6,7.662,5.099,1.557,-1.656,-5.112,-7.84,340.9,1,244.9,-8.337,-7.861,40,-8.324,-8.486,-4.821,-5.041,-4.936,-4.508,5.104,7.889,1,-1.568,1.646,4.394,7.976,-8.488,-7.935,-1.619,2.03,332.0,332.5,332.5,338.7,,339.4,338.7,338.7,345.0,342.7,0,norm,2.056,1.65,-2.057,-1.184,-5.149,-4.939,-1.123,-1.386,-1.563,-1.731,1.34,-1.196,335.5,335.4,-5.13,-7.786,1.222,-1.313,8.076,5.291,-5.153,-7.982,3,5.233,4.653,5.114,4.776,1.42,2.056,1.776,2.05,3,4.908,4.977,40,202.360288821,norm,0,13,13,13,1224.978,1224.991,1225.02420372,1225.025,1225.028,1225.032,down,1,2.31229664147,7.68770335853,001,322,1366_768,Intel(R) Core(TM) i3-3120M CPU @ 2.50GHz,orientation_search,GHUM-L-P53541,Intel(R) HD Graphics 4000,2018_Nov_08_1354,testMonitor,
56.8,60.5,62.3,51.7,36,80,72.2,63.3,44.7,53.2,8.032,7.823,7.627,8.385,8.439,8.068,7.604,4.616,-5.027,-8.277,1.286,-1.814,8.444,5.249,-4.806,-8.249,52.6,64.2,-7.723,62.1,58.1,77.2,65.2,52.1,36,76.5,0,5,prime,10,0,106,norm,36,-4.833,down,norm,57.2361628373,73.6,59.0,49.5,55.9,2,55.5,37.2,65.9,10,6,7.835,4.357,1.587,-2.085,-4.532,-7.867,44.1,6,163.2,-8.411,-7.981,80,-7.738,-7.735,-4.576,-4.827,-4.813,-4.526,4.901,8.14,2,-1.61,1.102,4.8,8.303,-8.311,-7.995,-1.94,1.263,61.5,55.0,64.5,,70.1,69.8,61.8,43.3,67.6,59.0,0,norm,1.178,1.972,-1.82,-1.629,-5.199,-5.245,-1.568,-1.424,-1.823,-1.114,1.616,-1.779,54.0,55.3,-4.701,-7.547,1.757,-1.791,7.828,4.646,-5.297,-8.164,4,4.406,4.309,4.713,5.222,2.079,1.973,1.966,2.057,4,4.608,4.874,40,202.360288821,norm,0,14,14,14,1227.385,1227.41,1227.43061791,1227.431,1227.435,1227.439,down,1,1.76169894513,8.23830105487,001,322,1366_768,Intel(R) Core(TM) i3-3120M CPU @ 2.50GHz,orientation_search,GHUM-L-P53541,Intel(R) HD Graphics 4000,2018_Nov_08_1354,testMonitor,
60.1,66.6,50.5,47.5,36,80,46.7,56.8,52.4,55.5,7.67,7.659,7.894,7.999,8.122,7.971,7.934,4.709,-4.816,-7.957,1.7,-1.207,8.014,5.278,-4.334,-8.092,63.7,56.5,-7.666,42.2,46.7,45.4,59.3,65.3,36,62.9,3,5,prime,10,0,118,norm,36,-4.879,down,norm,57.2361628373,60.3,49.1,58.1,77.2,1,39.9,62.0,60.9,10,6,7.595,4.756,1.289,-2.077,-4.569,-8.13,62.9,6,175.2,-7.755,-8.112,80,-8.209,-8.14,-4.97,-5.021,-4.48,-4.345,4.463,8.185,19,-1.104,1.511,4.908,8.338,-7.857,-7.652,-1.542,1.712,37.2,59.3,58.2,45.5,62.6,42.2,47.7,61.2,64.5,70.4,1,norm,2.037,1.829,-1.709,-1.536,-4.503,-4.581,-1.401,-1.649,-1.618,-1.193,1.932,-1.272,,57.2,-4.981,-8.151,2.044,-1.922,7.897,4.475,-5.234,-8.185,4,4.334,5.295,5.003,4.915,1.744,1.147,1.532,1.621,4,4.431,4.496,40,202.360288821,norm,0,15,15,15,1229.262,1229.281,1229.32330338,1229.324,1229.329,1229.336,down,1,1.28637811227,8.71362188773,001,322,1366_768,Intel(R) Core(TM) i3-3120M CPU @ 2.50GHz,orientation_search,GHUM-L-P53541,Intel(R) HD Graphics 4000,2018_Nov_08_1354,testMonitor,
66.4,76.5,49.0,47.9,36,80,64.8,64.6,58.1,52.9,8.101,8.484,7.712,8.27,8.182,8.137,8.363,4.315,-4.965,-7.709,1.275,-1.394,7.548,5.07,-4.466,-7.659,52.9,62.6,-8.492,63.9,,50.4,52.3,66.9,36,56.1,5,5,prime,10,0,103,norm,36,-4.602,down,norm,57.2361628373,62.0,54.8,54.0,62.7,0,77.2,56.3,66.7,10,6,8.325,4.497,1.918,-1.104,-4.664,-7.9,59.2,6,160.2,-8.071,-8.084,80,-8.44,-7.603,-4.834,-4.829,-4.784,-4.716,4.975,8.294,30,-1.759,1.53,4.585,7.794,-8.246,-7.645,-1.397,1.577,61.0,49.6,53.7,59.0,61.6,60.4,53.9,59.2,60.5,37.2,2,norm,1.1,1.372,-1.209,-1.407,-4.517,-4.601,-1.369,-2.096,-2.0,-1.315,1.237,-1.172,61.3,42.9,-5.233,-8.435,1.829,-1.844,8.48,4.597,-4.862,-8.172,4,4.764,4.974,4.578,4.954,1.318,2.074,1.604,1.313,4,5.122,5.237,40,202.360288821,norm,0,16,16,16,1230.684,1230.712,1230.74521535,1230.746,1230.751,1230.758,down,1,1.28558008801,8.71441991199,001,322,1366_768,Intel(R) Core(TM) i3-3120M CPU @ 2.50GHz,orientation_search,GHUM-L-P53541,Intel(R) HD Graphics 4000,2018_Nov_08_1354,testMonitor,
51.9,50.6,67.3,52.0,36,80,47.4,48.1,56.6,64.2,8.298,7.89,7.539,7.761,7.716,7.718,8.105,4.462,-4.598,-7.721,1.241,-1.806,7.998,4.436,-4.592,-8.339,55.3,58.7,-7.93,52.9,49.4,64.7,75.1,50.0,36,77.2,2,5,prime,10,0,79,norm,36,-4.468,up,norm,57.2361628373,70.3,,57.0,52.1,4,60.9,63.0,54.7,10,6,7.504,5.283,1.505,-1.605,-5.298,-7.893,69.7,6,136.2,-8.244,-8.296,80,-7.849,-7.777,-5.11,-4.76,-4.775,-4.785,4.919,8.365,16,-2.066,1.101,5.102,8.124,-8.488,-7.526,-1.328,1.99,55.2,56.0,50.8,65.5,48.3,37.2,43.6,56.4,62.0,56.7,3,norm,2.097,1.612,-1.827,-2.014,-4.417,-4.92,-1.397,-1.564,-1.802,-1.174,1.488,-1.728,60.5,61.0,-4.501,-7.644,1.876,-1.739,8.108,4.963,-4.624,-8.217,4,4.63,4.602,4.958,5.251,1.741,1.742,1.67,1.12,4,4.389,5.144,40,202.360288821,norm,0,17,17,17,1232.089,1232.107,1232.13513402,1232.135,1232.139,1232.144,up,1,1.15092643959,8.84907356041,001,322,1366_768,Intel(R) Core(TM) i3-3120M CPU @ 2.50GHz,orientation_search,GHUM-L-P53541,Intel(R) HD Graphics 4000,2018_Nov_08_1354,testMonitor,
49.9,65.0,45.9,39.7,36,80,43.2,66.5,68.3,57.8,7.601,7.511,8.414,7.899,7.601,7.651,8.009,4.781,-4.404,-7.824,1.725,-1.923,7.522,4.663,-4.485,-7.673,65.4,65.0,-7.691,58.0,66.4,51.4,67.6,50.6,36,71.0,1,5,prime,10,0,79,norm,36,-4.326,down,norm,57.2361628373,77.2,58.0,58.0,49.4,2,56.6,52.7,66.9,10,6,7.518,4.379,1.331,-1.579,-4.909,-8.111,39.2,6,136.2,-8.032,-8.386,80,-8.038,-8.341,-4.961,-4.598,-4.762,-5.003,4.754,8.37,8,-1.873,2.014,4.9,7.72,-8.151,-8.228,-1.639,1.611,50.3,,46.5,65.2,66.3,59.5,37.2,51.9,59.5,46.2,4,norm,1.173,1.838,-1.63,-1.953,-4.543,-4.518,-1.361,-1.232,-1.663,-1.35,1.382,-1.632,49.1,61.3,-4.492,-8.232,1.307,-1.597,8.054,5.22,-5.082,-8.136,4,4.785,5.203,4.858,4.959,1.781,1.538,1.208,1.872,4,4.935,5.186,40,202.360288821,norm,0,18,18,18,1233.326,1233.338,1233.36964631,1233.37,1233.373,1233.377,down,1,1.92750923563,8.07249076437,001,322,1366_768,Intel(R) Core(TM) i3-3120M CPU @ 2.50GHz,orientation_search,GHUM-L-P53541,Intel(R) HD Graphics 4000,2018_Nov_08_1354,testMonitor,
46.7,57.7,53.7,,36,80,46.6,56.4,57.8,37.2,7.998,8.181,8.371,7.733,7.9,8.476,7.776,4.71,-4.323,-7.624,1.619,-1.508,7.648,4.835,-4.591,-7.789,77.2,61.0,-8.131,54.9,60.0,60.7,52.5,56.9,36,44.4,3,5,prime,10,0,82,norm,36,-4.721,up,norm,57.2361628373,51.7,53.1,57.4,41.5,3,59.4,56.9,58.7,10,6,7.656,4.642,1.107,-1.871,-4.843,-8.137,55.4,6,139.2,-7.566,-7.897,80,-8.135,-7.711,-5.115,-4.556,-5.1,-5.103,4.306,8.366,21,-1.148,1.504,5.005,7.66,-7.632,-8.405,-1.424,1.347,56.9,63.8,62.5,55.5,51.7,51.6,55.8,48.8,53.3,44.8,5,norm,1.961,1.122,-1.809,-1.183,-4.612,-4.551,-1.598,-1.631,-1.871,-1.177,1.378,-1.686,68.5,61.4,-5.219,-7.549,1.671,-1.856,8.375,4.577,-4.514,-8.057,4,4.842,4.708,5.195,4.739,1.139,1.688,1.838,1.491,4,5.074,4.973,40,202.360288821,norm,0,19,19,19,1235.352,1235.381,1235.4116934,1235.412,1235.415,1235.42,up,1,0.711232746107,9.28876725389,001,322,1366_768,Intel(R) Core(TM) i3-3120M CPU @ 2.50GHz,orientation_search,GHUM-L-P53541,Intel(R) HD Graphics 4000,2018_Nov_08_1354,testMonitor,
205.8,218.0,210.6,213.6,36,30,214.9,,221.9,207.7,8.089,8.492,7.823,8.157,8.03,8.348,8.313,5.127,-5.027,-7.582,1.947,-1.72,8.269,4.602,-4.661,-7.998,218.1,207.1,-7.945,204.9,206.8,214.8,214.3,211.6,36,215.6,4,5,probe,5,0,71,norm,36,-5.216,down,norm,214.888733678,216.3,210.8,209.1,218.8,1,205.4,222.5,218.0,10,6,8.188,4.412,1.366,-1.285,-4.92,-8.406,215.9,2,143.9,-8.426,-8.028,80,-8.437,-7.75,-4.59,-4.99,-4.847,-4.397,5.22,7.536,25,-1.817,1.157,4.707,7.651,-8.12,-7.723,-1.755,1.703,205.9,214.6,213.0,215.4,215.9,213.6,216.5,224.9,213.1,218.1,0,norm,1.562,1.534,-1.631,-1.825,-5.128,-4.816,-1.333,-1.426,-1.522,-1.206,2.009,-1.295,209.8,219.4,-4.602,-7.7,1.481,-1.827,7.855,5.079,-4.31,-7.546,5,4.436,4.375,5.17,4.957,1.473,1.727,1.942,1.397,5,4.363,5.095,80,57.2361628373,norm,0,20,20,20,1236.178,1236.195,1236.22424523,1236.225,1236.229,1236.234,down,1,0.983983628568,9.01601637143,001,322,1366_768,Intel(R) Core(TM) i3-3120M CPU @ 2.50GHz,orientation_search,GHUM-L-P53541,Intel(R) HD Graphics 4000,2018_Nov_08_1354,testMonitor,
262.0,252.4,255.2,247.9,36,30,259.3,256.7,258.5,259.3,7.629,7.835,7.567,8.243,7.503,7.563,8.287,5.26,-4.8,-8.069,1.312,-2.09,8.364,5.021,-5.146,-7.55,260.3,250.6,-7.988,250.0,258.3,256.4,261.3,261.0,36,256.9,2,5,probe,5,0,114,norm,36,-4.55,down,norm,257.888733678,260.6,257.3,259.4,,2,256.8,251.0,261.7,10,6,7.973,5.114,1.38,-1.778,-4.537,-7.879,255.5,2,143.9,-8.199,-8.332,80,-8.464,-8.037,-4.966,-5.222,-5.082,-4.858,4.874,7.622,14,-1.434,1.129,4.951,7.76,-7.547,-8.297,-1.26,1.512,267.9,259.7,254.5,249.3,262.1,265.1,257.8,255.7,252.7,257.0,1,norm,1.585,1.605,-1.297,-1.545,-4.654,-4.606,-1.286,-1.191,-1.71,-2.076,1.792,-1.655,258.2,256.1,-5.284,-8.22,1.46,-1.984,7.863,4.373,-5.027,-7.843,5,4.816,4.515,4.879,4.387,1.247,1.397,1.976,2.06,5,4.571,4.719,80,57.2361628373,norm,0,21,21,21,1237.249,1237.262,1237.29333268,1237.294,1237.296,1237.3,down,1,0.919538855407,9.08046114459,001,322,1366_768,Intel(R) Core(TM) i3-3120M CPU @ 2.50GHz,orientation_search,GHUM-L-P53541,Intel(R) HD Graphics 4000,2018_Nov_08_1354,testMonitor,
5.5,21.5,-10.0,-10.8,36,-40,11.7,4.0,10.0,7.3,8.418,8.305,8.303,8.297,7.777,8.457,7.501,4.362,-4.661,-7.816,1.817,-1.408,8.184,4.758,-4.565,-7.566,5.0,11.3,-8.037,4.4,-9.2,7.2,7.2,9.8,36,5.8,1,5,prime,10,0,83,norm,36,-4.628,up,norm,1.46014688677,2.0,-6.7,-1.6,0.3,4,4.3,5.2,-18.5,10,5,8.123,4.755,1.271,-2.02,-4.755,-8.229,,5,84.5,-8.065,-7.698,-40,-8.112,-7.824,-4.681,-5.281,-4.932,-4.862,5.212,7.662,10,-1.589,1.159,4.608,7.747,-8.285,-7.916,-1.416,1.354,-5.4,7.8,-4.9,-9.3,-3.8,-10.3,8.4,-0.2,6.6,7.7,0,norm,1.59,1.775,-1.153,-1.29,-5.178,-4.735,-1.241,-1.822,-1.274,-1.194,2.066,-1.602,-0.7,1.8,-4.703,-8.044,1.354,-1.125,7.935,5.253,-5.027,-8.165,6,4.896,4.662,4.438,4.723,2.035,1.218,1.866,1.278,6,4.549,4.608,30,57.2361628373,norm,0,22,22,22,1238.281,1238.303,1238.32649547,1238.327,1238.332,1238.34,up,1,1.50460240559,8.49539759441,001,322,1366_768,Intel(R) Core(TM) i3-3120M CPU @ 2.50GHz,orientation_search,GHUM-L-P53541,Intel(R) HD Graphics 4000,2018_Nov_08_1354,testMonitor,
-0.1,4.7,-5.1,3.4,36,-40,5.0,7.7,0.9,,7.556,8.069,7.71,7.804,8.008,8.1,8.152,4.592,-4.964,-7.863,1.539,-1.27,7.771,4.564,-4.566,-7.764,3.7,-4.0,-7.834,1.4,-2.9,15.7,-6.1,5.8,36,4.3,4,5,prime,10,0,64,norm,36,-4.517,up,norm,1.46014688677,1.1,12.5,-4.3,9.2,5,-1.6,9.9,-3.3,10,5,8.087,4.384,1.442,-1.865,-4.659,-7.718,10.2,5,65.5,-8.419,-7.593,-40,-8.14,-8.3,-5.048,-5.166,-4.642,-5.249,4.327,8.236,29,-1.622,1.95,4.34,7.799,-8.185,-8.108,-1.233,1.548,4.9,17.9,-4.5,-5.4,11.8,-7.4,13.9,-0.6,5.6,-2.3,1,norm,1.509,2.014,-1.36,-1.937,-4.326,-5.169,-1.566,-1.934,-2.052,-1.954,1.311,-1.712,21.5,-18.5,-4.859,-7.948,1.27,-1.58,7.823,4.982,-5.203,-8.271,6,4.314,4.652,4.393,5.258,1.741,1.665,2.07,1.119,6,4.992,4.994,30,57.2361628373,norm,0,23,23,23,1239.906,1239.933,1239.96719677,1239.968,1239.973,1239.98,up,1,1.72439192771,8.27560807229,001,322,1366_768,Intel(R) Core(TM) i3-3120M CPU @ 2.50GHz,orientation_search,GHUM-L-P53541,Intel(R) HD Graphics 4000,2018_Nov_08_1354,testMonitor,
7.0,18.3,,13.9,36,-40,-18.5,-15.3,0.6,20.6,8.282,7.615,7.859,8.087,8.117,8.066,8.019,4.988,-4.919,-8.323,1.711,-1.612,8.487,4.701,-5.277,-7.591,-4.8,3.5,-7.677,-4.9,1.1,-1.1,11.2,14.3,36,-2.8,3,5,prime,10,0,92,norm,36,-5.117,down,norm,1.46014688677,2.1,-10.6,21.5,10.7,2,19.8,-0.3,0.8,10,5,7.643,4.642,1.41,-1.205,-4.754,-8.139,3.6,5,93.5,-7.685,-7.507,-40,-8.331,-7.846,-4.968,-4.541,-4.443,-4.311,4.327,7.679,20,-1.917,1.401,4.358,7.753,-7.832,-8.263,-1.856,2.039,-5.8,-4.3,12.4,8.0,-1.0,0.3,14.2,-4.9,7.6,0.9,2,norm,1.336,2.088,-1.573,-1.871,-4.365,-4.605,-1.262,-1.513,-1.227,-1.445,1.632,-1.757,11.6,-6.1,-5.007,-8.137,1.522,-1.727,8.044,5.156,-4.395,-7.908,6,4.52,4.397,4.862,4.591,1.92,1.885,1.795,1.372,6,4.599,5.194,30,57.2361628373,norm,0,24,24,24,1241.767,1241.794,1241.82805207,1241.829,1241.834,1241.841,down,1,4.28594828048,5.71405171952,001,322,1366_768,Intel(R) Core(TM) i3-3120M CPU @ 2.50GHz,orientation_search,GHUM-L-P53541,Intel(R) HD Graphics 4000,2018_Nov_08_1354,testMonitor,
3.9,9.3,-11.4,9.7,36,-40,-8.6,,-18.5,6.8,8.345,7.521,7.659,8.281,8.351,8.019,7.594,5.282,-4.504,-7.859,2.0,-1.815,7.576,4.598,-5.205,-8.135,-7.8,11.5,-8.281,-6.6,16.3,0.7,0.0,1.6,36,4.4,4,5,prime,10,0,116,norm,36,-4.335,down,norm,1.46014688677,-1.9,-7.6,-2.4,-11.0,1,0.1,-4.2,20.9,10,5,7.774,5.198,1.336,-2.058,-4.859,-7.672,-3.1,5,117.5,-8.225,-8.186,-40,-8.245,-8.424,-5.28,-5.094,-4.9,-4.58,4.579,7.575,25,-1.632,1.106,4.752,7.938,-8.351,-7.736,-1.44,1.493,8.4,-6.4,0.3,-2.2,11.8,7.0,-10.3,21.5,7.7,-1.4,3,norm,1.242,2.018,-2.005,-1.279,-4.387,-4.412,-1.54,-1.252,-1.96,-1.349,1.514,-1.587,-14.6,14.0,-4.85,-7.856,1.693,-1.661,7.871,4.668,-5.097,-8.445,6,5.034,4.729,5.21,4.942,1.179,1.468,1.469,1.815,6,5.268,4.748,30,57.2361628373,norm,0,25,25,25,1246.189,1246.216,1246.25013746,1246.251,1246.256,1246.263,down,1,2.55282000074,7.44717999926,001,322,1366_768,Intel(R) Core(TM) i3-3120M CPU @ 2.50GHz,orientation_search,GHUM-L-P53541,Intel(R) HD Graphics 4000,2018_Nov_08_1354,testMonitor,
,3.7,-9.2,-4.7,36,-40,14.5,5.7,4.1,0.8,8.414,7.965,8.188,7.548,7.998,7.613,8.194,4.632,-4.757,-8.147,1.117,-1.538,7.882,4.833,-4.828,-7.827,3.6,-3.9,-8.467,-13.6,6.4,-8.9,3.9,1.0,36,10.9,3,5,prime,10,0,101,norm,36,-4.896,up,norm,1.46014688677,21.5,-9.5,-9.9,0.5,4,-11.2,5.3,-3.6,10,5,7.919,4.815,2.082,-1.249,-4.518,-8.357,-10.3,5,102.5,-7.852,-8.209,-40,-8.446,-8.425,-5.037,-4.501,-4.571,-4.545,4.681,8.48,22,-1.922,2.078,4.335,7.85,-8.126,-7.599,-1.3,1.301,16.8,-3.6,-4.1,-2.2,14.8,-3.1,-3.2,-2.2,-3.8,-15.6,4,norm,1.599,1.707,-1.72,-1.135,-4.688,-5.124,-1.279,-2.077,-2.066,-1.543,1.449,-1.174,-18.5,18.8,-4.535,-8.17,2.027,-1.931,7.728,4.393,-4.964,-8.011,6,4.836,5.2,4.396,4.324,1.826,1.854,1.725,1.691,6,4.934,4.579,30,57.2361628373,norm,0,26,26,26,1248.862,1248.886,1248.90726071,1248.908,1248.912,1248.919,up,1,1.00719906637,8.99280093363,001,322,1366_768,Intel(R) Core(TM) i3-3120M CPU @ 2.50GHz,orientation_search,GHUM-L-P53541,Intel(R) HD Graphics 4000,2018_Nov_08_1354,testMonitor,
21.5,22.5,16.8,22.3,36,20,22.4,16.5,17.4,17.4,8.282,7.977,8.082,7.727,7.94,7.919,8.268,4.609,-4.577,-7.701,1.345,-2.058,8.319,5.068,-4.449,-7.573,21.8,10.6,-7.633,23.8,22.2,25.5,24.1,27.1,36,22.3,0,5,probe,5,0,60,norm,36,-4.693,down,norm,20.6152713435,18.2,17.2,23.4,15.2,1,13.8,13.8,21.3,10,5,8.236,5.274,1.122,-1.768,-4.883,-8.268,18.4,1,-39.4,-8.45,-7.511,-40,-7.677,-8.352,-5.163,-4.497,-4.826,-4.338,4.518,8.257,1,-1.365,1.649,4.939,7.72,-8.33,-7.662,-1.823,1.303,21.1,21.2,30.6,28.7,,17.3,13.7,24.7,21.3,23.2,0,norm,1.198,1.502,-1.573,-1.48,-4.58,-4.983,-1.702,-2.04,-1.149,-1.843,1.108,-1.204,20.3,23.2,-4.93,-7.512,1.546,-1.363,8.396,4.886,-4.595,-8.426,7,4.973,5.241,4.843,4.956,1.872,1.903,1.235,2.078,7,4.964,5.21,-40,1.46014688677,norm,0,27,27,27,1249.971,1249.984,1250.01661592,1250.017,1250.02,1250.025,down,1,1.33856487132,8.66143512868,001,322,1366_768,Intel(R) Core(TM) i3-3120M CPU @ 2.50GHz,orientation_search,GHUM-L-P53541,Intel(R) HD Graphics 4000,2018_Nov_08_1354,testMonitor,
345.1,351.0,345.2,344.0,36,10,330.9,325.3,328.6,341.7,8.285,8.113,8.086,8.376,7.783,7.699,7.63,4.937,-4.892,-8.325,1.577,-1.819,8.312,4.367,-4.938,-8.218,330.7,323.8,-8.031,338.3,343.3,351.5,316.1,332.9,36,338.8,2,5,prime,10,0,66,norm,36,-5.169,up,norm,332.715866573,,339.7,331.1,324.1,5,312.7,334.0,342.3,10,5,7.948,4.802,1.758,-1.807,-4.432,-7.506,334.7,5,398.7,-8.45,-8.43,10,-8.058,-8.29,-5.062,-4.407,-4.932,-4.678,4.891,7.505,17,-1.999,1.291,5.009,7.928,-7.551,-8.035,-1.477,1.691,326.0,331.7,330.1,352.7,320.5,335.4,337.1,344.5,322.4,343.0,0,norm,1.698,1.518,-1.671,-1.288,-4.418,-4.886,-1.85,-1.639,-1.281,-1.385,1.718,-1.304,333.7,342.8,-4.627,-7.977,1.788,-1.556,7.76,4.593,-5.252,-8.446,8,4.321,4.774,5.215,4.569,1.221,1.576,1.738,1.245,8,5.107,5.047,20,1.46014688677,norm,0,28,28,28,1251.425,1251.441,1251.47040448,1251.471,1251.476,1251.485,up,1,2.72152569745,7.27847430255,001,322,1366_768,Intel(R) Core(TM) i3-3120M CPU @ 2.50GHz,orientation_search,GHUM-L-P53541,Intel(R) HD Graphics 4000,2018_Nov_08_1354,testMonitor,
334.4,327.0,343.7,,36,10,331.7,352.7,331.5,338.2,7.784,7.72,8.226,8.43,8.262,7.604,7.874,4.63,-4.619,-8.301,1.412,-1.747,8.176,5.081,-5.261,-7.842,329.0,321.7,-8.256,318.6,330.3,324.3,340.0,330.4,36,346.2,3,5,prime,10,0,91,norm,36,-5.255,up,norm,332.715866573,342.8,324.6,341.3,326.1,3,349.3,328.2,331.5,10,5,7.738,4.61,1.548,-1.468,-4.387,-8.215,333.7,5,423.7,-8.494,-7.746,10,-7.6,-7.644,-4.398,-4.964,-5.261,-4.752,5.161,8.31,21,-1.147,1.268,4.423,8.092,-8.233,-7.756,-2.097,1.407,341.8,332.8,345.9,337.1,316.8,326.0,340.1,330.3,340.8,318.6,1,norm,1.406,1.861,-1.323,-1.503,-4.927,-4.661,-1.548,-2.045,-1.842,-1.208,1.539,-1.315,332.7,312.7,-5.28,-8.474,1.935,-1.653,7.979,5.093,-4.978,-8.16,8,4.453,5.28,4.827,4.999,2.036,1.88,1.165,2.084,8,4.783,4.712,20,1.46014688677,norm,0,29,29,29,1254.253,1254.272,1254.29804151,1254.298,1254.302,1254.307,up,1,1.64929833863,8.35070166137,001,322,1366_768,Intel(R) Core(TM) i3-3120M CPU @ 2.50GHz,orientation_search,GHUM-L-P53541,Intel(R) HD Graphics 4000,2018_Nov_08_1354,testMonitor,
326.4,352.7,333.5,324.2,36,10,332.1,324.3,331.8,320.2,7.698,7.546,7.987,8.218,7.54,7.719,7.765,4.889,-4.556,-8.196,1.787,-1.206,8.316,4.452,-4.73,-7.722,336.2,321.9,-7.53,338.1,339.1,332.8,327.4,327.2,36,317.2,3,5,prime,10,0,64,norm,36,-4.396,down,norm,332.715866573,332.2,333.9,331.9,319.7,1,312.7,332.5,336.5,10,5,7.861,4.817,1.2,-1.255,-5.068,-7.599,344.4,5,396.7,-7.976,-7.506,10,-8.229,-7.895,-4.478,-5.265,-4.521,-4.955,4.427,7.675,19,-1.439,1.789,4.428,7.864,-7.72,-8.114,-1.337,1.631,332.8,325.2,336.0,326.1,319.6,343.0,338.7,319.5,347.0,322.6,2,norm,2.01,1.486,-1.284,-1.144,-4.809,-4.338,-1.756,-1.18,-1.849,-1.39,1.719,-2.04,,324.5,-4.559,-7.741,1.449,-1.852,7.908,4.345,-5.119,-8.177,8,5.283,4.627,4.785,5.082,1.356,1.556,1.966,1.425,8,4.916,4.867,20,1.46014688677,norm,0,30,30,30,1256.005,1256.025,1256.04812637,1256.049,1256.051,1256.055,down,1,1.16974904563,8.83025095437,001,322,1366_768,Intel(R) Core(TM) i3-3120M CPU @ 2.50GHz,orientation_search,GHUM-L-P53541,Intel(R) HD Graphics 4000,2018_Nov_08_1354,testMonitor,
328.4,335.9,345.2,335.3,36,10,336.5,332.2,344.5,312.7,7.683,7.559,8.275,7.639,7.803,7.912,7.749,4.993,-5.29,-7.653,1.377,-1.236,7.946,4.746,-4.915,-8.028,328.9,328.2,-7.703,326.5,341.4,326.3,332.4,318.5,36,320.2,1,5,prime,10,0,93,norm,36,-4.503,down,norm,332.715866573,351.8,317.1,343.7,337.1,1,336.8,336.7,323.3,10,5,8.42,5.299,1.767,-1.937,-4.66,-7.786,351.0,5,425.7,-7.78,-8.32,10,-7.722,-8.453,-5.04,-4.518,-4.771,-4.768,5.255,7.794,7,-1.754,1.938,4.409,7.974,-7.914,-8.083,-1.582,1.865,352.7,336.9,347.6,333.8,332.3,328.4,,330.0,346.6,328.9,3,norm,1.48,1.446,-1.683,-1.67,-5.072,-4.536,-1.277,-1.99,-1.952,-1.432,1.321,-1.104,336.8,331.7,-5.238,-7.704,1.2,-1.713,8.475,4.849,-4.58,-8.059,8,5.15,4.535,4.36,5.16,1.145,1.336,1.874,1.564,8,4.661,4.405,20,1.46014688677,norm,0,31,31,31,1257.256,1257.269,1257.29992932,1257.3,1257.303,1257.306,down,1,0.934439554403,9.0655604456,001,322,1366_768,Intel(R) Core(TM) i3-3120M CPU @ 2.50GHz,orientation_search,GHUM-L-P53541,Intel(R) HD Graphics 4000,2018_Nov_08_1354,testMonitor,
343.6,341.0,321.3,329.5,36,10,329.2,312.7,347.2,345.6,7.576,7.823,7.967,8.327,7.818,7.616,8.229,4.443,-4.897,-8.022,1.77,-1.484,8.015,4.982,-5.23,-8.149,333.0,334.1,-7.784,329.2,319.8,324.4,330.3,340.2,36,330.7,0,5,prime,10,0,60,norm,36,-5.115,down,norm,332.715866573,323.4,343.9,335.0,317.3,1,326.9,324.6,349.7,10,5,8.14,4.736,1.735,-1.291,-4.501,-8.164,334.4,5,392.7,-7.788,-7.653,10,-7.882,-8.189,-5.163,-4.341,-5.211,-4.473,5.05,8.113,1,-1.316,1.507,5.227,8.382,-7.851,-8.458,-1.319,1.106,345.3,330.1,329.3,322.8,,346.7,326.6,334.7,326.2,318.5,4,norm,1.791,1.716,-1.993,-1.931,-5.099,-5.175,-1.594,-1.866,-1.704,-1.472,1.445,-1.242,352.7,347.1,-4.731,-7.792,2.003,-1.314,7.535,4.969,-4.652,-7.505,8,5.098,5.152,4.5,4.827,1.947,1.392,1.761,2.061,8,5.181,5.285,20,1.46014688677,norm,0,32,32,32,1258.303,1258.33,1258.36279202,1258.363,1258.369,1258.376,down,1,1.69072574185,8.30927425815,001,322,1366_768,Intel(R) Core(TM) i3-3120M CPU @ 2.50GHz,orientation_search,GHUM-L-P53541,Intel(R) HD Graphics 4000,2018_Nov_08_1354,testMonitor,
445.8,460.7,459.6,449.6,36,60,458.1,453.4,448.7,454.9,8.207,8.373,7.646,8.252,8.218,8.059,8.237,4.933,-5.018,-8.143,1.987,-1.752,7.715,4.551,-4.359,-7.827,458.0,456.1,-7.842,458.2,457.6,454.0,458.3,453.7,36,460.2,2,5,probe,5,0,116,norm,36,-5.098,up,norm,454.707307235,451.9,451.4,,457.4,3,463.8,464.7,461.4,10,5,7.741,4.36,1.682,-1.372,-5.015,-8.338,462.4,1,338.7,-7.817,-7.89,10,-7.536,-7.624,-4.543,-4.74,-4.587,-4.511,5.23,8.121,15,-1.141,1.78,4.588,7.848,-8.422,-7.954,-1.624,1.755,453.9,452.5,461.3,458.5,464.2,450.3,444.7,463.4,460.9,453.0,0,norm,1.218,1.629,-1.598,-1.422,-4.391,-5.088,-1.995,-1.673,-1.153,-2.032,1.509,-1.154,457.0,457.1,-4.834,-7.574,1.868,-1.419,7.687,4.915,-5.022,-8.429,9,4.566,4.703,4.456,4.878,1.602,1.768,1.792,1.446,9,5.059,5.029,10,332.715866573,norm,0,33,33,33,1260.113,1260.13,1260.15928802,1260.16,1260.164,1260.169,up,1,1.08565569896,8.91434430104,001,322,1366_768,Intel(R) Core(TM) i3-3120M CPU @ 2.50GHz,orientation_search,GHUM-L-P53541,Intel(R) HD Graphics 4000,2018_Nov_08_1354,testMonitor,
177.1,171.0,170.1,,36,60,181.9,174.5,172.3,180.7,8.103,8.329,8.499,7.641,7.535,7.997,8.491,4.484,-4.58,-7.945,1.151,-1.483,8.198,4.857,-4.583,-8.232,179.4,154.5,-8.022,188.7,175.4,173.8,168.4,169.3,36,155.8,3,5,prime,10,0,117,norm,36,-4.41,up,norm,172.809337442,159.5,167.3,178.0,159.5,3,152.8,181.7,186.8,10,6,8.353,5.205,1.542,-1.567,-4.833,-8.216,169.0,6,289.8,-8.055,-7.753,60,-8.097,-8.494,-4.536,-5.061,-4.778,-5.226,4.882,7.793,21,-1.939,1.906,4.534,8.068,-8.246,-7.56,-1.503,2.054,180.5,162.1,180.4,174.3,175.0,167.6,169.6,169.4,179.3,192.8,0,norm,1.439,1.979,-2.058,-1.293,-4.331,-5.28,-1.683,-1.127,-1.32,-1.221,1.947,-1.986,174.9,173.4,-4.472,-8.368,1.58,-1.994,8.41,4.92,-4.994,-7.592,10,5.039,5.276,5.064,4.391,1.994,1.434,1.93,1.768,10,5.128,4.343,60,332.715866573,norm,0,34,34,34,1261.301,1261.317,1261.34675469,1261.347,1261.351,1261.357,up,1,5.33667747412,4.66332252588,001,322,1366_768,Intel(R) Core(TM) i3-3120M CPU @ 2.50GHz,orientation_search,GHUM-L-P53541,Intel(R) HD Graphics 4000,2018_Nov_08_1354,testMonitor,
152.8,168.9,170.4,160.0,36,60,167.7,177.4,187.7,173.8,7.593,7.921,7.86,7.556,7.545,7.9,8.198,5.016,-4.58,-8.282,1.445,-1.239,7.855,4.428,-4.788,-7.689,180.4,174.1,-7.832,,185.6,186.1,171.7,188.3,36,177.4,5,5,prime,10,0,85,norm,36,-4.664,down,norm,172.809337442,161.3,168.0,176.2,186.5,1,165.8,173.5,162.8,10,6,7.562,4.547,1.727,-1.43,-4.77,-8.441,179.7,6,257.8,-7.851,-8.369,60,-7.653,-7.769,-5.155,-4.698,-4.799,-4.909,4.988,8.452,31,-1.681,1.449,4.403,8.143,-7.951,-8.371,-1.455,1.742,158.1,169.1,187.0,161.5,173.1,160.4,164.9,179.8,192.8,165.4,1,norm,1.815,1.224,-1.907,-1.911,-4.597,-4.416,-1.967,-2.09,-1.95,-1.724,1.264,-2.047,179.7,156.3,-5.287,-8.429,1.424,-1.111,7.677,4.855,-4.611,-8.219,10,5.076,4.98,5.035,4.419,1.1,1.942,1.623,1.6,10,5.044,4.316,60,332.715866573,norm,0,35,35,35,1266.755,1266.776,1266.80066077,1266.801,1266.807,1266.814,down,1,2.41102070673,7.58897929327,001,322,1366_768,Intel(R) Core(TM) i3-3120M CPU @ 2.50GHz,orientation_search,GHUM-L-P53541,Intel(R) HD Graphics 4000,2018_Nov_08_1354,testMonitor,
189.0,172.1,177.4,192.8,36,60,168.8,,176.6,176.9,8.182,7.707,8.015,8.26,8.125,8.428,8.439,4.587,-4.371,-7.998,1.654,-1.565,7.598,4.379,-5.169,-7.781,172.7,162.6,-7.709,173.2,167.8,167.2,152.8,176.2,36,160.8,4,5,prime,10,0,98,norm,36,-4.904,down,norm,172.809337442,162.5,184.7,172.7,183.3,1,184.1,188.3,183.4,10,6,7.799,5.087,1.142,-1.856,-5.038,-8.079,154.4,6,270.8,-8.109,-8.115,60,-7.729,-7.686,-4.85,-5.066,-4.472,-4.891,4.466,8.247,25,-1.493,1.963,4.929,8.233,-8.259,-8.167,-1.899,1.389,160.5,174.0,182.2,173.5,185.1,174.0,165.7,180.8,170.5,187.1,2,norm,1.657,1.778,-1.263,-1.911,-5.261,-4.504,-1.982,-1.491,-1.124,-1.654,1.286,-1.335,171.0,157.5,-4.756,-8.47,1.215,-1.457,8.246,4.816,-4.463,-8.03,10,4.513,4.948,4.67,4.579,1.33,1.473,1.352,1.347,10,4.506,4.433,60,332.715866573,norm,0,36,36,36,1269.287,1269.314,1269.34774544,1269.348,1269.354,1269.361,down,1,1.33437092925,8.66562907075,001,322,1366_768,Intel(R) Core(TM) i3-3120M CPU @ 2.50GHz,orientation_search,GHUM-L-P53541,Intel(R) HD Graphics 4000,2018_Nov_08_1354,testMonitor,
171.4,161.7,182.5,177.9,36,60,176.9,168.4,164.7,166.3,8.321,8.075,8.46,7.757,7.888,8.226,7.733,4.383,-4.535,-7.557,1.833,-1.448,7.903,5.125,-4.775,-8.365,167.3,152.8,-7.994,,171.6,174.5,167.3,170.6,36,179.5,5,5,prime,10,0,75,norm,36,-4.761,down,norm,172.809337442,163.5,167.4,172.3,176.9,1,178.1,177.4,170.2,10,6,8.314,5.195,1.686,-1.192,-5.046,-8.434,189.8,6,247.8,-7.995,-7.585,60,-7.754,-7.775,-5.227,-4.534,-4.498,-5.02,5.257,8.377,31,-1.848,1.39,4.993,8.395,-7.501,-8.296,-1.801,1.71,192.8,172.4,159.9,180.1,178.2,166.2,180.3,165.7,180.8,181.4,3,norm,1.885,1.501,-1.699,-1.174,-4.387,-5.066,-1.272,-1.24,-1.296,-1.168,1.978,-1.909,166.6,173.6,-4.75,-8.068,1.859,-1.295,8.237,5.235,-5.188,-8.041,10,4.996,4.81,5.189,5.055,1.783,1.609,1.979,1.95,10,4.522,4.688,60,332.715866573,norm,0,37,37,37,1270.757,1270.786,1270.81780104,1270.818,1270.821,1270.827,down,1,2.2749300393,7.7250699607,001,322,1366_768,Intel(R) Core(TM) i3-3120M CPU @ 2.50GHz,orientation_search,GHUM-L-P53541,Intel(R) HD Graphics 4000,2018_Nov_08_1354,testMonitor,
176.4,168.0,162.3,186.0,36,60,155.2,173.9,152.8,167.8,8.142,7.939,8.206,7.801,7.951,8.222,7.897,5.197,-5.239,-8.295,1.916,-1.67,8.111,5.16,-4.677,-7.885,165.4,155.5,-8.081,187.9,170.4,166.5,165.2,176.7,36,191.0,0,5,prime,10,0,109,norm,36,-4.915,up,norm,172.809337442,177.5,170.7,168.5,171.5,5,176.5,176.7,192.8,10,6,8.372,5.241,1.647,-1.507,-4.755,-7.615,166.7,6,281.8,-7.615,-8.366,60,-8.388,-7.731,-4.771,-5.216,-5.188,-5.206,4.7,7.812,5,-2.063,1.936,4.683,7.806,-8.251,-7.853,-1.145,1.448,163.9,185.2,185.3,165.0,177.4,173.0,158.0,181.0,,167.2,4,norm,1.371,2.026,-1.932,-1.598,-4.661,-4.872,-1.613,-1.84,-1.976,-1.929,1.425,-1.99,166.5,160.6,-4.788,-8.264,2.077,-1.969,8.141,5.141,-4.852,-8.196,10,4.369,5.157,4.411,5.206,1.595,1.412,1.7,1.187,10,5.281,4.391,60,332.715866573,norm,0,38,38,38,1273.133,1273.146,1273.17742972,1273.178,1273.184,1273.192,up,1,2.31557996475,7.68442003525,001,322,1366_768,Intel(R) Core(TM) i3-3120M CPU @ 2.50GHz,orientation_search,GHUM-L-P53541,Intel(R) HD Graphics 4000,2018_Nov_08_1354,testMonitor,
176.7,176.3,170.8,177.1,36,60,162.2,184.7,191.0,172.8,8.085,8.126,7.658,7.721,8.324,7.759,8.321,4.73,-4.981,-7.899,2.033,-1.461,7.575,4.53,-4.325,-7.771,170.7,178.3,-7.85,152.8,183.3,162.8,160.4,177.6,36,162.8,1,5,prime,10,0,64,norm,36,-5.137,down,norm,172.809337442,167.5,181.5,169.1,161.5,0,167.2,184.1,189.2,10,6,7.723,5.101,1.413,-1.745,-5.051,-7.923,162.0,6,236.8,-8.499,-8.48,60,-8.054,-7.541,-4.329,-4.988,-4.568,-4.632,5.277,7.848,6,-1.368,2.074,4.451,7.881,-8.073,-7.563,-1.93,1.851,171.1,183.0,192.8,176.1,179.2,167.9,172.4,,166.7,164.7,5,norm,1.726,1.895,-1.527,-1.742,-5.013,-4.392,-1.854,-1.2,-1.741,-1.122,1.553,-1.794,174.7,174.6,-4.647,-8.366,1.468,-1.188,7.681,4.78,-4.687,-8.273,10,4.362,5.052,4.8,4.65,1.851,1.455,1.871,1.818,10,4.761,4.517,60,332.715866573,norm,0,39,39,39,1275.57,1275.601,1275.6305423,1275.631,1275.634,1275.64,down,1,3.30618941365,6.69381058635,001,322,1366_768,Intel(R) Core(TM) i3-3120M CPU @ 2.50GHz,orientation_search,GHUM-L-P53541,Intel(R) HD Graphics 4000,2018_Nov_08_1354,testMonitor,
345.2,,345.3,348.3,36,-20,344.0,344.4,335.6,337.3,8.277,7.865,7.754,8.092,7.792,7.76,7.779,5.18,-4.717,-8.191,1.418,-1.794,8.24,4.906,-4.477,-8.022,349.9,340.8,-8.212,343.7,349.4,344.4,344.7,337.5,36,343.4,3,5,probe,5,0,115,norm,36,-4.807,up,norm,343.674872888,336.5,344.8,347.7,335.4,5,352.2,347.4,343.6,10,6,7.928,4.415,1.479,-2.07,-4.864,-8.194,348.9,2,228.7,-7.652,-7.926,60,-8.285,-7.724,-5.263,-4.648,-5.189,-4.704,4.712,8.412,23,-1.701,1.664,4.468,8.425,-7.909,-8.223,-1.912,1.987,353.7,345.2,346.7,339.2,343.2,342.8,347.4,349.8,341.4,351.0,0,norm,1.595,1.645,-1.398,-1.464,-4.695,-5.244,-2.085,-1.673,-2.099,-2.053,1.813,-1.398,343.0,333.7,-5.145,-8.459,1.187,-2.067,8.348,5.239,-5.037,-8.224,11,4.366,4.386,4.766,5.047,1.224,1.455,1.226,1.491,11,4.355,5.023,60,172.809337442,norm,0,40,40,40,1279.008,1279.035,1279.06832559,1279.069,1279.074,1279.082,up,1,1.00497963844,8.99502036156,001,322,1366_768,Intel(R) Core(TM) i3-3120M CPU @ 2.50GHz,orientation_search,GHUM-L-P53541,Intel(R) HD Graphics 4000,2018_Nov_08_1354,testMonitor,
332.8,320.5,335.7,316.7,36,-20,324.1,332.5,332.4,329.3,7.851,8.005,7.825,7.938,7.509,7.994,7.683,4.808,-5.123,-8.375,1.263,-1.949,7.557,4.673,-5.089,-7.795,322.9,321.2,-8.137,332.0,320.4,323.2,328.4,329.0,36,324.0,2,5,probe,5,0,98,norm,36,-4.389,up,norm,326.674872888,324.3,,336.5,326.9,4,334.6,333.6,326.6,10,6,7.75,5.248,2.064,-1.813,-4.444,-7.906,336.3,2,228.7,-8.175,-7.604,60,-8.118,-7.83,-4.905,-5.279,-4.868,-4.846,4.973,8.306,16,-1.687,1.312,5.191,8.198,-7.927,-8.341,-2.028,1.882,324.3,323.8,331.2,336.7,328.5,327.1,323.1,332.5,328.6,329.3,1,norm,1.988,1.623,-1.951,-1.516,-5.16,-4.635,-1.383,-1.577,-1.279,-1.617,1.59,-1.725,325.7,319.1,-4.412,-8.47,1.532,-1.237,8.418,4.86,-4.938,-7.524,11,4.636,4.717,4.877,4.572,1.593,1.402,2.045,1.869,11,4.771,4.334,60,172.809337442,norm,0,41,41,41,1280.148,1280.175,1280.20905688,1280.21,1280.215,1280.222,up,1,0.94283442435,9.05716557565,001,322,1366_768,Intel(R) Core(TM) i3-3120M CPU @ 2.50GHz,orientation_search,GHUM-L-P53541,Intel(R) HD Graphics 4000,2018_Nov_08_1354,testMonitor,
147.6,152.3,139.6,154.4,36,-30,152.8,162.5,129.4,156.6,8.36,7.939,7.786,7.518,7.773,7.838,8.378,4.567,-4.484,-7.664,1.289,-1.483,8.127,4.375,-4.409,-8.048,143.5,128.3,-7.734,147.3,157.6,145.0,148.7,147.5,36,150.6,0,5,prime,10,0,70,norm,36,-5.296,down,norm,148.26250613,132.0,151.6,144.5,157.3,1,147.3,136.2,149.6,10,6,8.109,4.761,1.36,-1.24,-5.252,-7.582,129.4,6,218.3,-7.528,-8.086,-30,-8.266,-8.009,-4.805,-5.074,-4.405,-4.352,4.534,8.495,1,-1.851,1.324,5.247,7.602,-7.903,-8.292,-2.021,1.971,153.5,152.5,139.2,156.8,,148.5,150.8,162.4,168.3,157.8,0,norm,1.93,1.677,-1.631,-1.787,-5.234,-4.73,-1.687,-1.833,-2.052,-1.597,1.491,-1.161,150.5,157.9,-4.708,-7.68,1.689,-1.972,7.551,5.06,-4.628,-8.281,12,4.935,4.867,4.759,4.485,1.912,1.838,1.123,1.125,12,4.449,4.469,-20,172.809337442,norm,0,42,42,42,1281.226,1281.253,1281.28701834,1281.288,1281.293,1281.3,down,1,1.16114172532,8.83885827468,001,322,1366_768,Intel(R) Core(TM) i3-3120M CPU @ 2.50GHz,orientation_search,GHUM-L-P53541,Intel(R) HD Graphics 4000,2018_Nov_08_1354,testMonitor,
153.7,143.2,144.4,138.0,36,-30,155.6,149.6,134.1,146.4,8.09,7.867,8.391,7.58,8.18,7.855,7.822,5.291,-4.849,-7.812,1.984,-1.968,7.821,4.724,-4.791,-8.29,145.1,165.9,-8.442,154.9,144.3,140.7,168.3,128.3,36,155.8,1,5,prime,10,0,106,norm,36,-5.135,down,norm,148.26250613,148.6,145.6,156.7,144.3,0,135.1,145.6,133.1,10,6,7.586,4.602,1.412,-1.99,-5.185,-7.756,147.1,6,254.3,-7.813,-8.027,-30,-7.799,-8.295,-4.84,-4.368,-4.755,-4.793,5.098,8.086,6,-2.096,1.853,4.52,7.906,-7.559,-7.985,-1.472,1.325,144.9,146.5,156.7,146.9,150.1,133.6,159.5,,132.4,142.0,1,norm,1.228,2.041,-1.468,-1.99,-4.538,-4.874,-1.672,-1.797,-1.914,-1.482,1.645,-1.35,143.4,152.0,-4.413,-8.058,1.834,-1.251,7.637,4.393,-5.148,-8.026,12,4.417,5.043,5.193,5.258,2.037,1.552,1.85,1.428,12,4.514,4.766,-20,172.809337442,norm,0,43,43,43,1282.511,1282.538,1282.57110552,1282.572,1282.577,1282.584,down,1,2.02176732372,7.97823267628,001,322,1366_768,Intel(R) Core(TM) i3-3120M CPU @ 2.50GHz,orientation_search,GHUM-L-P53541,Intel(R) HD Graphics 4000,2018_Nov_08_1354,testMonitor,
150.3,136.6,150.2,138.8,36,-30,157.3,159.3,148.0,139.0,8.41,7.643,8.115,8.057,8.431,8.01,7.965,4.846,-4.8,-7.875,1.986,-1.816,7.851,5.228,-4.711,-7.608,145.4,139.6,-7.681,136.7,145.3,128.9,150.4,,36,168.3,4,5,prime,10,0,87,norm,36,-4.942,down,norm,148.26250613,149.1,143.6,148.8,133.7,2,158.2,154.2,153.3,10,6,8.15,4.834,1.286,-1.674,-4.718,-7.774,148.5,6,235.3,-8.398,-8.032,-30,-7.573,-8.336,-5.284,-4.664,-4.352,-5.236,4.439,8.168,26,-1.186,1.49,4.857,7.777,-8.11,-8.212,-1.517,1.587,162.5,140.6,128.3,162.4,150.6,159.9,148.6,128.4,130.7,141.3,2,norm,1.837,1.152,-2.01,-1.823,-5.298,-4.495,-1.345,-1.1,-1.785,-1.901,1.367,-1.31,150.4,142.4,-4.527,-7.524,1.719,-1.975,8.116,4.788,-4.451,-8.158,12,4.321,4.634,4.455,4.555,1.943,1.714,2.098,1.976,12,4.766,4.417,-20,172.809337442,norm,0,44,44,44,1284.668,1284.685,1284.71297098,1284.713,1284.717,1284.722,down,1,1.26129253628,8.73870746372,001,322,1366_768,Intel(R) Core(TM) i3-3120M CPU @ 2.50GHz,orientation_search,GHUM-L-P53541,Intel(R) HD Graphics 4000,2018_Nov_08_1354,testMonitor,
146.1,141.9,139.9,141.6,36,-30,135.5,144.0,168.3,157.0,7.572,8.333,8.306,8.174,7.736,7.979,7.95,4.828,-4.412,-8.179,1.136,-1.399,7.869,4.999,-4.95,-7.888,150.0,147.4,-8.274,142.5,145.9,159.9,165.4,128.3,36,136.1,2,5,prime,10,0,90,norm,36,-4.424,up,norm,148.26250613,142.1,144.6,,152.2,3,138.7,131.0,131.8,10,6,8.258,4.41,1.604,-1.697,-4.652,-7.739,156.5,6,238.3,-8.434,-7.824,-30,-8.335,-8.072,-4.887,-4.309,-4.338,-5.134,4.518,8.165,15,-1.208,1.915,5.129,7.846,-7.657,-8.376,-2.008,1.893,159.9,159.4,161.1,142.4,156.2,156.5,145.2,139.6,145.9,151.2,3,norm,1.926,1.633,-1.829,-1.795,-4.503,-4.306,-1.481,-1.387,-1.302,-1.57,1.377,-1.374,142.0,152.0,-4.451,-8.222,1.273,-2.013,8.386,5.212,-4.515,-7.878,12,4.451,4.471,4.697,4.773,1.429,1.522,1.571,1.861,12,4.493,4.793,-20,172.809337442,norm,0,45,45,45,1286.045,1286.072,1286.10574068,1286.106,1286.112,1286.119,up,1,1.11558695053,8.88441304947,001,322,1366_768,Intel(R) Core(TM) i3-3120M CPU @ 2.50GHz,orientation_search,GHUM-L-P53541,Intel(R) HD Graphics 4000,2018_Nov_08_1354,testMonitor,
152.4,156.4,156.4,142.1,36,-30,139.0,168.3,135.1,,7.759,7.816,7.707,7.57,8.42,8.037,8.266,5.275,-4.418,-7.619,1.133,-1.569,8.446,4.948,-4.902,-7.507,154.2,152.2,-7.635,145.1,146.9,150.7,148.5,144.1,36,140.7,4,5,prime,10,0,72,norm,36,-4.814,up,norm,148.26250613,138.8,148.1,139.8,149.3,5,153.1,147.2,168.3,10,6,7.56,4.371,1.932,-1.621,-4.441,-7.698,150.9,6,220.3,-7.631,-7.837,-30,-7.928,-7.919,-4.98,-4.757,-4.741,-5.104,5.127,8.249,29,-1.76,1.371,4.829,7.957,-7.519,-7.57,-1.279,1.324,142.7,146.1,158.8,145.2,154.3,156.5,146.7,151.2,128.3,136.8,4,norm,1.34,2.002,-1.251,-1.916,-4.747,-4.959,-2.051,-1.488,-1.502,-1.234,1.974,-1.764,149.3,147.5,-4.301,-7.558,1.868,-1.345,7.906,5.142,-5.263,-7.913,12,4.396,4.391,5.106,5.11,1.905,1.733,1.858,1.834,12,4.731,4.342,-20,172.809337442,norm,0,46,46,46,1287.28,1287.299,1287.32531529,1287.326,1287.329,1287.333,up,1,1.08943254806,8.91056745194,001,322,1366_768,Intel(R) Core(TM) i3-3120M CPU @ 2.50GHz,orientation_search,GHUM-L-P53541,Intel(R) HD Graphics 4000,2018_Nov_08_1354,testMonitor,
140.8,149.1,154.2,154.4,36,-30,146.1,133.9,141.8,135.1,8.383,7.859,8.106,8.226,8.03,7.958,8.088,4.31,-5.145,-8.005,1.127,-1.957,8.314,4.979,-4.493,-7.698,149.7,139.4,-8.054,164.0,149.5,160.1,152.7,140.2,36,168.3,1,5,prime,10,0,113,norm,36,-5.286,down,norm,148.26250613,151.0,165.1,148.1,150.9,1,133.5,159.6,163.4,10,6,7.725,5.294,1.642,-1.782,-4.501,-7.728,158.0,6,261.3,-7.851,-7.666,-30,-7.772,-8.119,-4.849,-5.189,-5.137,-4.96,4.831,7.838,7,-2.019,1.721,4.414,8.39,-7.871,-8.258,-1.96,1.563,152.8,149.6,146.3,164.5,152.2,153.7,,144.4,141.7,154.9,5,norm,1.97,1.105,-1.687,-1.816,-4.625,-5.184,-1.587,-2.093,-1.964,-1.716,1.518,-1.713,158.3,153.2,-4.946,-7.785,1.894,-1.859,7.992,5.268,-5.007,-8.321,12,5.097,4.847,5.102,5.205,2.058,1.967,1.598,2.069,12,5.227,5.113,-20,172.809337442,norm,0,47,47,47,1288.453,1288.467,1288.49763551,1288.498,1288.501,1288.504,down,1,0.902682955901,9.0973170441,001,322,1366_768,Intel(R) Core(TM) i3-3120M CPU @ 2.50GHz,orientation_search,GHUM-L-P53541,Intel(R) HD Graphics 4000,2018_Nov_08_1354,testMonitor,
194.6,185.0,197.0,189.8,36,-30,188.3,190.5,205.0,194.5,8.044,8.484,7.634,7.671,7.95,7.919,8.122,4.524,-4.404,-8.001,1.223,-1.412,8.338,4.561,-4.351,-8.473,197.3,196.9,-8.073,,191.5,187.1,191.4,190.8,36,199.4,5,5,probe,5,0,78,norm,36,-5.289,down,norm,194.958869857,198.6,195.2,198.3,197.4,1,188.6,194.2,198.8,10,6,7.567,4.994,1.421,-1.381,-5.275,-7.523,197.0,1,117.0,-7.969,-7.914,-30,-7.876,-7.95,-4.35,-4.631,-5.112,-4.979,4.98,7.645,31,-2.021,1.515,4.93,7.788,-8.46,-8.171,-1.37,1.907,195.3,196.3,193.0,186.7,193.4,202.7,201.7,191.9,194.9,187.8,0,norm,1.335,1.356,-1.493,-2.057,-5.141,-4.432,-1.682,-1.423,-1.532,-1.243,1.581,-1.358,196.3,190.6,-4.992,-7.53,2.099,-1.7,7.564,4.751,-5.138,-8.357,13,4.823,5.105,5.121,4.342,1.715,2.005,1.483,1.22,13,4.747,4.83,-30,148.26250613,norm,0,48,48,48,1289.468,1289.495,1289.49978673,1289.5,1289.503,1289.506,down,1,1.18352626453,8.81647373547,001,322,1366_768,Intel(R) Core(TM) i3-3120M CPU @ 2.50GHz,orientation_search,GHUM-L-P53541,Intel(R) HD Graphics 4000,2018_Nov_08_1354,testMonitor,
281.8,293.5,279.8,294.8,36,80,288.0,286.8,305.9,286.7,7.539,8.25,7.597,7.648,7.976,8.202,7.661,5.039,-4.315,-7.68,1.178,-1.169,7.779,5.149,-5.058,-8.165,290.5,291.1,-8.16,293.7,283.4,282.4,265.9,281.8,36,283.9,2,5,prime,10,0,69,norm,36,-4.772,down,norm,285.940698474,286.3,284.9,280.0,273.2,1,296.1,,279.6,10,5,7.944,4.818,2.006,-1.662,-4.969,-7.811,282.6,5,354.9,-7.937,-8.08,80,-7.844,-7.986,-4.771,-4.416,-4.612,-4.66,4.59,8.285,13,-1.147,1.741,4.562,8.457,-8.241,-7.515,-1.589,1.596,279.8,280.4,281.5,292.7,279.3,292.4,305.2,289.9,292.8,284.7,0,norm,1.249,1.973,-1.671,-1.867,-4.983,-4.559,-1.826,-2.018,-1.878,-1.881,1.472,-1.3,291.1,296.5,-4.584,-7.792,1.351,-1.275,8.185,4.307,-4.616,-8.346,14,4.672,4.454,4.839,4.963,1.462,1.97,1.362,1.565,14,5.22,4.565,-30,148.26250613,norm,0,49,49,49,1290.733,1290.746,1290.77867114,1290.779,1290.782,1290.786,down,1,1.19853503787,8.80146496213,001,322,1366_768,Intel(R) Core(TM) i3-3120M CPU @ 2.50GHz,orientation_search,GHUM-L-P53541,Intel(R) HD Graphics 4000,2018_Nov_08_1354,testMonitor,
275.6,297.5,281.5,284.6,36,80,283.4,305.8,288.3,297.6,7.968,7.683,7.998,7.612,8.256,8.466,8.271,4.321,-4.593,-8.281,1.994,-1.376,8.021,4.321,-4.469,-8.248,294.1,265.9,-7.649,289.9,283.5,267.7,278.3,267.9,36,279.1,0,5,prime,10,0,90,norm,36,-5.096,down,norm,285.940698474,289.5,283.3,268.6,304.7,0,287.0,281.5,281.6,10,5,7.935,5.079,1.621,-1.801,-4.819,-8.409,305.9,5,375.9,-7.835,-7.897,80,-8.491,-7.832,-4.983,-4.463,-5.251,-5.005,4.423,8.189,0,-1.591,1.248,5.076,8.038,-7.832,-7.834,-1.795,1.586,297.5,284.5,269.0,298.7,271.6,,288.1,281.3,290.7,275.9,1,norm,1.412,1.958,-1.203,-1.445,-4.917,-4.37,-1.599,-1.43,-1.245,-1.683,1.133,-2.018,285.6,279.8,-4.431,-7.742,1.531,-1.982,7.969,5.181,-4.563,-7.821,14,4.554,5.189,5.081,5.106,1.974,1.108,1.879,1.305,14,4.502,5.162,-30,148.26250613,norm,0,50,50,50,1292.031,1292.044,1292.0770944,1292.077,1292.08,1292.084,down,1,2.31089085311,7.68910914689,001,322,1366_768,Intel(R) Core(TM) i3-3120M CPU @ 2.50GHz,orientation_search,GHUM-L-P53541,Intel(R) HD Graphics 4000,2018_Nov_08_1354,testMonitor,
292.7,297.6,277.6,294.1,36,80,286.7,301.4,279.7,291.1,7.535,7.568,8.332,8.402,8.431,7.588,8.427,5.224,-5.137,-7.582,1.689,-1.417,8.021,5.172,-5.256,-7.929,290.0,272.1,-8.343,279.6,272.3,286.4,274.6,282.2,36,288.3,2,5,prime,10,0,100,norm,36,-4.649,up,norm,285.940698474,,266.4,283.5,298.8,5,283.0,274.2,282.0,10,5,7.765,5.295,2.018,-1.796,-4.771,-8.092,295.1,5,385.9,-8.101,-7.885,80,-7.759,-8.446,-5.263,-4.391,-4.543,-4.964,4.306,7.942,17,-1.676,1.994,4.496,8.388,-7.749,-8.183,-1.321,1.381,295.8,282.5,272.2,276.9,293.8,293.5,284.4,265.9,305.9,297.4,2,norm,1.561,1.743,-1.799,-1.372,-4.46,-4.985,-1.773,-1.375,-1.901,-2.081,1.691,-2.029,295.9,288.8,-4.535,-8.01,1.541,-1.356,8.218,4.838,-5.241,-7.556,14,5.037,4.413,5.171,4.49,1.463,1.935,1.814,1.545,14,4.371,4.677,-30,148.26250613,norm,0,51,51,51,1294.456,1294.482,1294.48710916,1294.487,1294.49,1294.493,up,1,1.93066229438,8.06933770562,001,322,1366_768,Intel(R) Core(TM) i3-3120M CPU @ 2.50GHz,orientation_search,GHUM-L-P53541,Intel(R) HD Graphics 4000,2018_Nov_08_1354,testMonitor,
281.8,297.3,293.9,287.6,36,80,285.6,292.1,282.2,281.0,8.212,7.746,7.664,7.818,8.202,7.996,8.294,5.108,-4.749,-7.738,1.95,-1.637,7.917,4.835,-4.63,-7.612,292.4,290.2,-8.069,277.4,283.6,280.0,290.8,298.8,36,292.8,1,5,prime,10,0,100,norm,36,-4.32,up,norm,285.940698474,282.1,296.5,269.3,290.4,4,265.9,299.4,289.9,10,5,7.937,4.551,1.927,-1.492,-4.404,-8.124,,5,385.9,-8.042,-8.188,80,-7.875,-8.122,-5.208,-4.673,-5.0,-4.529,4.315,8.358,10,-1.926,1.711,4.893,8.245,-8.218,-8.318,-2.023,1.37,294.4,305.9,280.8,296.4,286.5,302.9,294.1,284.6,274.8,272.6,3,norm,1.486,2.004,-1.667,-1.926,-4.405,-5.074,-1.944,-1.916,-1.902,-1.252,1.26,-1.899,300.0,281.2,-4.34,-7.567,1.277,-1.67,8.192,4.871,-5.057,-7.537,14,4.629,5.247,4.89,4.45,2.002,1.22,1.626,1.934,14,4.581,4.864,-30,148.26250613,norm,0,52,52,52,1296.47,1296.491,1296.51620828,1296.517,1296.521,1296.527,up,1,1.11555489808,8.88444510192,001,322,1366_768,Intel(R) Core(TM) i3-3120M CPU @ 2.50GHz,orientation_search,GHUM-L-P53541,Intel(R) HD Graphics 4000,2018_Nov_08_1354,testMonitor,
294.2,265.9,276.9,303.4,36,80,287.4,277.2,292.7,297.9,8.329,8.016,8.097,7.679,7.677,7.53,7.645,4.786,-4.836,-7.508,1.654,-1.701,8.335,4.473,-5.013,-8.339,280.4,295.3,-8.093,,298.9,296.6,278.3,283.8,36,295.9,5,5,prime,10,0,65,norm,36,-4.751,down,norm,285.940698474,288.3,284.7,285.4,267.5,1,287.5,292.0,273.8,10,5,7.664,4.917,1.232,-1.493,-5.177,-8.472,294.3,5,350.9,-7.635,-7.609,80,-8.08,-7.918,-5.177,-5.212,-4.607,-4.537,4.644,7.521,31,-1.141,2.076,4.934,7.86,-7.897,-8.34,-1.606,1.189,281.8,284.0,305.9,283.7,297.5,282.0,293.8,273.9,285.6,291.6,4,norm,2.034,1.571,-2.043,-1.4,-4.359,-5.022,-1.734,-1.308,-1.56,-1.163,1.962,-2.066,282.0,284.5,-4.816,-8.314,2.067,-1.213,8.326,5.26,-4.622,-7.678,14,4.531,4.655,4.961,4.702,1.744,1.778,1.681,1.234,14,4.728,4.943,-30,148.26250613,norm,0,53,53,53,1297.69,1297.708,1297.73499102,1297.735,1297.739,1297.744,down,1,1.80799174853,8.19200825147,001,322,1366_768,Intel(R) Core(TM) i3-3120M CPU @ 2.50GHz,orientation_search,GHUM-L-P53541,Intel(R) HD Graphics 4000,2018_Nov_08_1354,testMonitor,
463.5,463.3,457.3,447.2,36,-10,452.3,460.7,462.4,451.6,8.094,7.976,7.919,7.851,7.892,7.999,7.817,4.49,-4.421,-8.214,1.626,-1.726,7.651,4.435,-4.793,-8.122,463.2,458.9,-8.497,459.0,452.5,458.1,456.1,463.9,36,457.8,1,5,probe,5,0,91,norm,36,-4.901,up,norm,457.204125478,458.0,456.9,461.9,452.0,5,,453.4,458.3,10,5,8.445,5.116,2.074,-2.026,-4.843,-8.286,462.3,2,366.2,-7.722,-8.284,80,-7.997,-8.223,-5.2,-4.479,-4.556,-4.544,5.098,7.613,11,-1.121,1.79,4.851,8.235,-7.717,-7.913,-1.289,1.793,454.6,462.5,456.1,460.5,459.5,456.0,456.2,453.8,458.6,455.0,0,norm,1.49,2.018,-1.777,-1.894,-5.213,-4.851,-1.237,-1.668,-2.06,-1.696,2.086,-1.41,467.2,459.2,-4.304,-7.899,1.764,-1.29,8.207,5.113,-5.163,-7.958,15,5.214,4.877,5.276,4.472,2.09,1.545,1.238,1.16,15,5.262,4.842,80,285.940698474,norm,0,54,54,54,1299.611,1299.628,1299.65734967,1299.658,1299.663,1299.667,up,1,1.1494775037,8.8505224963,001,322,1366_768,Intel(R) Core(TM) i3-3120M CPU @ 2.50GHz,orientation_search,GHUM-L-P53541,Intel(R) HD Graphics 4000,2018_Nov_08_1354,testMonitor,
424.3,428.1,429.2,428.2,36,-10,425.0,433.7,424.4,433.4,7.635,8.178,7.526,7.658,8.474,8.331,8.052,4.902,-5.135,-8.381,1.336,-1.301,7.808,4.63,-4.649,-8.278,430.5,429.0,-8.188,419.9,424.6,427.7,436.4,429.6,36,423.7,1,5,probe,5,0,62,norm,36,-4.808,up,norm,428.204125478,434.1,418.2,429.0,431.6,4,433.6,433.6,424.7,10,5,7.599,4.369,1.135,-1.939,-4.585,-7.505,,2,366.2,-8.382,-8.296,80,-8.476,-7.602,-5.204,-4.63,-4.443,-4.864,4.934,8.106,10,-1.286,1.695,5.113,8.387,-7.786,-7.657,-1.461,1.55,427.1,438.2,426.4,428.6,431.7,427.2,427.6,424.9,432.1,434.1,1,norm,1.57,1.262,-1.218,-1.257,-4.808,-4.619,-1.292,-1.576,-1.559,-2.011,1.769,-1.74,428.8,426.7,-5.05,-8.369,1.551,-1.26,8.245,4.474,-5.016,-8.158,15,5.249,5.181,5.043,5.055,1.52,1.571,1.174,1.568,15,4.679,5.299,80,285.940698474,norm,0,55,55,55,1300.848,1300.861,1300.89169923,1300.892,1300.895,1300.898,up,1,1.21538066413,8.78461933587,001,322,1366_768,Intel(R) Core(TM) i3-3120M CPU @ 2.50GHz,orientation_search,GHUM-L-P53541,Intel(R) HD Graphics 4000,2018_Nov_08_1354,testMonitor,
95.1,100.8,98.9,85.1,36,20,83.4,96.2,92.0,93.1,7.88,7.768,7.732,8.094,7.67,7.756,7.574,4.419,-4.498,-8.022,1.57,-1.268,8.047,4.52,-4.596,-8.285,,101.4,-8.496,80.2,116.1,97.2,78.0,101.6,36,81.3,5,5,prime,10,0,114,norm,36,-4.362,up,norm,96.0529300325,98.9,76.1,105.8,107.0,5,105.7,100.9,94.6,10,5,7.688,4.604,1.795,-1.96,-4.544,-7.941,104.9,5,210.1,-8.211,-8.141,20,-7.962,-7.662,-4.874,-4.948,-4.52,-4.858,4.51,7.673,35,-1.489,1.449,4.661,8.161,-8.416,-7.614,-1.106,1.733,99.2,97.2,111.6,106.1,109.8,107.1,94.4,97.4,106.7,84.1,0,norm,1.96,1.524,-1.34,-1.914,-5.211,-4.621,-2.079,-1.86,-1.447,-1.866,1.649,-1.985,91.9,87.7,-4.957,-8.153,1.534,-1.413,7.926,5.232,-4.572,-7.866,16,4.851,5.203,4.75,5.034,1.803,1.396,1.621,1.34,16,5.046,4.501,-10,285.940698474,norm,0,56,56,56,1302.145,1302.157,1302.18908531,1302.19,1302.195,1302.202,up,1,3.25499093902,6.74500906098,001,322,1366_768,Intel(R) Core(TM) i3-3120M CPU @ 2.50GHz,orientation_search,GHUM-L-P53541,Intel(R) HD Graphics 4000,2018_Nov_08_1354,testMonitor,
95.8,101.3,104.8,87.4,36,20,96.7,100.6,92.4,96.4,7.897,7.702,7.647,7.505,8.222,8.218,8.014,4.85,-4.635,-7.745,1.473,-1.569,7.602,4.741,-4.513,-7.866,116.0,100.7,-8.231,90.3,100.9,103.9,82.0,93.0,36,93.5,1,5,prime,10,0,68,norm,36,-4.331,up,norm,96.0529300325,80.5,84.8,98.6,101.2,4,93.5,76.1,99.2,10,5,8.02,4.576,1.52,-1.199,-4.52,-7.956,,5,164.1,-8.169,-7.51,20,-7.8,-7.674,-4.927,-4.339,-4.434,-4.512,4.803,7.951,10,-1.904,1.33,4.508,7.676,-7.934,-8.005,-1.289,1.549,108.8,105.5,94.6,94.9,99.8,93.7,91.0,101.1,100.2,101.0,1,norm,1.229,1.687,-1.664,-1.655,-4.857,-4.534,-2.076,-1.53,-1.143,-2.075,1.205,-1.182,108.8,116.1,-4.306,-7.561,1.911,-1.13,8.301,5.191,-5.127,-7.573,16,4.456,4.425,5.081,4.351,1.895,1.922,1.353,1.68,16,5.205,4.922,-10,285.940698474,norm,0,57,57,57,1305.519,1305.548,1305.57942437,1305.58,1305.583,1305.587,up,1,1.46497487169,8.53502512831,001,322,1366_768,Intel(R) Core(TM) i3-3120M CPU @ 2.50GHz,orientation_search,GHUM-L-P53541,Intel(R) HD Graphics 4000,2018_Nov_08_1354,testMonitor,
94.9,82.9,91.4,78.5,36,20,116.1,97.9,76.1,93.3,8.001,8.075,8.399,8.345,8.132,7.597,7.806,4.634,-5.105,-8.22,1.82,-1.443,7.819,5.219,-4.37,-7.973,81.6,93.0,-8.174,93.1,,95.7,93.3,90.1,36,97.9,5,5,prime,10,0,71,norm,36,-4.574,down,norm,96.0529300325,88.5,87.5,87.4,90.9,0,99.1,95.8,88.6,10,5,8.037,4.647,1.621,-1.175,-4.53,-8.497,107.8,5,167.1,-8.32,-7.587,20,-7.694,-8.092,-4.377,-5.195,-4.998,-4.883,5.166,7.699,30,-1.56,1.482,4.987,8.084,-7.786,-8.1,-1.209,1.355,91.4,104.5,109.3,112.2,108.4,93.9,104.9,101.9,92.3,89.4,2,norm,1.967,1.65,-1.894,-1.535,-4.858,-4.564,-1.932,-1.859,-1.767,-1.62,1.543,-1.711,83.7,85.1,-4.822,-8.272,1.977,-1.596,8.394,4.544,-5.084,-7.918,16,5.242,4.964,4.966,5.121,1.181,1.301,1.4,1.675,16,5.028,5.213,-10,285.940698474,norm,0,58,58,58,1307.082,1307.096,1307.11644538,1307.117,1307.12,1307.123,down,1,2.49535896708,7.50464103292,001,322,1366_768,Intel(R) Core(TM) i3-3120M CPU @ 2.50GHz,orientation_search,GHUM-L-P53541,Intel(R) HD Graphics 4000,2018_Nov_08_1354,testMonitor,
114.9,76.1,103.8,92.4,36,20,105.6,99.1,95.6,97.4,7.887,7.599,8.042,8.076,7.88,7.516,7.909,4.468,-4.686,-7.87,1.745,-1.352,7.807,4.554,-4.833,-8.253,87.1,93.5,-8.232,98.4,87.9,92.0,89.5,93.9,36,80.7,1,5,prime,10,0,100,norm,36,-5.034,down,norm,96.0529300325,89.7,77.5,97.3,103.4,0,80.3,87.5,97.5,10,5,7.998,4.842,1.327,-1.152,-4.819,-7.819,116.1,5,196.1,-7.935,-8.077,20,-7.571,-7.622,-4.819,-4.556,-4.666,-4.931,4.97,7.646,6,-1.603,2.048,4.418,7.817,-8.236,-7.512,-1.654,1.103,88.6,107.4,98.5,96.5,97.7,93.9,106.4,,98.6,88.7,3,norm,1.514,1.106,-1.494,-2.071,-4.431,-4.638,-1.132,-1.799,-1.873,-1.777,1.723,-1.342,84.2,98.0,-5.196,-8.206,1.781,-1.784,8.003,4.863,-4.705,-7.531,16,5.127,5.053,4.822,4.884,1.384,1.36,1.3,1.111,16,5.073,5.23,-10,285.940698474,norm,0,59,59,59,1309.665,1309.685,1309.71201187,1309.712,1309.716,1309.723,down,1,3.67880797695,6.32119202305,001,322,1366_768,Intel(R) Core(TM) i3-3120M CPU @ 2.50GHz,orientation_search,GHUM-L-P53541,Intel(R) HD Graphics 4000,2018_Nov_08_1354,testMonitor,
98.6,106.1,110.8,88.5,36,20,92.2,89.9,95.3,76.1,7.552,8.437,8.163,7.706,8.43,8.434,8.279,4.365,-4.959,-7.507,1.806,-1.559,8.327,4.796,-4.304,-8.308,90.7,93.2,-8.178,88.8,,92.7,106.0,104.1,36,88.3,5,5,prime,10,0,119,norm,36,-5.054,down,norm,96.0529300325,84.2,108.6,97.4,95.3,0,110.2,84.3,111.0,10,5,8.024,4.746,1.362,-1.467,-5.204,-7.912,77.4,5,215.1,-7.873,-7.86,20,-8.311,-7.789,-4.757,-4.702,-5.248,-4.986,5.289,8.138,30,-2.023,1.333,4.339,7.56,-8.278,-7.96,-1.69,2.084,105.3,104.8,91.6,80.8,83.7,86.3,116.1,89.9,97.4,92.8,4,norm,2.02,1.999,-1.405,-1.769,-5.228,-4.865,-1.18,-1.376,-1.174,-1.878,1.291,-1.223,112.7,91.7,-4.744,-8.376,1.198,-1.397,8.095,4.563,-4.595,-8.023,16,4.411,4.884,4.895,4.65,1.414,1.239,1.961,1.392,16,5.054,4.611,-10,285.940698474,norm,0,60,60,60,1313.446,1313.466,1313.49160924,1313.492,1313.495,1313.499,down,1,3.65207046611,6.34792953389,001,322,1366_768,Intel(R) Core(TM) i3-3120M CPU @ 2.50GHz,orientation_search,GHUM-L-P53541,Intel(R) HD Graphics 4000,2018_Nov_08_1354,testMonitor,
218.6,219.0,223.8,225.5,36,0,230.9,216.6,223.5,224.8,7.652,7.691,8.147,8.206,8.053,7.809,7.739,4.451,-4.44,-7.778,1.947,-1.367,8.158,4.643,-4.961,-7.515,,220.8,-7.589,228.3,219.5,217.7,224.7,219.2,36,219.3,5,5,probe,5,0,104,norm,36,-5.212,up,norm,222.356321523,225.8,223.1,223.0,212.4,5,221.8,217.7,219.4,10,5,8.398,4.623,1.124,-1.733,-4.48,-8.132,222.7,1,118.4,-8.243,-8.469,20,-7.693,-7.957,-4.626,-5.062,-5.298,-4.963,4.596,8.256,35,-1.991,1.262,5.24,8.435,-8.427,-8.071,-1.983,1.424,224.6,217.5,222.6,220.8,218.4,230.8,213.0,232.4,220.3,217.8,0,norm,1.838,1.565,-1.332,-1.544,-4.734,-4.671,-1.976,-1.677,-1.609,-1.847,1.676,-1.87,222.9,224.0,-4.556,-8.165,1.271,-1.659,8.077,4.53,-4.468,-8.172,17,4.84,4.721,4.809,5.296,1.688,1.31,1.127,1.577,17,5.234,4.307,20,96.0529300325,norm,0,61,61,61,1317.212,1317.231,1317.25766116,1317.258,1317.262,1317.266,up,1,0.760146044166,9.23985395583,001,322,1366_768,Intel(R) Core(TM) i3-3120M CPU @ 2.50GHz,orientation_search,GHUM-L-P53541,Intel(R) HD Graphics 4000,2018_Nov_08_1354,testMonitor,
173.8,168.9,156.9,161.2,36,-80,161.4,153.5,170.9,142.4,7.983,8.069,8.217,7.717,8.091,8.467,7.895,4.564,-4.516,-7.757,1.276,-2.012,7.771,5.127,-4.502,-8.47,153.7,165.5,-7.862,165.2,175.0,145.3,158.8,164.5,36,,4,5,prime,10,0,77,norm,36,-5.01,up,norm,154.98152199,146.4,158.7,168.2,167.7,3,146.1,162.6,145.1,10,5,8.389,4.848,1.614,-1.499,-5.204,-8.08,135.0,5,232.0,-8.431,-8.046,-80,-8.323,-8.395,-4.977,-4.643,-5.125,-5.111,4.513,7.865,27,-1.573,1.929,4.891,7.603,-7.97,-7.504,-1.92,1.77,158.9,136.8,154.9,135.0,152.7,159.0,160.5,141.1,154.3,151.9,0,norm,1.587,2.036,-1.751,-1.173,-5.066,-5.052,-1.546,-1.102,-1.143,-1.415,1.596,-1.797,155.3,157.9,-4.48,-8.116,1.898,-1.656,8.325,4.931,-4.787,-8.283,18,5.121,4.679,5.27,5.297,1.878,1.742,2.064,1.324,18,4.371,4.6,0,96.0529300325,norm,0,62,62,62,1318.088,1327.162,1327.19553978,1327.196,1327.199,1327.203,up,1,1.49646272257,8.50353727743,001,322,1366_768,Intel(R) Core(TM) i3-3120M CPU @ 2.50GHz,orientation_search,GHUM-L-P53541,Intel(R) HD Graphics 4000,2018_Nov_08_1354,testMonitor,
153.9,161.1,156.8,149.4,36,-80,141.1,167.6,159.7,147.3,8.243,8.43,8.335,8.004,7.887,8.046,7.705,5.219,-5.066,-7.967,1.686,-2.023,7.704,4.626,-4.462,-8.072,162.5,155.5,-8.468,164.2,158.2,153.5,169.0,145.1,36,175.0,0,5,prime,10,0,77,norm,36,-4.316,up,norm,154.98152199,145.6,154.4,141.6,170.6,5,156.3,167.7,162.4,10,5,8.211,4.531,1.432,-1.28,-5.042,-8.061,155.8,5,232.0,-7.544,-8.024,-80,-7.862,-8.267,-4.931,-4.956,-4.532,-5.214,4.834,8.15,5,-1.8,2.061,4.539,7.859,-8.475,-8.464,-2.013,1.721,161.3,150.9,154.3,137.7,146.6,135.0,167.4,149.5,,168.6,1,norm,1.996,1.919,-1.996,-2.012,-4.99,-4.514,-2.025,-1.822,-1.206,-1.744,1.987,-2.002,152.6,135.3,-5.27,-8.007,1.936,-1.505,8.128,5.28,-5.03,-8.297,18,5.01,4.338,5.216,4.977,1.468,1.834,2.048,1.545,18,5.109,4.716,0,96.0529300325,norm,0,63,63,63,1328.76,1328.774,1328.8055611,1328.806,1328.812,1328.819,up,1,1.37977612583,8.62022387417,001,322,1366_768,Intel(R) Core(TM) i3-3120M CPU @ 2.50GHz,orientation_search,GHUM-L-P53541,Intel(R) HD Graphics 4000,2018_Nov_08_1354,testMonitor,
144.9,145.2,,148.9,36,-80,137.8,154.5,142.4,168.2,8.108,7.712,7.785,8.364,8.465,8.001,8.023,4.872,-4.675,-7.887,1.384,-1.564,8.457,5.004,-4.302,-8.285,144.3,154.5,-8.467,170.1,145.2,158.3,159.2,150.9,36,173.1,3,5,prime,10,0,63,norm,36,-4.882,down,norm,154.98152199,156.3,157.8,143.1,163.0,2,153.6,135.0,146.9,10,5,7.513,4.944,2.012,-1.146,-4.485,-8.29,155.2,5,218.0,-7.575,-8.002,-80,-7.631,-7.824,-4.575,-4.333,-5.089,-4.784,4.71,8.244,20,-1.587,1.653,5.286,8.186,-7.84,-8.162,-1.907,2.019,150.4,175.0,156.7,161.4,159.4,142.7,152.3,149.0,149.1,165.8,2,norm,2.043,1.933,-1.911,-1.531,-4.752,-4.698,-1.458,-1.807,-1.864,-1.56,1.35,-2.068,151.7,154.7,-4.439,-8.465,1.874,-1.679,7.764,5.149,-4.579,-8.177,18,4.941,5.109,4.345,4.981,1.508,1.914,1.555,1.474,18,4.755,5.186,0,96.0529300325,norm,0,64,64,64,1330.26,1330.288,1330.32109176,1330.321,1330.325,1330.329,down,1,1.32426618342,8.67573381658,001,322,1366_768,Intel(R) Core(TM) i3-3120M CPU @ 2.50GHz,orientation_search,GHUM-L-P53541,Intel(R) HD Graphics 4000,2018_Nov_08_1354,testMonitor,
149.4,151.5,,154.8,36,-80,151.7,149.1,147.8,175.0,8.143,7.88,8.31,8.161,7.869,7.989,7.539,4.408,-4.658,-7.736,1.112,-1.581,7.921,5.098,-5.233,-7.771,135.0,143.8,-7.886,146.2,169.1,147.6,163.1,172.0,36,158.6,3,5,prime,10,0,62,norm,36,-4.758,down,norm,154.98152199,154.6,166.8,155.9,152.4,2,150.5,163.5,152.2,10,5,7.807,5.134,1.205,-1.985,-4.333,-8.002,160.8,5,217.0,-7.556,-7.574,-80,-8.464,-8.414,-4.464,-4.409,-4.391,-5.139,5.169,8.314,20,-1.595,1.141,5.013,8.317,-7.829,-7.89,-2.065,2.041,168.4,149.0,166.1,157.0,154.6,162.3,167.4,155.4,157.9,143.7,3,norm,1.448,2.006,-1.713,-1.835,-4.655,-4.553,-1.569,-2.095,-1.426,-1.502,1.287,-1.365,149.7,148.7,-4.776,-7.62,1.663,-1.134,7.814,4.477,-4.367,-7.618,18,4.645,5.232,5.19,4.407,1.262,1.132,1.776,1.959,18,4.843,4.446,0,96.0529300325,norm,0,65,65,65,1331.713,1331.726,1331.75930487,1331.76,1331.762,1331.766,down,1,0.922331118432,9.07766888157,001,322,1366_768,Intel(R) Core(TM) i3-3120M CPU @ 2.50GHz,orientation_search,GHUM-L-P53541,Intel(R) HD Graphics 4000,2018_Nov_08_1354,testMonitor,
139.6,146.0,135.0,157.9,36,-80,164.1,168.4,145.6,159.6,7.76,8.364,8.172,7.911,7.944,7.907,8.314,4.73,-4.971,-8.383,1.693,-1.984,7.866,4.781,-4.398,-7.751,159.6,150.2,-8.475,159.6,138.7,143.3,144.7,144.7,36,142.3,2,5,prime,10,0,92,norm,36,-4.992,down,norm,154.98152199,155.0,149.1,158.5,148.1,1,167.5,,162.0,10,5,8.157,4.977,1.589,-1.103,-4.754,-8.181,175.0,5,247.0,-7.98,-8.339,-80,-7.509,-7.789,-5.048,-4.698,-5.056,-4.307,4.31,7.831,13,-1.155,1.766,4.878,7.722,-8.427,-7.978,-1.932,1.383,140.8,170.8,146.5,148.7,151.5,152.7,158.4,164.5,163.3,160.8,4,norm,1.138,1.607,-1.666,-1.847,-5.262,-4.705,-1.456,-1.68,-1.432,-2.039,1.612,-2.056,162.9,149.1,-4.418,-7.983,1.91,-1.873,7.527,4.742,-4.586,-8.344,18,5.246,4.862,4.713,4.451,1.216,1.757,1.713,1.379,18,5.208,4.411,0,96.0529300325,norm,0,66,66,66,1332.75,1332.776,1332.78078208,1332.781,1332.784,1332.787,down,1,1.21240964698,8.78759035302,001,322,1366_768,Intel(R) Core(TM) i3-3120M CPU @ 2.50GHz,orientation_search,GHUM-L-P53541,Intel(R) HD Graphics 4000,2018_Nov_08_1354,testMonitor,
153.6,166.2,161.7,,36,-80,152.7,159.4,157.4,167.3,8.459,8.253,7.626,7.774,7.766,7.714,8.46,5.189,-4.788,-7.913,1.703,-1.144,7.616,5.026,-4.861,-7.823,160.3,164.3,-7.572,157.9,161.7,158.8,151.2,160.3,36,165.0,3,5,probe,5,0,82,norm,36,-4.362,up,norm,157.34966614,164.6,165.4,160.8,160.1,3,159.2,161.3,156.8,10,5,8.384,4.434,2.089,-1.905,-5.288,-8.061,162.5,2,75.3,-8.146,-8.259,-80,-8.5,-8.442,-4.582,-4.821,-4.611,-4.955,5.007,7.512,21,-1.789,1.21,5.252,8.304,-7.599,-7.681,-1.924,1.567,156.6,159.4,155.3,151.1,158.5,165.1,160.5,163.2,161.3,164.4,0,norm,1.796,1.749,-1.448,-2.006,-5.102,-4.889,-1.851,-1.157,-1.764,-1.417,1.972,-1.632,159.6,147.3,-4.985,-7.877,2.077,-1.182,7.625,4.399,-4.84,-8.259,19,4.545,4.643,5.05,4.782,1.262,1.372,1.308,1.96,19,5.148,5.275,-80,154.98152199,norm,0,67,67,67,1334.046,1334.064,1334.09118146,1334.092,1334.095,1334.098,up,1,0.932845149597,9.0671548504,001,322,1366_768,Intel(R) Core(TM) i3-3120M CPU @ 2.50GHz,orientation_search,GHUM-L-P53541,Intel(R) HD Graphics 4000,2018_Nov_08_1354,testMonitor,
187.9,187.0,186.5,195.8,36,-80,188.2,195.4,197.2,188.9,7.506,8.125,7.512,8.079,8.208,8.208,8.435,4.656,-5.207,-7.988,1.157,-1.878,8.169,4.464,-5.279,-8.087,199.3,187.4,-8.056,191.0,,185.8,190.8,190.5,36,195.3,5,5,probe,5,0,114,norm,36,-5.18,down,norm,189.34966614,188.4,192.1,184.5,188.2,0,185.9,188.7,197.7,10,5,7.584,4.479,1.725,-1.752,-5.097,-8.116,193.6,2,75.3,-8.322,-8.375,-80,-8.045,-8.025,-5.074,-4.744,-5.238,-4.502,4.707,8.463,30,-1.38,1.954,4.938,8.159,-8.455,-7.647,-1.713,1.52,189.4,185.8,196.2,198.0,188.4,187.5,189.8,179.3,197.5,189.7,1,norm,1.674,1.311,-1.512,-1.611,-4.525,-4.755,-1.399,-1.245,-1.91,-1.588,1.934,-1.438,183.6,192.1,-5.22,-7.968,1.881,-1.146,7.934,5.276,-4.314,-7.73,19,4.97,4.307,5.063,5.109,1.628,1.126,1.385,1.102,19,4.926,4.953,-80,154.98152199,norm,0,68,68,68,1335.065,1335.078,1335.11094099,1335.111,1335.114,1335.118,down,1,0.839842860703,9.1601571393,001,322,1366_768,Intel(R) Core(TM) i3-3120M CPU @ 2.50GHz,orientation_search,GHUM-L-P53541,Intel(R) HD Graphics 4000,2018_Nov_08_1354,testMonitor,
21.7,17.4,-0.1,2.8,36,-10,,-4.7,10.0,15.8,8.022,7.522,8.371,8.338,7.748,8.46,7.832,5.017,-4.453,-7.54,1.346,-1.406,8.057,5.173,-4.443,-7.545,-1.2,9.5,-8.01,0.1,13.3,10.9,17.8,1.8,36,1.9,4,5,prime,10,0,98,norm,36,-4.455,down,norm,8.57533708271,10.8,4.8,-5.4,19.9,0,8.2,11.5,7.8,10,5,7.928,4.961,1.815,-2.059,-4.904,-7.609,1.8,5,106.6,-8.086,-7.669,-10,-7.631,-8.407,-4.596,-5.0,-4.607,-4.311,4.643,8.01,24,-1.91,1.956,4.918,7.583,-8.329,-8.381,-1.475,1.506,14.0,11.7,-11.4,-4.9,28.6,5.4,-2.4,1.9,27.5,3.3,0,norm,1.898,1.781,-1.106,-1.381,-4.486,-4.419,-1.693,-1.558,-1.997,-1.953,1.945,-1.459,20.8,13.2,-4.324,-8.106,1.408,-1.572,8.197,4.305,-5.021,-7.644,20,4.571,4.687,4.385,4.348,1.998,1.755,1.491,1.404,20,5.047,5.288,-80,154.98152199,norm,0,69,69,69,1336.019,1336.046,1336.05043004,1336.051,1336.054,1336.057,down,1,2.44873700949,7.55126299051,001,322,1366_768,Intel(R) Core(TM) i3-3120M CPU @ 2.50GHz,orientation_search,GHUM-L-P53541,Intel(R) HD Graphics 4000,2018_Nov_08_1354,testMonitor,
9.5,14.1,6.4,8.9,36,-10,0.6,6.1,18.2,12.7,7.714,7.678,8.33,8.449,8.495,8.055,7.537,4.514,-4.508,-8.157,1.59,-1.973,8.427,4.368,-5.172,-7.904,2.6,6.8,-8.126,14.2,22.0,4.1,4.3,10.9,36,11.4,2,5,prime,10,0,87,norm,36,-5.229,up,norm,8.57533708271,9.4,,20.4,8.2,4,-11.4,14.7,3.1,10,5,8.148,4.798,2.012,-1.327,-4.361,-8.496,9.8,5,95.6,-7.865,-7.725,-10,-8.222,-7.561,-4.484,-4.913,-4.379,-4.543,4.449,8.062,16,-1.919,1.579,4.826,8.249,-8.25,-7.523,-1.25,1.282,-0.6,2.0,28.6,8.3,-2.7,10.9,9.3,19.1,12.6,25.6,1,norm,1.458,1.292,-1.167,-1.307,-4.781,-4.855,-2.047,-1.631,-1.181,-1.983,1.128,-1.91,9.5,11.8,-4.317,-8.074,1.815,-1.62,8.258,4.414,-4.97,-7.558,20,5.094,4.838,5.138,4.521,2.0,1.129,1.603,2.036,20,4.861,4.421,-80,154.98152199,norm,0,70,70,70,1338.537,1338.55,1338.58116342,1338.582,1338.584,1338.588,up,1,1.04314385395,8.95685614605,001,322,1366_768,Intel(R) Core(TM) i3-3120M CPU @ 2.50GHz,orientation_search,GHUM-L-P53541,Intel(R) HD Graphics 4000,2018_Nov_08_1354,testMonitor,
16.6,-5.3,13.3,-3.0,36,-10,4.4,7.3,17.0,5.4,7.572,8.399,8.163,8.22,7.558,8.446,8.105,4.376,-4.71,-8.48,1.479,-1.97,7.581,4.956,-5.039,-7.522,23.8,-2.2,-7.643,2.8,19.7,12.6,18.1,11.0,36,,4,5,prime,10,0,95,norm,36,-5.215,up,norm,8.57533708271,5.8,3.2,15.4,2.9,3,13.8,-11.4,7.1,10,5,8.05,4.755,1.45,-1.392,-4.615,-8.198,28.6,5,103.6,-7.69,-8.278,-10,-7.869,-8.057,-4.708,-4.867,-4.477,-4.893,4.588,8.471,27,-1.707,1.762,5.152,8.45,-7.763,-7.873,-1.87,1.126,11.0,-0.5,5.2,2.2,5.2,11.2,-5.2,11.5,-0.2,7.5,2,norm,1.462,1.117,-1.533,-1.895,-5.008,-4.728,-1.189,-1.401,-1.303,-1.895,1.68,-1.674,25.3,-5.8,-4.335,-8.088,1.224,-1.784,7.972,4.43,-4.821,-8.477,20,4.63,4.388,4.516,5.092,1.237,1.715,1.486,1.901,20,4.948,4.88,-80,154.98152199,norm,0,71,71,71,1339.677,1339.7,1339.72341967,1339.724,1339.726,1339.73,up,1,1.05964347796,8.94035652204,001,322,1366_768,Intel(R) Core(TM) i3-3120M CPU @ 2.50GHz,orientation_search,GHUM-L-P53541,Intel(R) HD Graphics 4000,2018_Nov_08_1354,testMonitor,
11.5,-5.0,14.9,4.3,36,-10,1.6,16.2,14.4,-9.2,7.528,8.209,8.071,7.989,8.144,8.33,8.312,4.877,-4.544,-7.572,1.772,-1.753,7.93,4.795,-5.056,-8.463,17.7,,-8.418,7.3,22.1,-6.4,9.8,-2.0,36,18.1,5,5,prime,10,0,118,norm,36,-5.128,up,norm,8.57533708271,20.8,17.2,17.8,7.3,4,7.4,1.6,20.2,10,5,8.438,4.444,2.012,-1.623,-5.105,-7.904,-1.6,5,126.6,-7.545,-8.348,-10,-8.072,-7.578,-5.082,-5.088,-4.947,-4.858,4.324,8.141,34,-1.432,1.295,5.011,8.247,-8.306,-7.993,-1.392,1.309,7.8,16.6,7.5,6.3,-3.0,2.6,28.6,1.0,16.7,-11.4,3,norm,1.648,1.519,-1.535,-1.748,-4.865,-5.217,-1.703,-2.066,-2.036,-1.967,1.934,-1.209,13.7,-0.1,-4.852,-8.176,1.183,-1.336,7.741,4.97,-5.265,-8.028,20,4.453,5.135,4.578,5.155,2.002,1.778,1.158,1.659,20,4.33,4.432,-80,154.98152199,norm,0,72,72,72,1340.849,1340.868,1340.89515597,1340.896,1340.9,1340.905,up,1,1.07381354505,8.92618645495,001,322,1366_768,Intel(R) Core(TM) i3-3120M CPU @ 2.50GHz,orientation_search,GHUM-L-P53541,Intel(R) HD Graphics 4000,2018_Nov_08_1354,testMonitor,
-11.4,24.3,0.6,-5.4,36,-10,16.7,17.0,8.8,-6.3,7.585,7.692,8.327,8.031,7.789,7.974,8.276,4.953,-4.334,-7.613,1.475,-1.604,7.71,4.416,-5.045,-7.988,9.2,6.6,-8.155,28.6,16.0,9.3,18.1,9.4,36,17.9,1,5,prime,10,0,81,norm,36,-4.384,down,norm,8.57533708271,26.9,19.9,17.6,-4.7,2,10.5,0.2,13.3,10,5,8.157,4.804,1.512,-1.809,-5.043,-7.648,19.0,5,89.6,-7.519,-8.314,-10,-7.549,-7.699,-4.932,-4.588,-4.959,-4.401,5.041,7.574,8,-1.866,1.865,4.787,7.538,-8.261,-7.524,-1.463,1.325,1.8,,10.5,17.5,28.5,19.6,20.9,27.5,10.4,14.9,4,norm,1.94,1.697,-1.538,-1.293,-5.23,-4.814,-1.897,-1.179,-1.736,-2.049,1.946,-1.192,-5.4,24.1,-4.561,-7.915,1.438,-1.581,7.709,4.326,-5.129,-7.755,20,5.062,4.619,5.157,4.792,1.76,1.176,1.914,1.886,20,5.1,4.828,-80,154.98152199,norm,0,73,73,73,1342.025,1342.043,1342.07128469,1342.072,1342.075,1342.08,down,1,0.964453813649,9.03554618635,001,322,1366_768,Intel(R) Core(TM) i3-3120M CPU @ 2.50GHz,orientation_search,GHUM-L-P53541,Intel(R) HD Graphics 4000,2018_Nov_08_1354,testMonitor,
95.8,97.5,91.4,108.4,36,30,99.4,103.2,91.3,99.3,8.49,7.839,8.067,7.527,8.105,7.877,8.387,4.566,-4.46,-7.533,1.143,-1.932,7.879,4.79,-4.558,-8.152,89.5,94.8,-8.057,93.1,98.4,99.4,,103.1,36,92.7,5,5,probe,5,0,101,norm,36,-4.54,down,norm,98.4113876408,90.2,98.3,102.4,106.9,2,93.5,95.9,99.5,10,5,7.83,4.475,1.304,-2.052,-4.638,-8.15,101.0,1,-2.6,-8.307,-8.461,-10,-8.494,-8.381,-4.476,-4.796,-4.718,-5.086,4.369,7.953,32,-2.051,1.298,4.429,7.864,-8.451,-8.245,-1.338,1.847,92.5,89.8,88.4,102.9,93.2,95.0,92.2,100.9,96.8,98.7,0,norm,1.294,1.578,-1.734,-1.75,-4.507,-4.863,-1.332,-1.5,-1.837,-1.97,1.726,-1.543,106.1,103.5,-4.587,-7.899,1.179,-1.946,7.717,4.552,-4.687,-7.955,21,4.878,4.356,4.57,4.889,1.683,1.344,1.992,1.159,21,4.306,4.953,-10,8.57533708271,norm,0,74,74,74,1343.104,1343.119,1343.14979392,1343.15,1343.153,1343.157,down,1,2.10709674502,7.89290325498,001,322,1366_768,Intel(R) Core(TM) i3-3120M CPU @ 2.50GHz,orientation_search,GHUM-L-P53541,Intel(R) HD Graphics 4000,2018_Nov_08_1354,testMonitor,
35.4,35.5,55.4,47.4,36,10,43.7,42.5,36.8,23.5,7.816,7.838,7.544,7.994,8.274,7.563,8.119,4.45,-4.583,-7.752,1.569,-1.802,8.453,4.748,-4.852,-7.853,47.8,45.0,-8.098,44.7,45.9,42.5,35.1,32.3,36,34.3,0,5,prime,10,0,101,norm,36,-4.782,up,norm,43.5279834549,60.4,36.8,46.5,50.5,3,57.0,36.9,41.7,10,6,7.839,4.535,1.476,-1.991,-4.639,-8.389,28.0,6,144.5,-7.844,-7.663,10,-8.383,-7.967,-5.288,-4.461,-5.048,-4.511,5.16,7.68,3,-1.328,1.872,4.975,7.84,-7.967,-8.125,-2.0,1.209,31.0,45.7,,34.5,46.5,38.4,49.3,47.6,55.5,55.4,0,norm,1.951,1.987,-1.462,-1.904,-5.164,-4.525,-1.842,-1.302,-1.921,-1.214,1.356,-1.946,36.4,48.7,-4.524,-7.911,1.471,-1.125,8.274,5.003,-5.098,-8.192,22,4.578,4.74,4.819,5.113,2.069,1.585,1.757,1.532,22,4.324,5.11,30,8.57533708271,norm,0,75,75,75,1345.325,1345.353,1345.38623716,1345.387,1345.392,1345.399,up,1,0.83524415351,9.16475584649,001,322,1366_768,Intel(R) Core(TM) i3-3120M CPU @ 2.50GHz,orientation_search,GHUM-L-P53541,Intel(R) HD Graphics 4000,2018_Nov_08_1354,testMonitor,
40.8,46.5,43.7,31.9,36,10,35.5,30.2,23.5,46.0,8.204,7.723,7.932,8.223,7.961,8.363,8.223,4.841,-5.215,-8.416,1.975,-2.033,8.428,4.37,-4.536,-8.157,33.3,50.6,-8.262,46.3,55.1,45.4,51.7,42.0,36,37.5,2,5,prime,10,0,85,norm,36,-4.948,up,norm,43.5279834549,42.3,46.3,,25.5,3,48.3,36.7,63.5,10,6,8.451,4.385,1.409,-2.095,-4.623,-7.653,31.5,6,128.5,-8.149,-8.25,10,-8.297,-7.687,-5.017,-4.386,-4.944,-4.615,4.517,8.083,15,-1.157,1.811,4.731,7.525,-8.28,-7.784,-1.556,1.155,60.4,60.3,45.4,51.0,33.5,43.9,42.5,34.2,50.5,40.7,1,norm,1.587,1.891,-1.931,-1.402,-4.912,-4.994,-1.36,-1.697,-1.874,-1.839,1.685,-1.26,37.8,40.3,-5.293,-7.856,1.116,-1.731,8.135,4.479,-4.716,-7.894,22,4.388,5.031,4.979,4.751,1.124,1.364,1.775,1.355,22,4.525,4.456,30,8.57533708271,norm,0,76,76,76,1346.295,1346.31,1346.3414196,1346.342,1346.347,1346.355,up,1,0.879808589234,9.12019141077,001,322,1366_768,Intel(R) Core(TM) i3-3120M CPU @ 2.50GHz,orientation_search,GHUM-L-P53541,Intel(R) HD Graphics 4000,2018_Nov_08_1354,testMonitor,
36.2,48.3,45.6,25.6,36,10,23.5,49.5,39.8,24.6,7.59,7.662,8.132,7.788,8.165,7.9,7.77,4.317,-4.509,-7.969,1.424,-1.988,7.878,4.531,-5.054,-7.752,44.5,51.7,-8.063,42.8,46.5,41.4,42.5,36.2,36,63.5,2,5,prime,10,0,78,norm,36,-4.808,up,norm,43.5279834549,,50.9,50.5,44.6,5,38.3,47.6,55.3,10,6,7.746,4.487,1.85,-1.571,-4.488,-7.939,59.3,6,121.5,-7.708,-7.697,10,-7.87,-7.536,-4.992,-4.728,-5.193,-4.962,4.459,7.649,17,-1.281,1.977,5.167,7.534,-8.39,-8.483,-1.104,1.693,51.3,40.7,38.0,41.9,49.8,50.3,52.8,53.0,31.9,33.4,2,norm,1.424,1.72,-2.072,-1.158,-4.533,-5.109,-1.778,-1.96,-1.203,-1.458,1.307,-1.724,26.4,35.7,-4.985,-7.74,1.614,-1.887,7.699,4.966,-4.389,-8.327,22,5.016,4.458,4.925,5.033,1.947,1.569,1.98,1.194,22,4.559,4.367,30,8.57533708271,norm,0,77,77,77,1347.297,1347.324,1347.35772567,1347.358,1347.364,1347.371,up,1,0.83650488389,9.16349511611,001,322,1366_768,Intel(R) Core(TM) i3-3120M CPU @ 2.50GHz,orientation_search,GHUM-L-P53541,Intel(R) HD Graphics 4000,2018_Nov_08_1354,testMonitor,
23.5,28.6,44.3,27.0,36,10,40.5,50.8,42.8,43.8,7.74,8.061,7.664,8.492,8.263,8.398,7.806,4.376,-4.739,-8.463,1.134,-1.56,8.162,5.192,-4.482,-8.1,45.5,38.9,-7.724,45.5,37.0,,38.4,58.0,36,49.8,5,5,prime,10,0,109,norm,36,-4.888,up,norm,43.5279834549,47.4,41.7,34.3,41.7,3,38.8,50.8,26.5,10,6,7.804,5.162,1.862,-1.513,-4.57,-8.162,55.4,6,152.5,-8.003,-8.024,10,-8.371,-7.757,-5.215,-4.706,-4.628,-4.452,5.037,7.729,33,-1.821,1.18,5.203,8.423,-7.573,-8.075,-2.097,1.978,48.3,42.0,60.6,46.9,56.3,31.4,36.0,57.0,44.0,63.5,3,norm,1.949,1.166,-2.082,-1.874,-4.833,-4.619,-1.625,-1.338,-1.402,-1.696,1.181,-1.169,46.9,30.2,-4.365,-7.523,1.374,-1.203,7.622,5.147,-5.28,-8.152,22,5.108,4.94,4.526,5.157,1.366,2.035,2.08,1.933,22,4.765,4.599,30,8.57533708271,norm,0,78,78,78,1348.239,1348.252,1348.28296904,1348.283,1348.286,1348.289,up,1,0.903948206513,9.09605179349,001,322,1366_768,Intel(R) Core(TM) i3-3120M CPU @ 2.50GHz,orientation_search,GHUM-L-P53541,Intel(R) HD Graphics 4000,2018_Nov_08_1354,testMonitor,
36.3,33.5,35.9,42.9,36,10,,60.6,43.3,45.9,7.698,7.718,7.536,8.452,8.413,8.163,7.605,4.755,-4.479,-8.035,1.912,-1.637,7.856,4.655,-4.84,-8.394,53.4,44.1,-7.695,54.5,34.2,46.6,32.4,41.2,36,49.0,4,5,prime,10,0,66,norm,36,-4.69,down,norm,43.5279834549,61.6,33.5,44.8,50.9,0,32.2,52.2,46.9,10,6,8.321,4.582,1.752,-1.464,-4.417,-8.3,41.3,6,109.5,-7.906,-7.577,10,-8.46,-8.094,-5.157,-4.538,-5.145,-5.224,4.445,8.024,24,-1.786,1.942,5.046,8.19,-8.493,-8.279,-1.939,1.407,56.9,57.6,46.5,46.0,54.9,34.1,63.5,43.7,46.0,39.9,4,norm,1.887,1.221,-1.395,-1.279,-4.489,-4.434,-1.849,-1.765,-1.245,-1.195,1.98,-1.775,26.1,44.8,-4.928,-7.758,1.335,-1.346,8.349,5.133,-5.166,-7.935,22,4.613,4.689,4.662,4.744,1.232,1.174,1.646,1.223,22,5.231,5.004,30,8.57533708271,norm,0,79,79,79,1349.237,1349.255,1349.2833808,1349.284,1349.286,1349.29,up,0,0.932568594348,-10,001,322,1366_768,Intel(R) Core(TM) i3-3120M CPU @ 2.50GHz,orientation_search,GHUM-L-P53541,Intel(R) HD Graphics 4000,2018_Nov_08_1354,testMonitor,
40.1,,46.9,46.3,36,10,23.5,51.5,52.9,36.2,7.854,8.063,7.592,8.163,7.894,8.102,8.026,5.057,-5.143,-8.221,1.529,-1.714,8.331,5.049,-4.502,-8.218,26.5,48.5,-8.068,35.0,63.5,36.8,54.0,51.9,36,47.1,3,5,prime,10,0,86,norm,36,-5.039,up,norm,43.5279834549,42.3,35.8,53.4,31.3,5,44.2,55.1,50.0,10,6,7.568,5.287,1.673,-2.015,-4.945,-8.001,41.7,6,129.5,-8.492,-7.816,10,-7.502,-8.047,-4.525,-4.404,-4.586,-5.134,4.963,7.703,23,-1.49,1.124,4.301,7.935,-8.287,-7.712,-1.32,1.931,45.3,30.5,39.1,28.2,35.1,61.2,47.2,43.3,32.5,51.8,5,norm,1.42,1.867,-1.878,-1.337,-4.739,-4.876,-1.277,-1.581,-1.968,-1.704,1.358,-1.959,43.0,35.7,-4.697,-8.389,1.727,-1.66,8.155,5.079,-5.056,-8.147,22,4.552,4.832,5.287,4.335,1.556,1.206,1.356,2.099,22,4.589,4.426,30,8.57533708271,norm,0,80,80,80,1351.331,1351.344,1351.37758875,1351.378,1351.383,1351.391,up,1,2.12984249089,7.87015750911,001,322,1366_768,Intel(R) Core(TM) i3-3120M CPU @ 2.50GHz,orientation_search,GHUM-L-P53541,Intel(R) HD Graphics 4000,2018_Nov_08_1354,testMonitor,
,168.7,168.4,177.3,36,-20,182.3,165.8,175.1,167.2,7.567,7.629,8.29,7.83,7.713,8.307,8.134,4.544,-4.715,-8.404,1.578,-1.578,7.51,4.77,-4.881,-8.096,175.7,174.1,-7.62,175.0,174.3,174.4,162.3,170.5,36,177.0,3,5,probe,5,0,118,norm,36,-5.242,up,norm,172.322418415,169.2,174.0,167.9,167.8,4,174.6,176.9,164.5,10,6,8.417,4.3,1.457,-1.918,-5.084,-8.37,166.3,2,54.3,-7.728,-7.867,10,-8.069,-8.289,-4.874,-4.484,-5.11,-4.529,4.623,7.928,22,-1.166,1.517,5.257,7.959,-7.532,-7.558,-1.986,1.68,165.4,173.6,177.3,175.8,166.8,177.2,176.2,170.8,174.4,175.7,0,norm,1.148,2.02,-1.448,-1.105,-4.647,-5.027,-1.869,-1.504,-1.178,-1.768,1.721,-1.389,180.8,162.7,-4.386,-8.307,2.02,-1.734,7.709,4.535,-4.71,-7.769,23,5.152,5.101,5.223,4.821,1.737,1.193,1.334,1.709,23,4.435,4.961,10,43.5279834549,norm,0,81,81,81,1353.582,1353.61,1353.64302304,1353.643,1353.647,1353.651,up,1,1.33831667015,8.66168332985,001,322,1366_768,Intel(R) Core(TM) i3-3120M CPU @ 2.50GHz,orientation_search,GHUM-L-P53541,Intel(R) HD Graphics 4000,2018_Nov_08_1354,testMonitor,
158.4,152.2,153.1,149.9,36,-20,148.4,140.3,143.1,150.1,8.285,7.977,8.182,7.966,7.578,7.541,8.027,5.215,-4.734,-8.075,1.913,-1.118,8.489,4.363,-5.054,-7.954,152.6,143.9,-8.288,157.8,148.5,146.0,147.9,156.6,36,153.9,2,5,probe,5,0,96,norm,36,-4.704,down,norm,150.322418415,160.3,155.2,147.5,,2,157.4,159.0,153.6,10,6,7.869,5.079,1.717,-1.775,-5.194,-7.689,151.7,2,54.3,-8.024,-8.004,10,-8.01,-7.824,-4.905,-4.392,-4.322,-5.18,5.274,8.455,14,-1.441,2.07,4.45,7.83,-7.918,-7.708,-1.443,1.583,151.1,147.6,153.4,155.3,154.0,146.9,140.6,154.6,158.0,149.9,1,norm,1.568,1.833,-1.413,-1.895,-5.239,-5.008,-1.175,-1.76,-1.355,-1.892,1.205,-1.182,152.8,150.8,-4.399,-8.333,1.202,-1.915,7.734,4.502,-4.428,-7.887,23,5.079,5.204,5.249,4.72,1.903,1.133,1.378,1.61,23,4.928,5.188,10,43.5279834549,norm,0,82,82,82,1355.051,1355.07,1355.09610932,1355.096,1355.099,1355.102,down,1,0.840846349514,9.15915365049,001,322,1366_768,Intel(R) Core(TM) i3-3120M CPU @ 2.50GHz,orientation_search,GHUM-L-P53541,Intel(R) HD Graphics 4000,2018_Nov_08_1354,testMonitor,
3.8,5.8,18.5,0.5,36,-60,11.7,6.2,13.9,11.0,8.35,8.28,8.362,8.395,7.86,8.271,7.707,5.189,-5.149,-8.174,1.657,-1.665,7.614,4.439,-5.259,-7.968,26.4,9.2,-7.697,19.5,12.4,10.9,9.0,-2.3,36,7.8,2,5,prime,10,0,79,norm,36,-4.607,down,norm,9.75045004789,14.2,9.3,15.7,14.2,0,-0.3,3.4,,10,6,7.622,4.474,1.585,-1.65,-4.751,-7.575,19.7,6,88.8,-8.298,-7.787,-60,-7.872,-8.003,-4.602,-5.198,-5.222,-4.404,4.58,8.018,12,-1.198,1.68,4.864,8.183,-7.689,-8.0,-1.292,1.685,11.1,29.8,6.9,8.4,6.7,-4.1,0.4,17.6,9.2,12.0,0,norm,1.709,2.062,-2.017,-1.13,-4.871,-5.23,-1.767,-1.378,-1.521,-1.696,2.058,-2.008,-10.2,7.8,-4.65,-8.393,1.46,-1.588,8.202,5.063,-4.814,-8.125,24,4.972,5.036,4.693,5.234,1.68,1.575,1.499,2.012,24,5.017,4.997,-20,43.5279834549,norm,0,83,83,83,1356.004,1356.024,1356.04894535,1356.049,1356.052,1356.056,down,1,1.83969492625,8.16030507375,001,322,1366_768,Intel(R) Core(TM) i3-3120M CPU @ 2.50GHz,orientation_search,GHUM-L-P53541,Intel(R) HD Graphics 4000,2018_Nov_08_1354,testMonitor,
13.4,29.8,14.2,14.1,36,-60,-1.2,13.2,12.8,26.9,7.821,7.608,8.34,7.823,7.556,7.503,7.656,5.218,-4.687,-8.48,1.617,-1.753,8.255,5.11,-4.621,-8.37,-5.9,9.4,-7.707,7.2,3.4,7.1,16.8,24.7,36,8.7,0,5,prime,10,0,111,norm,36,-4.926,up,norm,9.75045004789,-1.1,-4.5,0.0,4.1,3,14.4,22.4,13.7,10,6,7.68,4.691,1.961,-1.979,-4.745,-8.226,20.4,6,120.8,-7.97,-8.369,-60,-7.927,-7.616,-4.803,-4.826,-4.493,-4.886,4.713,8.121,3,-1.491,2.013,5.088,8.205,-8.053,-7.637,-1.114,1.638,-4.2,9.6,,-4.5,-0.2,-8.0,19.6,11.7,-10.2,7.5,1,norm,1.223,1.115,-1.787,-1.748,-4.32,-4.624,-1.836,-1.785,-1.267,-2.019,1.826,-1.905,1.6,13.5,-5.206,-7.667,1.598,-1.805,8.027,5.279,-4.353,-7.596,24,4.692,4.337,5.203,4.356,2.004,1.547,1.527,1.601,24,4.382,4.42,-20,43.5279834549,norm,0,84,84,84,1357.958,1357.99,1358.01813841,1358.018,1358.021,1358.025,up,1,3.15053400234,6.84946599766,001,322,1366_768,Intel(R) Core(TM) i3-3120M CPU @ 2.50GHz,orientation_search,GHUM-L-P53541,Intel(R) HD Graphics 4000,2018_Nov_08_1354,testMonitor,
14.8,7.5,17.5,13.4,36,-60,-2.5,1.7,16.0,-0.7,7.891,7.856,8.039,8.163,8.145,7.996,8.427,4.652,-4.832,-7.519,1.14,-1.986,8.063,4.368,-5.023,-8.287,8.8,0.8,-7.632,7.7,17.4,-4.4,12.7,17.1,36,-4.3,2,5,prime,10,0,78,norm,36,-5.052,up,norm,9.75045004789,7.9,17.9,,7.8,3,27.4,17.4,-4.1,10,6,7.708,4.772,2.016,-1.801,-4.863,-7.882,6.4,6,87.8,-8.444,-8.081,-60,-7.527,-7.57,-4.598,-4.842,-4.53,-4.897,4.305,7.752,15,-1.594,1.488,4.403,8.191,-8.143,-8.145,-1.405,1.723,18.5,22.9,-0.7,10.5,-3.4,11.8,13.0,6.6,29.8,-3.0,2,norm,1.777,1.716,-1.211,-1.292,-4.537,-5.258,-1.187,-1.723,-1.56,-1.992,1.816,-1.472,12.0,16.4,-4.681,-8.286,1.693,-1.791,8.211,4.791,-5.062,-8.473,24,4.469,5.215,4.75,4.687,1.477,1.565,1.882,1.82,24,4.448,5.128,-20,43.5279834549,norm,0,85,85,85,1361.222,1361.238,1361.26812423,1361.268,1361.271,1361.274,up,1,1.9644603885,8.0355396115,001,322,1366_768,Intel(R) Core(TM) i3-3120M CPU @ 2.50GHz,orientation_search,GHUM-L-P53541,Intel(R) HD Graphics 4000,2018_Nov_08_1354,testMonitor,
9.0,5.6,13.6,6.8,36,-60,20.5,0.3,6.0,22.2,7.99,8.404,7.714,7.521,7.818,7.618,7.527,4.835,-4.923,-8.094,1.383,-1.694,8.139,4.358,-5.036,-8.192,16.0,13.9,-7.724,-3.8,13.1,16.5,2.2,11.8,36,14.6,1,5,prime,10,0,103,norm,36,-5.233,up,norm,9.75045004789,-5.3,15.0,29.8,27.1,4,9.0,15.8,-10.2,10,6,8.403,4.9,1.604,-2.074,-4.907,-7.856,,6,112.8,-7.681,-7.725,-60,-8.237,-8.195,-4.447,-5.054,-4.309,-4.7,4.679,7.698,10,-1.276,1.449,4.379,7.976,-8.335,-7.721,-2.0,1.804,18.9,4.6,2.1,12.4,10.2,1.2,23.4,15.5,4.5,4.0,3,norm,1.572,1.959,-1.625,-2.014,-5.289,-4.312,-1.581,-1.735,-1.205,-1.823,1.577,-1.829,12.3,20.0,-4.652,-8.492,1.963,-1.756,8.445,5.029,-5.185,-8.293,24,4.435,4.367,5.281,4.802,1.995,1.315,1.444,2.039,24,4.592,4.76,-20,43.5279834549,norm,0,86,86,86,1363.285,1363.298,1363.33049833,1363.331,1363.333,1363.337,up,1,0.808392404375,9.19160759563,001,322,1366_768,Intel(R) Core(TM) i3-3120M CPU @ 2.50GHz,orientation_search,GHUM-L-P53541,Intel(R) HD Graphics 4000,2018_Nov_08_1354,testMonitor,
15.8,28.6,10.2,3.6,36,-60,-3.1,6.6,,7.1,7.793,7.77,8.011,8.094,7.798,8.447,7.534,4.313,-4.67,-7.786,1.866,-1.598,7.669,4.891,-4.667,-7.763,11.7,9.7,-7.752,21.0,16.6,9.3,13.1,-9.9,36,20.1,4,5,prime,10,0,69,norm,36,-4.673,up,norm,9.75045004789,15.7,9.1,7.7,8.2,4,5.0,8.9,11.1,10,6,8.184,5.121,1.763,-1.612,-4.89,-8.214,13.7,6,78.8,-8.05,-8.439,-60,-7.847,-7.749,-4.7,-4.615,-5.094,-5.072,4.949,8.002,28,-1.139,1.515,4.674,8.077,-7.656,-8.375,-1.586,2.084,29.8,22.8,16.8,24.1,16.7,-5.4,2.0,24.3,-10.2,22.0,4,norm,1.61,1.929,-2.067,-1.338,-4.337,-5.273,-1.356,-1.145,-1.496,-1.771,1.316,-1.143,13.5,-8.5,-5.005,-7.944,1.167,-1.786,7.501,4.302,-4.35,-7.834,24,4.778,4.499,4.592,5.019,1.447,1.767,1.645,1.767,24,5.248,5.113,-20,43.5279834549,norm,0,87,87,87,1364.191,1364.296,1364.31494467,1364.315,1364.32,1364.324,up,1,2.04184326343,7.95815673657,001,322,1366_768,Intel(R) Core(TM) i3-3120M CPU @ 2.50GHz,orientation_search,GHUM-L-P53541,Intel(R) HD Graphics 4000,2018_Nov_08_1354,testMonitor,
-8.3,-4.9,13.6,7.6,36,-60,24.3,-1.0,8.2,10.1,7.82,8.22,8.016,7.619,8.265,8.293,7.537,5.238,-4.981,-8.309,1.615,-1.38,7.751,4.857,-4.641,-7.959,4.3,21.7,-7.741,10.8,11.5,-1.4,14.0,3.2,36,3.2,0,5,prime,10,0,83,norm,36,-4.946,up,norm,9.75045004789,29.8,-0.4,27.5,14.9,5,-0.3,-2.5,6.4,10,6,7.633,4.934,1.402,-1.648,-4.497,-7.556,1.9,6,92.8,-8.221,-8.233,-60,-8.226,-7.93,-5.046,-4.934,-4.822,-4.733,4.835,7.698,5,-1.765,1.881,4.747,8.489,-7.516,-7.946,-1.564,2.071,14.2,17.9,19.8,21.1,8.8,8.9,-3.1,20.2,,25.6,5,norm,1.271,1.486,-1.533,-1.527,-4.305,-4.672,-1.535,-1.451,-1.739,-1.482,1.569,-2.009,3.1,16.8,-4.301,-7.887,2.074,-2.035,8.326,4.351,-5.072,-7.762,24,5.014,5.246,4.401,5.104,1.798,1.513,1.149,1.328,24,4.758,4.442,-20,43.5279834549,norm,0,88,88,88,1366.412,1366.433,1366.45767636,1366.458,1366.461,1366.464,up,1,1.57610652925,8.42389347075,001,322,1366_768,Intel(R) Core(TM) i3-3120M CPU @ 2.50GHz,orientation_search,GHUM-L-P53541,Intel(R) HD Graphics 4000,2018_Nov_08_1354,testMonitor,
35.6,39.3,31.2,39.8,36,-60,25.0,44.2,,28.9,7.633,7.908,7.708,7.728,8.162,7.891,8.495,5.155,-5.032,-7.92,1.424,-2.055,7.771,5.114,-5.066,-7.589,29.4,32.8,-7.648,37.6,37.7,31.0,32.9,29.9,36,45.0,4,5,probe,5,0,76,norm,36,-4.326,up,norm,35.0108185153,27.9,27.7,32.5,37.7,4,31.8,29.6,40.5,10,6,7.81,5.265,1.73,-1.452,-4.867,-8.071,37.7,1,-41.0,-7.98,-7.601,-60,-8.228,-7.632,-4.557,-4.522,-4.438,-4.31,4.331,8.43,28,-1.367,2.048,4.868,8.185,-8.343,-8.261,-1.999,1.366,40.0,30.5,44.7,27.6,36.0,41.1,34.2,28.6,28.7,31.7,0,norm,1.874,1.108,-1.581,-1.293,-4.596,-5.052,-1.48,-1.144,-1.226,-1.206,1.583,-1.578,29.0,32.6,-4.778,-8.246,1.243,-1.211,7.854,4.317,-4.949,-8.074,25,5.278,4.519,4.619,4.356,1.821,1.257,1.931,1.408,25,5.128,5.13,-60,9.75045004789,norm,0,89,89,89,1368.1,1368.122,1368.14529877,1368.146,1368.151,1368.156,up,1,1.11616142938,8.88383857062,001,322,1366_768,Intel(R) Core(TM) i3-3120M CPU @ 2.50GHz,orientation_search,GHUM-L-P53541,Intel(R) HD Graphics 4000,2018_Nov_08_1354,testMonitor,
232.5,233.8,233.9,222.7,36,-60,233.7,238.6,245.8,241.0,7.541,8.468,7.988,7.746,7.563,7.91,8.068,5.053,-4.504,-7.75,1.151,-1.633,8.05,4.598,-4.944,-8.337,229.4,227.7,-8.012,239.4,227.4,215.1,228.5,227.2,36,216.6,2,5,prime,10,0,101,norm,36,-4.44,up,norm,228.412924776,225.7,,241.1,231.5,4,248.4,215.7,242.5,10,5,7.767,5.195,1.417,-1.873,-4.987,-8.241,221.3,5,329.4,-7.914,-7.721,-60,-8.258,-8.102,-5.16,-4.696,-5.263,-5.096,4.73,8.362,16,-1.201,1.846,4.913,7.591,-7.682,-7.833,-1.333,1.552,224.8,239.6,208.4,245.2,224.8,237.1,224.9,234.3,226.7,226.8,0,norm,1.653,1.186,-1.612,-1.477,-4.605,-4.584,-1.844,-1.434,-1.815,-1.393,1.194,-1.29,236.3,241.2,-4.705,-8.243,1.738,-1.108,8.391,4.476,-4.582,-7.82,26,5.108,4.626,4.399,4.924,2.071,1.505,1.131,1.792,26,5.058,5.299,-60,9.75045004789,norm,0,90,90,90,1369.318,1369.338,1369.36371209,1369.364,1369.369,1369.374,up,1,1.02398387514,8.97601612486,001,322,1366_768,Intel(R) Core(TM) i3-3120M CPU @ 2.50GHz,orientation_search,GHUM-L-P53541,Intel(R) HD Graphics 4000,2018_Nov_08_1354,testMonitor,
246.1,222.3,237.4,,36,-60,221.4,217.9,234.1,224.7,7.941,7.764,8.456,8.012,8.371,8.206,7.746,4.415,-4.784,-8.071,1.484,-1.355,8.415,5.023,-5.054,-7.9,225.3,248.4,-8.283,233.4,242.1,247.5,229.2,229.4,36,237.7,3,5,prime,10,0,79,norm,36,-4.819,up,norm,228.412924776,233.8,216.7,218.9,223.6,3,224.5,225.5,214.4,10,5,7.624,4.776,1.817,-1.966,-4.37,-7.804,230.1,5,307.4,-8.346,-7.668,-60,-7.585,-7.613,-4.972,-4.98,-4.951,-4.882,5.229,8.108,21,-1.434,1.983,4.921,8.369,-8.088,-8.219,-1.403,1.727,216.0,241.6,208.4,226.3,236.2,243.6,219.6,237.3,228.3,220.1,1,norm,1.997,1.876,-1.93,-2.003,-5.244,-4.72,-1.71,-1.703,-1.222,-1.175,1.511,-1.62,225.0,223.7,-4.482,-8.325,1.173,-1.705,7.566,5.264,-4.967,-7.617,26,4.808,5.066,4.627,4.462,1.264,1.977,1.507,1.695,26,4.585,4.509,-60,9.75045004789,norm,0,91,91,91,1370.46,1370.487,1370.5205859,1370.521,1370.526,1370.534,up,1,1.03583589135,8.96416410865,001,322,1366_768,Intel(R) Core(TM) i3-3120M CPU @ 2.50GHz,orientation_search,GHUM-L-P53541,Intel(R) HD Graphics 4000,2018_Nov_08_1354,testMonitor,
242.5,236.4,239.9,215.9,36,-60,215.9,225.4,232.2,223.5,7.895,8.083,8.084,7.596,7.575,8.362,8.197,4.638,-4.903,-7.737,1.607,-1.364,7.908,4.772,-4.981,-8.016,231.0,229.4,-8.145,208.4,235.7,231.0,,228.5,36,216.5,5,5,prime,10,0,75,norm,36,-5.198,down,norm,228.412924776,237.3,211.7,231.5,231.4,2,231.2,230.0,220.8,10,5,8.403,5.101,1.884,-2.012,-4.601,-7.942,224.4,5,303.4,-8.485,-7.829,-60,-7.585,-7.534,-4.597,-5.037,-4.746,-4.863,4.583,8.123,32,-2.075,1.746,4.4,8.436,-7.7,-8.197,-1.648,1.69,231.0,234.0,229.8,233.1,248.4,234.2,227.7,228.6,223.8,239.8,2,norm,1.102,1.199,-1.805,-1.141,-5.128,-4.492,-2.003,-1.979,-1.712,-1.975,1.658,-1.254,226.7,235.6,-5.082,-7.546,1.386,-1.977,7.982,4.709,-4.924,-8.091,26,4.379,4.617,4.648,5.049,1.166,1.299,2.002,1.915,26,5.205,4.973,-60,9.75045004789,norm,0,92,92,92,1371.601,1371.615,1371.64511344,1371.645,1371.648,1371.652,down,1,1.12034550917,8.87965449083,001,322,1366_768,Intel(R) Core(TM) i3-3120M CPU @ 2.50GHz,orientation_search,GHUM-L-P53541,Intel(R) HD Graphics 4000,2018_Nov_08_1354,testMonitor,
228.6,232.4,230.9,224.9,36,-60,221.7,215.3,230.1,210.8,8.293,7.855,8.35,8.144,8.089,8.079,8.384,5.219,-4.824,-8.464,2.094,-2.04,7.93,4.762,-4.74,-7.614,238.1,216.1,-8.204,226.6,216.1,208.7,,208.4,36,229.0,5,5,prime,10,0,96,norm,36,-4.995,down,norm,228.412924776,226.0,222.2,220.3,222.7,2,224.6,241.4,248.4,10,5,7.869,4.32,1.339,-1.494,-4.587,-7.843,233.7,5,324.4,-7.835,-8.381,-60,-8.258,-8.451,-4.841,-5.118,-4.901,-4.892,4.463,8.467,32,-2.08,2.021,5.249,7.655,-7.871,-8.295,-1.182,2.095,221.2,241.1,225.6,224.8,238.7,233.0,221.9,228.5,233.1,227.3,3,norm,1.438,1.789,-1.51,-1.363,-5.109,-4.398,-1.817,-1.685,-1.464,-1.481,1.453,-1.633,238.3,210.1,-4.615,-8.099,1.313,-1.729,7.683,4.937,-4.976,-8.439,26,4.567,4.551,5.289,5.3,1.117,1.161,1.622,1.178,26,4.4,5.248,-60,9.75045004789,norm,0,93,93,93,1372.818,1372.832,1372.86391714,1372.864,1372.868,1372.873,down,1,1.2455872382,8.7544127618,001,322,1366_768,Intel(R) Core(TM) i3-3120M CPU @ 2.50GHz,orientation_search,GHUM-L-P53541,Intel(R) HD Graphics 4000,2018_Nov_08_1354,testMonitor,
225.7,234.5,216.2,248.4,36,-60,225.7,226.2,224.6,208.4,7.667,8.212,7.845,8.413,7.628,8.205,7.577,4.511,-4.951,-7.517,1.28,-1.247,8.15,5.035,-4.928,-8.365,231.1,234.0,-7.69,232.3,235.1,226.2,222.6,220.3,36,221.9,0,5,prime,10,0,118,norm,36,-4.479,down,norm,228.412924776,219.9,230.8,242.3,214.1,1,229.5,246.8,230.7,10,5,7.815,4.511,1.399,-1.883,-4.843,-8.001,223.9,5,346.4,-7.609,-8.38,-60,-7.613,-7.99,-5.115,-4.813,-4.93,-4.977,4.855,8.098,1,-1.64,1.661,5.115,7.512,-7.614,-8.29,-1.335,1.976,221.8,223.2,235.4,231.7,,246.8,223.5,229.0,242.0,231.5,4,norm,1.292,1.784,-1.37,-1.426,-4.794,-4.476,-1.993,-1.69,-1.453,-1.374,1.615,-2.073,231.5,217.4,-5.056,-8.154,1.108,-1.38,7.751,5.264,-5.034,-7.879,26,5.069,4.37,5.199,5.236,1.995,1.217,1.63,1.253,26,5.229,4.558,-60,9.75045004789,norm,0,94,94,94,1374.179,1374.207,1374.23935344,1374.24,1374.247,1374.254,down,1,1.78434319151,8.21565680849,001,322,1366_768,Intel(R) Core(TM) i3-3120M CPU @ 2.50GHz,orientation_search,GHUM-L-P53541,Intel(R) HD Graphics 4000,2018_Nov_08_1354,testMonitor,
266.8,,255.3,258.6,36,-60,263.6,262.9,266.7,259.5,8.388,7.916,8.106,7.662,7.638,8.275,7.988,5.24,-5.085,-8.115,1.369,-1.624,8.222,5.008,-5.222,-8.296,263.8,268.9,-7.996,259.6,263.1,265.4,264.0,264.8,36,264.9,3,5,probe,5,0,89,norm,36,-4.512,up,norm,262.566105343,265.7,256.6,261.3,255.2,5,262.9,261.7,272.6,10,5,8.11,5.217,1.212,-1.322,-4.434,-8.18,258.6,2,173.6,-7.837,-8.225,-60,-8.07,-7.751,-4.827,-4.945,-4.791,-4.661,4.973,8.081,23,-1.889,1.634,5.133,8.394,-7.591,-7.705,-1.289,2.013,261.5,259.8,265.0,252.6,259.7,271.4,266.3,264.3,259.3,263.6,0,norm,1.706,1.488,-1.357,-1.901,-5.242,-4.492,-1.707,-1.732,-1.485,-2.082,1.457,-1.22,261.9,256.7,-4.873,-8.025,1.417,-1.503,7.97,4.662,-4.638,-7.87,27,5.089,4.631,4.858,4.522,1.816,1.51,1.644,1.501,27,4.687,5.243,-60,228.412924776,norm,0,95,95,95,1376.101,1376.128,1376.16122925,1376.162,1376.167,1376.175,up,1,0.878046114463,9.12195388554,001,322,1366_768,Intel(R) Core(TM) i3-3120M CPU @ 2.50GHz,orientation_search,GHUM-L-P53541,Intel(R) HD Graphics 4000,2018_Nov_08_1354,testMonitor,
