d_ori_22,d_ori_23,d_ori_20,d_ori_21,set_size,ctpd,d_ori_24,d_ori_25,d_ori_28,d_ori_29,stim_pos_x_30,stim_pos_x_31,stim_pos_x_32,stim_pos_x_33,stim_pos_x_34,stim_pos_x_35,stim_pos_y_11,stim_pos_y_10,stim_pos_y_13,stim_pos_y_12,stim_pos_y_15,stim_pos_y_14,stim_pos_y_17,stim_pos_y_16,stim_pos_y_19,stim_pos_y_18,d_ori_35,d_ori_34,stim_pos_x_3,d_ori_31,d_ori_30,d_ori_33,d_ori_32,d_ori_26,test_set_size,d_ori_27,targetCol,dsd_test,seq_type,dsd,blockRepN,targetDist,dtype_test,prime_set_size,stim_pos_y_25,correctResponse,dtype,distrMean,d_ori_17,d_ori_16,d_ori_15,d_ori_14,targetRow,d_ori_11,d_ori_13,d_ori_12,dsd_prime,streak_length_prime,stim_pos_y_35,stim_pos_y_34,stim_pos_y_33,stim_pos_y_32,stim_pos_y_31,stim_pos_y_30,d_ori_10,nextProbe,targetOri,stim_pos_x_1,stim_pos_x_2,ctpd_prime,stim_pos_x_4,stim_pos_x_5,stim_pos_x_6,stim_pos_x_7,stim_pos_x_8,stim_pos_x_9,stim_pos_y_28,stim_pos_y_29,targetPos,stim_pos_y_20,stim_pos_y_21,stim_pos_y_22,stim_pos_y_23,stim_pos_y_24,stim_pos_x_0,stim_pos_y_26,stim_pos_y_27,d_ori_9,d_ori_8,d_ori_3,d_ori_2,d_ori_1,d_ori_0,d_ori_7,d_ori_6,d_ori_5,d_ori_4,trialN,dtype_prime,stim_pos_x_18,stim_pos_x_19,stim_pos_x_12,stim_pos_x_13,stim_pos_x_10,stim_pos_x_11,stim_pos_x_16,stim_pos_x_17,stim_pos_x_14,stim_pos_x_15,stim_pos_y_9,stim_pos_y_8,d_ori_19,d_ori_18,stim_pos_y_1,stim_pos_y_0,stim_pos_y_3,stim_pos_y_2,stim_pos_y_5,stim_pos_y_4,stim_pos_y_7,stim_pos_y_6,totBlockN,stim_pos_x_27,stim_pos_x_26,stim_pos_x_25,stim_pos_x_24,stim_pos_x_23,stim_pos_x_22,stim_pos_x_21,stim_pos_x_20,blockN,stim_pos_x_29,stim_pos_x_28,prevDistrCTPD,prevDistrMean,prevDistrType,trials.thisRepN,trials.thisTrialN,trials.thisN,trials.thisIndex,timeStart,timeBeforeDraw,timeDraw,timeAfterSaving,timeAfterWritingToTemp,timeAfterPreparingNext,answer,correct,rt,trialScore,session,participant,resolution,cpu_info,expName,pc_name,graphic_card,date,monitorName,
0.8,5.0,-11.6,-6.2,36,20,3.5,17.3,26.9,5.0,7.802,8.495,7.934,8.268,7.651,8.441,7.518,4.401,-5.206,-7.608,1.523,-1.595,7.744,4.617,-4.886,-8.472,7.3,11.8,-7.596,2.5,0.8,14.7,2.7,19.3,36,10.2,2,5,prime,10,0,67,norm,36,-5.201,up,norm,8.43650593756,1.1,,13.8,21.3,4,16.5,5.5,6.8,10,6,8.393,5.175,1.82,-1.753,-4.455,-8.359,14.3,6,75.4,-8.476,-7.995,20,-7.72,-7.692,-5.161,-5.004,-4.718,-4.855,4.861,7.936,16,-1.801,1.799,4.969,8.472,-8.196,-8.068,-2.02,1.606,-0.1,-5.8,5.3,10.2,1.8,5.4,2.6,0.4,-6.2,28.4,0,norm,1.938,1.181,-1.321,-1.627,-4.815,-5.141,-1.657,-1.616,-1.908,-1.92,1.875,-1.484,16.0,-2.2,-4.52,-8.337,1.834,-1.299,7.951,4.37,-5.009,-8.375,0,5.265,4.435,4.695,4.792,1.533,2.038,1.786,1.339,0,4.431,4.422,,,,0,0,0,0,696.108,696.124,696.145242492,696.146,696.146,696.149,up,1,17.3790307746,-7.37903077461,001,315,1600_900,Intel(R) Core(TM) i5-3230M CPU @ 2.60GHz,orientation_search,Thebeast,AMD Radeon HD 7500M/7600M Series,2018_Nov_08_1356,testMonitor,
1.9,2.2,16.5,-2.3,36,20,,15.3,-0.9,-11.0,7.638,8.228,7.522,8.402,8.4,8.283,8.073,4.714,-4.927,-7.538,1.207,-1.995,8.443,4.987,-4.993,-7.928,-1.3,9.5,-8.209,28.2,26.5,-0.1,-0.7,-4.0,36,-3.4,4,5,prime,10,0,75,norm,36,-4.901,down,norm,8.43650593756,12.6,28.4,18.5,12.1,0,-11.6,25.4,6.8,10,6,7.583,4.648,1.726,-1.113,-4.898,-8.431,10.2,6,83.4,-8.32,-8.205,20,-7.886,-7.925,-5.069,-4.947,-4.664,-4.311,4.823,8.357,24,-1.896,1.372,4.485,8.157,-7.69,-7.764,-1.472,1.689,1.7,17.3,4.8,-4.3,4.3,-4.5,-3.2,-0.6,16.2,-3.1,1,norm,1.612,2.02,-2.052,-1.184,-4.751,-5.292,-2.092,-1.551,-1.123,-1.556,1.654,-1.273,7.7,8.3,-4.464,-7.508,2.075,-1.717,7.878,5.228,-5.284,-8.362,0,4.477,4.52,4.679,5.21,1.203,2.052,1.572,1.884,0,4.446,4.399,,,,0,1,1,1,713.544,713.554,713.55976382,713.56,713.581,713.584,up,0,7.72617338025,-10,001,315,1600_900,Intel(R) Core(TM) i5-3230M CPU @ 2.60GHz,orientation_search,Thebeast,AMD Radeon HD 7500M/7600M Series,2018_Nov_08_1356,testMonitor,
25.1,9.9,11.9,18.5,36,20,4.1,13.2,12.3,-11.6,8.369,8.332,8.012,7.842,8.332,7.689,8.366,5.297,-5.002,-8.461,1.698,-1.844,7.714,4.865,-5.165,-7.726,-5.2,16.4,-7.786,-3.7,0.0,5.3,4.6,4.6,36,10.5,1,5,prime,10,0,115,norm,36,-4.895,up,norm,8.43650593756,13.8,11.5,13.5,28.4,5,,11.0,-3.7,10,6,8.027,4.369,1.317,-1.288,-5.25,-8.021,12.3,6,123.4,-8.142,-7.699,20,-8.225,-7.598,-4.468,-4.687,-4.564,-5.2,4.394,8.129,11,-1.24,2.002,5.061,8.479,-8.398,-8.419,-1.886,1.748,2.3,-9.3,5.1,-4.6,7.3,-0.3,13.0,7.0,20.9,3.0,2,norm,1.714,2.087,-1.24,-1.46,-4.449,-4.401,-1.882,-1.354,-1.502,-1.343,1.745,-1.832,15.2,-9.0,-4.839,-7.602,1.213,-1.563,7.828,4.741,-4.436,-7.953,0,5.084,4.939,4.972,4.966,1.463,1.825,1.395,1.625,0,4.643,4.816,,,,0,2,2,2,722.359,722.369,722.375291416,722.376,722.378,722.38,up,1,2.42930389426,7.57069610574,001,315,1600_900,Intel(R) Core(TM) i5-3230M CPU @ 2.60GHz,orientation_search,Thebeast,AMD Radeon HD 7500M/7600M Series,2018_Nov_08_1356,testMonitor,
9.5,18.6,9.3,7.2,36,20,13.1,25.3,-6.9,12.9,7.685,8.461,7.937,8.16,8.343,7.519,8.458,4.368,-4.979,-7.859,1.229,-2.061,7.58,5.295,-4.617,-7.67,2.2,-0.4,-7.501,27.6,10.1,5.0,,10.3,36,-11.6,5,5,prime,10,0,80,norm,36,-4.668,down,norm,8.43650593756,11.6,10.5,6.3,10.9,2,27.3,-2.5,17.5,10,6,7.882,5.265,2.057,-1.826,-4.816,-8.029,28.4,6,88.4,-7.699,-8.355,20,-7.601,-8.123,-4.535,-4.538,-5.145,-4.776,4.875,7.739,32,-1.105,1.276,4.663,7.957,-8.393,-7.602,-1.562,1.665,9.3,14.1,14.8,-0.4,-1.2,20.8,2.0,1.7,12.6,-5.7,3,norm,1.214,1.347,-1.773,-1.333,-5.172,-5.172,-2.041,-2.045,-1.802,-1.929,1.688,-1.258,4.5,7.6,-4.755,-8.254,1.909,-1.422,7.67,5.25,-5.243,-7.808,0,4.707,4.399,5.084,5.026,1.969,1.139,1.11,1.684,0,4.593,4.524,,,,0,3,3,3,724.826,724.836,724.841663239,724.842,724.844,724.847,down,1,1.44591962649,8.55408037351,001,315,1600_900,Intel(R) Core(TM) i5-3230M CPU @ 2.60GHz,orientation_search,Thebeast,AMD Radeon HD 7500M/7600M Series,2018_Nov_08_1356,testMonitor,
-1.8,-2.3,17.5,8.6,36,20,9.9,11.7,7.3,10.9,7.978,8.019,7.715,7.613,8.446,8.377,7.636,4.378,-4.398,-8.245,1.18,-1.529,8.247,4.406,-4.46,-7.879,2.3,21.4,-7.529,-3.3,-2.2,22.7,3.2,2.1,36,,4,5,prime,10,0,90,norm,36,-4.658,up,norm,8.43650593756,2.7,15.4,19.8,12.2,3,20.2,7.4,-11.6,10,6,7.77,5.225,1.806,-1.307,-5.017,-8.348,12.5,6,98.4,-7.748,-7.927,20,-8.305,-8.065,-5.025,-5.154,-4.579,-5.046,4.487,8.479,27,-1.109,2.063,4.475,7.779,-8.429,-7.993,-1.261,1.982,0.9,17.0,2.7,5.9,-11.3,13.8,20.7,16.1,20.1,7.9,4,norm,2.071,2.052,-1.287,-1.114,-5.268,-4.479,-1.91,-1.914,-1.249,-1.125,1.371,-1.627,20.5,12.1,-4.478,-7.51,1.936,-1.846,7.864,4.796,-4.632,-7.841,0,4.416,4.459,4.783,4.395,1.763,1.19,1.948,1.888,0,5.136,5.297,,,,0,4,4,4,726.309,726.32,726.324837111,726.325,726.327,726.33,up,1,1.26273801751,8.73726198249,001,315,1600_900,Intel(R) Core(TM) i5-3230M CPU @ 2.60GHz,orientation_search,Thebeast,AMD Radeon HD 7500M/7600M Series,2018_Nov_08_1356,testMonitor,
3.7,-6.5,10.6,20.1,36,20,16.6,18.7,7.2,6.7,8.017,8.348,7.646,7.707,8.011,7.655,7.914,5.28,-4.901,-8.063,1.685,-1.181,8.221,4.964,-4.522,-7.874,12.5,7.1,-8.123,21.1,-10.8,10.1,,28.4,36,6.8,5,5,prime,10,0,89,norm,36,-5.023,down,norm,8.43650593756,4.7,22.6,20.0,15.7,2,10.2,27.9,6.1,10,6,8.335,5.219,1.546,-2.069,-4.665,-7.707,17.5,6,97.4,-8.458,-8.239,20,-7.573,-8.046,-4.503,-4.427,-4.892,-4.717,5.181,7.886,32,-1.884,1.669,5.014,8.036,-8.13,-7.559,-1.812,1.137,20.9,2.0,-1.1,1.7,-2.1,-11.6,5.6,-8.0,4.0,2.7,5,norm,1.874,1.882,-1.698,-1.169,-4.356,-4.499,-1.343,-1.783,-1.45,-1.944,1.557,-1.454,21.8,4.2,-5.282,-7.662,1.991,-1.872,8.363,4.337,-5.189,-8.061,0,4.794,4.42,4.846,5.001,1.142,1.159,1.128,1.483,0,4.633,5.184,,,,0,5,5,5,727.609,727.626,727.641357474,727.642,727.644,727.647,down,1,0.895899139548,9.10410086045,001,315,1600_900,Intel(R) Core(TM) i5-3230M CPU @ 2.60GHz,orientation_search,Thebeast,AMD Radeon HD 7500M/7600M Series,2018_Nov_08_1356,testMonitor,
128.8,134.9,134.0,138.8,36,30,134.0,141.8,135.8,138.5,7.99,8.315,7.572,8.165,8.273,8.149,7.995,5.28,-5.14,-8.164,1.968,-1.915,7.869,5.102,-4.884,-8.127,126.7,126.5,-8.482,134.1,138.9,127.0,132.0,138.0,36,140.8,2,5,probe,5,0,107,norm,36,-4.45,down,norm,134.713182073,141.4,134.1,127.1,,2,144.7,133.5,136.9,10,6,7.532,4.836,1.38,-1.446,-4.66,-7.592,132.3,2,27.7,-7.896,-7.973,20,-7.736,-8.093,-4.926,-4.58,-4.867,-4.506,4.494,8.004,14,-1.238,1.432,4.712,8.219,-8.274,-8.214,-1.998,2.028,124.8,128.5,140.3,132.5,137.7,132.1,143.6,133.8,136.9,131.7,0,norm,1.383,1.69,-1.938,-1.212,-5.208,-4.994,-1.866,-1.333,-1.584,-1.416,1.897,-1.294,124.7,133.3,-5.033,-8.332,1.149,-1.133,7.868,4.87,-5.173,-7.721,1,5.116,5.187,5.263,5.114,1.424,1.171,1.719,1.329,1,4.744,4.796,20,8.43650593756,norm,0,6,6,6,728.559,728.572,728.591251724,728.592,728.594,728.596,down,1,2.01267821461,7.98732178539,001,315,1600_900,Intel(R) Core(TM) i5-3230M CPU @ 2.60GHz,orientation_search,Thebeast,AMD Radeon HD 7500M/7600M Series,2018_Nov_08_1356,testMonitor,
145.5,143.0,142.4,137.0,36,30,145.8,151.0,144.1,,8.37,7.988,8.136,8.45,7.933,7.566,7.86,5.073,-4.761,-7.768,1.913,-1.257,7.536,4.643,-4.772,-8.339,141.1,140.6,-7.549,147.2,146.0,142.3,154.7,152.0,36,144.4,4,5,probe,5,0,117,norm,36,-4.604,up,norm,144.713182073,139.2,143.6,143.2,151.2,5,145.3,148.9,144.7,10,6,8.358,5.214,1.946,-1.847,-5.18,-8.298,147.7,2,27.7,-7.877,-8.323,20,-7.808,-7.558,-4.635,-5.263,-4.484,-5.034,4.761,8.341,29,-1.265,1.551,4.6,8.193,-7.566,-8.278,-1.898,1.723,150.7,139.9,151.7,145.5,141.1,134.7,143.6,138.5,138.4,149.5,1,norm,1.446,2.077,-1.654,-1.396,-5.186,-4.985,-1.527,-1.184,-2.076,-1.245,1.763,-1.145,143.6,142.6,-5.029,-8.088,1.966,-1.23,7.952,5.232,-5.222,-8.373,1,5.206,4.699,4.934,5.079,1.94,1.69,1.313,2.032,1,5.238,4.333,20,8.43650593756,norm,0,7,7,7,730.625,730.635,730.640933525,730.641,730.643,730.646,up,1,1.31231758143,8.68768241857,001,315,1600_900,Intel(R) Core(TM) i5-3230M CPU @ 2.60GHz,orientation_search,Thebeast,AMD Radeon HD 7500M/7600M Series,2018_Nov_08_1356,testMonitor,
289.3,294.4,292.0,288.4,36,10,300.4,292.9,297.5,315.7,7.537,7.629,8.344,8.112,8.49,7.644,7.656,4.462,-4.63,-8.261,1.904,-1.495,7.583,4.9,-4.397,-8.312,280.1,300.5,-8.324,300.0,291.4,294.5,304.8,293.1,36,275.7,1,5,prime,10,0,104,norm,36,-4.304,up,norm,295.748062949,291.6,306.6,289.7,298.1,4,287.4,288.2,295.9,10,5,7.896,4.677,1.321,-2.029,-4.458,-8.288,,5,399.7,-8.287,-8.113,10,-8.062,-8.383,-5.212,-4.712,-4.887,-4.854,4.888,8.145,10,-1.539,1.846,5.029,7.954,-7.903,-8.177,-1.359,1.357,291.2,307.7,292.4,304.9,299.6,305.2,291.2,286.4,297.3,284.9,0,norm,1.152,2.06,-1.186,-1.647,-4.917,-4.896,-1.548,-2.095,-1.984,-2.067,1.46,-2.093,294.4,298.0,-4.777,-7.801,1.838,-1.145,8.109,4.65,-4.643,-7.709,2,4.967,4.663,4.865,4.651,1.753,1.439,1.368,1.84,2,4.574,4.581,30,8.43650593756,norm,0,8,8,8,731.975,731.984,731.990743774,731.991,731.995,732.0,up,1,1.04233492623,8.95766507377,001,315,1600_900,Intel(R) Core(TM) i5-3230M CPU @ 2.60GHz,orientation_search,Thebeast,AMD Radeon HD 7500M/7600M Series,2018_Nov_08_1356,testMonitor,
292.1,280.4,277.6,293.5,36,10,,287.8,293.0,300.9,8.078,8.116,8.081,8.425,7.573,7.737,8.123,4.658,-4.554,-8.055,1.711,-1.605,8.277,4.636,-4.655,-7.727,311.5,293.7,-7.518,303.4,312.6,286.7,293.7,289.8,36,296.3,4,5,prime,10,0,66,norm,36,-4.732,down,norm,295.748062949,308.5,296.4,289.4,291.4,0,277.2,290.2,310.5,10,5,8.069,4.625,2.004,-1.47,-5.05,-8.021,297.9,5,361.7,-8.366,-7.638,10,-7.767,-7.966,-5.094,-4.899,-4.755,-4.48,4.419,7.971,24,-1.37,1.511,4.875,8.406,-7.815,-7.942,-1.643,1.766,275.7,315.7,278.9,307.8,302.7,295.4,308.8,299.8,291.0,280.2,1,norm,2.014,1.613,-1.669,-1.152,-5.271,-5.059,-1.486,-1.916,-1.998,-1.87,1.787,-1.751,289.5,282.3,-4.697,-7.765,1.963,-1.922,7.726,5.083,-4.64,-7.647,2,5.072,4.777,5.299,4.759,2.022,2.097,1.21,1.459,2,4.787,4.637,30,8.43650593756,norm,0,9,9,9,733.058,733.068,733.073965726,733.074,733.077,733.08,down,1,0.945688309665,9.05431169034,001,315,1600_900,Intel(R) Core(TM) i5-3230M CPU @ 2.60GHz,orientation_search,Thebeast,AMD Radeon HD 7500M/7600M Series,2018_Nov_08_1356,testMonitor,
292.8,,293.8,298.5,36,10,292.8,304.4,296.5,303.1,8.294,8.007,8.087,7.731,7.51,8.195,7.513,4.488,-4.858,-8.1,1.432,-1.292,7.885,4.439,-4.565,-7.51,297.4,293.9,-7.813,278.4,291.1,290.0,296.8,299.1,36,290.1,3,5,prime,10,0,67,norm,36,-4.816,up,norm,295.748062949,315.7,277.9,310.8,294.9,5,292.1,300.4,286.4,10,5,7.866,4.923,1.216,-2.043,-4.47,-7.631,292.5,5,362.7,-8.081,-7.775,10,-8.149,-8.178,-5.223,-4.467,-4.794,-5.226,4.623,7.958,23,-1.388,2.085,4.896,7.923,-8.284,-8.461,-1.172,1.339,284.3,303.1,284.6,287.4,311.8,301.1,279.6,295.6,292.0,283.3,2,norm,1.143,1.684,-1.779,-1.923,-4.637,-5.232,-1.273,-1.335,-1.328,-2.052,1.467,-2.072,275.7,282.7,-5.295,-7.612,2.033,-1.501,8.047,4.444,-4.951,-7.996,2,4.583,4.461,4.457,5.077,1.643,1.13,1.103,2.089,2,4.47,4.87,30,8.43650593756,norm,0,10,10,10,734.041,734.051,734.057190519,734.057,734.06,734.063,up,1,0.845439703284,9.15456029672,001,315,1600_900,Intel(R) Core(TM) i5-3230M CPU @ 2.60GHz,orientation_search,Thebeast,AMD Radeon HD 7500M/7600M Series,2018_Nov_08_1356,testMonitor,
286.1,302.7,309.9,287.3,36,10,295.4,286.8,299.8,299.5,7.994,8.035,7.574,8.12,8.153,7.505,8.043,4.526,-5.205,-8.418,1.251,-1.591,8.437,5.14,-4.586,-7.802,315.7,288.5,-7.595,287.0,287.3,290.8,303.9,293.2,36,307.0,2,5,prime,10,0,92,norm,36,-4.752,down,norm,295.748062949,299.1,282.3,291.4,309.8,1,301.5,,283.5,10,5,7.561,4.741,1.119,-1.566,-4.818,-7.871,296.8,5,387.7,-8.103,-7.905,10,-7.992,-7.787,-4.391,-4.316,-5.047,-5.12,4.324,7.855,13,-1.807,1.143,4.346,7.611,-8.315,-8.33,-1.911,1.635,299.6,286.5,300.0,296.7,290.3,291.5,291.5,292.3,285.7,275.7,3,norm,1.71,1.482,-1.335,-1.894,-4.691,-4.685,-1.418,-2.013,-1.597,-2.038,1.755,-1.564,292.8,303.0,-4.384,-7.565,1.264,-1.514,7.883,4.701,-4.97,-7.906,2,4.548,5.122,4.542,4.769,1.96,2.009,1.858,1.747,2,4.83,5.036,30,8.43650593756,norm,0,11,11,11,734.924,734.935,734.940426049,734.941,734.943,734.946,down,1,0.679298170544,9.32070182946,001,315,1600_900,Intel(R) Core(TM) i5-3230M CPU @ 2.60GHz,orientation_search,Thebeast,AMD Radeon HD 7500M/7600M Series,2018_Nov_08_1356,testMonitor,
295.8,283.6,300.8,292.0,36,10,312.5,289.9,295.3,306.7,7.96,7.895,7.701,8.367,8.183,8.425,8.161,4.599,-5.296,-7.722,1.39,-1.864,7.746,4.534,-5.245,-7.646,313.5,300.4,-7.712,298.8,297.2,284.5,297.4,315.7,36,301.2,0,5,prime,10,0,73,norm,36,-4.632,up,norm,295.748062949,305.6,296.8,277.9,294.5,3,303.5,294.5,289.8,10,5,8.089,4.724,1.963,-2.092,-4.707,-7.918,297.0,5,368.7,-8.14,-8.032,10,-7.995,-7.781,-4.359,-4.701,-4.43,-4.331,4.754,7.669,3,-1.4,1.255,4.856,8.239,-7.632,-8.335,-2.056,1.709,288.7,286.9,,309.2,305.2,313.9,299.1,293.7,300.5,306.7,4,norm,1.245,1.958,-1.728,-1.454,-5.234,-4.744,-2.097,-1.132,-1.343,-1.734,1.244,-1.8,275.7,311.0,-4.822,-8.302,2.048,-1.511,8.436,4.959,-4.554,-7.551,2,4.466,4.613,5.287,4.944,2.045,1.381,1.569,1.584,2,5.175,4.418,30,8.43650593756,norm,0,12,12,12,735.641,735.653,735.657009255,735.657,735.659,735.662,up,1,0.879441302764,9.12055869724,001,315,1600_900,Intel(R) Core(TM) i5-3230M CPU @ 2.60GHz,orientation_search,Thebeast,AMD Radeon HD 7500M/7600M Series,2018_Nov_08_1356,testMonitor,
373.4,376.5,367.3,380.1,36,60,375.1,371.2,364.8,,8.345,7.7,8.101,8.045,7.734,8.043,7.561,5.185,-4.538,-8.034,1.56,-1.849,8.012,4.521,-5.271,-8.369,369.3,382.5,-8.444,370.9,363.3,374.0,375.9,368.8,36,367.2,4,5,probe,5,0,67,norm,36,-4.653,up,norm,372.458075867,362.5,371.4,370.8,369.1,5,376.5,373.7,373.0,10,5,7.919,4.736,1.26,-1.994,-4.45,-7.919,368.8,1,305.5,-8.32,-8.204,10,-8.405,-8.495,-4.903,-4.866,-5.081,-5.005,5.216,7.725,29,-1.994,1.57,4.908,7.774,-8.068,-7.9,-1.615,1.965,370.8,369.6,372.4,377.9,372.0,365.0,371.7,374.0,375.3,373.4,0,norm,1.759,1.633,-1.423,-2.087,-4.786,-4.682,-1.748,-1.421,-1.258,-1.602,1.169,-1.134,377.2,372.8,-5.161,-8.014,1.238,-1.748,7.544,5.208,-5.2,-8.069,3,4.985,4.588,4.909,4.538,1.387,1.238,1.851,1.168,3,5.121,5.188,10,295.748062949,norm,0,13,13,13,736.558,736.568,736.573565855,736.574,736.576,736.579,up,1,1.91286263649,8.08713736351,001,315,1600_900,Intel(R) Core(TM) i5-3230M CPU @ 2.60GHz,orientation_search,Thebeast,AMD Radeon HD 7500M/7600M Series,2018_Nov_08_1356,testMonitor,
279.0,286.8,281.4,271.7,36,-60,280.5,298.5,287.6,281.2,7.778,7.778,8.309,8.109,7.931,7.577,7.515,4.917,-5.063,-8.386,1.437,-1.874,7.881,5.125,-5.17,-8.303,,307.0,-8.049,296.7,288.9,276.7,279.8,283.8,36,294.8,5,5,prime,10,0,94,norm,36,-4.478,up,norm,291.746383739,283.3,309.4,311.7,293.7,5,295.7,288.0,296.8,10,5,7.983,4.72,1.444,-1.746,-5.038,-8.264,284.6,5,385.7,-7.892,-8.219,-60,-8.339,-7.907,-4.352,-5.276,-4.634,-4.887,5.15,8.187,35,-1.625,1.161,4.485,8.005,-8.345,-8.189,-1.815,2.051,285.6,285.2,281.4,303.1,284.7,290.2,300.4,290.0,299.8,291.2,0,norm,1.898,1.17,-1.302,-2.026,-4.916,-5.103,-1.191,-1.648,-2.094,-1.228,1.439,-1.832,281.4,304.7,-4.53,-7.765,1.478,-1.796,7.959,4.506,-4.405,-8.391,4,5.253,5.28,5.255,4.816,2.008,1.149,1.197,1.676,4,4.925,5.135,60,295.748062949,norm,0,14,14,14,738.507,738.517,738.523264709,738.524,738.526,738.529,up,1,1.99578695484,8.00421304516,001,315,1600_900,Intel(R) Core(TM) i5-3230M CPU @ 2.60GHz,orientation_search,Thebeast,AMD Radeon HD 7500M/7600M Series,2018_Nov_08_1356,testMonitor,
277.9,303.2,298.7,294.4,36,-60,290.6,294.4,297.2,286.5,8.093,7.745,8.19,8.158,7.53,8.224,7.595,4.325,-4.875,-8.157,1.216,-1.92,7.987,4.61,-5.178,-7.633,284.8,304.6,-7.554,307.6,288.3,,308.0,297.7,36,297.1,5,5,prime,10,0,93,norm,36,-4.84,up,norm,291.746383739,294.6,271.7,278.7,292.6,3,275.7,297.2,297.3,10,5,8.117,4.517,1.427,-1.454,-4.447,-7.972,288.2,5,384.7,-7.857,-8.361,-60,-8.133,-8.271,-5.015,-4.616,-4.981,-4.51,4.411,7.577,33,-1.514,1.839,4.402,7.739,-8.311,-7.979,-1.168,1.735,300.7,290.7,296.9,307.7,283.7,311.7,288.4,288.8,298.8,290.1,1,norm,1.144,1.765,-1.323,-1.667,-4.465,-4.31,-1.23,-1.107,-1.263,-1.272,1.115,-1.378,304.5,295.7,-4.612,-7.981,1.27,-1.105,7.632,4.85,-4.544,-8.377,4,4.962,5.254,4.433,5.175,1.639,1.874,1.65,1.637,4,4.417,5.213,60,295.748062949,norm,0,15,15,15,740.54,740.551,740.556391568,740.557,740.559,740.562,up,1,1.22904431415,8.77095568585,001,315,1600_900,Intel(R) Core(TM) i5-3230M CPU @ 2.60GHz,orientation_search,Thebeast,AMD Radeon HD 7500M/7600M Series,2018_Nov_08_1356,testMonitor,
294.1,305.8,295.9,285.6,36,-60,305.6,287.0,300.7,311.7,7.943,7.616,7.566,8.059,7.742,7.505,8.293,5.168,-4.486,-7.929,1.804,-1.955,8.009,4.354,-4.932,-8.442,294.3,289.6,-7.867,301.4,293.3,292.3,298.0,287.2,36,293.8,0,5,prime,10,0,105,norm,36,-4.694,down,norm,291.746383739,299.2,283.1,306.7,275.4,1,271.7,279.7,307.3,10,5,7.538,4.797,1.867,-1.472,-4.524,-7.983,281.8,5,396.7,-8.096,-7.548,-60,-8.349,-8.459,-4.673,-4.558,-4.644,-5.232,4.616,7.635,1,-2.063,1.107,4.969,8.315,-7.738,-8.318,-1.457,1.297,298.7,284.0,292.2,303.1,,281.8,278.7,279.6,300.3,287.6,2,norm,1.516,1.978,-1.937,-1.252,-4.315,-4.31,-1.997,-1.798,-1.329,-1.175,1.721,-1.333,285.7,282.8,-5.194,-7.501,1.3,-1.872,8.428,4.489,-4.941,-8.165,4,4.534,4.451,4.468,4.389,1.154,2.043,1.153,1.666,4,4.356,4.691,60,295.748062949,norm,0,16,16,16,741.807,741.818,741.822869734,741.823,741.826,741.829,down,1,0.978928853103,9.0210711469,001,315,1600_900,Intel(R) Core(TM) i5-3230M CPU @ 2.60GHz,orientation_search,Thebeast,AMD Radeon HD 7500M/7600M Series,2018_Nov_08_1356,testMonitor,
297.2,305.9,,299.1,36,-60,291.8,301.2,272.0,301.4,8.342,7.591,8.186,7.694,7.506,8.419,8.348,4.302,-4.787,-8.097,1.981,-1.959,7.648,4.522,-5.238,-7.97,302.4,301.6,-7.883,291.9,293.0,302.7,288.8,287.5,36,290.0,3,5,prime,10,0,96,norm,36,-4.434,down,norm,291.746383739,311.7,288.3,288.6,287.0,2,308.6,279.7,302.5,10,5,7.539,4.315,1.168,-1.864,-4.384,-8.087,304.4,5,387.7,-8.176,-8.487,-60,-8.046,-8.207,-4.964,-4.808,-4.459,-4.956,4.985,7.877,20,-1.69,1.292,4.682,7.634,-7.783,-8.045,-1.712,1.148,276.2,308.4,296.9,301.7,283.0,298.9,303.6,271.7,274.2,288.0,3,norm,1.163,1.995,-1.747,-1.656,-4.927,-4.619,-1.213,-1.716,-1.416,-1.631,1.71,-2.091,288.3,305.3,-5.145,-7.692,1.843,-2.018,7.546,5.163,-4.431,-7.967,4,4.308,4.3,5.131,5.267,1.463,1.476,1.643,1.779,4,4.334,5.158,60,295.748062949,norm,0,17,17,17,742.824,742.833,742.839422703,742.84,742.842,742.845,down,1,0.89628164126,9.10371835874,001,315,1600_900,Intel(R) Core(TM) i5-3230M CPU @ 2.60GHz,orientation_search,Thebeast,AMD Radeon HD 7500M/7600M Series,2018_Nov_08_1356,testMonitor,
295.4,296.7,301.3,294.3,36,-60,296.3,279.1,299.5,,7.855,7.925,7.927,8.179,7.95,7.962,7.558,4.445,-5.263,-7.952,1.424,-1.378,7.586,4.482,-4.993,-8.331,281.3,288.0,-8.02,292.3,302.4,271.7,311.7,292.3,36,291.9,4,5,prime,10,0,97,norm,36,-4.399,up,norm,291.746383739,305.0,288.5,294.0,289.5,5,279.2,286.8,296.8,10,5,8.327,5.012,2.04,-1.978,-4.997,-8.148,296.3,5,388.7,-8.156,-7.702,-60,-8.059,-7.896,-4.473,-4.399,-5.132,-5.145,5.13,8.089,29,-1.647,1.586,4.793,7.503,-7.842,-8.495,-1.632,1.742,304.2,291.5,289.8,277.6,281.0,301.9,283.0,304.2,307.6,307.2,4,norm,1.831,1.64,-1.418,-1.277,-4.762,-4.545,-1.382,-1.411,-1.72,-2.05,1.94,-1.836,305.9,298.0,-4.379,-7.545,1.774,-1.871,8.224,4.426,-5.137,-7.581,4,5.141,4.565,5.141,5.285,1.62,1.268,1.768,2.098,4,4.781,4.916,60,295.748062949,norm,0,18,18,18,743.757,743.768,743.789343005,743.79,743.793,743.798,up,1,0.709049619436,9.29095038056,001,315,1600_900,Intel(R) Core(TM) i5-3230M CPU @ 2.60GHz,orientation_search,Thebeast,AMD Radeon HD 7500M/7600M Series,2018_Nov_08_1356,testMonitor,
292.7,,284.2,287.2,36,20,298.0,287.3,292.3,283.9,7.924,7.863,7.885,8.112,8.326,8.379,8.32,5.048,-5.007,-8.135,1.641,-1.613,8.041,5.292,-4.753,-8.31,290.5,290.8,-8.445,284.1,292.0,287.5,288.2,280.4,36,284.0,3,5,probe,5,0,64,norm,36,-4.744,up,norm,288.028235982,289.1,292.5,288.6,280.2,5,280.0,278.0,291.0,10,5,8.012,4.983,2.05,-1.916,-5.087,-7.96,285.4,1,224.0,-8.245,-8.134,-60,-8.215,-7.539,-5.124,-5.13,-4.45,-4.793,4.42,7.817,23,-1.839,1.251,5.175,7.729,-8.214,-8.298,-1.804,1.317,293.6,291.1,289.6,287.1,282.7,292.0,290.8,294.4,284.3,291.9,0,norm,1.174,1.606,-1.403,-1.323,-4.44,-5.149,-1.927,-1.944,-1.443,-1.117,1.177,-1.379,295.2,290.1,-4.864,-7.718,1.957,-1.654,7.975,5.103,-5.221,-7.743,5,5.253,5.277,4.964,4.898,1.572,1.795,1.785,1.451,5,4.324,4.901,-60,291.746383739,norm,0,19,19,19,744.523,744.534,744.539176623,744.539,744.542,744.545,up,1,0.979224117582,9.02077588242,001,315,1600_900,Intel(R) Core(TM) i5-3230M CPU @ 2.60GHz,orientation_search,Thebeast,AMD Radeon HD 7500M/7600M Series,2018_Nov_08_1356,testMonitor,
171.4,196.3,,177.3,36,-20,200.9,177.5,187.6,191.9,8.101,7.558,8.185,7.575,7.823,8.256,7.832,4.644,-4.583,-7.848,1.201,-1.907,8.344,5.001,-4.884,-8.4,189.1,196.5,-7.688,186.8,191.1,196.0,182.7,206.0,36,189.1,3,5,prime,10,0,111,norm,36,-5.177,down,norm,191.39510845,197.3,192.9,203.1,208.6,2,189.8,187.6,174.7,10,5,8.174,4.367,1.648,-1.882,-4.417,-8.308,190.5,5,302.4,-7.884,-8.336,-20,-8.379,-7.883,-4.733,-4.982,-4.318,-5.242,4.428,8.311,20,-1.684,1.146,4.508,7.964,-7.915,-8.375,-1.979,1.805,185.7,184.4,194.4,201.6,188.7,193.0,198.1,196.2,196.9,188.1,0,norm,1.95,1.419,-1.714,-1.63,-4.736,-4.601,-1.796,-1.716,-1.656,-2.071,1.306,-1.436,195.8,197.8,-4.837,-7.623,1.812,-1.638,7.701,5.168,-4.456,-7.775,6,5.123,5.11,4.635,4.345,1.523,1.273,2.034,1.83,6,4.971,4.823,20,291.746383739,norm,0,20,20,20,745.54,745.55,745.555832618,745.556,745.559,745.562,down,1,1.26214196221,8.73785803779,001,315,1600_900,Intel(R) Core(TM) i5-3230M CPU @ 2.60GHz,orientation_search,Thebeast,AMD Radeon HD 7500M/7600M Series,2018_Nov_08_1356,testMonitor,
205.8,192.5,181.2,192.9,36,-20,203.4,204.0,211.4,196.0,7.752,7.982,8.431,8.142,8.075,8.01,8.205,5.256,-4.68,-8.198,1.272,-1.683,8.308,4.773,-4.544,-7.748,202.1,198.6,-8.348,197.5,196.3,194.6,190.9,194.8,36,198.8,1,5,prime,10,0,86,norm,36,-4.346,down,norm,191.39510845,182.8,178.3,190.1,189.0,0,193.0,179.9,192.5,10,5,7.978,5.163,1.102,-1.117,-5.276,-7.796,182.7,5,277.4,-8.428,-7.782,-20,-7.842,-7.553,-5.239,-5.141,-4.312,-4.708,4.73,8.079,6,-1.933,1.51,4.509,7.737,-7.986,-8.01,-1.207,1.818,192.1,190.1,199.7,189.9,198.0,194.2,181.0,,185.3,187.2,1,norm,1.527,2.055,-1.654,-2.005,-4.355,-4.928,-1.325,-1.475,-1.634,-1.341,1.27,-1.437,199.3,187.0,-4.305,-7.967,1.121,-1.266,8.405,5.175,-4.75,-7.695,6,4.851,4.59,4.777,5.016,1.212,1.202,1.733,1.232,6,4.754,5.202,20,291.746383739,norm,0,21,21,21,746.84,746.849,746.855612512,746.856,746.859,746.864,down,1,7.79237380799,2.20762619201,001,315,1600_900,Intel(R) Core(TM) i5-3230M CPU @ 2.60GHz,orientation_search,Thebeast,AMD Radeon HD 7500M/7600M Series,2018_Nov_08_1356,testMonitor,
184.1,191.1,206.9,200.5,36,-20,191.6,183.6,198.3,185.7,8.286,8.267,8.412,7.883,8.139,8.159,8.177,4.52,-4.941,-8.429,1.397,-1.431,8.227,4.492,-4.65,-7.7,189.5,194.4,-7.988,186.5,185.8,171.4,205.8,190.3,36,183.7,2,5,prime,10,0,60,norm,36,-5.015,down,norm,191.39510845,177.1,188.2,176.1,193.0,1,202.0,,197.2,10,5,8.06,5.173,1.96,-1.616,-4.605,-8.232,197.9,5,251.4,-7.672,-8.083,-20,-7.743,-8.294,-4.499,-5.063,-5.18,-4.908,4.695,8.08,13,-1.601,1.945,4.577,8.363,-7.778,-7.827,-1.155,1.705,194.8,180.8,187.0,183.9,190.1,192.7,185.7,181.3,190.5,191.9,2,norm,1.92,1.175,-1.479,-1.634,-4.902,-4.514,-1.665,-1.271,-1.141,-1.608,1.401,-1.963,193.8,211.4,-4.478,-8.036,2.039,-1.577,7.514,4.392,-4.654,-8.123,6,5.115,4.665,4.379,5.185,1.416,1.941,2.032,1.116,6,4.84,4.707,20,291.746383739,norm,0,22,22,22,754.672,754.682,754.68795992,754.688,754.69,754.693,up,0,3.42916613048,-10,001,315,1600_900,Intel(R) Core(TM) i5-3230M CPU @ 2.60GHz,orientation_search,Thebeast,AMD Radeon HD 7500M/7600M Series,2018_Nov_08_1356,testMonitor,
187.9,201.4,176.0,192.5,36,-20,183.5,191.9,181.5,204.7,7.653,8.116,7.941,8.437,8.063,7.596,7.653,5.052,-4.544,-8.306,1.382,-1.101,7.868,4.505,-4.838,-8.026,174.2,180.3,-7.548,191.6,178.2,182.0,188.0,179.9,36,183.9,0,5,prime,10,0,69,norm,36,-4.95,down,norm,191.39510845,191.1,171.4,178.3,194.6,1,193.5,173.2,179.0,10,5,8.323,4.418,1.973,-1.452,-4.582,-7.836,184.5,5,260.4,-7.593,-8.001,-20,-7.543,-7.98,-4.322,-5.007,-4.486,-5.269,4.644,7.556,1,-1.296,2.061,5.198,7.71,-7.808,-8.237,-1.42,1.33,187.3,183.8,187.8,194.4,,196.5,184.0,191.5,202.3,207.5,3,norm,1.273,1.523,-1.54,-1.56,-4.429,-5.237,-1.419,-1.293,-1.946,-1.134,1.908,-1.631,211.4,180.3,-5.083,-8.149,1.651,-1.468,7.525,4.686,-5.13,-7.688,6,5.235,4.668,5.09,4.414,1.536,2.066,1.256,1.357,6,4.978,5.035,20,291.746383739,norm,0,23,23,23,759.172,759.182,759.18739268,759.188,759.19,759.192,down,1,1.24709965807,8.75290034193,001,315,1600_900,Intel(R) Core(TM) i5-3230M CPU @ 2.60GHz,orientation_search,Thebeast,AMD Radeon HD 7500M/7600M Series,2018_Nov_08_1356,testMonitor,
189.7,188.8,203.1,196.8,36,-20,187.3,186.8,193.0,174.4,7.617,8.206,7.627,7.592,7.544,8.225,8.153,5.073,-4.527,-8.489,1.127,-1.47,8.468,4.783,-4.674,-8.236,183.5,181.5,-7.514,200.5,190.9,179.8,189.7,186.3,36,195.8,0,5,prime,10,0,86,norm,36,-5.109,down,norm,191.39510845,171.4,191.1,206.8,187.8,0,182.7,211.4,195.2,10,5,8.348,4.968,1.779,-1.195,-4.346,-7.947,181.6,5,277.4,-8.2,-8.095,-20,-8.097,-8.064,-4.476,-5.167,-4.949,-4.698,5.033,7.56,0,-1.587,1.747,4.951,8.414,-7.501,-8.388,-1.119,1.428,199.0,190.3,175.1,194.3,191.1,,180.0,201.4,199.5,192.3,4,norm,1.298,1.54,-1.987,-1.917,-4.401,-4.898,-1.947,-1.123,-1.474,-1.825,1.972,-1.212,199.3,185.9,-4.669,-7.817,1.694,-1.707,7.954,4.93,-4.85,-7.972,6,4.612,5.289,4.687,5.009,1.797,1.102,1.543,1.486,6,5.15,4.92,20,291.746383739,norm,0,24,24,24,760.471,760.482,760.48724718,760.487,760.49,760.493,down,1,5.01189939534,4.98810060466,001,315,1600_900,Intel(R) Core(TM) i5-3230M CPU @ 2.60GHz,orientation_search,Thebeast,AMD Radeon HD 7500M/7600M Series,2018_Nov_08_1356,testMonitor,
285.8,296.2,295.0,283.3,36,-40,295.5,289.7,290.3,294.4,8.143,7.601,8.151,8.238,7.795,7.712,7.663,4.521,-4.341,-8.032,1.907,-1.876,7.683,4.89,-5.136,-7.998,286.9,289.6,-7.566,290.0,289.1,289.9,290.7,282.9,36,292.1,1,5,probe,5,0,119,norm,36,-4.779,down,norm,289.081882653,282.0,295.0,291.5,294.8,2,285.5,291.5,281.1,10,5,8.318,4.595,1.983,-1.701,-4.726,-7.695,281.4,1,170.1,-8.369,-8.109,-20,-7.506,-7.573,-5.137,-4.836,-4.628,-4.819,4.934,7.819,8,-1.564,1.171,4.893,7.636,-8.137,-8.069,-1.372,2.081,295.6,,290.6,295.4,292.5,299.1,286.3,293.9,286.5,287.7,0,norm,1.179,1.795,-1.359,-2.037,-5.158,-4.965,-1.955,-1.581,-2.005,-1.387,1.713,-1.645,297.9,287.0,-5.15,-7.512,1.342,-1.199,8.18,4.653,-4.464,-7.762,7,4.611,4.944,4.581,4.67,1.734,2.02,1.931,1.3,7,4.703,4.543,-20,191.39510845,norm,0,25,25,25,765.521,765.53,765.536624638,765.537,765.539,765.542,down,1,3.1622569101,6.8377430899,001,315,1600_900,Intel(R) Core(TM) i5-3230M CPU @ 2.60GHz,orientation_search,Thebeast,AMD Radeon HD 7500M/7600M Series,2018_Nov_08_1356,testMonitor,
301.1,284.5,276.1,303.3,36,30,304.7,292.7,285.3,295.7,8.176,7.664,7.673,8.183,8.089,7.904,8.449,4.51,-5.089,-7.512,1.677,-1.653,8.177,5.182,-5.111,-8.051,285.7,274.3,-8.434,291.7,268.2,292.5,293.3,293.1,36,291.9,0,5,prime,10,0,77,norm,36,-5.183,down,norm,287.705163772,285.6,267.7,286.8,273.2,0,305.1,307.7,286.3,10,5,8.333,4.623,1.629,-1.438,-4.395,-7.713,286.9,5,364.7,-7.549,-8.181,30,-7.888,-8.025,-4.89,-4.506,-4.775,-4.869,4.402,7.644,0,-1.647,1.197,5.085,7.682,-8.02,-8.306,-1.163,1.537,269.2,289.2,295.1,290.4,277.0,,294.0,269.4,298.8,292.9,0,norm,1.635,1.258,-1.231,-1.234,-5.28,-4.814,-2.025,-1.274,-1.641,-1.798,1.784,-2.048,285.4,276.0,-4.984,-7.879,1.331,-1.476,8.224,4.338,-4.548,-8.488,8,5.173,5.003,4.591,4.672,1.365,1.786,1.192,1.691,8,4.509,5.068,-40,191.39510845,norm,0,26,26,26,768.72,768.73,768.736233294,768.736,768.739,768.742,down,1,1.27934388127,8.72065611873,001,315,1600_900,Intel(R) Core(TM) i5-3230M CPU @ 2.60GHz,orientation_search,Thebeast,AMD Radeon HD 7500M/7600M Series,2018_Nov_08_1356,testMonitor,
286.9,297.6,273.7,283.8,36,30,291.9,285.2,288.9,272.1,8.235,7.52,7.566,7.971,8.272,8.442,8.468,5.273,-4.796,-7.831,2.027,-1.301,8.47,4.673,-5.215,-8.21,292.2,289.0,-8.361,297.6,291.5,267.7,272.8,307.7,36,,4,5,prime,10,0,70,norm,36,-4.483,up,norm,287.705163772,303.3,293.7,291.7,290.4,3,281.6,293.0,294.5,10,5,8.053,4.69,1.651,-1.155,-4.306,-7.931,296.3,5,357.7,-8.397,-7.593,30,-7.724,-7.67,-4.575,-4.768,-4.517,-5.259,5.02,8.197,27,-1.537,1.496,5.194,8.367,-7.913,-7.974,-1.182,1.139,282.2,301.0,296.5,287.1,306.4,269.9,302.7,285.3,284.6,279.3,1,norm,2.046,1.841,-1.762,-1.452,-5.14,-4.598,-1.938,-1.142,-1.37,-2.027,1.803,-1.505,296.2,293.4,-4.955,-7.84,2.057,-1.926,8.241,5.015,-4.419,-7.834,8,4.619,4.867,4.62,4.888,2.0,1.477,1.876,1.635,8,4.411,5.043,-40,191.39510845,norm,0,27,27,27,770.037,770.047,770.052701552,770.053,770.055,770.058,down,0,2.97850095645,-10,001,315,1600_900,Intel(R) Core(TM) i5-3230M CPU @ 2.60GHz,orientation_search,Thebeast,AMD Radeon HD 7500M/7600M Series,2018_Nov_08_1356,testMonitor,
285.1,296.8,293.5,295.9,36,30,297.1,288.6,288.6,284.0,8.325,8.185,8.1,7.879,7.583,7.631,7.713,5.27,-4.602,-7.786,2.072,-1.78,7.888,4.836,-4.478,-8.061,284.8,298.2,-8.085,272.4,295.1,272.0,,287.3,36,281.5,5,5,prime,10,0,94,norm,36,-5.062,down,norm,287.705163772,287.9,281.2,299.2,300.0,2,281.0,293.3,296.8,10,5,8.33,4.97,1.658,-1.448,-4.512,-8.447,285.3,5,381.7,-8.394,-7.9,30,-7.715,-7.589,-4.455,-4.45,-4.393,-4.649,4.835,7.668,32,-1.179,1.461,5.132,7.685,-8.121,-7.619,-1.577,1.819,275.6,281.3,294.9,270.4,267.7,288.1,276.2,277.0,307.7,282.5,2,norm,1.216,1.739,-2.031,-1.183,-4.69,-4.877,-1.373,-1.981,-1.311,-1.112,1.291,-1.51,277.8,274.7,-4.662,-7.896,1.562,-1.166,7.774,4.981,-5.262,-7.954,8,4.717,5.084,5.193,4.563,1.646,1.681,1.32,1.44,8,4.811,4.772,-40,191.39510845,norm,0,28,28,28,774.086,774.096,774.102218747,774.102,774.105,774.107,up,0,1.81276837291,-10,001,315,1600_900,Intel(R) Core(TM) i5-3230M CPU @ 2.60GHz,orientation_search,Thebeast,AMD Radeon HD 7500M/7600M Series,2018_Nov_08_1356,testMonitor,
277.4,279.9,296.9,279.6,36,30,284.7,294.0,267.7,305.7,8.36,8.177,7.953,7.801,8.141,7.627,7.546,5.075,-5.013,-8.283,1.786,-1.445,7.721,4.538,-5.073,-8.09,303.5,283.9,-7.786,,288.7,282.6,290.7,303.4,36,276.1,5,5,prime,10,0,106,norm,36,-4.37,down,norm,287.705163772,301.2,291.8,292.7,292.4,1,284.5,272.7,303.2,10,5,7.81,4.488,1.72,-1.851,-5.074,-8.022,284.3,5,393.7,-8.209,-8.175,30,-7.761,-8.474,-4.735,-5.191,-4.429,-4.386,5.052,8.321,31,-1.289,1.794,4.406,7.819,-7.733,-8.155,-1.244,1.45,294.2,287.0,286.8,284.3,284.2,281.8,297.0,285.9,298.8,296.4,3,norm,1.939,1.146,-1.183,-1.656,-4.657,-4.792,-1.107,-1.731,-1.317,-1.301,1.676,-1.581,280.6,284.0,-5.134,-7.688,1.334,-1.698,7.971,4.37,-4.516,-7.739,8,5.27,4.481,5.227,4.892,1.147,1.79,2.026,1.306,8,4.957,4.865,-40,191.39510845,norm,0,29,29,29,776.969,776.981,777.001894351,777.002,777.004,777.007,down,1,0.946006468977,9.05399353102,001,315,1600_900,Intel(R) Core(TM) i5-3230M CPU @ 2.60GHz,orientation_search,Thebeast,AMD Radeon HD 7500M/7600M Series,2018_Nov_08_1356,testMonitor,
292.8,288.8,301.7,285.4,36,30,283.5,283.6,278.7,287.4,7.782,7.724,7.933,8.002,8.117,7.633,8.434,4.344,-4.947,-7.75,2.028,-1.475,7.589,4.53,-4.494,-7.902,303.0,300.9,-7.817,289.0,277.0,283.7,303.8,283.1,36,291.5,0,5,prime,10,0,83,norm,36,-4.415,up,norm,287.705163772,289.8,286.3,284.5,294.4,5,295.4,290.1,277.9,10,5,8.009,4.985,1.403,-2.091,-4.93,-7.647,295.5,5,370.7,-8.325,-7.639,30,-8.097,-8.342,-4.62,-4.713,-4.894,-4.827,4.573,8.373,5,-1.681,1.355,5.119,8.227,-7.687,-7.816,-1.984,1.173,285.8,282.9,286.0,291.9,307.7,296.9,283.6,283.9,,293.9,4,norm,1.859,1.552,-2.082,-1.701,-4.481,-4.894,-1.831,-1.517,-1.466,-1.221,1.569,-1.379,294.6,267.7,-4.653,-7.779,1.478,-1.5,8.252,4.338,-4.708,-7.71,8,4.631,5.103,4.392,4.301,1.776,1.49,1.668,1.991,8,5.039,4.825,-40,191.39510845,norm,0,30,30,30,777.969,777.979,777.985081644,777.985,777.987,777.99,up,1,1.0460470481,8.9539529519,001,315,1600_900,Intel(R) Core(TM) i5-3230M CPU @ 2.60GHz,orientation_search,Thebeast,AMD Radeon HD 7500M/7600M Series,2018_Nov_08_1356,testMonitor,
379.2,382.2,390.4,388.9,36,40,389.2,385.9,382.2,385.9,8.1,7.857,7.606,7.772,7.809,8.466,7.891,5.296,-4.811,-7.902,2.035,-1.588,8.22,4.952,-4.794,-8.454,385.4,392.5,-8.43,384.6,,387.9,389.3,383.8,36,384.9,5,5,probe,5,0,68,norm,36,-4.5,down,norm,389.201284724,390.1,382.1,390.2,386.0,0,392.4,389.0,390.2,10,5,8.241,4.912,1.174,-1.41,-4.476,-7.962,385.3,2,321.2,-7.511,-8.303,30,-8.13,-7.947,-4.469,-4.936,-4.652,-4.881,5.016,8.31,30,-1.627,1.362,4.857,7.746,-7.689,-7.544,-1.563,1.419,399.2,388.0,387.4,394.6,385.2,392.6,385.1,385.9,379.3,391.4,0,norm,1.542,1.263,-1.146,-1.685,-4.518,-4.877,-1.802,-1.583,-1.971,-1.707,1.101,-2.04,385.1,387.3,-5.006,-8.132,1.316,-1.963,8.196,4.478,-5.115,-8.335,9,4.767,4.36,4.663,4.721,1.575,1.216,1.88,1.451,9,5.126,4.341,30,287.705163772,norm,0,31,31,31,779.052,779.062,779.068278332,779.069,779.071,779.073,down,1,1.24596044246,8.75403955754,001,315,1600_900,Intel(R) Core(TM) i5-3230M CPU @ 2.60GHz,orientation_search,Thebeast,AMD Radeon HD 7500M/7600M Series,2018_Nov_08_1356,testMonitor,
417.2,402.5,401.7,404.4,36,40,399.5,408.4,405.8,406.5,7.95,7.538,7.907,7.999,8.467,7.637,7.829,4.807,-4.726,-8.494,2.006,-1.14,7.743,4.585,-4.685,-7.968,397.2,406.4,-8.237,408.8,405.1,412.7,410.4,402.0,36,406.3,2,5,probe,5,0,86,norm,36,-4.852,down,norm,407.201284724,411.1,410.7,411.3,405.5,0,412.7,406.8,,10,5,8.092,4.78,1.716,-1.616,-5.038,-8.422,405.8,2,321.2,-8.127,-8.144,30,-7.9,-7.957,-5.224,-4.628,-4.776,-5.224,4.849,7.93,12,-1.682,1.584,5.15,7.78,-8.144,-8.011,-1.131,1.165,407.4,414.6,401.9,397.4,412.8,409.2,411.1,413.6,404.8,410.5,1,norm,1.533,1.644,-2.08,-1.755,-4.355,-4.741,-1.335,-1.693,-1.679,-1.862,1.736,-1.671,406.2,409.1,-4.642,-8.422,1.424,-1.348,8.477,5.199,-4.89,-8.073,9,5.185,4.921,4.884,4.529,2.093,1.91,1.171,1.735,9,4.947,4.324,30,287.705163772,norm,0,32,32,32,780.336,780.349,780.368120594,780.368,780.371,780.374,down,1,0.945907389585,9.05409261041,001,315,1600_900,Intel(R) Core(TM) i5-3230M CPU @ 2.60GHz,orientation_search,Thebeast,AMD Radeon HD 7500M/7600M Series,2018_Nov_08_1356,testMonitor,
204.8,204.3,195.6,197.0,36,-10,189.7,202.0,208.3,207.3,8.377,8.0,8.089,7.915,8.217,7.881,8.313,4.769,-5.207,-8.008,1.775,-1.616,8.033,4.448,-4.916,-8.176,210.4,209.6,-8.143,201.8,204.9,193.7,188.0,209.0,36,220.2,2,5,prime,10,0,109,norm,36,-4.304,up,norm,203.30296904,186.2,214.5,,223.3,3,194.1,207.7,200.1,10,5,8.31,4.898,1.9,-1.173,-4.824,-7.526,203.7,5,312.3,-7.932,-7.659,-10,-8.125,-7.777,-5.195,-4.777,-4.392,-4.828,5.062,8.22,15,-1.572,1.343,4.539,7.946,-7.655,-7.77,-1.968,1.642,202.2,211.0,222.4,205.7,205.9,205.2,208.5,198.4,188.3,194.4,0,norm,1.948,1.3,-1.508,-1.826,-4.968,-5.11,-1.56,-1.6,-1.58,-1.99,1.252,-1.501,194.1,214.3,-4.994,-7.597,1.473,-1.996,8.463,4.541,-4.337,-8.063,10,4.398,4.703,4.75,4.737,1.436,2.022,1.955,1.562,10,4.928,5.026,40,287.705163772,norm,0,33,33,33,781.335,781.346,781.351321703,781.352,781.354,781.357,up,1,1.77895032688,8.22104967312,001,315,1600_900,Intel(R) Core(TM) i5-3230M CPU @ 2.60GHz,orientation_search,Thebeast,AMD Radeon HD 7500M/7600M Series,2018_Nov_08_1356,testMonitor,
183.3,186.8,213.0,197.4,36,-10,207.2,223.3,204.6,204.8,8.427,8.494,8.367,7.574,7.542,8.463,8.166,4.454,-5.087,-7.897,1.253,-1.144,7.668,4.646,-5.144,-7.511,206.8,210.0,-7.565,198.6,203.9,212.5,207.6,198.7,36,203.3,0,5,prime,10,0,107,norm,36,-4.384,up,norm,203.30296904,208.7,197.5,207.1,197.3,5,204.8,204.9,211.5,10,5,7.577,4.822,1.438,-1.183,-4.713,-8.294,194.1,5,310.3,-7.638,-7.836,-10,-7.966,-7.959,-4.795,-4.814,-4.462,-4.42,4.529,7.779,5,-1.878,2.058,4.707,8.299,-8.216,-7.559,-1.772,1.724,220.6,206.8,215.7,206.7,195.8,215.5,203.2,208.4,,199.7,1,norm,1.326,2.044,-1.885,-1.722,-4.566,-5.253,-1.575,-1.849,-1.38,-1.305,2.098,-1.622,199.2,198.2,-4.545,-7.598,1.635,-1.441,7.814,5.066,-4.756,-8.412,10,4.966,4.941,5.132,4.779,1.899,1.241,1.699,1.808,10,4.304,4.991,40,287.705163772,norm,0,34,34,34,783.152,783.162,783.167770619,783.168,783.17,783.173,up,1,0.696219430458,9.30378056954,001,315,1600_900,Intel(R) Core(TM) i5-3230M CPU @ 2.60GHz,orientation_search,Thebeast,AMD Radeon HD 7500M/7600M Series,2018_Nov_08_1356,testMonitor,
189.1,183.3,212.4,192.7,36,-10,207.7,196.6,210.5,204.0,7.685,7.765,8.453,8.069,8.0,8.016,7.935,4.872,-5.095,-7.576,1.625,-1.989,8.351,4.487,-4.506,-8.199,186.8,211.1,-7.847,209.4,194.8,198.3,188.2,217.2,36,185.9,1,5,prime,10,0,96,norm,36,-5.035,down,norm,203.30296904,205.1,223.3,205.6,202.5,2,189.2,190.9,195.7,10,5,8.473,4.522,1.816,-1.329,-4.416,-8.488,206.9,5,299.3,-7.535,-7.657,-10,-8.125,-8.437,-4.453,-4.929,-4.799,-5.253,5.3,7.585,8,-1.577,1.445,4.958,8.059,-8.017,-7.845,-1.106,1.728,200.6,,204.5,196.2,203.9,188.4,215.4,196.0,186.8,199.8,2,norm,1.705,1.805,-1.581,-2.095,-5.153,-4.339,-1.741,-1.697,-1.329,-1.284,1.352,-1.684,202.4,199.1,-4.503,-7.994,1.55,-1.674,8.211,4.97,-4.579,-7.941,10,4.817,4.738,4.744,4.856,1.848,1.656,1.502,1.803,10,4.521,4.344,40,287.705163772,norm,0,35,35,35,783.885,783.895,783.90100232,783.901,783.903,783.906,down,1,1.47957780337,8.52042219663,001,315,1600_900,Intel(R) Core(TM) i5-3230M CPU @ 2.60GHz,orientation_search,Thebeast,AMD Radeon HD 7500M/7600M Series,2018_Nov_08_1356,testMonitor,
198.5,189.6,219.1,197.6,36,-10,193.9,206.9,200.9,200.5,7.968,8.049,8.494,8.144,8.368,8.311,8.242,4.338,-4.312,-8.194,1.602,-1.513,7.729,5.273,-4.392,-8.361,188.6,200.6,-8.48,183.3,206.3,213.0,210.1,205.8,36,223.3,1,5,prime,10,0,69,norm,36,-4.816,down,norm,203.30296904,198.2,196.8,191.1,190.6,1,218.6,210.7,212.9,10,5,8.222,4.796,1.895,-1.454,-4.385,-7.985,199.3,5,272.3,-7.803,-8.297,-10,-8.182,-8.042,-4.757,-4.605,-4.73,-4.665,4.945,8.476,7,-1.595,1.345,5.244,7.906,-8.439,-7.514,-2.036,1.7,197.2,199.8,216.4,183.4,213.1,218.8,,188.0,213.6,196.1,3,norm,1.15,1.824,-2.074,-1.431,-5.276,-4.836,-1.5,-1.558,-1.703,-1.864,1.431,-1.591,195.6,196.1,-4.77,-7.61,1.659,-1.761,7.678,4.689,-4.911,-8.468,10,5.058,4.499,5.224,4.975,1.418,1.399,1.322,1.482,10,4.594,4.518,40,287.705163772,norm,0,36,36,36,785.402,785.415,785.434163127,785.434,785.437,785.439,down,1,4.82879357618,5.17120642382,001,315,1600_900,Intel(R) Core(TM) i5-3230M CPU @ 2.60GHz,orientation_search,Thebeast,AMD Radeon HD 7500M/7600M Series,2018_Nov_08_1356,testMonitor,
201.0,196.7,207.2,219.3,36,-10,203.0,196.1,195.4,183.3,8.088,8.221,7.928,7.66,7.819,8.234,7.707,4.789,-4.941,-7.641,1.744,-1.794,8.304,5.206,-4.329,-8.314,200.5,205.2,-8.045,196.9,195.6,205.6,192.5,196.2,36,189.8,1,5,prime,10,0,72,norm,36,-4.938,up,norm,203.30296904,212.7,218.3,205.1,211.6,4,202.7,192.5,194.9,10,5,7.964,4.813,1.242,-1.263,-4.987,-8.08,,5,275.3,-7.688,-7.864,-10,-8.141,-7.848,-5.222,-4.378,-5.108,-4.948,4.868,8.273,10,-1.514,1.196,5.292,8.218,-7.909,-7.548,-1.303,1.586,201.0,200.7,202.1,191.6,223.3,208.7,215.3,200.7,213.6,190.5,4,norm,1.416,1.885,-1.691,-1.951,-4.403,-4.769,-1.798,-1.342,-1.538,-1.782,1.208,-2.008,209.8,189.4,-5.228,-7.577,1.169,-1.41,8.392,5.149,-4.365,-8.057,10,5.151,4.376,4.976,4.508,1.783,2.009,1.652,1.832,10,5.216,4.995,40,287.705163772,norm,0,37,37,37,790.284,790.295,790.30019358,790.3,790.303,790.306,up,1,3.42861310169,6.57138689831,001,315,1600_900,Intel(R) Core(TM) i5-3230M CPU @ 2.60GHz,orientation_search,Thebeast,AMD Radeon HD 7500M/7600M Series,2018_Nov_08_1356,testMonitor,
281.6,289.0,280.6,296.0,36,-20,287.8,290.7,286.8,286.6,7.958,8.332,7.809,7.676,7.953,7.809,7.735,5.212,-4.738,-8.179,1.937,-1.898,7.511,4.458,-4.608,-8.206,,286.0,-7.815,289.5,291.0,287.9,291.3,294.9,36,293.6,5,5,probe,5,0,95,norm,36,-4.54,up,norm,288.962897878,299.0,292.8,291.4,290.9,5,283.8,288.7,279.0,10,5,8.43,4.943,1.677,-1.325,-4.761,-7.555,293.9,2,194.0,-8.314,-8.457,-10,-8.16,-8.081,-4.918,-4.498,-4.306,-4.581,4.69,7.558,35,-1.157,1.938,4.583,8.432,-7.982,-7.794,-1.94,1.865,282.9,289.4,288.7,284.8,285.0,282.8,292.3,285.2,286.9,294.5,0,norm,1.647,1.534,-1.623,-1.538,-5.159,-5.242,-1.407,-2.067,-2.002,-1.65,2.01,-1.994,288.6,289.9,-4.752,-7.993,1.164,-1.992,8.357,4.676,-4.397,-8.137,11,5.104,4.725,5.219,5.103,2.033,2.087,1.178,1.963,11,4.566,4.737,-10,203.30296904,norm,0,38,38,38,793.75,793.76,793.766453297,793.767,793.769,793.772,up,1,1.4461497591,8.5538502409,001,315,1600_900,Intel(R) Core(TM) i5-3230M CPU @ 2.60GHz,orientation_search,Thebeast,AMD Radeon HD 7500M/7600M Series,2018_Nov_08_1356,testMonitor,
278.5,276.5,285.4,277.0,36,-20,278.4,278.4,284.3,279.8,8.119,7.866,7.942,8.476,7.833,7.511,7.836,4.403,-5.096,-7.724,1.925,-1.88,7.816,4.456,-4.601,-7.969,282.2,287.9,-8.226,272.2,,269.0,275.6,281.4,36,273.8,5,5,probe,5,0,85,norm,36,-4.369,down,norm,278.962897878,270.6,277.0,281.4,289.0,0,269.7,280.6,280.3,10,5,8.421,4.856,1.149,-1.911,-4.391,-7.55,283.3,2,194.0,-7.978,-7.89,-10,-7.534,-8.063,-5.14,-4.472,-4.89,-5.161,5.059,8.241,30,-1.622,1.819,4.827,7.706,-7.702,-8.007,-1.16,1.504,276.7,280.9,284.2,270.4,287.5,286.9,273.0,280.6,272.1,274.6,1,norm,1.976,1.449,-1.991,-1.216,-4.478,-5.222,-1.72,-1.114,-2.062,-1.501,1.452,-1.915,279.4,275.3,-4.614,-8.22,2.06,-2.038,8.368,5.066,-4.71,-7.512,11,5.106,4.48,4.411,5.002,1.593,1.726,1.879,1.286,11,5.052,4.333,-10,203.30296904,norm,0,39,39,39,795.234,795.245,795.249559669,795.25,795.252,795.255,down,1,1.09585121828,8.90414878172,001,315,1600_900,Intel(R) Core(TM) i5-3230M CPU @ 2.60GHz,orientation_search,Thebeast,AMD Radeon HD 7500M/7600M Series,2018_Nov_08_1356,testMonitor,
85.5,87.7,77.5,99.0,36,40,82.7,90.8,,81.3,7.894,8.39,8.278,8.318,8.107,8.164,7.583,5.09,-4.991,-7.77,1.754,-1.487,8.101,4.736,-4.981,-7.866,86.7,66.1,-8.49,80.4,102.4,85.1,81.1,84.0,36,76.9,4,5,prime,10,0,103,norm,36,-4.83,up,norm,82.4363460051,88.4,80.3,72.8,78.9,4,80.3,83.7,80.7,10,5,8.335,4.374,1.551,-1.956,-4.862,-8.237,78.2,5,185.4,-7.907,-8.324,40,-7.76,-8.49,-4.556,-4.3,-4.399,-4.786,4.554,8.215,28,-1.916,1.624,4.353,7.974,-8.297,-8.155,-1.692,1.79,98.3,86.6,75.7,67.3,62.4,101.6,74.2,81.3,65.5,93.9,0,norm,1.371,1.692,-1.358,-1.625,-5.243,-4.534,-1.547,-1.428,-1.16,-1.585,1.9,-1.394,71.1,93.7,-4.678,-7.859,1.636,-1.845,7.919,4.938,-4.563,-7.645,12,4.614,4.689,4.367,4.895,2.035,1.628,1.21,1.405,12,5.158,4.973,-20,203.30296904,norm,0,40,40,40,796.367,796.376,796.382822239,796.383,796.385,796.388,up,1,1.01298216335,8.98701783665,001,315,1600_900,Intel(R) Core(TM) i5-3230M CPU @ 2.60GHz,orientation_search,Thebeast,AMD Radeon HD 7500M/7600M Series,2018_Nov_08_1356,testMonitor,
81.4,84.0,81.2,78.4,36,40,87.6,74.3,71.0,102.4,8.363,7.615,7.962,8.1,8.155,7.738,8.205,4.502,-4.825,-8.164,2.046,-1.387,8.109,5.262,-5.203,-8.026,91.5,86.4,-7.855,82.2,95.2,,68.7,75.0,36,75.5,5,5,prime,10,0,113,norm,36,-5.124,up,norm,82.4363460051,85.9,82.9,71.5,69.1,3,63.5,68.9,62.4,10,5,7.874,4.352,1.416,-1.299,-4.742,-8.374,72.2,5,195.4,-7.719,-8.301,40,-8.034,-7.788,-4.597,-4.74,-4.421,-4.911,4.763,8.209,33,-1.515,1.545,5.137,8.076,-8.255,-8.382,-1.231,1.263,79.8,93.1,80.1,63.2,93.9,93.8,90.4,100.2,76.4,86.0,1,norm,1.593,1.359,-1.532,-1.434,-5.112,-4.412,-1.516,-1.385,-2.076,-1.592,1.293,-2.058,73.7,87.0,-4.569,-8.031,1.45,-1.148,7.72,5.001,-5.175,-8.214,12,5.161,4.956,5.076,4.93,1.977,1.289,1.47,1.552,12,4.316,5.003,-20,203.30296904,norm,0,41,41,41,797.417,797.427,797.432629567,797.433,797.435,797.438,up,1,2.06275435969,7.93724564031,001,315,1600_900,Intel(R) Core(TM) i5-3230M CPU @ 2.60GHz,orientation_search,Thebeast,AMD Radeon HD 7500M/7600M Series,2018_Nov_08_1356,testMonitor,
68.8,76.9,74.8,67.3,36,40,67.8,77.4,85.7,83.7,7.859,7.805,7.884,8.151,8.493,7.542,7.764,5.012,-4.503,-7.501,1.575,-1.853,8.361,4.887,-4.661,-8.463,76.6,67.7,-8.364,79.4,102.4,,89.5,95.5,36,83.6,5,5,prime,10,0,113,norm,36,-4.794,up,norm,82.4363460051,97.2,83.2,72.7,70.9,3,91.7,82.7,83.5,10,5,8.434,4.602,1.982,-1.136,-5.119,-7.775,100.3,5,195.4,-7.575,-8.31,40,-7.921,-7.707,-4.866,-5.255,-5.172,-4.85,5.111,8.339,33,-1.113,1.364,4.701,7.624,-7.653,-8.076,-1.485,1.868,90.1,98.0,87.8,83.3,82.9,78.5,79.4,66.1,62.4,72.0,2,norm,1.183,1.713,-1.721,-1.207,-4.833,-4.733,-1.128,-2.019,-1.208,-1.753,2.05,-1.399,75.9,82.4,-4.793,-7.813,1.841,-1.206,8.465,4.906,-4.973,-8.454,12,4.445,5.113,4.517,5.23,1.574,2.092,1.164,1.427,12,5.254,4.548,-20,203.30296904,norm,0,42,42,42,799.516,799.527,799.53241554,799.533,799.536,799.541,up,1,2.47533673178,7.52466326822,001,315,1600_900,Intel(R) Core(TM) i5-3230M CPU @ 2.60GHz,orientation_search,Thebeast,AMD Radeon HD 7500M/7600M Series,2018_Nov_08_1356,testMonitor,
78.2,89.3,78.9,82.1,36,40,74.9,65.6,62.4,82.2,7.9,7.596,8.012,8.289,8.242,7.575,8.21,4.733,-4.462,-7.648,1.353,-1.777,7.856,4.585,-5.221,-7.546,95.2,70.9,-8.23,90.3,92.1,88.7,86.5,83.2,36,72.4,0,5,prime,10,0,76,norm,36,-4.957,up,norm,82.4363460051,73.1,90.8,89.8,83.3,3,74.4,71.5,75.6,10,5,7.856,4.679,1.135,-1.467,-4.704,-7.742,81.7,5,158.4,-7.813,-7.748,40,-7.6,-7.668,-4.468,-4.334,-4.55,-4.635,4.673,7.538,3,-2.07,1.43,4.554,7.817,-7.787,-8.446,-1.61,1.808,76.1,91.2,,75.9,70.9,102.4,63.8,66.0,89.9,78.3,3,norm,1.357,1.501,-1.125,-1.25,-5.152,-4.796,-2.098,-1.45,-1.429,-1.441,1.414,-1.362,69.0,84.3,-4.483,-8.495,1.346,-1.262,7.886,5.051,-4.547,-8.186,12,4.403,5.096,4.425,4.923,1.416,1.827,1.639,1.821,12,5.043,4.852,-20,203.30296904,norm,0,43,43,43,802.033,802.043,802.048756139,802.049,802.051,802.054,up,1,1.31287653129,8.68712346871,001,315,1600_900,Intel(R) Core(TM) i5-3230M CPU @ 2.60GHz,orientation_search,Thebeast,AMD Radeon HD 7500M/7600M Series,2018_Nov_08_1356,testMonitor,
88.9,91.1,,68.7,36,40,93.8,74.9,91.6,86.6,8.184,8.109,8.251,7.55,7.605,8.066,7.63,5.113,-4.697,-8.433,1.611,-1.355,8.203,5.04,-4.631,-7.64,80.8,82.1,-8.235,67.1,80.4,83.2,102.4,68.2,36,82.1,3,5,prime,10,0,78,norm,36,-5.254,down,norm,82.4363460051,81.7,88.2,81.9,83.0,2,62.4,91.4,72.2,10,5,7.936,5.266,1.728,-1.319,-4.977,-7.533,85.0,5,160.4,-8.144,-7.9,40,-7.951,-8.438,-4.525,-4.508,-4.791,-4.327,4.902,7.646,20,-1.78,1.677,4.914,8.418,-8.345,-8.071,-1.339,1.878,93.9,87.5,85.4,77.2,77.5,76.4,87.2,93.9,87.0,73.6,4,norm,1.625,1.834,-1.519,-1.664,-4.876,-4.466,-1.236,-1.962,-1.302,-1.243,1.268,-1.91,78.0,68.9,-4.559,-8.281,1.698,-1.232,8.445,4.77,-4.471,-8.03,12,4.534,5.253,4.75,4.378,1.147,1.747,1.415,1.513,12,4.999,5.241,-20,203.30296904,norm,0,44,44,44,803.383,803.394,803.398594415,803.399,803.401,803.404,down,1,1.71200186948,8.28799813052,001,315,1600_900,Intel(R) Core(TM) i5-3230M CPU @ 2.60GHz,orientation_search,Thebeast,AMD Radeon HD 7500M/7600M Series,2018_Nov_08_1356,testMonitor,
212.5,218.8,211.2,214.6,36,-10,224.3,223.3,213.6,214.3,8.345,8.271,7.725,7.752,7.936,7.714,8.187,4.849,-5.144,-8.408,1.635,-1.703,8.077,5.036,-5.167,-8.079,218.0,219.1,-7.501,223.4,218.2,219.4,218.1,225.5,36,224.8,1,5,probe,5,0,89,norm,36,-4.923,down,norm,221.186398741,228.9,218.3,227.2,224.4,2,231.2,223.1,222.6,10,5,8.194,5.183,1.217,-1.256,-4.608,-8.068,218.7,1,132.2,-7.835,-7.964,40,-7.99,-8.08,-4.918,-4.399,-5.161,-4.788,4.942,7.974,8,-1.538,1.224,4.563,7.674,-7.697,-8.464,-1.804,1.173,215.2,,219.1,226.4,216.6,222.6,221.6,216.6,220.2,217.8,0,norm,1.314,1.912,-1.596,-1.867,-4.656,-4.788,-1.676,-1.925,-1.758,-1.541,1.254,-1.59,224.9,223.7,-4.903,-7.614,1.284,-2.078,8.028,4.867,-4.505,-7.587,13,5.144,4.809,5.151,4.907,1.102,1.955,1.634,1.228,13,5.298,4.659,40,82.4363460051,norm,0,45,45,45,805.132,805.142,805.148380269,805.149,805.151,805.154,down,1,1.16242901613,8.83757098387,001,315,1600_900,Intel(R) Core(TM) i5-3230M CPU @ 2.60GHz,orientation_search,Thebeast,AMD Radeon HD 7500M/7600M Series,2018_Nov_08_1356,testMonitor,
73.9,54.0,54.3,53.4,36,60,75.6,87.2,80.6,68.3,7.71,7.809,7.585,8.166,7.836,7.907,8.46,4.733,-4.787,-8.32,2.05,-1.47,7.538,4.68,-4.326,-7.984,74.7,68.5,-8.207,73.4,69.2,67.9,57.5,63.2,36,87.5,1,5,prime,10,0,75,norm,36,-5.262,up,norm,67.4856004307,76.4,79.2,58.4,60.8,3,81.8,47.5,76.1,10,6,7.879,4.42,1.513,-1.113,-4.626,-8.187,69.0,6,142.5,-8.236,-7.758,60,-8.331,-8.449,-4.846,-4.802,-4.497,-4.913,5.224,8.081,9,-1.217,2.09,4.909,7.629,-8.067,-8.071,-1.855,1.707,,48.9,69.2,76.9,68.2,51.5,74.9,68.1,71.9,80.7,0,norm,1.513,1.483,-1.464,-1.416,-4.513,-4.884,-1.176,-1.909,-1.126,-1.129,1.616,-1.743,61.0,63.9,-5.206,-7.817,1.905,-1.37,8.092,4.976,-4.776,-7.904,14,4.726,4.42,4.864,4.32,1.496,1.422,1.102,2.005,14,5.253,4.823,-10,82.4363460051,norm,0,46,46,46,806.333,806.349,806.364851369,806.365,806.367,806.37,up,1,1.5621942256,8.4378057744,001,315,1600_900,Intel(R) Core(TM) i5-3230M CPU @ 2.60GHz,orientation_search,Thebeast,AMD Radeon HD 7500M/7600M Series,2018_Nov_08_1356,testMonitor,
66.9,87.5,85.6,63.5,36,60,69.2,60.0,81.7,75.1,8.135,7.808,8.477,7.746,8.163,7.964,8.143,5.165,-4.824,-8.376,1.736,-2.053,8.339,4.631,-4.82,-7.701,49.2,47.5,-8.434,76.3,83.8,75.1,80.5,63.3,36,74.2,0,5,prime,10,0,87,norm,36,-4.957,up,norm,67.4856004307,56.8,76.6,70.5,66.6,4,75.2,66.2,63.8,10,6,7.919,4.586,1.415,-1.745,-4.468,-7.746,58.9,6,154.5,-8.119,-7.648,60,-7.641,-8.219,-4.586,-5.087,-4.348,-4.717,4.529,7.992,4,-1.559,1.286,4.794,7.804,-8.047,-8.487,-1.524,1.824,76.4,76.6,85.9,70.7,68.1,59.7,65.9,49.6,66.4,,1,norm,1.279,1.953,-2.084,-1.554,-4.801,-4.912,-1.367,-2.018,-1.686,-1.854,1.979,-1.359,70.8,73.3,-4.417,-8.093,1.802,-1.516,8.004,4.768,-4.501,-8.052,14,4.92,4.915,5.016,4.608,1.127,2.075,1.924,1.316,14,4.494,4.563,-10,82.4363460051,norm,0,47,47,47,807.949,807.961,807.981303995,807.982,807.984,807.986,up,1,1.52962907992,8.47037092008,001,315,1600_900,Intel(R) Core(TM) i5-3230M CPU @ 2.60GHz,orientation_search,Thebeast,AMD Radeon HD 7500M/7600M Series,2018_Nov_08_1356,testMonitor,
47.5,79.3,73.5,54.0,36,60,51.1,,59.5,61.5,7.864,8.281,7.715,7.953,8.23,8.124,7.895,4.858,-4.452,-7.752,1.932,-1.529,8.452,5.267,-4.486,-8.321,63.0,75.7,-8.11,65.2,73.2,56.9,81.8,72.4,36,70.6,4,5,prime,10,0,88,norm,36,-4.67,down,norm,67.4856004307,52.0,68.0,66.6,63.6,1,87.5,57.7,78.1,10,6,7.792,4.342,1.818,-1.721,-4.38,-7.678,55.2,6,155.5,-8.462,-8.396,60,-8.469,-7.991,-5.173,-5.246,-4.739,-5.225,4.822,8.489,25,-1.659,1.898,4.568,8.066,-7.853,-7.597,-1.244,1.687,69.0,61.9,72.2,66.4,57.4,73.7,56.1,58.1,67.3,70.3,2,norm,1.943,1.581,-1.817,-1.925,-4.599,-4.455,-1.849,-1.802,-1.689,-1.286,2.066,-1.455,72.6,73.0,-4.724,-7.646,1.97,-1.88,8.45,4.475,-4.385,-7.782,14,4.991,4.458,4.436,4.567,1.546,1.893,1.674,1.206,14,4.705,4.932,-10,82.4363460051,norm,0,48,48,48,809.532,809.542,809.547815477,809.548,809.553,809.556,down,1,1.04283269162,8.95716730838,001,315,1600_900,Intel(R) Core(TM) i5-3230M CPU @ 2.60GHz,orientation_search,Thebeast,AMD Radeon HD 7500M/7600M Series,2018_Nov_08_1356,testMonitor,
60.3,60.9,61.5,73.6,36,60,69.4,47.5,73.8,59.7,7.883,7.794,7.961,7.584,7.748,7.625,8.06,4.643,-4.506,-8.328,1.338,-1.895,8.386,5.277,-4.689,-7.881,68.7,67.0,-8.234,73.2,54.8,69.8,59.3,53.0,36,68.4,2,5,prime,10,0,92,norm,36,-4.311,down,norm,67.4856004307,54.2,69.3,87.5,83.6,0,70.6,60.6,,10,6,7.932,4.409,1.205,-1.4,-5.263,-7.855,64.5,6,159.5,-8.033,-7.923,60,-7.772,-8.198,-4.81,-4.625,-4.766,-5.17,4.678,8.425,12,-1.936,1.564,5.075,7.558,-8.277,-8.328,-1.746,1.288,56.6,77.1,64.7,60.1,51.8,63.1,48.3,69.0,50.2,77.5,3,norm,1.881,1.842,-1.607,-1.369,-5.119,-5.135,-1.631,-1.546,-1.574,-1.608,1.669,-1.667,50.7,78.6,-4.789,-8.14,1.126,-1.648,8.254,4.443,-4.843,-8.391,14,5.143,4.704,4.492,4.665,1.15,1.61,1.106,1.98,14,4.867,4.809,-10,82.4363460051,norm,0,49,49,49,810.615,810.625,810.630992428,810.631,810.634,810.637,down,1,0.945354360796,9.0546456392,001,315,1600_900,Intel(R) Core(TM) i5-3230M CPU @ 2.60GHz,orientation_search,Thebeast,AMD Radeon HD 7500M/7600M Series,2018_Nov_08_1356,testMonitor,
49.4,81.8,59.4,53.9,36,60,,64.2,75.1,76.0,7.558,8.025,8.393,8.122,8.108,7.573,8.303,5.057,-4.767,-8.134,1.464,-1.828,7.651,5.126,-5.037,-7.733,75.2,66.8,-7.527,54.9,57.1,79.2,67.9,54.7,36,62.7,4,5,prime,10,0,90,norm,36,-4.397,down,norm,67.4856004307,67.6,57.8,75.4,64.8,0,68.9,50.7,79.7,10,6,8.114,4.948,1.234,-1.849,-4.707,-8.433,47.5,6,157.5,-8.233,-7.648,60,-7.764,-8.481,-4.416,-4.825,-4.575,-4.384,5.079,8.118,24,-2.034,1.955,4.618,7.61,-8.388,-7.798,-2.058,2.068,53.3,87.5,61.9,57.1,87.0,62.2,61.6,65.4,67.2,63.3,4,norm,1.482,1.589,-1.505,-1.911,-5.289,-4.743,-2.062,-1.176,-1.459,-2.069,2.077,-1.229,72.3,55.6,-4.435,-8.313,1.183,-1.395,8.481,4.723,-4.614,-8.177,14,4.954,5.172,5.158,4.996,1.477,1.689,1.434,1.845,14,4.659,5.087,-10,82.4363460051,norm,0,50,50,50,811.598,811.608,811.614209327,811.614,811.617,811.62,down,1,1.32853304871,8.67146695129,001,315,1600_900,Intel(R) Core(TM) i5-3230M CPU @ 2.60GHz,orientation_search,Thebeast,AMD Radeon HD 7500M/7600M Series,2018_Nov_08_1356,testMonitor,
63.1,68.2,71.7,75.8,36,60,,64.0,77.2,76.1,8.292,8.266,7.826,7.637,8.437,8.347,8.402,4.472,-4.618,-7.992,1.703,-1.921,7.635,5.106,-5.111,-8.136,49.0,59.6,-7.862,69.9,76.1,81.2,75.8,66.5,36,53.0,4,5,prime,10,0,82,norm,36,-4.626,down,norm,67.4856004307,87.5,69.0,69.5,51.9,0,67.2,62.7,67.7,10,6,7.8,5.049,1.694,-1.908,-4.522,-7.851,67.4,6,149.5,-7.543,-7.517,60,-8.004,-7.75,-4.41,-4.437,-4.486,-4.318,4.331,8.419,24,-1.791,1.363,4.545,7.58,-8.262,-8.466,-1.333,1.672,66.9,70.4,62.4,68.5,82.7,64.5,50.3,69.2,61.9,55.9,5,norm,1.647,1.686,-1.747,-1.985,-4.714,-5.029,-1.975,-1.883,-1.92,-1.797,1.129,-2.012,47.5,60.8,-4.584,-7.879,1.663,-1.583,8.445,4.379,-5.182,-8.44,14,5.226,4.847,4.522,4.707,1.959,1.809,1.514,1.246,14,5.235,4.639,-10,82.4363460051,norm,0,51,51,51,812.965,812.975,812.980665703,812.981,812.983,812.986,down,1,0.729637606273,9.27036239373,001,315,1600_900,Intel(R) Core(TM) i5-3230M CPU @ 2.60GHz,orientation_search,Thebeast,AMD Radeon HD 7500M/7600M Series,2018_Nov_08_1356,testMonitor,
192.2,191.9,196.8,194.5,36,-30,196.3,200.7,188.6,190.3,8.264,7.967,7.65,8.302,7.713,8.454,7.619,4.588,-4.57,-7.515,1.925,-1.437,8.106,5.163,-4.89,-8.327,192.8,200.2,-7.676,185.4,194.0,198.4,180.7,189.3,36,194.4,1,5,probe,5,0,68,norm,36,-4.368,up,norm,190.658451445,185.2,192.1,187.5,199.1,5,,184.8,193.2,10,6,8.421,5.103,1.154,-1.755,-5.032,-8.401,183.0,2,122.7,-7.639,-8.199,60,-7.563,-8.368,-4.741,-4.825,-5.264,-4.961,4.577,7.706,11,-1.263,1.737,4.733,7.798,-8.49,-7.879,-1.507,1.818,185.5,194.4,188.6,195.6,188.4,197.5,185.3,197.8,187.2,192.8,0,norm,1.24,1.23,-1.448,-1.554,-4.888,-4.302,-1.364,-1.5,-1.679,-1.791,1.963,-1.428,191.8,194.8,-4.314,-7.784,1.95,-1.525,8.024,4.74,-4.85,-8.213,15,4.914,4.888,4.986,4.977,1.924,1.715,1.207,1.783,15,4.31,4.367,60,67.4856004307,norm,0,52,52,52,813.731,813.741,813.747303343,813.748,813.75,813.752,up,1,0.829482395049,9.17051760495,001,315,1600_900,Intel(R) Core(TM) i5-3230M CPU @ 2.60GHz,orientation_search,Thebeast,AMD Radeon HD 7500M/7600M Series,2018_Nov_08_1356,testMonitor,
190.3,192.5,196.9,189.2,36,-30,184.9,188.6,189.9,189.4,7.882,7.538,8.193,8.18,8.266,8.4,8.402,5.204,-4.923,-8.277,1.113,-1.306,8.423,4.942,-5.241,-8.279,189.7,187.4,-7.588,180.7,188.0,193.7,200.7,187.6,36,187.4,2,5,probe,5,0,68,norm,36,-5.034,up,norm,190.658451445,189.8,194.8,,190.4,3,184.9,189.0,191.8,10,6,7.587,4.586,1.393,-1.205,-5.051,-7.894,198.6,2,122.7,-7.641,-7.615,60,-8.366,-7.727,-4.402,-4.997,-5.113,-5.255,4.967,7.875,15,-1.96,2.002,5.06,8.149,-7.846,-7.928,-1.864,2.046,190.5,185.1,185.6,189.5,195.3,200.5,191.0,185.3,197.9,188.9,1,norm,1.814,2.082,-1.563,-2.028,-4.759,-4.686,-1.666,-1.249,-1.353,-1.23,1.362,-1.479,183.1,194.6,-4.634,-8.448,1.18,-1.258,7.967,4.727,-5.134,-8.062,15,5.1,5.163,5.257,4.732,1.834,1.776,1.397,1.348,15,4.87,4.402,60,67.4856004307,norm,0,53,53,53,814.598,814.608,814.613865115,814.614,814.616,814.619,up,1,1.2288066815,8.7711933185,001,315,1600_900,Intel(R) Core(TM) i5-3230M CPU @ 2.60GHz,orientation_search,Thebeast,AMD Radeon HD 7500M/7600M Series,2018_Nov_08_1356,testMonitor,
335.9,326.8,331.6,329.4,36,80,322.2,323.9,335.7,326.9,8.322,8.399,7.591,8.453,7.716,8.403,7.769,4.44,-4.987,-8.016,1.179,-1.926,8.459,5.217,-4.472,-8.287,321.9,337.4,-8.263,343.6,322.6,327.4,312.7,338.6,36,321.1,0,5,prime,10,0,73,norm,36,-4.613,down,norm,328.51596275,348.5,318.5,334.8,335.0,2,328.6,347.1,321.4,10,6,8.206,5.116,1.428,-1.995,-4.347,-8.064,330.5,6,401.5,-7.824,-8.186,80,-8.365,-7.67,-4.611,-4.36,-4.389,-4.51,4.897,7.625,2,-1.684,1.546,4.552,8.129,-8.275,-7.867,-1.928,1.869,340.5,322.8,325.3,,333.3,308.5,328.9,339.5,313.5,335.5,0,norm,1.102,1.213,-1.989,-1.923,-4.745,-4.939,-1.852,-1.44,-1.885,-1.75,1.237,-1.528,332.8,346.5,-4.429,-8.189,1.389,-1.34,8.493,4.309,-5.242,-8.207,16,5.0,5.273,5.135,4.686,1.693,2.053,1.83,1.117,16,4.654,4.78,-30,67.4856004307,norm,0,54,54,54,815.865,815.874,815.880331833,815.881,815.883,815.886,down,1,0.72886905021,9.27113094979,001,315,1600_900,Intel(R) Core(TM) i5-3230M CPU @ 2.60GHz,orientation_search,Thebeast,AMD Radeon HD 7500M/7600M Series,2018_Nov_08_1356,testMonitor,
,328.3,327.6,326.4,36,80,334.7,320.9,327.2,331.8,8.064,8.457,7.611,8.432,8.041,8.101,7.722,4.328,-4.972,-8.395,1.869,-1.278,8.325,4.452,-4.462,-7.674,325.5,333.5,-8.306,322.6,325.4,324.2,315.3,326.4,36,331.0,3,5,prime,10,0,68,norm,36,-4.342,up,norm,328.51596275,320.0,333.7,329.5,308.5,4,342.7,325.4,335.6,10,6,8.104,4.436,1.161,-1.209,-4.403,-7.738,330.2,6,396.5,-7.671,-8.106,80,-8.432,-7.71,-4.77,-4.882,-4.523,-4.963,5.272,7.509,22,-1.92,1.99,5.099,8.391,-8.441,-8.221,-1.244,1.307,329.8,348.5,326.6,317.0,320.2,316.8,339.6,342.2,311.5,340.8,1,norm,1.451,1.842,-1.67,-1.554,-4.726,-4.754,-1.936,-1.749,-1.425,-1.697,1.666,-1.895,339.4,334.5,-4.628,-8.37,1.455,-1.255,8.085,4.566,-4.695,-8.106,16,5.006,4.732,5.097,5.189,1.987,1.829,1.628,1.947,16,4.438,4.691,-30,67.4856004307,norm,0,55,55,55,816.631,816.641,816.646941052,816.647,816.649,816.652,up,1,3.01205610657,6.98794389343,001,315,1600_900,Intel(R) Core(TM) i5-3230M CPU @ 2.60GHz,orientation_search,Thebeast,AMD Radeon HD 7500M/7600M Series,2018_Nov_08_1356,testMonitor,
333.0,329.0,332.7,332.8,36,80,315.2,,348.5,308.5,7.52,8.329,7.759,7.74,7.77,7.736,8.015,4.538,-5.09,-8.419,1.469,-1.534,8.123,4.601,-4.578,-8.086,340.5,315.6,-8.259,324.1,324.0,315.8,317.0,333.4,36,326.8,4,5,prime,10,0,95,norm,36,-4.969,down,norm,328.51596275,318.3,326.0,342.7,334.1,1,330.1,330.1,333.1,10,6,8.352,4.758,1.257,-1.335,-4.388,-8.267,326.8,6,423.5,-8.386,-7.582,80,-8.089,-7.655,-4.564,-4.668,-4.528,-4.963,5.079,8.214,25,-2.036,1.754,4.708,7.711,-7.833,-7.936,-1.853,1.927,334.3,318.0,338.7,345.3,340.0,321.1,328.7,334.8,312.6,345.8,2,norm,2.0,1.972,-1.104,-1.784,-5.232,-4.445,-1.941,-1.395,-2.073,-2.085,1.774,-1.816,342.5,320.8,-5.073,-8.356,1.231,-1.875,7.857,5.278,-4.417,-8.399,16,4.35,4.623,4.968,5.273,1.954,1.532,1.857,1.951,16,4.636,4.398,-30,67.4856004307,norm,0,56,56,56,819.681,819.691,819.696562853,819.697,819.699,819.702,down,1,1.49632735199,8.50367264801,001,315,1600_900,Intel(R) Core(TM) i5-3230M CPU @ 2.60GHz,orientation_search,Thebeast,AMD Radeon HD 7500M/7600M Series,2018_Nov_08_1356,testMonitor,
308.5,,332.9,325.5,36,80,317.4,323.9,341.1,338.7,8.008,7.697,8.04,7.812,8.168,7.781,8.477,4.708,-4.849,-8.19,1.964,-1.553,7.994,4.38,-5.149,-7.564,334.2,343.3,-8.296,323.5,328.4,323.8,338.6,337.0,36,342.2,3,5,prime,10,0,69,norm,36,-4.642,up,norm,328.51596275,313.5,315.6,318.9,321.0,5,345.6,326.9,348.5,10,6,8.388,5.237,1.469,-1.908,-5.118,-7.782,308.5,6,397.5,-8.481,-8.299,80,-7.651,-7.515,-5.208,-5.231,-4.991,-5.036,4.604,8.053,23,-1.447,1.571,4.839,7.984,-7.783,-7.642,-1.146,1.922,317.8,339.6,331.9,330.8,311.4,330.8,343.8,344.0,341.2,339.7,3,norm,1.572,1.253,-1.135,-1.763,-4.484,-5.021,-1.71,-1.659,-1.243,-1.114,1.843,-1.683,336.7,346.8,-4.508,-8.054,1.811,-1.313,7.913,4.381,-4.781,-8.074,16,4.436,4.783,4.819,4.698,1.724,1.237,1.349,1.447,16,4.413,4.599,-30,67.4856004307,norm,0,57,57,57,821.214,821.224,821.229691685,821.23,821.232,821.235,up,1,0.862648727634,9.13735127237,001,315,1600_900,Intel(R) Core(TM) i5-3230M CPU @ 2.60GHz,orientation_search,Thebeast,AMD Radeon HD 7500M/7600M Series,2018_Nov_08_1356,testMonitor,
327.4,333.8,329.7,308.5,36,80,333.3,336.0,319.0,330.7,8.457,8.015,7.994,7.56,8.416,7.856,7.59,4.733,-5.099,-8.452,1.632,-1.321,7.655,5.289,-4.952,-7.526,315.1,327.1,-8.118,321.4,317.9,332.3,310.4,309.9,36,330.5,1,5,prime,10,0,87,norm,36,-4.547,down,norm,328.51596275,314.9,337.2,317.4,316.8,1,345.5,323.4,328.1,10,6,8.347,5.016,1.557,-1.226,-4.684,-7.824,312.4,6,415.5,-8.049,-7.846,80,-7.989,-8.006,-5.149,-4.449,-5.211,-4.738,4.328,8.092,7,-1.809,1.959,4.698,8.441,-7.998,-8.054,-1.704,1.496,348.5,332.1,334.8,336.9,329.5,341.6,,337.8,338.9,334.1,4,norm,1.479,1.178,-1.138,-1.628,-4.541,-5.284,-1.407,-1.949,-1.279,-1.785,1.661,-1.156,340.5,328.5,-4.584,-7.801,2.014,-2.044,8.454,4.488,-4.859,-8.111,16,4.352,4.856,4.763,4.34,1.453,2.068,1.121,1.418,16,4.779,4.637,-30,67.4856004307,norm,0,58,58,58,822.114,822.124,822.129583606,822.13,822.132,822.135,down,1,0.86254451664,9.13745548336,001,315,1600_900,Intel(R) Core(TM) i5-3230M CPU @ 2.60GHz,orientation_search,Thebeast,AMD Radeon HD 7500M/7600M Series,2018_Nov_08_1356,testMonitor,
337.3,328.6,317.3,333.1,36,80,335.9,331.7,313.1,330.6,8.155,7.82,8.05,7.753,7.819,7.651,7.821,4.804,-5.018,-7.698,2.028,-1.141,8.016,5.03,-4.725,-8.287,327.8,310.5,-8.279,329.2,332.6,348.5,321.3,343.0,36,333.1,2,5,prime,10,0,115,norm,36,-4.55,up,norm,328.51596275,,324.7,324.5,339.1,5,325.4,345.3,332.3,10,6,7.663,5.235,1.628,-1.17,-4.406,-8.4,313.5,6,443.5,-8.197,-8.151,80,-8.049,-8.128,-4.366,-4.951,-4.952,-4.758,4.924,7.505,17,-1.324,1.753,5.049,7.754,-8.186,-7.929,-1.858,1.632,309.0,316.6,312.4,331.6,330.2,329.2,317.3,308.5,341.4,319.9,5,norm,1.862,1.365,-1.622,-1.386,-4.421,-4.435,-1.131,-1.769,-1.453,-1.507,1.766,-1.615,318.0,338.3,-5.089,-8.478,1.372,-1.504,8.138,4.751,-4.731,-7.863,16,5.288,4.905,5.287,4.354,1.714,1.704,1.979,1.555,16,5.115,4.437,-30,67.4856004307,norm,0,59,59,59,823.014,823.023,823.029471184,823.03,823.032,823.035,up,1,0.596268851732,9.40373114827,001,315,1600_900,Intel(R) Core(TM) i5-3230M CPU @ 2.60GHz,orientation_search,Thebeast,AMD Radeon HD 7500M/7600M Series,2018_Nov_08_1356,testMonitor,
472.5,472.0,472.6,478.4,36,-40,467.4,471.0,475.8,458.4,7.875,7.877,8.376,8.173,7.836,7.989,8.421,4.845,-5.106,-7.63,1.952,-1.181,7.823,4.336,-4.344,-7.625,464.2,469.7,-8.021,474.7,459.7,474.3,468.0,467.4,36,468.3,2,5,probe,5,0,66,norm,36,-4.449,down,norm,468.359080134,466.1,465.2,467.8,,2,470.2,467.4,459.3,10,6,8.14,5.179,2.091,-1.61,-5.247,-8.419,472.5,2,402.4,-7.984,-8.222,80,-7.758,-7.631,-5.289,-4.799,-4.49,-5.07,4.703,7.985,14,-1.298,1.827,4.964,7.524,-8.334,-7.65,-2.016,2.037,475.8,472.5,466.2,471.1,460.6,470.7,473.3,470.4,463.1,464.1,0,norm,1.367,1.49,-1.178,-1.898,-4.657,-5.297,-1.32,-1.875,-1.953,-1.238,1.959,-1.61,468.8,461.4,-4.955,-7.808,1.323,-1.542,7.927,4.876,-4.898,-7.64,17,4.975,4.888,5.013,4.805,1.816,1.418,1.184,1.283,17,4.679,5.034,80,328.51596275,norm,0,60,60,60,823.647,823.657,823.662688754,823.663,823.665,823.668,down,1,1.06280883362,8.93719116638,001,315,1600_900,Intel(R) Core(TM) i5-3230M CPU @ 2.60GHz,orientation_search,Thebeast,AMD Radeon HD 7500M/7600M Series,2018_Nov_08_1356,testMonitor,
486.8,,480.8,476.5,36,-40,480.6,475.3,480.3,475.4,8.031,7.89,8.453,8.219,8.312,7.86,7.756,5.074,-4.668,-7.93,1.622,-1.572,7.92,4.393,-5.217,-8.435,487.8,470.1,-8.051,469.4,482.2,484.3,476.7,476.4,36,476.4,3,5,probe,5,0,77,norm,36,-5.298,up,norm,479.359080134,478.1,484.6,477.9,480.3,5,489.4,483.7,479.6,10,6,8.443,4.371,2.028,-1.367,-4.855,-8.278,480.1,2,402.4,-8.368,-8.014,80,-7.853,-8.069,-4.685,-4.621,-5.243,-4.54,4.461,7.85,23,-1.87,1.34,5.227,8.122,-7.507,-8.105,-1.374,1.676,486.4,477.7,479.0,478.2,473.7,475.8,485.3,478.9,482.6,477.3,1,norm,1.23,2.05,-1.752,-1.958,-4.979,-4.315,-1.117,-1.104,-1.393,-1.541,1.429,-2.075,483.4,473.4,-4.624,-8.28,1.759,-1.358,8.137,4.985,-5.256,-8.108,17,4.87,5.1,4.839,4.942,1.519,1.808,1.661,1.309,17,5.05,4.682,80,328.51596275,norm,0,61,61,61,824.747,824.757,824.762550122,824.763,824.765,824.768,up,1,0.729280367836,9.27071963216,001,315,1600_900,Intel(R) Core(TM) i5-3230M CPU @ 2.60GHz,orientation_search,Thebeast,AMD Radeon HD 7500M/7600M Series,2018_Nov_08_1356,testMonitor,
237.1,228.2,233.2,217.7,36,10,249.9,228.1,225.8,210.3,8.324,8.395,7.658,8.308,7.573,7.649,8.121,4.737,-4.702,-8.209,1.453,-2.053,7.889,4.986,-5.059,-7.713,227.0,209.9,-8.08,234.1,244.7,233.2,234.9,235.1,36,234.2,0,5,prime,10,0,91,norm,36,-4.524,down,norm,229.850874295,217.1,237.8,243.0,227.0,2,220.0,221.1,213.2,10,6,7.727,4.738,1.324,-1.851,-5.188,-7.708,233.5,6,320.9,-8.462,-8.004,10,-7.516,-7.599,-4.991,-4.929,-5.272,-4.45,4.998,8.275,2,-1.204,1.161,4.876,8.369,-8.463,-7.534,-1.846,1.162,239.5,243.1,217.3,,220.5,221.4,232.9,228.5,231.2,222.6,0,norm,1.788,2.04,-1.263,-1.6,-4.469,-5.168,-1.314,-1.575,-1.267,-1.137,2.096,-1.282,227.4,231.6,-5.107,-8.275,1.565,-1.836,7.582,5.068,-4.744,-8.373,18,4.762,4.697,4.684,4.665,1.457,1.186,1.663,1.679,18,4.306,5.196,-40,328.51596275,norm,0,62,62,62,825.513,838.688,838.694176263,838.694,838.697,838.699,down,1,2.09691938096,7.90308061904,001,315,1600_900,Intel(R) Core(TM) i5-3230M CPU @ 2.60GHz,orientation_search,Thebeast,AMD Radeon HD 7500M/7600M Series,2018_Nov_08_1356,testMonitor,
222.5,228.2,217.2,245.4,36,10,220.1,228.0,240.4,228.0,7.743,7.893,8.261,7.561,7.868,7.691,7.934,4.782,-4.872,-8.062,1.802,-1.362,8.297,5.277,-5.086,-8.012,222.1,223.9,-7.868,224.0,216.6,218.4,232.7,243.7,36,242.6,3,5,prime,10,0,81,norm,36,-4.545,down,norm,229.850874295,224.2,210.0,230.8,225.9,0,209.9,234.6,218.2,10,6,8.151,4.521,1.684,-1.164,-5.227,-7.536,241.6,6,310.9,-8.008,-7.922,10,-7.884,-7.996,-4.366,-5.043,-5.287,-4.868,5.021,7.598,18,-1.964,1.414,4.77,7.608,-8.386,-7.678,-1.857,1.698,223.7,225.0,227.1,249.9,244.5,220.3,244.1,248.6,221.4,234.4,1,norm,1.381,1.787,-1.335,-1.153,-4.69,-4.458,-1.276,-1.899,-1.734,-1.57,1.85,-1.41,231.5,,-4.664,-7.591,1.166,-1.802,7.754,5.266,-4.953,-7.628,18,5.229,4.532,5.148,5.118,1.674,1.27,1.484,1.229,18,4.629,5.111,-40,328.51596275,norm,0,63,63,63,840.828,840.839,840.843899828,840.844,840.848,840.852,down,1,1.05968763545,8.94031236455,001,315,1600_900,Intel(R) Core(TM) i5-3230M CPU @ 2.60GHz,orientation_search,Thebeast,AMD Radeon HD 7500M/7600M Series,2018_Nov_08_1356,testMonitor,
235.0,229.3,209.9,,36,10,215.6,240.7,232.5,233.8,8.009,8.299,7.91,7.877,7.736,8.023,8.366,4.632,-4.807,-8.473,1.14,-1.381,7.716,5.167,-4.948,-8.38,222.8,241.3,-8.007,231.2,214.5,220.6,223.7,217.6,36,233.6,3,5,prime,10,0,75,norm,36,-4.719,up,norm,229.850874295,249.9,211.8,233.2,230.3,3,231.2,219.2,214.9,10,6,8.083,4.676,2.092,-1.237,-4.934,-7.855,233.1,6,304.9,-7.599,-7.955,10,-7.75,-8.285,-5.043,-4.383,-5.054,-5.031,4.929,8.067,21,-1.343,1.698,5.174,8.153,-8.286,-7.602,-1.239,2.071,218.1,231.2,232.5,230.0,220.2,233.2,231.8,236.7,226.7,220.8,2,norm,1.951,1.401,-1.845,-1.253,-5.293,-5.007,-1.221,-1.29,-1.386,-1.968,1.316,-2.04,223.6,218.9,-5.228,-7.873,1.744,-2.086,8.227,4.633,-4.338,-8.039,18,4.808,4.821,4.446,5.175,1.348,1.844,1.435,1.363,18,4.391,4.368,-40,328.51596275,norm,0,64,64,64,841.945,841.954,841.960431007,841.961,841.963,841.966,up,1,0.678582114713,9.32141788529,001,315,1600_900,Intel(R) Core(TM) i5-3230M CPU @ 2.60GHz,orientation_search,Thebeast,AMD Radeon HD 7500M/7600M Series,2018_Nov_08_1356,testMonitor,
225.3,227.4,247.5,222.3,36,10,225.0,225.4,234.6,236.8,8.027,8.085,7.58,7.645,8.135,7.739,8.397,4.925,-4.479,-8.29,1.533,-1.258,7.797,5.284,-5.159,-7.737,,221.3,-7.587,227.6,230.9,219.6,235.3,209.9,36,242.9,5,5,prime,10,0,119,norm,36,-5.246,up,norm,229.850874295,231.9,229.1,225.0,228.1,5,227.5,226.4,244.5,10,6,7.839,4.569,1.282,-1.961,-4.976,-7.791,232.9,6,348.9,-8.148,-7.847,10,-7.899,-8.483,-4.443,-4.412,-4.984,-4.97,4.653,8.22,35,-1.143,2.019,4.559,8.372,-7.711,-8.038,-1.229,2.002,249.9,247.1,226.4,233.4,225.1,215.2,220.7,222.6,226.5,221.0,3,norm,1.988,1.108,-2.03,-1.431,-4.588,-5.295,-1.668,-1.397,-1.297,-1.457,1.547,-1.612,237.9,239.6,-4.828,-8.447,1.463,-1.393,8.46,5.252,-4.773,-7.808,18,4.497,4.414,4.966,4.351,1.843,1.452,1.614,1.383,18,5.128,4.333,-40,328.51596275,norm,0,65,65,65,842.661,842.671,842.677039081,842.677,842.68,842.685,down,0,0.826841988499,-10,001,315,1600_900,Intel(R) Core(TM) i5-3230M CPU @ 2.60GHz,orientation_search,Thebeast,AMD Radeon HD 7500M/7600M Series,2018_Nov_08_1356,testMonitor,
229.3,216.8,224.3,231.0,36,10,218.4,230.6,231.5,243.0,7.716,8.483,8.061,8.274,8.181,7.753,7.729,4.739,-4.918,-7.934,1.747,-1.424,8.156,4.665,-5.293,-7.985,222.0,222.3,-7.632,215.9,225.1,,234.2,244.7,36,243.7,5,5,prime,10,0,116,norm,36,-4.531,up,norm,229.850874295,223.0,228.2,238.6,229.1,3,230.8,249.9,233.2,10,6,8.364,5.067,1.178,-2.075,-5.196,-7.726,211.0,6,345.9,-7.532,-8.199,10,-7.696,-8.355,-4.564,-4.953,-5.267,-4.39,4.653,7.689,33,-1.455,1.25,4.308,8.071,-8.348,-7.94,-1.979,1.416,222.1,243.6,220.2,218.1,238.0,224.9,230.2,209.9,227.0,243.0,4,norm,1.59,1.996,-2.051,-1.457,-4.788,-4.56,-1.686,-1.946,-1.577,-1.967,1.607,-1.408,230.7,219.1,-5.229,-8.406,2.0,-1.11,7.591,4.604,-4.325,-7.764,18,5.134,4.876,4.729,4.456,1.171,1.326,1.61,1.786,18,4.917,4.444,-40,328.51596275,norm,0,66,66,66,844.544,844.555,844.560094216,844.56,844.563,844.566,up,1,1.27898822179,8.72101177821,001,315,1600_900,Intel(R) Core(TM) i5-3230M CPU @ 2.60GHz,orientation_search,Thebeast,AMD Radeon HD 7500M/7600M Series,2018_Nov_08_1356,testMonitor,
220.7,236.4,237.6,238.4,36,10,236.5,223.1,226.0,223.6,7.54,7.794,8.104,7.917,7.879,7.857,7.532,5.158,-4.75,-8.029,1.58,-1.407,7.758,4.538,-4.469,-8.249,224.3,236.9,-7.938,221.1,249.9,237.9,231.8,223.7,36,213.9,3,5,prime,10,0,65,norm,36,-4.487,down,norm,229.850874295,218.0,234.5,248.9,232.9,1,230.1,227.0,231.4,10,6,7.818,4.346,1.51,-1.456,-4.494,-8.009,230.2,6,294.9,-7.939,-8.264,10,-7.976,-7.663,-4.56,-5.15,-4.976,-4.7,4.674,8.077,19,-1.273,1.774,4.682,8.243,-7.939,-8.344,-1.147,1.375,233.8,234.7,233.3,235.4,237.8,247.6,229.8,209.9,218.3,235.4,5,norm,1.336,1.866,-1.289,-2.081,-4.782,-5.238,-1.663,-1.221,-1.138,-1.227,1.465,-1.819,,212.8,-4.913,-7.524,1.116,-1.249,7.978,4.734,-4.593,-8.052,18,5.094,5.207,5.252,5.086,1.79,1.613,1.715,1.117,18,5.267,4.415,-40,328.51596275,norm,0,67,67,67,845.861,845.871,845.876620501,845.877,845.879,845.882,down,1,0.562781596658,9.43721840334,001,315,1600_900,Intel(R) Core(TM) i5-3230M CPU @ 2.60GHz,orientation_search,Thebeast,AMD Radeon HD 7500M/7600M Series,2018_Nov_08_1356,testMonitor,
309.8,304.5,,312.6,36,-60,297.3,304.4,314.5,307.9,7.751,7.861,8.426,8.414,7.963,8.071,7.716,4.821,-5.284,-8.131,1.622,-1.218,8.222,5.11,-5.2,-8.384,313.8,310.1,-7.704,304.3,310.4,313.1,314.9,308.5,36,300.7,3,5,probe,5,0,69,norm,36,-5.282,down,norm,307.291338158,314.1,310.8,301.3,314.0,2,307.2,308.1,308.1,10,6,7.542,5.159,1.943,-1.365,-4.509,-7.862,307.8,1,238.3,-7.846,-8.016,10,-7.569,-7.608,-4.421,-4.956,-4.504,-4.462,5.14,7.965,20,-2.097,1.847,4.444,8.407,-7.811,-7.781,-1.556,2.016,310.8,303.7,315.3,306.7,299.1,308.8,304.1,305.1,312.5,317.3,0,norm,1.282,1.582,-1.578,-1.296,-4.315,-4.678,-1.463,-1.441,-1.844,-1.869,1.412,-1.855,305.9,301.6,-4.879,-7.7,1.67,-1.115,8.439,4.569,-4.729,-8.426,19,4.34,4.787,5.061,5.222,1.839,1.267,1.668,1.158,19,5.133,5.272,10,229.850874295,norm,0,68,68,68,846.461,846.47,846.476523316,846.477,846.479,846.482,down,1,1.22955036904,8.77044963096,001,315,1600_900,Intel(R) Core(TM) i5-3230M CPU @ 2.60GHz,orientation_search,Thebeast,AMD Radeon HD 7500M/7600M Series,2018_Nov_08_1356,testMonitor,
36.4,26.2,28.8,44.7,36,0,10.4,8.5,27.9,29.9,7.705,8.319,7.896,7.785,8.03,7.754,8.367,4.945,-4.876,-7.74,1.913,-1.973,8.014,4.397,-5.046,-8.478,7.8,24.6,-8.26,16.0,27.2,19.8,20.2,17.2,36,17.1,0,5,prime,10,0,79,norm,36,-4.718,up,norm,27.7854023163,32.3,18.9,33.6,19.4,5,39.9,20.8,45.1,10,6,7.66,4.687,1.333,-1.594,-4.351,-7.799,26.2,6,106.8,-7.559,-8.326,0,-7.842,-8.002,-4.89,-5.25,-4.973,-4.452,4.322,8.225,5,-1.107,1.988,4.313,7.845,-7.727,-8.296,-1.717,2.059,47.8,33.0,38.5,43.8,28.2,42.2,40.9,16.9,,24.3,0,norm,1.265,1.212,-1.3,-2.07,-5.222,-4.587,-1.758,-1.22,-1.683,-1.307,1.4,-1.359,27.0,28.3,-4.856,-7.614,1.297,-1.526,7.903,4.513,-4.875,-7.849,20,4.996,4.742,4.376,4.627,1.898,1.441,1.381,1.414,20,4.326,4.616,-60,229.850874295,norm,0,69,69,69,847.727,847.737,847.743037008,847.743,847.745,847.748,up,1,0.979440434341,9.02055956566,001,315,1600_900,Intel(R) Core(TM) i5-3230M CPU @ 2.60GHz,orientation_search,Thebeast,AMD Radeon HD 7500M/7600M Series,2018_Nov_08_1356,testMonitor,
36.4,24.2,32.7,25.5,36,0,39.2,23.4,27.9,47.8,8.358,8.173,7.501,8.249,8.026,7.512,8.298,4.683,-4.93,-7.812,1.824,-1.516,7.664,4.847,-4.4,-7.787,14.1,19.4,-8.367,23.1,29.0,24.7,19.4,26.7,36,22.9,0,5,prime,10,0,65,norm,36,-4.722,down,norm,27.7854023163,42.1,34.3,26.7,22.5,2,30.6,42.0,38.6,10,6,7.975,5.01,1.838,-1.973,-4.688,-7.82,24.6,6,92.8,-8.2,-8.045,0,-8.464,-7.654,-5.214,-5.092,-4.512,-5.065,4.391,7.999,2,-1.886,2.082,5.22,7.958,-7.927,-8.293,-1.667,1.678,22.4,39.9,32.2,,35.0,7.8,16.0,31.8,19.4,30.4,1,norm,2.008,1.159,-1.991,-2.073,-5.261,-4.538,-1.87,-1.554,-1.64,-1.421,1.201,-2.018,27.4,33.2,-5.23,-7.896,1.749,-1.301,7.972,4.801,-4.561,-7.756,20,4.542,5.158,5.222,4.918,1.29,1.272,1.723,1.77,20,4.986,4.831,-60,229.850874295,norm,0,70,70,70,848.744,848.753,848.759606951,848.76,848.762,848.765,down,1,0.612815504697,9.3871844953,001,315,1600_900,Intel(R) Core(TM) i5-3230M CPU @ 2.60GHz,orientation_search,Thebeast,AMD Radeon HD 7500M/7600M Series,2018_Nov_08_1356,testMonitor,
12.7,30.6,31.5,30.3,36,0,17.4,40.2,36.3,32.5,8.218,7.922,8.298,8.014,7.862,8.448,7.623,5.155,-4.92,-7.879,1.149,-1.308,8.443,4.882,-4.384,-7.896,30.4,7.8,-8.366,24.0,28.8,27.0,31.9,32.3,36,13.5,2,5,prime,10,0,60,norm,36,-4.955,down,norm,27.7854023163,28.5,39.1,33.3,17.7,0,18.5,41.4,,10,6,8.287,5.078,1.38,-1.676,-5.269,-7.799,36.9,6,87.8,-8.406,-7.987,0,-8.06,-7.964,-5.194,-4.89,-4.628,-4.817,4.996,8.18,12,-1.598,1.148,5.098,7.943,-7.75,-8.202,-1.812,2.057,27.0,28.1,28.6,33.2,29.1,20.5,14.9,20.9,19.0,47.8,2,norm,1.114,1.669,-1.494,-1.172,-5.137,-4.703,-1.189,-1.638,-1.866,-1.155,1.559,-1.333,28.2,13.4,-4.713,-8.34,1.265,-1.836,8.147,5.28,-5.0,-7.804,20,4.923,5.1,4.349,5.217,1.587,1.888,1.646,2.009,20,4.695,4.621,-60,229.850874295,norm,0,71,71,71,849.394,849.41,849.426201249,849.426,849.429,849.432,up,0,0.728859971212,-10,001,315,1600_900,Intel(R) Core(TM) i5-3230M CPU @ 2.60GHz,orientation_search,Thebeast,AMD Radeon HD 7500M/7600M Series,2018_Nov_08_1356,testMonitor,
22.4,11.9,25.5,34.8,36,0,11.1,23.4,38.6,21.0,7.794,8.065,8.436,7.745,7.51,7.693,8.455,5.083,-5.012,-8.343,2.03,-1.639,8.101,4.828,-5.205,-7.968,9.4,23.1,-7.892,35.3,7.9,33.3,25.6,24.1,36,34.4,2,5,prime,10,0,98,norm,36,-4.794,up,norm,27.7854023163,20.4,33.4,,47.8,3,38.5,23.3,11.3,10,6,7.503,4.496,1.311,-1.796,-4.509,-7.568,28.3,6,125.8,-8.381,-7.928,0,-8.485,-8.416,-5.252,-4.993,-4.363,-4.782,4.326,8.043,15,-1.828,1.858,4.95,7.909,-8.287,-7.767,-1.224,1.172,46.9,41.3,32.2,25.5,7.8,28.1,33.9,30.0,26.5,41.1,3,norm,1.351,1.239,-1.648,-1.478,-4.999,-5.276,-1.43,-1.913,-2.045,-1.935,1.697,-1.873,39.5,41.8,-5.283,-8.214,1.321,-2.012,8.126,4.725,-4.767,-7.691,20,4.896,4.418,5.204,4.726,1.512,1.294,1.371,1.328,20,4.848,5.266,-60,229.850874295,norm,0,72,72,72,851.21,851.22,851.225960221,851.226,851.228,851.231,up,1,0.996011561103,9.0039884389,001,315,1600_900,Intel(R) Core(TM) i5-3230M CPU @ 2.60GHz,orientation_search,Thebeast,AMD Radeon HD 7500M/7600M Series,2018_Nov_08_1356,testMonitor,
22.3,13.7,24.8,17.7,36,0,21.0,42.8,28.9,33.0,7.803,7.989,7.908,8.139,8.08,8.443,8.493,4.977,-5.277,-7.79,1.446,-1.669,8.332,5.055,-5.141,-7.906,21.0,38.8,-8.361,27.8,23.5,30.3,20.5,40.2,36,47.8,1,5,prime,10,0,68,norm,36,-4.678,up,norm,27.7854023163,27.1,22.3,38.0,19.4,4,33.8,21.9,20.7,10,6,8.315,5.243,1.725,-1.942,-5.042,-7.729,,6,95.8,-7.725,-7.69,0,-7.517,-7.763,-5.022,-4.507,-5.006,-4.522,5.1,8.063,10,-1.841,1.324,4.805,8.299,-7.71,-8.439,-1.811,1.547,17.0,14.8,26.6,19.3,27.4,39.5,7.9,15.2,25.9,27.2,4,norm,1.308,1.328,-1.71,-1.862,-5.12,-4.731,-1.722,-1.739,-2.045,-2.082,2.023,-2.025,25.9,24.4,-4.564,-8.423,2.023,-2.02,7.944,4.314,-4.928,-8.272,20,5.147,4.706,4.851,4.557,1.742,1.905,1.14,1.237,20,5.298,4.553,-60,229.850874295,norm,0,73,73,73,852.243,852.253,852.259151817,852.259,852.261,852.264,up,1,0.662726254304,9.3372737457,001,315,1600_900,Intel(R) Core(TM) i5-3230M CPU @ 2.60GHz,orientation_search,Thebeast,AMD Radeon HD 7500M/7600M Series,2018_Nov_08_1356,testMonitor,
24.8,28.5,37.9,26.5,36,0,47.8,29.3,35.4,21.7,7.602,8.023,7.755,8.395,8.145,8.4,7.754,5.173,-4.542,-7.757,1.886,-2.001,7.761,4.466,-5.104,-8.311,18.4,19.9,-8.421,7.8,17.5,24.2,20.7,16.7,36,43.8,2,5,prime,10,0,98,norm,36,-4.687,down,norm,27.7854023163,28.0,39.4,11.4,,2,26.8,40.4,41.3,10,6,8.31,4.778,1.879,-1.637,-5.079,-8.204,20.2,6,125.8,-7.671,-8.303,0,-8.384,-8.415,-4.329,-5.054,-4.953,-4.598,4.392,8.178,14,-1.273,1.209,4.307,7.685,-8.366,-8.229,-1.927,1.959,23.1,34.1,14.8,24.0,23.7,11.8,23.5,21.6,27.8,36.4,5,norm,1.345,2.024,-1.146,-1.874,-5.143,-4.747,-1.282,-1.519,-1.689,-1.302,1.847,-1.701,29.2,28.7,-4.956,-8.403,1.452,-1.682,7.966,5.217,-5.051,-7.993,20,5.202,4.925,4.518,4.789,1.131,1.56,1.317,1.919,20,4.982,5.248,-60,229.850874295,norm,0,74,74,74,852.943,852.953,852.959104685,852.96,852.962,852.965,up,0,0.145322623808,-10,001,315,1600_900,Intel(R) Core(TM) i5-3230M CPU @ 2.60GHz,orientation_search,Thebeast,AMD Radeon HD 7500M/7600M Series,2018_Nov_08_1356,testMonitor,
118.5,110.4,129.0,122.0,36,-80,,117.0,118.5,121.5,8.27,7.743,7.788,8.175,7.892,7.848,8.19,5.253,-4.348,-8.261,1.116,-1.793,8.067,4.627,-4.33,-7.649,120.4,117.9,-7.529,125.0,119.9,117.3,118.6,118.0,36,121.7,4,5,probe,5,0,94,norm,36,-5.127,down,norm,119.031523863,122.2,122.5,121.2,117.9,0,118.6,113.4,119.3,10,6,7.625,4.634,1.255,-1.715,-5.083,-7.658,109.0,2,25.0,-7.744,-8.286,0,-8.071,-8.401,-4.522,-4.604,-4.91,-5.147,4.629,8.486,24,-1.67,1.995,4.864,8.333,-8.308,-7.702,-1.724,1.548,119.8,115.4,118.1,120.6,122.9,120.7,116.4,110.5,120.5,119.0,0,norm,1.509,1.933,-1.812,-1.222,-4.403,-4.456,-1.688,-1.875,-1.378,-1.311,1.694,-2.047,114.4,123.0,-4.643,-8.27,1.144,-1.235,8.288,4.976,-4.41,-7.943,21,4.856,4.841,5.104,5.068,1.285,1.546,1.654,1.188,21,4.463,5.029,0,27.7854023163,norm,0,75,75,75,854.16,854.17,854.175587233,854.176,854.178,854.181,down,1,0.712594766868,9.28740523313,001,315,1600_900,Intel(R) Core(TM) i5-3230M CPU @ 2.60GHz,orientation_search,Thebeast,AMD Radeon HD 7500M/7600M Series,2018_Nov_08_1356,testMonitor,
138.0,137.2,134.8,128.7,36,-80,128.0,132.8,,135.3,8.247,7.891,7.673,7.551,8.384,7.601,7.856,4.858,-4.414,-7.959,1.58,-1.23,7.842,4.883,-4.464,-7.852,142.3,127.1,-7.956,140.5,134.3,139.1,135.1,134.0,36,141.6,4,5,probe,5,0,110,norm,36,-5.176,up,norm,135.031523863,129.3,130.5,125.0,137.8,4,138.8,127.5,134.0,10,6,8.226,4.829,1.861,-1.232,-4.354,-8.162,127.5,2,25.0,-7.863,-7.72,0,-7.619,-7.881,-4.989,-5.24,-4.804,-5.148,4.301,8.387,28,-1.718,1.993,4.855,8.08,-7.522,-7.9,-1.495,1.969,137.4,137.9,138.0,137.3,131.8,137.5,134.4,137.6,138.0,145.0,1,norm,1.292,2.067,-1.274,-1.669,-4.396,-4.807,-1.531,-2.072,-1.561,-1.842,2.083,-1.44,126.1,135.3,-4.858,-8.005,1.731,-1.57,8.348,4.345,-4.3,-7.765,21,5.031,5.027,4.416,4.374,1.9,1.992,1.783,1.857,21,5.025,4.901,0,27.7854023163,norm,0,76,76,76,854.91,854.92,854.925454798,854.926,854.928,854.931,up,1,0.662313357723,9.33768664228,001,315,1600_900,Intel(R) Core(TM) i5-3230M CPU @ 2.60GHz,orientation_search,Thebeast,AMD Radeon HD 7500M/7600M Series,2018_Nov_08_1356,testMonitor,
267.1,265.0,284.5,269.5,36,-30,268.7,250.0,289.0,259.0,8.272,8.337,8.042,7.999,7.756,8.262,7.899,4.724,-4.738,-8.348,1.785,-1.291,7.887,4.354,-5.059,-7.946,275.5,255.7,-7.995,264.0,279.7,272.3,271.7,265.2,36,278.4,2,5,prime,10,0,81,norm,36,-4.641,down,norm,268.964824626,267.7,253.8,253.9,,2,274.0,263.8,249.0,10,6,7.95,4.661,2.046,-1.797,-5.262,-7.903,278.6,6,350.0,-7.654,-7.535,-30,-8.167,-7.606,-5.179,-4.982,-5.271,-5.189,5.25,8.023,14,-1.631,1.466,4.393,8.162,-8.386,-7.872,-1.132,1.104,267.7,265.8,255.4,276.1,275.5,264.2,274.9,257.8,280.4,272.8,0,norm,1.289,1.881,-1.961,-1.745,-4.322,-4.925,-1.861,-1.981,-1.679,-1.27,1.989,-1.807,260.9,265.9,-4.309,-7.715,1.774,-1.833,7.763,4.543,-4.98,-7.89,22,4.978,4.638,4.499,4.585,1.692,1.972,1.699,1.344,22,4.841,4.565,-80,27.7854023163,norm,0,77,77,77,855.609,855.619,855.625425035,855.626,855.628,855.632,down,1,1.11144141961,8.88855858039,001,315,1600_900,Intel(R) Core(TM) i5-3230M CPU @ 2.60GHz,orientation_search,Thebeast,AMD Radeon HD 7500M/7600M Series,2018_Nov_08_1356,testMonitor,
267.2,277.1,266.2,276.2,36,-30,268.3,266.9,280.0,264.8,7.847,8.381,8.19,8.216,7.759,8.169,7.95,4.802,-4.578,-7.694,1.96,-1.528,7.726,4.469,-5.19,-8.231,274.5,249.0,-7.513,269.8,255.5,274.3,261.9,274.1,36,280.1,0,5,prime,10,0,107,norm,36,-4.421,down,norm,268.964824626,289.0,267.2,279.1,272.2,1,263.5,282.9,279.7,10,6,7.849,4.853,1.753,-1.26,-5.122,-7.701,270.5,6,376.0,-7.668,-7.952,-30,-7.538,-7.803,-5.034,-4.915,-4.774,-5.183,4.875,7.59,1,-1.284,1.409,5.214,7.596,-8.484,-7.88,-1.952,1.664,259.2,269.8,283.5,265.9,,261.1,259.5,272.5,259.9,277.7,1,norm,2.099,2.052,-2.033,-1.638,-4.801,-4.807,-1.372,-1.231,-1.975,-1.13,1.501,-1.165,255.9,275.4,-5.295,-7.585,1.433,-1.466,8.153,4.71,-4.931,-7.879,22,4.608,4.764,4.715,4.632,1.865,1.739,1.156,1.881,22,4.534,4.986,-80,27.7854023163,norm,0,78,78,78,856.759,856.769,856.775282416,856.776,856.778,856.78,down,1,2.81250587174,7.18749412826,001,315,1600_900,Intel(R) Core(TM) i5-3230M CPU @ 2.60GHz,orientation_search,Thebeast,AMD Radeon HD 7500M/7600M Series,2018_Nov_08_1356,testMonitor,
266.6,274.6,283.1,256.2,36,-30,275.7,264.7,284.7,264.1,7.778,8.292,8.305,8.228,7.737,7.876,7.88,4.745,-5.115,-7.942,1.527,-1.705,8.467,4.689,-5.162,-8.279,249.0,281.1,-8.174,264.5,284.2,253.2,276.0,263.8,36,269.7,1,5,prime,10,0,105,norm,36,-4.594,down,norm,268.964824626,257.8,255.2,268.0,263.8,1,278.2,254.3,269.4,10,6,7.96,4.988,2.003,-1.535,-4.863,-8.25,270.4,6,374.0,-8.179,-7.916,-30,-8.153,-7.784,-4.708,-4.762,-4.301,-5.081,4.509,7.878,7,-1.595,1.567,4.562,8.478,-8.216,-7.964,-1.141,1.303,274.4,262.6,251.5,260.3,257.0,289.0,,277.5,261.8,272.6,2,norm,2.087,1.713,-1.523,-1.952,-5.014,-4.939,-1.277,-1.141,-1.405,-1.732,1.681,-1.751,282.5,267.1,-4.634,-7.5,1.168,-1.42,8.003,5.146,-5.039,-8.407,22,4.885,5.033,4.624,4.565,1.12,1.393,1.52,1.483,22,4.804,5.207,-80,27.7854023163,norm,0,79,79,79,859.609,859.62,859.62493319,859.625,859.627,859.63,down,1,1.62972176455,8.37027823545,001,315,1600_900,Intel(R) Core(TM) i5-3230M CPU @ 2.60GHz,orientation_search,Thebeast,AMD Radeon HD 7500M/7600M Series,2018_Nov_08_1356,testMonitor,
267.8,264.2,279.3,278.3,36,-30,270.3,263.5,266.4,285.2,8.012,8.082,7.624,8.487,8.201,8.364,7.612,4.777,-4.997,-7.999,1.432,-1.18,8.2,5.09,-5.049,-7.698,270.9,256.6,-8.174,269.6,270.1,273.6,275.7,276.9,36,279.2,2,5,prime,10,0,95,norm,36,-5.291,up,norm,268.964824626,254.7,266.3,,289.0,3,269.3,249.0,257.2,10,6,7.989,5.294,1.146,-1.597,-4.33,-8.267,277.1,6,364.0,-8.373,-7.942,-30,-7.983,-7.693,-4.48,-4.881,-4.366,-4.607,5.06,7.744,15,-1.117,1.37,4.349,7.67,-8.454,-8.252,-1.853,1.371,266.2,279.0,252.5,279.4,283.1,272.4,258.9,271.3,269.2,268.9,3,norm,1.58,2.022,-1.951,-1.349,-4.448,-4.59,-1.822,-1.994,-1.683,-1.85,1.485,-1.468,275.7,266.6,-4.727,-8.131,1.878,-1.971,8.44,4.764,-4.95,-8.249,22,5.104,5.107,4.968,5.066,1.468,1.786,1.33,1.231,22,4.571,4.927,-80,27.7854023163,norm,0,80,80,80,861.276,861.286,861.291379067,861.292,861.295,861.299,down,0,0.726885093965,-10,001,315,1600_900,Intel(R) Core(TM) i5-3230M CPU @ 2.60GHz,orientation_search,Thebeast,AMD Radeon HD 7500M/7600M Series,2018_Nov_08_1356,testMonitor,
266.6,252.9,258.0,283.1,36,-30,263.2,265.3,267.3,277.8,8.171,7.566,7.615,7.874,8.348,8.452,8.205,5.043,-4.46,-7.545,1.725,-1.5,7.918,4.914,-4.547,-7.901,268.6,279.6,-8.473,268.2,267.1,276.6,277.7,275.3,36,279.9,0,5,prime,10,0,102,norm,36,-4.328,down,norm,268.964824626,277.2,260.7,285.2,268.6,1,289.0,278.7,267.4,10,6,7.741,4.491,1.288,-1.151,-4.996,-8.244,282.7,6,371.0,-7.862,-8.424,-30,-7.896,-7.767,-4.713,-4.677,-4.831,-4.416,5.042,7.94,1,-1.984,1.22,4.389,7.772,-7.547,-8.294,-1.303,1.633,277.5,275.2,265.0,279.3,,264.0,282.4,268.6,249.0,284.6,4,norm,1.928,1.327,-1.198,-1.176,-4.865,-4.301,-1.339,-1.319,-1.611,-1.317,1.66,-1.824,280.7,280.9,-4.941,-7.645,1.192,-1.349,8.486,5.007,-5.141,-7.928,22,5.125,4.413,5.296,5.259,1.432,1.845,1.783,1.594,22,4.947,4.801,-80,27.7854023163,norm,0,81,81,81,863.075,863.085,863.091173566,863.091,863.094,863.096,down,1,1.91267513565,8.08732486435,001,315,1600_900,Intel(R) Core(TM) i5-3230M CPU @ 2.60GHz,orientation_search,Thebeast,AMD Radeon HD 7500M/7600M Series,2018_Nov_08_1356,testMonitor,
262.3,261.1,275.8,272.9,36,-30,280.0,257.4,273.4,265.0,8.03,8.308,7.774,7.964,7.65,8.101,7.673,4.541,-4.33,-8.373,2.043,-1.824,8.442,4.763,-4.491,-8.04,255.5,266.5,-8.003,270.9,272.8,249.0,261.7,266.6,36,268.4,0,5,prime,10,0,94,norm,36,-4.405,down,norm,268.964824626,249.5,257.1,289.0,267.6,1,264.3,281.6,257.5,10,6,7.555,4.88,1.89,-1.842,-4.853,-8.034,276.8,6,363.0,-8.001,-7.534,-30,-7.852,-8.101,-5.294,-4.962,-4.726,-4.917,4.439,7.894,1,-1.658,1.368,5.039,8.013,-7.775,-8.114,-1.976,1.25,277.6,274.6,256.4,249.4,,267.0,258.4,273.0,277.8,255.0,5,norm,1.818,1.949,-1.877,-1.498,-4.55,-5.235,-1.249,-1.99,-1.802,-1.466,1.141,-1.586,273.5,266.8,-5.067,-8.331,1.246,-2.044,8.071,5.081,-5.183,-7.618,22,5.148,5.297,4.481,5.296,1.1,1.426,1.382,1.378,22,4.994,4.768,-80,27.7854023163,norm,0,82,82,82,865.025,865.039,865.0576496,865.058,865.06,865.063,down,1,2.79580961284,7.20419038716,001,315,1600_900,Intel(R) Core(TM) i5-3230M CPU @ 2.60GHz,orientation_search,Thebeast,AMD Radeon HD 7500M/7600M Series,2018_Nov_08_1356,testMonitor,
336.3,330.9,338.8,343.5,36,0,334.1,342.2,342.1,331.7,8.249,8.058,8.369,7.519,7.539,8.195,8.34,4.549,-4.915,-7.725,2.009,-1.272,7.901,4.339,-5.135,-7.689,,331.4,-7.592,338.5,336.1,329.0,338.0,338.4,36,331.3,5,5,probe,5,0,97,norm,36,-5.097,up,norm,335.522083163,332.6,339.4,333.1,336.0,5,334.9,330.8,333.2,10,6,7.538,4.382,2.017,-1.861,-4.854,-8.404,329.8,2,238.5,-8.313,-8.005,-30,-7.724,-7.876,-4.435,-4.889,-5.035,-4.971,5.039,8.41,35,-1.911,2.09,5.253,7.888,-7.529,-7.545,-1.24,1.488,342.3,325.5,326.9,337.3,340.1,330.1,345.5,340.8,339.8,330.7,0,norm,1.9,1.437,-1.206,-1.356,-5.29,-5.158,-1.517,-1.852,-1.244,-1.367,1.805,-2.083,342.4,326.1,-5.195,-8.09,1.537,-1.212,8.074,4.624,-5.111,-7.966,23,4.785,5.15,4.728,5.007,1.614,1.153,1.694,1.888,23,4.448,5.032,-30,268.964824626,norm,0,83,83,83,867.875,867.884,867.890535826,867.891,867.893,867.896,up,1,0.979678461721,9.02032153828,001,315,1600_900,Intel(R) Core(TM) i5-3230M CPU @ 2.60GHz,orientation_search,Thebeast,AMD Radeon HD 7500M/7600M Series,2018_Nov_08_1356,testMonitor,
323.2,320.3,327.6,319.6,36,0,331.5,318.8,325.0,326.8,7.719,7.764,7.836,8.453,8.309,7.959,7.539,5.049,-4.544,-8.052,1.872,-1.767,8.109,5.011,-4.989,-7.743,315.7,318.8,-7.63,319.6,324.0,324.7,322.0,315.3,36,318.2,3,5,probe,5,0,83,norm,36,-5.073,down,norm,321.522083163,322.6,312.6,318.4,323.3,1,319.5,327.4,320.4,10,6,8.494,4.534,1.9,-1.768,-4.3,-8.202,323.5,2,238.5,-7.704,-8.266,-30,-7.852,-8.109,-5.22,-4.972,-4.79,-5.249,5.118,7.519,19,-1.466,1.244,5.226,8.46,-7.557,-8.006,-1.289,2.023,321.5,324.4,319.4,316.4,318.2,324.0,320.9,317.6,323.1,320.8,1,norm,1.476,1.373,-1.828,-1.734,-5.157,-4.543,-1.379,-1.745,-1.789,-1.246,1.464,-1.609,,323.2,-4.695,-8.288,1.338,-1.352,7.848,4.3,-4.944,-8.329,23,5.015,5.156,5.298,4.464,1.474,1.316,1.895,2.056,23,4.852,5.019,-30,268.964824626,norm,0,84,84,84,868.891,868.901,868.907111295,868.907,868.909,868.912,down,1,1.16275980708,8.83724019292,001,315,1600_900,Intel(R) Core(TM) i5-3230M CPU @ 2.60GHz,orientation_search,Thebeast,AMD Radeon HD 7500M/7600M Series,2018_Nov_08_1356,testMonitor,
165.9,184.4,177.1,180.3,36,-80,184.3,197.9,188.2,187.4,8.256,8.286,8.325,7.819,8.475,8.174,7.874,5.235,-4.439,-7.809,1.603,-1.366,8.11,5.003,-4.913,-8.031,199.8,185.0,-7.719,195.3,191.0,185.8,165.9,181.2,36,181.9,0,5,prime,10,0,87,norm,36,-4.677,down,norm,185.889540114,180.7,190.7,167.5,193.7,0,205.9,172.8,183.1,10,6,8.284,4.981,1.625,-2.038,-5.289,-7.609,197.6,6,272.9,-7.631,-7.88,-80,-8.316,-7.745,-4.71,-5.083,-4.989,-5.264,5.3,8.199,0,-1.617,1.441,4.884,8.298,-7.934,-8.42,-2.041,2.097,184.3,184.0,191.2,178.2,196.9,,182.9,191.3,177.6,182.7,0,norm,1.538,1.711,-1.874,-1.246,-4.907,-4.479,-1.924,-1.739,-1.675,-1.846,1.848,-1.712,189.5,204.8,-4.622,-7.999,1.855,-1.133,8.152,4.573,-4.44,-8.281,24,4.922,5.019,4.531,4.768,1.313,2.055,1.774,1.371,24,4.484,5.263,0,268.964824626,norm,0,85,85,85,870.091,870.169,870.173616303,870.174,870.176,870.179,down,1,2.7623503842,7.2376496158,001,315,1600_900,Intel(R) Core(TM) i5-3230M CPU @ 2.60GHz,orientation_search,Thebeast,AMD Radeon HD 7500M/7600M Series,2018_Nov_08_1356,testMonitor,
178.5,177.4,185.3,202.1,36,-80,204.1,185.9,198.9,196.8,7.96,8.181,8.45,8.205,7.893,8.345,7.87,4.807,-5.004,-8.175,1.659,-1.739,8.294,4.875,-4.523,-8.134,193.0,181.1,-7.716,198.2,205.9,175.2,171.7,180.6,36,181.0,3,5,prime,10,0,112,norm,36,-5.191,down,norm,185.889540114,178.8,189.3,189.2,202.7,1,179.8,184.9,172.4,10,6,7.666,4.553,1.258,-1.923,-4.486,-7.707,183.3,6,297.9,-7.597,-8.164,-80,-7.795,-8.132,-5.123,-5.263,-4.582,-5.017,4.975,7.779,19,-1.52,1.654,5.104,7.585,-7.53,-8.361,-1.976,2.093,191.2,178.7,181.6,190.8,192.4,169.4,186.6,165.9,194.5,182.3,1,norm,1.425,2.035,-1.145,-2.021,-5.078,-4.358,-1.487,-1.577,-1.9,-1.682,1.841,-1.654,,180.9,-4.6,-8.41,1.422,-1.934,8.097,5.066,-4.307,-7.501,24,4.536,4.821,4.606,5.289,2.005,1.715,1.505,1.103,24,4.869,4.669,0,268.964824626,norm,0,86,86,86,872.957,872.967,872.973273828,872.974,872.976,872.979,down,1,1.1955614012,8.8044385988,001,315,1600_900,Intel(R) Core(TM) i5-3230M CPU @ 2.60GHz,orientation_search,Thebeast,AMD Radeon HD 7500M/7600M Series,2018_Nov_08_1356,testMonitor,
200.6,185.7,193.1,205.9,36,-80,,178.3,174.1,173.4,7.574,7.528,7.67,8.067,8.143,8.313,7.948,5.081,-5.03,-8.146,2.033,-1.18,7.861,5.018,-5.291,-7.751,179.2,179.2,-8.238,199.1,193.6,183.8,169.3,176.9,36,191.2,4,5,prime,10,0,86,norm,36,-4.391,down,norm,185.889540114,191.2,180.1,201.1,195.9,0,187.4,199.2,189.0,10,6,7.556,4.935,1.876,-1.962,-4.871,-8.031,192.4,6,271.9,-7.624,-7.506,-80,-8.186,-8.031,-4.998,-4.992,-4.864,-4.948,4.805,7.713,24,-1.205,1.553,5.143,7.928,-7.748,-8.167,-1.602,1.432,185.1,182.6,175.8,179.5,165.9,178.8,196.0,189.5,178.4,177.8,2,norm,1.716,1.468,-1.864,-1.452,-4.815,-4.886,-2.051,-1.633,-1.575,-1.887,1.388,-1.754,181.6,173.7,-5.113,-7.613,1.321,-2.062,7.864,4.875,-4.405,-7.577,24,5.219,4.779,5.107,4.977,1.854,1.968,1.775,1.839,24,5.173,4.753,0,268.964824626,norm,0,87,87,87,874.19,874.202,874.206417897,874.207,874.209,874.212,down,1,2.17903330093,7.82096669907,001,315,1600_900,Intel(R) Core(TM) i5-3230M CPU @ 2.60GHz,orientation_search,Thebeast,AMD Radeon HD 7500M/7600M Series,2018_Nov_08_1356,testMonitor,
169.5,173.7,182.6,179.2,36,-80,205.9,189.6,,200.9,8.413,8.125,8.265,7.975,8.215,7.676,8.003,4.726,-5.024,-8.028,1.182,-1.999,7.647,4.563,-5.223,-8.331,165.9,184.7,-7.617,180.7,192.8,189.0,196.8,195.6,36,180.0,4,5,prime,10,0,91,norm,36,-4.316,up,norm,185.889540114,177.8,169.5,179.6,191.1,4,197.4,183.9,195.2,10,6,7.918,4.815,1.642,-1.429,-4.728,-8.231,186.5,6,276.9,-8.215,-7.915,-80,-7.736,-7.907,-4.519,-4.557,-4.938,-5.28,4.41,8.092,28,-1.116,1.807,4.477,7.581,-8.143,-8.038,-1.423,1.497,188.0,189.4,194.4,194.8,186.1,188.4,191.8,188.0,188.5,204.5,3,norm,1.512,1.837,-1.189,-1.207,-4.905,-4.807,-1.819,-1.369,-1.881,-1.724,1.827,-1.361,185.4,183.6,-4.726,-7.93,2.1,-1.857,8.311,5.111,-4.591,-8.254,24,4.959,5.278,4.442,5.067,1.259,1.284,1.883,1.48,24,5.035,4.449,0,268.964824626,norm,0,88,88,88,876.407,876.416,876.422842418,876.423,876.425,876.428,up,1,1.17930409162,8.82069590838,001,315,1600_900,Intel(R) Core(TM) i5-3230M CPU @ 2.60GHz,orientation_search,Thebeast,AMD Radeon HD 7500M/7600M Series,2018_Nov_08_1356,testMonitor,
200.8,174.4,182.5,184.6,36,-80,169.6,185.3,178.2,184.0,7.802,7.687,7.986,7.838,7.945,8.338,8.041,5.053,-5.166,-8.134,1.636,-1.34,8.468,4.928,-4.316,-7.96,173.4,177.3,-8.437,183.9,188.1,166.1,176.3,199.2,36,195.6,1,5,prime,10,0,70,norm,36,-5.142,up,norm,185.889540114,165.9,189.2,185.4,199.7,3,200.7,174.1,190.6,10,6,8.446,4.996,1.279,-1.665,-5.152,-7.861,189.0,6,255.9,-7.947,-8.436,-80,-8.201,-7.566,-5.126,-4.664,-5.014,-5.068,4.566,7.64,9,-1.195,1.676,4.79,8.418,-8.184,-7.841,-1.534,1.441,,169.8,203.9,185.7,201.6,167.3,191.4,185.7,198.5,184.2,4,norm,1.274,1.852,-1.437,-1.655,-4.455,-4.998,-1.936,-1.865,-1.688,-1.687,1.161,-1.992,193.6,180.6,-4.749,-8.31,1.917,-1.509,7.581,4.897,-4.349,-7.982,24,4.746,5.008,5.279,4.302,1.33,1.112,1.125,1.64,24,4.995,5.269,0,268.964824626,norm,0,89,89,89,877.623,877.633,877.639342334,877.64,877.642,877.645,up,1,1.94614541697,8.05385458303,001,315,1600_900,Intel(R) Core(TM) i5-3230M CPU @ 2.60GHz,orientation_search,Thebeast,AMD Radeon HD 7500M/7600M Series,2018_Nov_08_1356,testMonitor,
,188.3,171.8,189.0,36,-80,185.0,183.6,183.5,195.3,7.525,8.119,7.517,8.158,7.931,8.286,7.918,4.467,-5.072,-8.044,1.523,-1.14,7.836,4.558,-5.051,-8.046,178.2,191.3,-7.734,173.4,176.2,176.2,184.1,201.3,36,187.0,3,5,prime,10,0,84,norm,36,-4.859,up,norm,185.889540114,187.5,175.1,181.5,185.1,4,189.3,178.5,178.6,10,6,7.504,4.83,1.774,-1.359,-4.846,-7.707,165.9,6,269.9,-7.783,-8.189,-80,-7.759,-8.407,-5.075,-4.628,-4.656,-4.38,5.251,7.865,22,-1.622,1.524,4.934,7.867,-8.343,-8.373,-2.05,1.934,170.6,205.9,174.3,181.5,179.5,190.6,175.0,193.4,197.5,178.1,5,norm,1.964,1.701,-1.335,-1.755,-4.606,-4.532,-2.047,-1.335,-1.632,-1.39,1.331,-1.779,188.0,187.1,-4.748,-7.785,1.263,-1.792,8.137,4.913,-5.154,-7.703,24,4.998,4.662,4.904,5.187,1.744,1.127,1.663,2.035,24,4.557,4.962,0,268.964824626,norm,0,90,90,90,879.623,879.634,879.639063254,879.639,879.643,879.647,up,1,0.859876873132,9.14012312687,001,315,1600_900,Intel(R) Core(TM) i5-3230M CPU @ 2.60GHz,orientation_search,Thebeast,AMD Radeon HD 7500M/7600M Series,2018_Nov_08_1356,testMonitor,
193.0,199.0,196.5,182.6,36,80,199.7,198.5,200.1,193.1,8.203,8.328,7.667,7.764,8.35,7.821,7.771,5.194,-4.931,-8.141,1.954,-1.467,7.688,5.189,-4.914,-8.057,193.7,194.5,-8.338,187.6,196.5,187.2,187.5,193.7,36,191.1,2,5,probe,5,0,77,norm,36,-4.627,up,norm,192.569993111,185.9,,196.8,183.4,4,182.7,194.1,199.4,10,6,8.31,4.321,1.479,-1.177,-4.927,-7.954,187.8,2,115.6,-8.209,-8.385,-80,-7.828,-7.758,-4.968,-4.87,-5.002,-5.259,4.514,8.387,16,-1.648,1.78,4.781,8.238,-8.033,-7.742,-1.27,1.79,197.5,193.0,200.8,202.6,183.4,196.8,186.4,195.3,194.9,194.4,0,norm,1.517,1.72,-1.549,-1.541,-5.118,-4.596,-1.871,-1.158,-1.918,-1.148,1.145,-1.685,198.1,194.7,-5.085,-8.242,1.554,-1.868,7.895,4.713,-4.549,-7.766,25,4.334,5.072,5.298,4.463,1.94,1.426,1.655,1.571,25,5.159,5.254,-80,185.889540114,norm,0,91,91,91,880.523,880.533,880.538978069,880.539,880.541,880.544,up,1,0.812781004548,9.18721899545,001,315,1600_900,Intel(R) Core(TM) i5-3230M CPU @ 2.60GHz,orientation_search,Thebeast,AMD Radeon HD 7500M/7600M Series,2018_Nov_08_1356,testMonitor,
222.4,233.0,229.7,236.7,36,80,235.1,233.1,232.6,236.0,8.1,8.36,8.228,7.942,8.1,8.14,8.189,4.479,-4.585,-7.77,1.276,-1.747,8.03,4.308,-4.448,-7.984,234.5,235.8,-8.48,235.4,232.1,222.1,,238.7,36,234.0,5,5,probe,5,0,116,norm,36,-5.141,down,norm,231.569993111,231.3,221.9,230.2,239.3,2,237.4,233.9,229.2,10,6,7.682,5.08,1.798,-1.199,-5.275,-8.236,236.0,2,115.6,-7.711,-8.277,-80,-7.687,-7.643,-5.236,-4.874,-4.905,-4.52,4.543,7.561,32,-1.979,1.722,4.587,8.158,-7.991,-8.413,-1.406,1.7,232.7,241.6,231.8,232.5,221.6,228.7,230.7,227.0,231.2,230.5,1,norm,1.529,2.009,-1.811,-1.999,-5.131,-4.635,-1.506,-1.865,-1.664,-1.206,1.197,-1.934,236.3,235.0,-5.153,-7.917,1.331,-1.933,7.518,4.421,-4.435,-8.095,25,5.21,5.213,4.506,5.052,1.946,1.315,1.486,1.232,25,5.233,5.052,-80,185.889540114,norm,0,92,92,92,881.373,881.383,881.388862529,881.389,881.391,881.394,down,1,1.47916924892,8.52083075108,001,315,1600_900,Intel(R) Core(TM) i5-3230M CPU @ 2.60GHz,orientation_search,Thebeast,AMD Radeon HD 7500M/7600M Series,2018_Nov_08_1356,testMonitor,
264.0,273.5,260.6,265.0,36,80,271.8,261.9,270.0,,8.039,8.188,8.288,7.641,8.006,8.0,7.877,4.607,-4.64,-7.54,1.615,-1.551,7.854,5.026,-4.593,-7.728,267.8,283.7,-7.816,264.1,279.9,250.1,255.6,256.4,36,266.7,4,5,prime,10,0,78,norm,36,-4.734,up,norm,265.623066509,266.8,252.4,262.2,258.3,5,258.5,275.4,260.7,10,5,8.394,5.058,1.392,-1.214,-4.699,-8.023,277.8,5,343.6,-7.762,-7.869,80,-7.681,-7.774,-4.9,-5.256,-5.063,-4.479,4.893,7.778,29,-1.792,1.69,4.566,8.465,-8.168,-7.594,-1.546,1.332,268.4,254.1,267.9,264.7,245.6,274.6,262.3,267.2,274.8,285.6,0,norm,1.189,1.175,-1.364,-1.812,-4.614,-4.84,-1.108,-1.269,-1.347,-1.285,1.159,-2.076,267.0,269.7,-5.134,-8.026,1.153,-1.352,7.697,4.667,-4.943,-7.819,26,4.976,5.065,4.722,4.952,1.589,1.917,1.626,1.94,26,4.43,4.335,80,185.889540114,norm,0,93,93,93,882.889,882.899,882.905307734,882.906,882.908,882.911,up,1,1.01226452855,8.98773547145,001,315,1600_900,Intel(R) Core(TM) i5-3230M CPU @ 2.60GHz,orientation_search,Thebeast,AMD Radeon HD 7500M/7600M Series,2018_Nov_08_1356,testMonitor,
274.6,272.3,285.6,271.6,36,80,260.5,272.0,,264.0,8.314,8.365,8.346,8.129,8.106,8.376,7.855,5.044,-4.365,-7.741,1.592,-1.228,8.044,4.45,-4.518,-7.541,277.4,255.0,-7.728,261.2,261.4,257.5,278.6,268.0,36,271.3,4,5,prime,10,0,78,norm,36,-4.981,up,norm,265.623066509,273.1,268.1,261.7,267.6,4,249.5,267.7,270.5,10,5,7.939,4.518,1.69,-1.951,-4.499,-8.421,258.2,5,343.6,-8.111,-7.718,80,-8.279,-7.739,-4.672,-4.807,-5.022,-5.073,4.471,8.276,28,-1.538,1.465,4.405,7.517,-7.749,-8.474,-2.03,2.073,245.6,268.7,264.7,254.7,279.0,273.7,251.2,279.0,279.1,272.3,1,norm,1.688,1.886,-1.603,-1.773,-4.806,-5.295,-1.456,-1.988,-1.287,-1.528,1.517,-1.441,264.5,278.3,-4.785,-7.593,2.069,-1.37,7.759,5.147,-4.448,-8.148,26,5.11,4.462,4.848,4.388,1.515,1.826,1.55,1.508,26,4.852,4.403,80,185.889540114,norm,0,94,94,94,883.939,883.95,883.955232694,883.955,883.958,883.96,down,0,1.96276904397,-10,001,315,1600_900,Intel(R) Core(TM) i5-3230M CPU @ 2.60GHz,orientation_search,Thebeast,AMD Radeon HD 7500M/7600M Series,2018_Nov_08_1356,testMonitor,
262.5,259.0,260.5,276.9,36,80,263.6,259.8,263.3,275.5,8.003,8.217,8.094,7.936,7.783,7.713,8.275,5.109,-4.734,-8.158,1.191,-1.737,7.511,5.247,-5.026,-7.61,265.4,265.1,-8.37,258.7,245.6,272.7,247.1,,36,264.9,4,5,prime,10,0,104,norm,36,-5.071,down,norm,265.623066509,269.6,261.1,260.8,269.0,2,261.0,261.3,273.5,10,5,7.994,4.678,2.009,-1.656,-5.245,-7.684,282.7,5,369.6,-7.581,-8.048,80,-7.597,-8.379,-4.481,-4.686,-5.111,-5.256,5.277,7.981,26,-1.453,1.54,4.487,7.753,-7.752,-7.93,-1.301,1.408,257.5,281.7,254.5,265.7,285.6,257.5,264.5,280.3,262.8,269.6,2,norm,2.009,1.488,-1.643,-2.07,-4.98,-5.218,-1.32,-2.031,-1.889,-2.041,1.625,-2.008,273.7,259.3,-4.952,-8.082,1.594,-1.71,7.692,4.996,-5.248,-8.356,26,4.317,4.995,4.361,4.306,1.934,1.261,1.431,1.59,26,4.566,4.44,80,185.889540114,norm,0,95,95,95,886.972,886.983,886.988202447,886.988,886.991,886.993,down,1,0.812779030857,9.18722096914,001,315,1600_900,Intel(R) Core(TM) i5-3230M CPU @ 2.60GHz,orientation_search,Thebeast,AMD Radeon HD 7500M/7600M Series,2018_Nov_08_1356,testMonitor,
