"expName","subjectId","subjectGender","subjectAge","session","block","trial","targetOri","targetPos","distrMean","dtype","dsd","targetDist","t_dist_to_prev_d","rt","correct","prev_correct"
"distr_stats",1,"F",26,1,0,"0",166,11,51,"norm",10,-65,NA,949.935604476,1,NA
"distr_stats",1,"F",26,1,0,"1",166,24,51,"norm",10,-65,NA,732.896350745,1,1
"distr_stats",1,"F",26,1,0,"2",166,23,51,"norm",10,-65,NA,623.737920323,1,1
"distr_stats",1,"F",26,1,0,"3",166,26,51,"norm",10,-65,NA,795.503561751,1,1
"distr_stats",1,"F",26,1,0,"4",166,7,51,"norm",10,-65,NA,888.690341396,1,1
"distr_stats",1,"F",26,1,0,"5",166,17,51,"norm",10,-65,NA,577.098790114,1,1
"distr_stats",1,"F",26,1,0,"6",166,17,51,"norm",10,-65,NA,576.836396477,1,1
"distr_stats",1,"F",26,1,1,"0",174,14,71,"norm",15,-77,-57,670.536360955,1,1
"distr_stats",1,"F",26,1,1,"1",174,9,71,"norm",15,-77,-57,2811.64924912,1,1
"distr_stats",1,"F",26,1,1,"2",174,14,71,"norm",15,-77,-57,1249.26917819,1,1
"distr_stats",1,"F",26,1,1,"3",174,5,71,"norm",15,-77,-57,1327.0443479,1,1
"distr_stats",1,"F",26,1,1,"4",174,28,71,"norm",15,-77,-57,1013.98642673,1,1
"distr_stats",1,"F",26,1,1,"5",174,12,71,"norm",15,-77,-57,826.759195628,1,1
"distr_stats",1,"F",26,1,2,"0",124,32,51,"norm",5,73,53,998.734573466,1,1
"distr_stats",1,"F",26,1,2,"1",124,29,51,"norm",5,73,53,655.550917555,1,1
"distr_stats",1,"F",26,1,2,"2",124,18,51,"norm",5,73,53,717.747134446,1,1
"distr_stats",1,"F",26,1,2,"3",124,9,51,"norm",5,73,53,780.359700423,1,1
"distr_stats",1,"F",26,1,2,"4",124,33,51,"norm",5,73,53,733.1167971,1,1
"distr_stats",1,"F",26,1,2,"5",124,33,51,"norm",5,73,53,608.127283921,1,1
"distr_stats",1,"F",26,1,3,"0",162,17,71,"norm",10,-89,-69,1045.50579299,1,1
"distr_stats",1,"F",26,1,3,"1",162,33,71,"norm",10,-89,-69,749.362890202,1,1
"distr_stats",1,"F",26,1,3,"2",162,15,71,"norm",10,-89,-69,795.56335894,1,1
"distr_stats",1,"F",26,1,3,"3",162,5,71,"norm",10,-89,-69,670.829099435,1,1
"distr_stats",1,"F",26,1,3,"4",162,12,71,"norm",10,-89,-69,780.308828188,1,1
"distr_stats",1,"F",26,1,4,"0",35,22,111,"norm",5,-76,-36,733.115012109,1,1
"distr_stats",1,"F",26,1,4,"1",35,22,111,"norm",5,-76,-36,608.057223035,1,1
"distr_stats",1,"F",26,1,4,"2",35,14,111,"norm",5,-76,-36,749.05319431,1,1
"distr_stats",1,"F",26,1,4,"3",35,8,111,"norm",5,-76,-36,733.158298135,1,1
"distr_stats",1,"F",26,1,4,"4",35,13,111,"norm",5,-76,-36,686.492393064,1,1
"distr_stats",1,"F",26,1,4,"5",35,5,111,"norm",5,-76,-36,701.881244369,1,1
"distr_stats",1,"F",26,1,4,"6",35,1,111,"norm",5,-76,-36,624.12169333,1,1
"distr_stats",1,"F",26,1,5,"0",103,16,11,"norm",10,-88,-8,826.996599395,1,1
"distr_stats",1,"F",26,1,5,"1",103,22,11,"norm",10,-88,-8,670.382851753,1,1
"distr_stats",1,"F",26,1,5,"2",103,1,11,"norm",10,-88,-8,623.708467976,1,1
"distr_stats",1,"F",26,1,5,"3",103,22,11,"norm",10,-88,-8,639.212004936,1,1
"distr_stats",1,"F",26,1,5,"4",103,35,11,"norm",10,-88,-8,1311.30206843,1,1
"distr_stats",1,"F",26,1,6,"0",117,28,51,"norm",15,66,-74,639.592654208,1,1
"distr_stats",1,"F",26,1,6,"1",117,1,51,"norm",15,66,-74,686.101926342,1,1
"distr_stats",1,"F",26,1,6,"2",117,34,51,"norm",15,66,-74,655.486657889,1,1
"distr_stats",1,"F",26,1,6,"3",117,30,51,"norm",15,66,-74,1342.48674892,0,1
"distr_stats",1,"F",26,1,6,"4",117,16,51,"norm",15,66,-74,514.472836706,1,0
"distr_stats",1,"F",26,1,7,"0",74,6,11,"norm",5,63,23,623.604938514,1,1
"distr_stats",1,"F",26,1,7,"1",74,20,11,"norm",5,63,23,717.783726755,1,1
"distr_stats",1,"F",26,1,7,"2",74,13,11,"norm",5,63,23,624.007007675,1,1
"distr_stats",1,"F",26,1,7,"3",74,25,11,"norm",5,63,23,1420.8353469,1,1
"distr_stats",1,"F",26,1,7,"4",74,25,11,"norm",5,63,23,701.89061557,1,1
"distr_stats",1,"F",26,1,7,"5",74,16,11,"norm",5,63,23,577.062644051,1,1
"distr_stats",1,"F",26,1,7,"6",74,23,11,"norm",5,63,23,576.949743388,1,1
"distr_stats",1,"F",26,1,8,"0",39,17,131,"norm",10,88,28,608.255357005,1,1
"distr_stats",1,"F",26,1,8,"1",39,18,131,"norm",10,88,28,608.185296119,1,1
"distr_stats",1,"F",26,1,8,"2",39,6,131,"norm",10,88,28,545.664657164,1,1
"distr_stats",1,"F",26,1,8,"3",39,29,131,"norm",10,88,28,607.799291875,1,1
"distr_stats",1,"F",26,1,8,"4",39,0,131,"norm",10,88,28,655.288970166,1,1
"distr_stats",1,"F",26,1,9,"0",7,4,91,"norm",15,-84,56,1577.13672117,1,1
"distr_stats",1,"F",26,1,9,"1",7,31,91,"norm",15,-84,56,842.559487295,1,1
"distr_stats",1,"F",26,1,9,"2",7,9,91,"norm",15,-84,56,1123.35370107,1,1
"distr_stats",1,"F",26,1,9,"3",7,11,91,"norm",15,-84,56,1264.37867844,1,1
"distr_stats",1,"F",26,1,9,"4",7,34,91,"norm",15,-84,56,717.760968124,1,1
"distr_stats",1,"F",26,1,9,"5",7,30,91,"norm",15,-84,56,1139.248151,1,1
"distr_stats",1,"F",26,1,10,"0",48,13,151,"norm",10,77,-43,748.852382854,1,1
"distr_stats",1,"F",26,1,10,"1",48,12,151,"norm",10,77,-43,576.891284942,1,1
"distr_stats",1,"F",26,1,10,"2",48,19,151,"norm",10,77,-43,576.911812335,1,1
"distr_stats",1,"F",26,1,10,"3",48,35,151,"norm",10,77,-43,561.165516637,1,1
"distr_stats",1,"F",26,1,10,"4",48,27,151,"norm",10,77,-43,576.889499951,1,1
"distr_stats",1,"F",26,1,10,"5",48,18,151,"norm",10,77,-43,545.753014205,1,1
"distr_stats",1,"F",26,1,10,"6",48,27,151,"norm",10,77,-43,592.594294615,1,1
"distr_stats",1,"F",26,1,11,"0",164,10,51,"norm",15,-67,13,655.285400184,1,1
"distr_stats",1,"F",26,1,11,"1",164,12,51,"norm",15,-67,13,811.514928572,0,1
"distr_stats",1,"F",26,1,11,"2",164,2,51,"norm",15,-67,13,514.273810239,1,0
"distr_stats",1,"F",26,1,11,"3",164,25,51,"norm",15,-67,13,780.134345344,1,1
"distr_stats",1,"F",26,1,11,"4",164,32,51,"norm",15,-67,13,780.053574514,1,1
"distr_stats",1,"F",26,1,11,"5",164,5,51,"norm",15,-67,13,686.509796723,1,1
"distr_stats",1,"F",26,1,12,"0",42,27,151,"norm",10,71,-9,1264.4924716,1,1
"distr_stats",1,"F",26,1,12,"1",42,21,151,"norm",10,71,-9,624.027535069,1,1
"distr_stats",1,"F",26,1,12,"2",42,20,151,"norm",10,71,-9,639.366406633,1,1
"distr_stats",1,"F",26,1,12,"3",42,25,151,"norm",10,71,-9,576.79534169,1,1
"distr_stats",1,"F",26,1,12,"4",42,8,151,"norm",10,71,-9,607.928703702,1,1
"distr_stats",1,"F",26,1,12,"5",42,31,151,"norm",10,71,-9,670.357415635,1,1
"distr_stats",1,"F",26,1,13,"0",129,29,51,"norm",15,78,-22,608.23125963,1,1
"distr_stats",1,"F",26,1,13,"1",129,10,51,"norm",15,78,-22,576.679317293,1,1
"distr_stats",1,"F",26,1,13,"2",129,22,51,"norm",15,78,-22,530.051343275,1,1
"distr_stats",1,"F",26,1,13,"3",129,34,51,"norm",15,78,-22,576.888161208,1,1
"distr_stats",1,"F",26,1,13,"4",129,29,51,"norm",15,78,-22,858.116127729,1,1
"distr_stats",1,"F",26,1,13,"5",129,17,51,"norm",15,78,-22,577.006863091,1,1
"distr_stats",1,"F",26,1,14,"0",144,32,31,"norm",5,-67,-87,638.984864866,1,1
"distr_stats",1,"F",26,1,14,"1",144,1,31,"norm",5,-67,-87,529.911221503,1,1
"distr_stats",1,"F",26,1,14,"2",144,22,31,"norm",5,-67,-87,530.260633438,1,1
"distr_stats",1,"F",26,1,14,"3",144,33,31,"norm",5,-67,-87,561.169086619,1,1
"distr_stats",1,"F",26,1,14,"4",144,11,31,"norm",5,-67,-87,576.951528379,1,1
"distr_stats",1,"F",26,1,14,"5",144,34,31,"norm",5,-67,-87,592.490318905,1,1
"distr_stats",1,"F",26,1,15,"0",112,23,31,"norm",15,81,81,639.840767919,1,1
"distr_stats",1,"F",26,1,15,"1",112,17,31,"norm",15,81,81,764.467481733,1,1
"distr_stats",1,"F",26,1,15,"2",112,35,31,"norm",15,81,81,530.24099854,1,1
"distr_stats",1,"F",26,1,15,"3",112,15,31,"norm",15,81,81,698.917713514,1,1
"distr_stats",1,"F",26,1,15,"4",112,30,31,"norm",15,81,81,608.05231431,1,1
"distr_stats",1,"F",26,1,15,"5",112,14,31,"norm",15,81,81,654.942235717,1,1
"distr_stats",1,"F",26,1,15,"6",112,24,31,"norm",15,81,81,623.823599878,1,1
"distr_stats",1,"F",26,1,16,"0",117,4,51,"norm",10,66,86,733.01282139,1,1
"distr_stats",1,"F",26,1,16,"1",117,34,51,"norm",10,66,86,514.319327503,1,1
"distr_stats",1,"F",26,1,16,"2",117,8,51,"norm",10,66,86,530.037509597,1,1
"distr_stats",1,"F",26,1,16,"3",117,23,51,"norm",10,66,86,574.645320359,1,1
"distr_stats",1,"F",26,1,16,"4",117,13,51,"norm",10,66,86,608.04071187,1,1
"distr_stats",1,"F",26,1,16,"5",117,20,51,"norm",10,66,86,686.682048329,1,1
"distr_stats",1,"F",26,1,17,"0",112,7,11,"norm",5,-79,61,529.717996257,1,1
"distr_stats",1,"F",26,1,17,"1",112,33,11,"norm",5,-79,61,545.440640828,1,1
"distr_stats",1,"F",26,1,17,"2",112,7,11,"norm",5,-79,61,574.135259259,1,1
"distr_stats",1,"F",26,1,17,"3",112,7,11,"norm",5,-79,61,686.52006042,1,1
"distr_stats",1,"F",26,1,17,"4",112,29,11,"norm",5,-79,61,467.053665548,1,1
"distr_stats",1,"F",26,1,17,"5",112,29,11,"norm",5,-79,61,514.253282846,1,1
"distr_stats",1,"F",26,1,17,"6",112,25,11,"norm",5,-79,61,514.382248426,1,1
"distr_stats",1,"F",26,1,18,"0",86,15,151,"norm",15,-65,75,1248.92556747,1,1
"distr_stats",1,"F",26,1,18,"1",86,13,151,"norm",15,-65,75,607.742172171,1,1
"distr_stats",1,"F",26,1,18,"2",86,30,151,"norm",15,-65,75,1920.60686809,1,1
"distr_stats",1,"F",26,1,18,"3",86,8,151,"norm",15,-65,75,1092.45417284,1,1
"distr_stats",1,"F",26,1,18,"4",86,30,151,"norm",15,-65,75,670.975468674,1,1
"distr_stats",1,"F",26,1,18,"5",86,5,151,"norm",15,-65,75,842.440339164,1,1
"distr_stats",1,"F",26,1,18,"6",86,21,151,"norm",15,-65,75,623.961490412,1,1
"distr_stats",1,"F",26,1,19,"0",82,25,11,"norm",5,71,-69,686.574948885,1,1
"distr_stats",1,"F",26,1,19,"1",82,25,11,"norm",5,71,-69,467.465552158,1,1
"distr_stats",1,"F",26,1,19,"2",82,19,11,"norm",5,71,-69,545.396462307,1,1
"distr_stats",1,"F",26,1,19,"3",82,30,11,"norm",5,71,-69,654.986860485,1,1
"distr_stats",1,"F",26,1,19,"4",82,31,11,"norm",5,71,-69,764.411700773,1,1
"distr_stats",1,"F",26,1,20,"0",122,18,51,"norm",15,71,-69,530.42574508,1,1
"distr_stats",1,"F",26,1,20,"1",122,7,51,"norm",15,71,-69,717.818087827,0,1
"distr_stats",1,"F",26,1,20,"2",122,4,51,"norm",15,71,-69,451.887045589,0,0
"distr_stats",1,"F",26,1,20,"3",122,29,51,"norm",15,71,-69,467.81362535,1,0
"distr_stats",1,"F",26,1,20,"4",122,15,51,"norm",15,71,-69,826.697613448,1,1
"distr_stats",1,"F",26,1,21,"0",62,10,171,"norm",5,71,11,592.791982338,1,1
"distr_stats",1,"F",26,1,21,"1",62,19,171,"norm",5,71,11,655.334041182,1,1
"distr_stats",1,"F",26,1,21,"2",62,5,171,"norm",5,71,11,576.944834663,1,1
"distr_stats",1,"F",26,1,21,"3",62,10,171,"norm",5,71,11,639.541781972,1,1
"distr_stats",1,"F",26,1,21,"4",62,5,171,"norm",5,71,11,530.195481276,1,1
"distr_stats",1,"F",26,1,22,"0",30,15,111,"norm",15,-81,39,717.616383875,1,1
"distr_stats",1,"F",26,1,22,"1",30,10,111,"norm",15,-81,39,608.513734413,1,1
"distr_stats",1,"F",26,1,22,"2",30,19,111,"norm",15,-81,39,623.972646604,1,1
"distr_stats",1,"F",26,1,22,"3",30,24,111,"norm",15,-81,39,576.841751449,1,1
"distr_stats",1,"F",26,1,22,"4",30,23,111,"norm",15,-81,39,592.793321081,1,1
"distr_stats",1,"F",26,1,22,"5",30,22,111,"norm",15,-81,39,623.749969011,1,1
"distr_stats",1,"F",26,1,23,"0",83,24,151,"norm",10,-68,-28,561.630506721,1,1
"distr_stats",1,"F",26,1,23,"1",83,28,151,"norm",10,-68,-28,561.593021916,1,1
"distr_stats",1,"F",26,1,23,"2",83,21,151,"norm",10,-68,-28,733.027101316,1,1
"distr_stats",1,"F",26,1,23,"3",83,18,151,"norm",10,-68,-28,592.496566372,1,1
"distr_stats",1,"F",26,1,23,"4",83,27,151,"norm",10,-68,-28,561.747869862,1,1
"distr_stats",1,"F",26,1,23,"5",83,27,151,"norm",10,-68,-28,561.538133451,1,1
"distr_stats",1,"F",26,1,24,"0",9,34,71,"norm",15,-62,38,670.595265649,1,1
"distr_stats",1,"F",26,1,24,"1",9,11,71,"norm",15,-62,38,1014.43088942,1,1
"distr_stats",1,"F",26,1,24,"2",9,28,71,"norm",15,-62,38,1514.52415519,1,1
"distr_stats",1,"F",26,1,24,"3",9,7,71,"norm",15,-62,38,639.365514138,1,1
"distr_stats",1,"F",26,1,24,"4",9,19,71,"norm",15,-62,38,936.260790517,1,1
"distr_stats",1,"F",26,1,24,"5",9,30,71,"norm",15,-62,38,561.470750051,0,1
"distr_stats",1,"F",26,1,25,"0",175,9,71,"norm",5,-76,-76,561.501541141,1,0
"distr_stats",1,"F",26,1,25,"1",175,24,71,"norm",5,-76,-76,655.018097823,1,1
"distr_stats",1,"F",26,1,25,"2",175,33,71,"norm",5,-76,-76,592.549669846,1,1
"distr_stats",1,"F",26,1,25,"3",175,35,71,"norm",5,-76,-76,545.266604232,1,1
"distr_stats",1,"F",26,1,25,"4",175,14,71,"norm",5,-76,-76,764.420625727,1,1
"distr_stats",1,"F",26,1,26,"0",123,30,51,"norm",15,72,52,498.289218279,1,1
"distr_stats",1,"F",26,1,26,"1",123,18,51,"norm",15,72,52,561.334644509,1,1
"distr_stats",1,"F",26,1,26,"2",123,0,51,"norm",15,72,52,593.090522037,1,1
"distr_stats",1,"F",26,1,26,"3",123,22,51,"norm",15,72,52,561.522068535,1,1
"distr_stats",1,"F",26,1,26,"4",123,22,51,"norm",15,72,52,498.850597863,1,1
"distr_stats",1,"F",26,1,26,"5",123,18,51,"norm",15,72,52,701.99459128,1,1
"distr_stats",1,"F",26,1,27,"0",142,21,31,"norm",5,-69,-89,624.109198395,1,1
"distr_stats",1,"F",26,1,27,"1",142,30,31,"norm",5,-69,-89,701.655889289,1,1
"distr_stats",1,"F",26,1,27,"2",142,21,31,"norm",5,-69,-89,561.17845782,1,1
"distr_stats",1,"F",26,1,27,"3",142,24,31,"norm",5,-69,-89,701.625990695,1,1
"distr_stats",1,"F",26,1,27,"4",142,26,31,"norm",5,-69,-89,811.381946763,1,1
"distr_stats",1,"F",26,1,28,"0",77,34,151,"norm",15,-74,46,1701.4126843,1,1
"distr_stats",1,"F",26,1,28,"1",77,18,151,"norm",15,-74,46,655.539761363,1,1
"distr_stats",1,"F",26,1,28,"2",77,1,151,"norm",15,-74,46,701.7982423,0,1
"distr_stats",1,"F",26,1,28,"3",77,18,151,"norm",15,-74,46,560.956226474,1,0
"distr_stats",1,"F",26,1,28,"4",77,35,151,"norm",15,-74,46,795.364778722,1,1
"distr_stats",1,"F",26,1,28,"5",77,35,151,"norm",15,-74,46,1123.62546591,1,1
"distr_stats",1,"F",26,1,28,"6",77,10,151,"norm",15,-74,46,1185.93458346,1,1
"distr_stats",1,"F",26,1,29,"0",178,22,71,"norm",10,-73,27,1248.9773322,0,1
"distr_stats",1,"F",26,1,29,"1",178,16,71,"norm",10,-73,27,498.555181898,1,0
"distr_stats",1,"F",26,1,29,"2",178,28,71,"norm",10,-73,27,686.233569408,1,1
"distr_stats",1,"F",26,1,29,"3",178,10,71,"norm",10,-73,27,717.849771412,1,1
"distr_stats",1,"F",26,1,29,"4",178,14,71,"norm",10,-73,27,2018.62115516,0,1
"distr_stats",1,"F",26,1,30,"0",137,25,71,"norm",5,66,66,737.672985931,1,0
"distr_stats",1,"F",26,1,30,"1",137,10,71,"norm",5,66,66,624.127494549,1,1
"distr_stats",1,"F",26,1,30,"2",137,28,71,"norm",5,66,66,530.216901165,1,1
"distr_stats",1,"F",26,1,30,"3",137,17,71,"norm",5,66,66,545.694555759,1,1
"distr_stats",1,"F",26,1,30,"4",137,20,71,"norm",5,66,66,1029.98172864,1,1
"distr_stats",1,"F",26,1,30,"5",137,16,71,"norm",5,66,66,592.720136461,1,1
"distr_stats",1,"F",26,1,30,"6",137,8,71,"norm",5,66,66,529.600186869,1,1
"distr_stats",1,"F",26,1,31,"0",108,16,31,"norm",10,77,37,592.588047147,1,1
"distr_stats",1,"F",26,1,31,"1",108,16,31,"norm",10,77,37,545.602182489,1,1
"distr_stats",1,"F",26,1,31,"2",108,5,31,"norm",10,77,37,576.839520211,1,1
"distr_stats",1,"F",26,1,31,"3",108,34,31,"norm",10,77,37,655.236759187,1,1
"distr_stats",1,"F",26,1,31,"4",108,22,31,"norm",10,77,37,561.543042176,1,1
"distr_stats",1,"F",26,1,32,"0",139,19,71,"norm",15,68,-72,1279.89828032,1,1
"distr_stats",1,"F",26,1,32,"1",139,5,71,"norm",15,68,-72,1092.10877714,1,1
"distr_stats",1,"F",26,1,32,"2",139,2,71,"norm",15,68,-72,1608.36245645,1,1
"distr_stats",1,"F",26,1,32,"3",139,6,71,"norm",15,68,-72,701.475605226,1,1
"distr_stats",1,"F",26,1,32,"4",139,13,71,"norm",15,68,-72,842.833483372,1,1
"distr_stats",1,"F",26,1,33,"0",174,11,71,"norm",5,-77,-77,592.802246034,1,1
"distr_stats",1,"F",26,1,33,"1",174,13,71,"norm",5,-77,-77,545.620478643,1,1
"distr_stats",1,"F",26,1,33,"2",174,12,71,"norm",5,-77,-77,530.127205381,1,1
"distr_stats",1,"F",26,1,33,"3",174,22,71,"norm",5,-77,-77,701.829479638,1,1
"distr_stats",1,"F",26,1,33,"4",174,7,71,"norm",5,-77,-77,514.35458107,1,1
"distr_stats",1,"F",26,1,33,"5",174,28,71,"norm",5,-77,-77,576.644063726,1,1
"distr_stats",1,"F",26,1,34,"0",159,33,91,"norm",10,68,88,3124.13106453,1,1
"distr_stats",1,"F",26,1,34,"1",159,35,91,"norm",10,68,88,1013.9150271,1,1
"distr_stats",1,"F",26,1,34,"2",159,19,91,"norm",10,68,88,608.238845841,1,1
"distr_stats",1,"F",26,1,34,"3",159,10,91,"norm",10,68,88,1530.24546102,1,1
"distr_stats",1,"F",26,1,34,"4",159,10,91,"norm",10,68,88,592.563949772,1,1
"distr_stats",1,"F",26,1,35,"0",138,35,31,"norm",15,-73,47,779.892479101,1,1
"distr_stats",1,"F",26,1,35,"1",138,1,31,"norm",15,-73,47,607.953247325,1,1
"distr_stats",1,"F",26,1,35,"2",138,3,31,"norm",15,-73,47,1013.98151801,1,1
"distr_stats",1,"F",26,1,35,"3",138,29,31,"norm",15,-73,47,592.831698381,1,1
"distr_stats",1,"F",26,1,35,"4",138,4,31,"norm",15,-73,47,670.678713966,1,1
"distr_stats",1,"F",26,1,35,"5",138,11,31,"norm",15,-73,47,592.394821901,1,1
"distr_stats",1,"F",26,1,36,"0",92,5,171,"norm",5,-79,61,670.67603648,1,1
"distr_stats",1,"F",26,1,36,"1",92,23,171,"norm",5,-79,61,499.123701444,1,1
"distr_stats",1,"F",26,1,36,"2",92,31,171,"norm",5,-79,61,623.943640505,1,1
"distr_stats",1,"F",26,1,36,"3",92,24,171,"norm",5,-79,61,608.472233379,1,1
"distr_stats",1,"F",26,1,36,"4",92,25,171,"norm",5,-79,61,623.910171929,1,1
"distr_stats",1,"F",26,1,36,"5",92,26,171,"norm",5,-79,61,764.4353519,1,1
"distr_stats",1,"F",26,1,37,"0",56,23,171,"norm",10,65,65,545.6865233,1,1
"distr_stats",1,"F",26,1,37,"1",56,18,171,"norm",10,65,65,608.058561778,1,1
"distr_stats",1,"F",26,1,37,"2",56,20,171,"norm",10,65,65,654.819517604,1,1
"distr_stats",1,"F",26,1,37,"3",56,19,171,"norm",10,65,65,623.762910193,1,1
"distr_stats",1,"F",26,1,37,"4",56,10,171,"norm",10,65,65,670.782243428,1,1
"distr_stats",1,"F",26,1,38,"0",20,7,131,"norm",5,69,29,608.133531388,1,1
"distr_stats",1,"F",26,1,38,"1",20,10,131,"norm",5,69,29,592.70674903,1,1
"distr_stats",1,"F",26,1,38,"2",20,0,131,"norm",5,69,29,576.954652112,1,1
"distr_stats",1,"F",26,1,38,"3",20,27,131,"norm",5,69,29,545.695894502,1,1
"distr_stats",1,"F",26,1,38,"4",20,26,131,"norm",5,69,29,623.691064317,1,1
"distr_stats",1,"F",26,1,38,"5",20,26,131,"norm",5,69,29,608.254018262,1,1
"distr_stats",1,"F",26,1,39,"0",160,16,51,"norm",15,-71,29,1592.75896001,1,1
"distr_stats",1,"F",26,1,39,"1",160,30,51,"norm",15,-71,29,670.704150084,1,1
"distr_stats",1,"F",26,1,39,"2",160,12,51,"norm",15,-71,29,592.248006414,1,1
"distr_stats",1,"F",26,1,39,"3",160,17,51,"norm",15,-71,29,562.036592112,1,1
"distr_stats",1,"F",26,1,39,"4",160,11,51,"norm",15,-71,29,670.551979624,1,1
"distr_stats",1,"F",26,1,39,"5",160,21,51,"norm",15,-71,29,1608.18841985,1,1
"distr_stats",1,"F",26,1,40,"0",112,21,31,"norm",10,81,61,593.164152904,1,1
"distr_stats",1,"F",26,1,40,"1",112,17,31,"norm",10,81,61,576.966254552,1,1
"distr_stats",1,"F",26,1,40,"2",112,10,31,"norm",10,81,61,639.316873141,1,1
"distr_stats",1,"F",26,1,40,"3",112,5,31,"norm",10,81,61,874.093579726,1,1
"distr_stats",1,"F",26,1,40,"4",112,4,31,"norm",10,81,61,576.887268713,1,1
"distr_stats",1,"F",26,1,40,"5",112,10,31,"norm",10,81,61,920.435508979,1,1
"distr_stats",1,"F",26,1,40,"6",112,7,31,"norm",10,81,61,558.844582444,1,1
"distr_stats",1,"F",26,1,41,"0",153,25,91,"norm",15,62,-58,1826.90377988,0,1
"distr_stats",1,"F",26,1,41,"1",153,3,91,"norm",15,62,-58,1701.93256285,0,0
"distr_stats",1,"F",26,1,41,"2",153,8,91,"norm",15,62,-58,655.48442665,0,0
"distr_stats",1,"F",26,1,41,"3",153,32,91,"norm",15,62,-58,3639.31821188,1,0
"distr_stats",1,"F",26,1,41,"4",153,6,91,"norm",15,62,-58,1108.27766939,1,1
"distr_stats",1,"F",26,1,42,"0",16,15,91,"norm",10,-75,-75,764.078800002,1,1
"distr_stats",1,"F",26,1,42,"1",16,33,91,"norm",10,-75,-75,670.344028205,1,1
"distr_stats",1,"F",26,1,42,"2",16,12,91,"norm",10,-75,-75,1030.01162723,1,1
"distr_stats",1,"F",26,1,42,"3",16,31,91,"norm",10,-75,-75,811.654604096,1,1
"distr_stats",1,"F",26,1,42,"4",16,17,91,"norm",10,-75,-75,701.895078047,1,1
"distr_stats",1,"F",26,1,42,"5",16,35,91,"norm",10,-75,-75,998.510110882,1,1
"distr_stats",1,"F",26,1,43,"0",25,33,91,"norm",15,-66,-66,1139.4503012,1,1
"distr_stats",1,"F",26,1,43,"1",25,17,91,"norm",15,-66,-66,874.165425603,1,1
"distr_stats",1,"F",26,1,43,"2",25,25,91,"norm",15,-66,-66,717.932773481,1,1
"distr_stats",1,"F",26,1,43,"3",25,15,91,"norm",15,-66,-66,983.204707893,0,1
"distr_stats",1,"F",26,1,43,"4",25,11,91,"norm",15,-66,-66,999.302646765,1,0
"distr_stats",1,"F",26,1,44,"0",19,12,131,"norm",10,68,-72,811.580080733,1,1
"distr_stats",1,"F",26,1,44,"1",19,2,131,"norm",10,68,-72,749.226784659,1,1
"distr_stats",1,"F",26,1,44,"2",19,35,131,"norm",10,68,-72,624.099380945,1,1
"distr_stats",1,"F",26,1,44,"3",19,31,131,"norm",10,68,-72,780.133899096,1,1
"distr_stats",1,"F",26,1,44,"4",19,23,131,"norm",10,68,-72,592.94549154,1,1
"distr_stats",1,"F",26,1,44,"5",19,21,131,"norm",10,68,-72,655.402317077,1,1
"distr_stats",1,"F",26,1,44,"6",19,3,131,"norm",10,68,-72,764.460788018,1,1
"distr_stats",1,"F",26,1,45,"0",45,21,131,"norm",5,-86,-86,686.628052359,1,1
"distr_stats",1,"F",26,1,45,"1",45,23,131,"norm",5,-86,-86,514.255960332,1,1
"distr_stats",1,"F",26,1,45,"2",45,3,131,"norm",5,-86,-86,670.406056632,1,1
"distr_stats",1,"F",26,1,45,"3",45,24,131,"norm",5,-86,-86,608.147811314,1,1
"distr_stats",1,"F",26,1,45,"4",45,13,131,"norm",5,-86,-86,530.509193397,1,1
"distr_stats",1,"F",26,1,45,"5",45,28,131,"norm",5,-86,-86,702.088749541,1,1
"distr_stats",1,"F",26,1,46,"0",123,5,11,"norm",15,-68,-8,1530.35746918,1,1
"distr_stats",1,"F",26,1,46,"1",123,23,11,"norm",15,-68,-8,793.477597276,1,1
"distr_stats",1,"F",26,1,46,"2",123,10,11,"norm",15,-68,-8,638.856791781,1,1
"distr_stats",1,"F",26,1,46,"3",123,26,11,"norm",15,-68,-8,1014.35190358,1,1
"distr_stats",1,"F",26,1,46,"4",123,12,11,"norm",15,-68,-8,1014.35993604,1,1
"distr_stats",1,"F",26,1,47,"0",20,26,131,"norm",10,69,9,811.742068642,1,1
"distr_stats",1,"F",26,1,47,"1",20,4,131,"norm",10,69,9,686.638762303,1,1
"distr_stats",1,"F",26,1,47,"2",20,29,131,"norm",10,69,9,545.669565888,1,1
"distr_stats",1,"F",26,1,47,"3",20,3,131,"norm",10,69,9,733.050752443,1,1
"distr_stats",1,"F",26,1,47,"4",20,34,131,"norm",10,69,9,608.023308211,1,1
"distr_stats",1,"F",26,1,47,"5",20,14,131,"norm",10,69,9,654.566048921,1,1
"distr_stats",1,"F",26,1,48,"0",2,0,91,"norm",15,-89,51,951.84643705,1,1
"distr_stats",1,"F",26,1,48,"1",2,25,91,"norm",15,-89,51,733.294849925,1,1
"distr_stats",1,"F",26,1,48,"2",2,17,91,"norm",15,-89,51,889.232978577,1,1
"distr_stats",1,"F",26,1,48,"3",2,9,91,"norm",15,-89,51,811.670222765,1,1
"distr_stats",1,"F",26,1,48,"4",2,27,91,"norm",15,-89,51,608.129515159,1,1
"distr_stats",1,"F",26,1,48,"5",2,14,91,"norm",15,-89,51,826.843090192,1,1
"distr_stats",1,"F",26,1,48,"6",2,12,91,"norm",15,-89,51,795.289809111,1,1
"distr_stats",1,"F",26,1,49,"0",54,0,131,"norm",5,-77,-37,639.454763674,1,1
"distr_stats",1,"F",26,1,49,"1",54,25,131,"norm",5,-77,-37,624.067251112,1,1
"distr_stats",1,"F",26,1,49,"2",54,27,131,"norm",5,-77,-37,655.488889127,1,1
"distr_stats",1,"F",26,1,49,"3",54,1,131,"norm",5,-77,-37,702.056619708,1,1
"distr_stats",1,"F",26,1,49,"4",54,35,131,"norm",5,-77,-37,593.177986582,1,1
"distr_stats",1,"F",26,1,49,"5",54,33,131,"norm",5,-77,-37,655.569659957,1,1
"distr_stats",1,"F",26,1,50,"0",166,27,71,"norm",10,-85,35,701.636700639,1,1
"distr_stats",1,"F",26,1,50,"1",166,1,71,"norm",10,-85,35,732.669656923,1,1
"distr_stats",1,"F",26,1,50,"2",166,28,71,"norm",10,-85,35,561.59793064,1,1
"distr_stats",1,"F",26,1,50,"3",166,3,71,"norm",10,-85,35,686.597261269,1,1
"distr_stats",1,"F",26,1,50,"4",166,6,71,"norm",10,-85,35,639.287420794,1,1
"distr_stats",1,"F",26,1,51,"0",24,29,111,"norm",5,-87,-47,530.558280641,1,1
"distr_stats",1,"F",26,1,51,"1",24,4,111,"norm",5,-87,-47,686.043914144,1,1
"distr_stats",1,"F",26,1,51,"2",24,19,111,"norm",5,-87,-47,639.329814323,1,1
"distr_stats",1,"F",26,1,51,"3",24,29,111,"norm",5,-87,-47,514.410808278,1,1
"distr_stats",1,"F",26,1,51,"4",24,22,111,"norm",5,-87,-47,592.555917314,1,1
"distr_stats",1,"F",26,1,52,"0",101,24,11,"norm",15,-90,-10,607.803308104,1,1
"distr_stats",1,"F",26,1,52,"1",101,22,11,"norm",15,-90,-10,701.970493905,1,1
"distr_stats",1,"F",26,1,52,"2",101,32,11,"norm",15,-90,-10,1358.15405878,0,1
"distr_stats",1,"F",26,1,52,"3",101,7,11,"norm",15,-90,-10,655.379558445,1,0
"distr_stats",1,"F",26,1,52,"4",101,1,11,"norm",15,-90,-10,811.445313933,1,1
"distr_stats",1,"F",26,1,53,"0",96,15,171,"norm",10,-75,85,655.126089762,1,1
"distr_stats",1,"F",26,1,53,"1",96,25,171,"norm",10,-75,85,1076.31071671,1,1
"distr_stats",1,"F",26,1,53,"2",96,7,171,"norm",10,-75,85,639.386487779,1,1
"distr_stats",1,"F",26,1,53,"3",96,3,171,"norm",10,-75,85,1139.11516919,1,1
"distr_stats",1,"F",26,1,53,"4",96,22,171,"norm",10,-75,85,576.412907427,1,1
"distr_stats",1,"F",26,1,53,"5",96,4,171,"norm",10,-75,85,1139.09107181,1,1
"distr_stats",1,"F",26,1,53,"6",96,25,171,"norm",10,-75,85,951.689804113,1,1
"distr_stats",1,"F",26,1,54,"0",177,33,91,"norm",5,86,6,951.803597272,1,1
"distr_stats",1,"F",26,1,54,"1",177,10,91,"norm",5,86,6,624.141774475,1,1
"distr_stats",1,"F",26,1,54,"2",177,27,91,"norm",5,86,6,576.955544608,1,1
"distr_stats",1,"F",26,1,54,"3",177,29,91,"norm",5,86,6,608.136208874,1,1
"distr_stats",1,"F",26,1,54,"4",177,20,91,"norm",5,86,6,655.477286687,1,1
"distr_stats",1,"F",26,1,55,"0",125,11,51,"norm",10,74,34,670.609991823,1,1
"distr_stats",1,"F",26,1,55,"1",125,2,51,"norm",10,74,34,608.10050906,1,1
"distr_stats",1,"F",26,1,55,"2",125,9,51,"norm",10,74,34,905.492012861,1,1
"distr_stats",1,"F",26,1,55,"3",125,6,51,"norm",10,74,34,624.145790705,1,1
"distr_stats",1,"F",26,1,55,"4",125,19,51,"norm",10,74,34,655.243452902,1,1
"distr_stats",1,"F",26,1,56,"0",19,23,91,"norm",15,-72,-32,686.454908259,1,1
"distr_stats",1,"F",26,1,56,"1",19,20,91,"norm",15,-72,-32,936.084076435,0,1
"distr_stats",1,"F",26,1,56,"2",19,34,91,"norm",15,-72,-32,1139.43512878,1,0
"distr_stats",1,"F",26,1,56,"3",19,17,91,"norm",15,-72,-32,2138.97013869,1,1
"distr_stats",1,"F",26,1,56,"4",19,13,91,"norm",15,-72,-32,748.668082561,1,1
"distr_stats",1,"F",26,1,57,"0",2,8,91,"norm",5,-89,-89,702.250291202,1,1
"distr_stats",1,"F",26,1,57,"1",2,15,91,"norm",5,-89,-89,982.933835551,1,1
"distr_stats",1,"F",26,1,57,"2",2,22,91,"norm",5,-89,-89,530.351667965,1,1
"distr_stats",1,"F",26,1,57,"3",2,7,91,"norm",5,-89,-89,639.294114509,1,1
"distr_stats",1,"F",26,1,57,"4",2,17,91,"norm",5,-89,-89,670.684515186,1,1
"distr_stats",1,"F",26,1,58,"0",57,23,171,"norm",15,66,-34,718.236221905,1,1
"distr_stats",1,"F",26,1,58,"1",57,14,171,"norm",15,66,-34,873.884735811,1,1
"distr_stats",1,"F",26,1,58,"2",57,31,171,"norm",15,66,-34,1639.23074734,1,1
"distr_stats",1,"F",26,1,58,"3",57,9,171,"norm",15,66,-34,1577.21392202,0,1
"distr_stats",1,"F",26,1,58,"4",57,9,171,"norm",15,66,-34,1655.31529878,1,0
"distr_stats",1,"F",26,1,58,"5",57,0,171,"norm",15,66,-34,1289.16818341,1,1
"distr_stats",1,"F",26,1,58,"6",57,31,171,"norm",15,66,-34,2295.7931765,1,1
"distr_stats",1,"F",26,1,59,"0",73,12,151,"norm",10,-78,82,655.344751126,1,1
"distr_stats",1,"F",26,1,59,"1",73,34,151,"norm",10,-78,82,639.113830446,1,1
"distr_stats",1,"F",26,1,59,"2",73,31,151,"norm",10,-78,82,639.068313182,1,1
"distr_stats",1,"F",26,1,59,"3",73,9,151,"norm",10,-78,82,655.436678148,1,1
"distr_stats",1,"F",26,1,59,"4",73,3,151,"norm",10,-78,82,811.699675112,1,1
"distr_stats",1,"F",26,1,59,"5",73,30,151,"norm",10,-78,82,639.456102418,1,1
"distr_stats",1,"F",26,1,60,"0",14,28,111,"norm",5,83,43,545.68072208,1,1
"distr_stats",1,"F",26,1,60,"1",14,29,111,"norm",5,83,43,843.038757305,1,1
"distr_stats",1,"F",26,1,60,"2",14,27,111,"norm",5,83,43,686.632068588,1,1
"distr_stats",1,"F",26,1,60,"3",14,18,111,"norm",5,83,43,684.281682049,0,1
"distr_stats",1,"F",26,1,60,"4",14,3,111,"norm",5,83,43,732.909738176,1,0
"distr_stats",1,"F",26,1,61,"0",1,34,91,"norm",10,-90,70,576.897086161,1,1
"distr_stats",1,"F",26,1,61,"1",1,26,91,"norm",10,-90,70,1795.21662449,1,1
"distr_stats",1,"F",26,1,61,"2",1,13,91,"norm",10,-90,70,702.078039597,1,1
"distr_stats",1,"F",26,1,61,"3",1,21,91,"norm",10,-90,70,623.727210379,1,1
"distr_stats",1,"F",26,1,61,"4",1,12,91,"norm",10,-90,70,779.975481169,1,1
"distr_stats",1,"F",26,1,61,"5",1,23,91,"norm",10,-90,70,655.504061548,1,1
"distr_stats",1,"F",26,1,61,"6",1,2,91,"norm",10,-90,70,749.37672388,1,1
"distr_stats",1,"F",26,1,62,"0",139,0,51,"norm",15,88,48,639.279388335,1,1
"distr_stats",1,"F",26,1,62,"1",139,20,51,"norm",15,88,48,1134.74104941,1,1
"distr_stats",1,"F",26,1,62,"2",139,32,51,"norm",15,88,48,780.276252107,1,1
"distr_stats",1,"F",26,1,62,"3",139,5,51,"norm",15,88,48,764.335838667,1,1
"distr_stats",1,"F",26,1,62,"4",139,19,51,"norm",15,88,48,702.319013345,1,1
"distr_stats",1,"F",26,1,63,"0",34,26,151,"norm",5,63,-17,764.592431084,1,1
"distr_stats",1,"F",26,1,63,"1",34,24,151,"norm",5,63,-17,624.260476359,1,1
"distr_stats",1,"F",26,1,63,"2",34,35,151,"norm",5,63,-17,686.595030031,1,1
"distr_stats",1,"F",26,1,63,"3",34,6,151,"norm",5,63,-17,670.713967533,1,1
"distr_stats",1,"F",26,1,63,"4",34,24,151,"norm",5,63,-17,608.350854009,1,1
"distr_stats",1,"F",26,1,64,"0",109,4,31,"norm",15,78,-42,701.650534317,1,1
"distr_stats",1,"F",26,1,64,"1",109,31,31,"norm",15,78,-42,826.884144979,1,1
"distr_stats",1,"F",26,1,64,"2",109,18,31,"norm",15,78,-42,685.948863388,1,1
"distr_stats",1,"F",26,1,64,"3",109,10,31,"norm",15,78,-42,638.814844499,1,1
"distr_stats",1,"F",26,1,64,"4",109,15,31,"norm",15,78,-42,811.869249231,1,1
"distr_stats",1,"F",26,1,65,"0",11,7,91,"norm",10,-80,-20,701.883475607,1,1
"distr_stats",1,"F",26,1,65,"1",11,9,91,"norm",10,-80,-20,732.809332447,1,1
"distr_stats",1,"F",26,1,65,"2",11,8,91,"norm",10,-80,-20,1702.08785705,1,1
"distr_stats",1,"F",26,1,65,"3",11,35,91,"norm",10,-80,-20,1576.77749178,1,1
"distr_stats",1,"F",26,1,65,"4",11,8,91,"norm",10,-80,-20,686.621358644,1,1
"distr_stats",1,"F",26,1,66,"0",33,17,151,"norm",5,62,-58,639.349895469,1,1
"distr_stats",1,"F",26,1,66,"1",33,14,151,"norm",5,62,-58,655.203736858,1,1
"distr_stats",1,"F",26,1,66,"2",33,29,151,"norm",5,62,-58,624.065912369,1,1
"distr_stats",1,"F",26,1,66,"3",33,33,151,"norm",5,62,-58,686.455800754,1,1
"distr_stats",1,"F",26,1,66,"4",33,28,151,"norm",5,62,-58,624.113214624,1,1
"distr_stats",1,"F",26,1,66,"5",33,18,151,"norm",5,62,-58,686.73559805,1,1
"distr_stats",1,"F",26,1,67,"0",3,2,111,"norm",15,72,32,686.878843556,1,1
"distr_stats",1,"F",26,1,67,"1",3,27,111,"norm",15,72,32,873.591104836,1,1
"distr_stats",1,"F",26,1,67,"2",3,33,111,"norm",15,72,32,1108.07551919,1,1
"distr_stats",1,"F",26,1,67,"3",3,15,111,"norm",15,72,32,639.149084013,1,1
"distr_stats",1,"F",26,1,67,"4",3,27,111,"norm",15,72,32,592.712104003,1,1
"distr_stats",1,"F",26,1,68,"0",164,28,51,"norm",5,-67,53,717.803361653,1,1
"distr_stats",1,"F",26,1,68,"1",164,7,51,"norm",5,-67,53,655.300572605,1,1
"distr_stats",1,"F",26,1,68,"2",164,25,51,"norm",5,-67,53,608.078642923,1,1
"distr_stats",1,"F",26,1,68,"3",164,29,51,"norm",5,-67,53,655.497814081,1,1
"distr_stats",1,"F",26,1,68,"4",164,29,51,"norm",5,-67,53,576.948850893,1,1
"distr_stats",1,"F",26,1,68,"5",164,7,51,"norm",5,-67,53,857.673450028,1,1
"distr_stats",1,"F",26,1,69,"0",117,31,11,"norm",15,-74,66,920.394007945,1,1
"distr_stats",1,"F",26,1,69,"1",117,22,11,"norm",15,-74,66,639.244581016,1,1
"distr_stats",1,"F",26,1,69,"2",117,12,11,"norm",15,-74,66,1077.41160974,0,1
"distr_stats",1,"F",26,1,69,"3",117,11,11,"norm",15,-74,66,1170.65595533,1,0
"distr_stats",1,"F",26,1,69,"4",117,0,11,"norm",15,-74,66,686.748985481,1,1
"distr_stats",1,"F",26,1,69,"5",117,34,11,"norm",15,-74,66,889.307055692,1,1
"distr_stats",1,"F",26,1,69,"6",117,9,11,"norm",15,-74,66,624.153823163,1,1
"distr_stats",1,"F",26,1,70,"0",124,4,51,"norm",5,73,-67,607.952801077,1,1
"distr_stats",1,"F",26,1,70,"1",124,11,51,"norm",5,73,-67,467.661901138,1,1
"distr_stats",1,"F",26,1,70,"2",124,0,51,"norm",5,73,-67,748.826054241,1,1
"distr_stats",1,"F",26,1,70,"3",124,16,51,"norm",5,73,-67,686.434827113,1,1
"distr_stats",1,"F",26,1,70,"4",124,18,51,"norm",5,73,-67,608.166107469,1,1
"distr_stats",1,"F",26,1,70,"5",124,1,51,"norm",5,73,-67,592.942814054,1,1
"distr_stats",1,"F",26,1,71,"0",172,20,111,"norm",15,61,-59,1623.8387723,1,1
"distr_stats",1,"F",26,1,71,"1",172,18,111,"norm",15,61,-59,764.454540551,1,1
"distr_stats",1,"F",26,1,71,"2",172,32,111,"norm",15,61,-59,1013.77936781,1,1
"distr_stats",1,"F",26,1,71,"3",172,30,111,"norm",15,61,-59,2170.29360222,1,1
"distr_stats",1,"F",26,1,71,"4",172,6,111,"norm",15,61,-59,717.913584831,0,1
"distr_stats",1,"F",26,1,71,"5",172,1,111,"norm",15,61,-59,732.868237141,1,0
"distr_stats",1,"F",26,1,72,"0",86,9,171,"norm",10,-85,-25,874.11589211,0,1
"distr_stats",1,"F",26,1,72,"1",86,29,171,"norm",10,-85,-25,639.206649964,1,0
"distr_stats",1,"F",26,1,72,"2",86,4,171,"norm",10,-85,-25,624.107859651,1,1
"distr_stats",1,"F",26,1,72,"3",86,8,171,"norm",10,-85,-25,780.138361573,1,1
"distr_stats",1,"F",26,1,72,"4",86,15,171,"norm",10,-85,-25,701.603678311,1,1
"distr_stats",1,"F",26,1,72,"5",86,24,171,"norm",10,-85,-25,639.011193479,1,1
"distr_stats",1,"F",26,1,72,"6",86,3,171,"norm",10,-85,-25,780.582378016,1,1
"distr_stats",1,"F",26,1,73,"0",116,30,11,"norm",5,-75,-55,670.635874189,1,1
"distr_stats",1,"F",26,1,73,"1",116,3,11,"norm",5,-75,-55,686.377261162,1,1
"distr_stats",1,"F",26,1,73,"2",116,30,11,"norm",5,-75,-55,733.014160133,1,1
"distr_stats",1,"F",26,1,73,"3",116,24,11,"norm",5,-75,-55,655.244791645,1,1
"distr_stats",1,"F",26,1,73,"4",116,8,11,"norm",5,-75,-55,624.142666971,1,1
"distr_stats",1,"F",26,1,74,"0",127,15,51,"norm",10,76,-64,1139.66940881,1,1
"distr_stats",1,"F",26,1,74,"1",127,5,51,"norm",10,76,-64,530.56051188,1,1
"distr_stats",1,"F",26,1,74,"2",127,0,51,"norm",10,76,-64,686.75300171,1,1
"distr_stats",1,"F",26,1,74,"3",127,30,51,"norm",10,76,-64,655.554041289,1,1
"distr_stats",1,"F",26,1,74,"4",127,27,51,"norm",10,76,-64,780.538199496,1,1
"distr_stats",1,"F",26,1,74,"5",127,31,51,"norm",10,76,-64,1311.81212953,1,1
"distr_stats",1,"F",26,1,75,"0",68,26,151,"norm",5,-83,17,998.495830956,1,1
"distr_stats",1,"F",26,1,75,"1",68,2,151,"norm",5,-83,17,576.571325354,1,1
"distr_stats",1,"F",26,1,75,"2",68,32,151,"norm",5,-83,17,873.698650527,0,1
"distr_stats",1,"F",26,1,75,"3",68,33,151,"norm",5,-83,17,655.373757225,1,0
"distr_stats",1,"F",26,1,75,"4",68,31,151,"norm",5,-83,17,655.021221557,1,1
"distr_stats",1,"F",26,1,75,"5",68,7,151,"norm",5,-83,17,608.353977743,1,1
"distr_stats",1,"F",26,1,75,"6",68,22,151,"norm",5,-83,17,623.982017805,1,1
"distr_stats",1,"F",26,1,76,"0",26,33,131,"norm",15,75,55,639.407015172,1,1
"distr_stats",1,"F",26,1,76,"1",26,2,131,"norm",15,75,55,561.746531119,1,1
"distr_stats",1,"F",26,1,76,"2",26,10,131,"norm",15,75,55,686.250080573,1,1
"distr_stats",1,"F",26,1,76,"3",26,2,131,"norm",15,75,55,654.810146403,1,1
"distr_stats",1,"F",26,1,76,"4",26,13,131,"norm",15,75,55,639.394966485,1,1
"distr_stats",1,"F",26,1,77,"0",111,10,51,"norm",10,60,-20,592.975390135,1,1
"distr_stats",1,"F",26,1,77,"1",111,19,51,"norm",10,60,-20,717.926972261,1,1
"distr_stats",1,"F",26,1,77,"2",111,24,51,"norm",10,60,-20,545.650377238,1,1
"distr_stats",1,"F",26,1,77,"3",111,17,51,"norm",10,60,-20,530.388260275,1,1
"distr_stats",1,"F",26,1,77,"4",111,9,51,"norm",10,60,-20,717.477154598,1,1
"distr_stats",1,"F",26,1,78,"0",159,28,51,"norm",15,-72,-72,717.9001974,1,1
"distr_stats",1,"F",26,1,78,"1",159,28,51,"norm",15,-72,-72,1014.54959131,1,1
"distr_stats",1,"F",26,1,78,"2",159,29,51,"norm",15,-72,-72,624.064573626,1,1
"distr_stats",1,"F",26,1,78,"3",159,1,51,"norm",15,-72,-72,701.722380194,1,1
"distr_stats",1,"F",26,1,78,"4",159,20,51,"norm",15,-72,-72,592.69916282,1,1
"distr_stats",1,"F",26,1,79,"0",58,0,171,"norm",10,67,7,827.265686747,1,1
"distr_stats",1,"F",26,1,79,"1",58,18,171,"norm",10,67,7,561.795172116,1,1
"distr_stats",1,"F",26,1,79,"2",58,27,171,"norm",10,67,7,1030.01251973,1,1
"distr_stats",1,"F",26,1,79,"3",58,26,171,"norm",10,67,7,998.612301601,0,1
"distr_stats",1,"F",26,1,79,"4",58,23,171,"norm",10,67,7,1373.81512117,1,0
"distr_stats",1,"F",26,1,79,"5",58,29,171,"norm",10,67,7,826.619520103,1,1
"distr_stats",1,"F",26,1,79,"6",58,7,171,"norm",10,67,7,670.605083099,1,1
"distr_stats",1,"F",26,1,80,"0",155,19,91,"norm",5,64,-16,561.420770311,1,1
"distr_stats",1,"F",26,1,80,"1",155,6,91,"norm",5,64,-16,655.468807981,1,1
"distr_stats",1,"F",26,1,80,"2",155,34,91,"norm",5,64,-16,718.022023017,1,1
"distr_stats",1,"F",26,1,80,"3",155,26,91,"norm",5,64,-16,1123.99005026,1,1
"distr_stats",1,"F",26,1,80,"4",155,11,91,"norm",5,64,-16,1076.53830303,1,1
"distr_stats",1,"F",26,1,80,"5",155,29,91,"norm",5,64,-16,889.000929782,1,1
"distr_stats",1,"F",26,1,81,"0",85,22,171,"norm",10,-86,-6,1107.94476862,1,1
"distr_stats",1,"F",26,1,81,"1",85,6,171,"norm",10,-86,-6,1014.52594018,1,1
"distr_stats",1,"F",26,1,81,"2",85,2,171,"norm",10,-86,-6,1076.73242077,1,1
"distr_stats",1,"F",26,1,81,"3",85,20,171,"norm",10,-86,-6,733.125722054,1,1
"distr_stats",1,"F",26,1,81,"4",85,27,171,"norm",10,-86,-6,873.994958988,1,1
"distr_stats",1,"F",26,1,81,"5",85,35,171,"norm",10,-86,-6,905.854812226,1,1
"distr_stats",1,"F",26,1,82,"0",27,28,111,"norm",5,-84,36,967.786850489,1,1
"distr_stats",1,"F",26,1,82,"1",27,9,111,"norm",5,-84,36,780.244568521,1,1
"distr_stats",1,"F",26,1,82,"2",27,35,111,"norm",5,-84,36,623.63082088,1,1
"distr_stats",1,"F",26,1,82,"3",27,25,111,"norm",5,-84,36,655.016312832,1,1
"distr_stats",1,"F",26,1,82,"4",27,27,111,"norm",5,-84,36,717.972935773,1,1
"distr_stats",1,"F",26,1,82,"5",27,11,111,"norm",5,-84,36,715.940277582,1,1
"distr_stats",1,"F",26,1,82,"6",27,6,111,"norm",5,-84,36,717.708310897,1,1
"distr_stats",1,"F",26,1,83,"0",35,2,131,"norm",10,84,-76,858.077750428,1,1
"distr_stats",1,"F",26,1,83,"1",35,16,131,"norm",10,84,-76,561.689857663,1,1
"distr_stats",1,"F",26,1,83,"2",35,19,131,"norm",10,84,-76,858.018399486,1,1
"distr_stats",1,"F",26,1,83,"3",35,31,131,"norm",10,84,-76,655.454528056,1,1
"distr_stats",1,"F",26,1,83,"4",35,30,131,"norm",10,84,-76,592.483178942,1,1
"distr_stats",1,"F",26,1,83,"5",35,9,131,"norm",10,84,-76,622.226033178,1,1
"distr_stats",1,"F",26,1,84,"0",0,14,71,"norm",5,-71,49,670.625164244,1,1
"distr_stats",1,"F",26,1,84,"1",0,19,71,"norm",5,-71,49,576.300899259,1,1
"distr_stats",1,"F",26,1,84,"2",0,19,71,"norm",5,-71,49,561.418092825,1,1
"distr_stats",1,"F",26,1,84,"3",0,20,71,"norm",5,-71,49,608.067932979,1,1
"distr_stats",1,"F",26,1,84,"4",0,8,71,"norm",5,-71,49,561.751886091,1,1
"distr_stats",1,"F",26,1,84,"5",0,29,71,"norm",5,-71,49,592.824112171,1,1
"distr_stats",1,"F",26,1,85,"0",68,17,171,"norm",10,77,-3,608.005012056,1,1
"distr_stats",1,"F",26,1,85,"1",68,2,171,"norm",10,77,-3,655.446495597,1,1
"distr_stats",1,"F",26,1,85,"2",68,5,171,"norm",10,77,-3,795.354068778,1,1
"distr_stats",1,"F",26,1,85,"3",68,32,171,"norm",10,77,-3,795.27463669,1,1
"distr_stats",1,"F",26,1,85,"4",68,30,171,"norm",10,77,-3,592.918270432,1,1
"distr_stats",1,"F",26,1,86,"0",1,9,111,"norm",5,70,10,888.919266456,1,1
"distr_stats",1,"F",26,1,86,"1",1,8,111,"norm",5,70,10,858.157628763,1,1
"distr_stats",1,"F",26,1,86,"2",1,4,111,"norm",5,70,10,702.296254713,1,1
"distr_stats",1,"F",26,1,86,"3",1,29,111,"norm",5,70,10,592.288168705,1,1
"distr_stats",1,"F",26,1,86,"4",1,9,111,"norm",5,70,10,686.867687364,1,1
"distr_stats",1,"F",26,1,86,"5",1,32,111,"norm",5,70,10,842.002123941,0,1
"distr_stats",1,"F",26,1,86,"6",1,10,111,"norm",5,70,10,514.230077967,1,0
"distr_stats",1,"F",26,1,87,"0",136,13,51,"norm",10,85,25,779.775562208,1,1
"distr_stats",1,"F",26,1,87,"1",136,3,51,"norm",10,85,25,1014.25328285,1,1
"distr_stats",1,"F",26,1,87,"2",136,3,51,"norm",10,85,25,607.838115423,1,1
"distr_stats",1,"F",26,1,87,"3",136,4,51,"norm",10,85,25,670.380174267,1,1
"distr_stats",1,"F",26,1,87,"4",136,4,51,"norm",10,85,25,608.037588137,1,1
"distr_stats",1,"F",26,1,88,"0",163,0,71,"norm",15,-88,-68,1498.61542533,1,1
"distr_stats",1,"F",26,1,88,"1",163,22,71,"norm",15,-88,-68,607.963957269,1,1
"distr_stats",1,"F",26,1,88,"2",163,10,71,"norm",15,-88,-68,2014.12476351,1,1
"distr_stats",1,"F",26,1,88,"3",163,27,71,"norm",15,-88,-68,686.196530851,1,1
"distr_stats",1,"F",26,1,88,"4",163,12,71,"norm",15,-88,-68,2311.0387823,0,1
"distr_stats",1,"F",26,1,88,"5",163,16,71,"norm",15,-88,-68,670.504231122,1,0
"distr_stats",1,"F",26,1,88,"6",163,34,71,"norm",15,-88,-68,529.859456772,1,1
"distr_stats",1,"F",26,1,89,"0",87,33,151,"norm",5,-64,16,811.386855487,1,1
"distr_stats",1,"F",26,1,89,"1",87,15,151,"norm",5,-64,16,607.998318341,1,1
"distr_stats",1,"F",26,1,89,"2",87,18,151,"norm",5,-64,16,514.161355824,1,1
"distr_stats",1,"F",26,1,89,"3",87,2,151,"norm",5,-64,16,764.002045401,1,1
"distr_stats",1,"F",26,1,89,"4",87,2,151,"norm",5,-64,16,732.857973445,1,1
"distr_stats",1,"F",26,1,90,"0",86,4,151,"norm",10,-65,-65,967.477600846,1,1
"distr_stats",1,"F",26,1,90,"1",86,19,151,"norm",10,-65,-65,576.479844579,1,1
"distr_stats",1,"F",26,1,90,"2",86,34,151,"norm",10,-65,-65,639.179875103,1,1
"distr_stats",1,"F",26,1,90,"3",86,22,151,"norm",10,-65,-65,1201.61929698,1,1
"distr_stats",1,"F",26,1,90,"4",86,32,151,"norm",10,-65,-65,873.557190012,1,1
"distr_stats",1,"F",26,1,90,"5",86,28,151,"norm",10,-65,-65,592.315389814,1,1
"distr_stats",1,"F",26,1,90,"6",86,12,151,"norm",10,-65,-65,623.675891896,1,1
"distr_stats",1,"F",26,1,91,"0",46,22,151,"norm",10,75,75,670.294494712,1,1
"distr_stats",1,"F",26,1,91,"1",46,35,151,"norm",10,75,75,592.235957726,1,1
"distr_stats",1,"F",26,1,91,"2",46,10,151,"norm",10,75,75,686.124238726,1,1
"distr_stats",1,"F",26,1,91,"3",46,6,151,"norm",10,75,75,654.876637308,1,1
"distr_stats",1,"F",26,1,91,"4",46,16,151,"norm",10,75,75,592.444801641,1,1
"distr_stats",1,"F",26,1,91,"5",46,11,151,"norm",10,75,75,592.363584563,1,1
"distr_stats",1,"F",26,1,92,"0",127,16,51,"norm",5,76,-24,701.73666012,1,1
"distr_stats",1,"F",26,1,92,"1",127,27,51,"norm",5,76,-24,686.089877655,1,1
"distr_stats",1,"F",26,1,92,"2",127,35,51,"norm",5,76,-24,560.974076382,1,1
"distr_stats",1,"F",26,1,92,"3",127,34,51,"norm",5,76,-24,639.177643864,1,1
"distr_stats",1,"F",26,1,92,"4",127,17,51,"norm",5,76,-24,592.338148445,1,1
"distr_stats",1,"F",26,1,93,"0",82,11,171,"norm",10,-89,31,779.932195144,1,1
"distr_stats",1,"F",26,1,93,"1",82,26,171,"norm",10,-89,31,1389.24101103,1,1
"distr_stats",1,"F",26,1,93,"2",82,33,171,"norm",10,-89,31,920.561350826,1,1
"distr_stats",1,"F",26,1,93,"3",82,27,171,"norm",10,-89,31,3170.52922099,1,1
"distr_stats",1,"F",26,1,93,"4",82,25,171,"norm",10,-89,31,904.75882792,1,1
"distr_stats",1,"F",26,1,93,"5",82,31,171,"norm",10,-89,31,1045.42368342,1,1
"distr_stats",1,"F",26,1,93,"6",82,25,171,"norm",10,-89,31,936.21214952,1,1
"distr_stats",1,"F",26,1,94,"0",127,2,11,"norm",15,-64,-44,811.093224513,1,1
"distr_stats",1,"F",26,1,94,"1",127,8,11,"norm",15,-64,-44,1967.46064343,1,1
"distr_stats",1,"F",26,1,94,"2",127,0,11,"norm",15,-64,-44,1420.48058,1,1
"distr_stats",1,"F",26,1,94,"3",127,22,11,"norm",15,-64,-44,717.379872603,1,1
"distr_stats",1,"F",26,1,94,"4",127,13,11,"norm",15,-64,-44,1186.08363019,1,1
"distr_stats",1,"F",26,1,95,"0",127,16,51,"norm",5,76,-64,680.788008948,1,1
"distr_stats",1,"F",26,1,95,"1",127,0,51,"norm",5,76,-64,654.871282335,1,1
"distr_stats",1,"F",26,1,95,"2",127,21,51,"norm",5,76,-64,858.048744329,1,1
"distr_stats",1,"F",26,1,95,"3",127,33,51,"norm",5,76,-64,607.881401448,1,1
"distr_stats",1,"F",26,1,95,"4",127,12,51,"norm",5,76,-64,576.631568791,1,1
"distr_stats",1,"F",26,1,96,"0",126,8,51,"norm",15,75,75,670.457375116,1,1
"distr_stats",1,"F",26,1,96,"1",126,15,51,"norm",15,75,75,1014.1751895,1,1
"distr_stats",1,"F",26,1,96,"2",126,24,51,"norm",15,75,75,685.987240688,1,1
"distr_stats",1,"F",26,1,96,"3",126,15,51,"norm",15,75,75,623.693295555,1,1
"distr_stats",1,"F",26,1,96,"4",126,1,51,"norm",15,75,75,686.039451667,1,1
"distr_stats",1,"F",26,1,96,"5",126,12,51,"norm",15,75,75,623.750415259,1,1
"distr_stats",1,"F",26,1,96,"6",126,20,51,"norm",15,75,75,670.448450162,1,1
"distr_stats",1,"F",26,1,97,"0",14,23,111,"norm",5,83,-37,639.165595176,1,1
"distr_stats",1,"F",26,1,97,"1",14,6,111,"norm",5,83,-37,873.628589641,1,1
"distr_stats",1,"F",26,1,97,"2",14,14,111,"norm",5,83,-37,779.669801507,1,1
"distr_stats",1,"F",26,1,97,"3",14,8,111,"norm",5,83,-37,529.980836141,1,1
"distr_stats",1,"F",26,1,97,"4",14,8,111,"norm",5,83,-37,576.809621616,1,1
"distr_stats",1,"F",26,1,97,"5",14,12,111,"norm",5,83,-37,764.251051608,1,1
"distr_stats",1,"F",26,1,98,"0",166,14,91,"norm",15,75,55,1920.58366321,1,1
"distr_stats",1,"F",26,1,98,"1",166,27,91,"norm",15,75,55,1061.45423889,1,1
"distr_stats",1,"F",26,1,98,"2",166,30,91,"norm",15,75,55,889.206649964,1,1
"distr_stats",1,"F",26,1,98,"3",166,26,91,"norm",15,75,55,2092.31940604,1,1
"distr_stats",1,"F",26,1,98,"4",166,26,91,"norm",15,75,55,701.830818381,1,1
"distr_stats",1,"F",26,1,98,"5",166,28,91,"norm",15,75,55,1389.19727876,1,1
"distr_stats",1,"F",26,1,98,"6",166,30,91,"norm",15,75,55,842.423828,1,1
"distr_stats",1,"F",26,1,99,"0",127,15,11,"norm",5,-64,36,1108.00992078,1,1
"distr_stats",1,"F",26,1,99,"1",127,15,11,"norm",5,-64,36,514.176528245,1,1
"distr_stats",1,"F",26,1,99,"2",127,8,11,"norm",5,-64,36,670.828206939,1,1
"distr_stats",1,"F",26,1,99,"3",127,14,11,"norm",5,-64,36,561.095009503,1,1
"distr_stats",1,"F",26,1,99,"4",127,3,11,"norm",5,-64,36,1029.97905115,1,1
"distr_stats",1,"F",26,1,99,"5",127,17,11,"norm",5,-64,36,779.812154518,1,1
"distr_stats",1,"F",26,1,100,"0",38,31,111,"norm",15,-73,27,936.202778318,1,1
"distr_stats",1,"F",26,1,100,"1",38,14,111,"norm",15,-73,27,451.622866961,1,1
"distr_stats",1,"F",26,1,100,"2",38,15,111,"norm",15,-73,27,701.593860862,1,1
"distr_stats",1,"F",26,1,100,"3",38,13,111,"norm",15,-73,27,545.418774691,1,1
"distr_stats",1,"F",26,1,100,"4",38,7,111,"norm",15,-73,27,577.40759351,1,1
"distr_stats",1,"F",26,1,100,"5",38,0,111,"norm",15,-73,27,889.40746142,1,1
"distr_stats",1,"F",26,1,101,"0",84,10,11,"norm",10,73,-27,795.378166152,1,1
"distr_stats",1,"F",26,1,101,"1",84,0,11,"norm",10,73,-27,701.659459271,1,1
"distr_stats",1,"F",26,1,101,"2",84,28,11,"norm",10,73,-27,1070.91513599,0,1
"distr_stats",1,"F",26,1,101,"3",84,32,11,"norm",10,73,-27,2108.01795324,1,0
"distr_stats",1,"F",26,1,101,"4",84,12,11,"norm",10,73,-27,607.891665145,1,1
"distr_stats",1,"F",26,1,102,"0",92,3,171,"norm",15,-79,81,951.655443042,1,1
"distr_stats",1,"F",26,1,102,"1",92,14,171,"norm",15,-79,81,1670.94066136,1,1
"distr_stats",1,"F",26,1,102,"2",92,29,171,"norm",15,-79,81,733.058784902,1,1
"distr_stats",1,"F",26,1,102,"3",92,31,171,"norm",15,-79,81,2139.30839443,1,1
"distr_stats",1,"F",26,1,102,"4",92,31,171,"norm",15,-79,81,1170.48058,1,1
"distr_stats",1,"F",26,1,102,"5",92,22,171,"norm",15,-79,81,686.122453736,1,1
"distr_stats",1,"F",26,1,102,"6",92,29,171,"norm",15,-79,81,951.793779823,1,1
"distr_stats",1,"F",26,1,103,"0",55,32,131,"norm",10,-76,64,654.794527734,1,1
"distr_stats",1,"F",26,1,103,"1",55,30,131,"norm",10,-76,64,545.340235099,1,1
"distr_stats",1,"F",26,1,103,"2",55,1,131,"norm",10,-76,64,592.461759053,1,1
"distr_stats",1,"F",26,1,103,"3",55,0,131,"norm",10,-76,64,592.389466929,1,1
"distr_stats",1,"F",26,1,103,"4",55,19,131,"norm",10,-76,64,639.253952218,1,1
"distr_stats",1,"F",26,1,103,"5",55,29,131,"norm",10,-76,64,561.137849281,1,1
"distr_stats",1,"F",26,1,103,"6",55,29,131,"norm",10,-76,64,592.335917207,1,1
"distr_stats",1,"F",26,1,104,"0",67,1,171,"norm",5,76,-64,576.771690563,1,1
"distr_stats",1,"F",26,1,104,"1",67,26,171,"norm",5,76,-64,764.248820369,1,1
"distr_stats",1,"F",26,1,104,"2",67,1,171,"norm",5,76,-64,623.720070416,1,1
"distr_stats",1,"F",26,1,104,"3",67,31,171,"norm",5,76,-64,592.354659609,1,1
"distr_stats",1,"F",26,1,104,"4",67,33,171,"norm",5,76,-64,623.60181478,1,1
"distr_stats",1,"F",26,1,105,"0",160,6,91,"norm",10,69,-11,1186.0912164,1,1
"distr_stats",1,"F",26,1,105,"1",160,33,91,"norm",10,69,-11,701.839743334,1,1
"distr_stats",1,"F",26,1,105,"2",160,20,91,"norm",10,69,-11,1217.43476107,1,1
"distr_stats",1,"F",26,1,105,"3",160,2,91,"norm",10,69,-11,545.421898425,1,1
"distr_stats",1,"F",26,1,105,"4",160,34,91,"norm",10,69,-11,670.479241252,1,1
"distr_stats",1,"F",26,1,105,"5",160,33,91,"norm",10,69,-11,1857.97065098,1,1
"distr_stats",1,"F",26,1,105,"6",160,34,91,"norm",10,69,-11,2076.77793803,1,1
"distr_stats",1,"F",26,1,106,"0",175,9,91,"norm",5,84,84,701.76745121,1,1
"distr_stats",1,"F",26,1,106,"1",175,9,91,"norm",5,84,84,654.883331023,1,1
"distr_stats",1,"F",26,1,106,"2",175,15,91,"norm",5,84,84,498.799725627,1,1
"distr_stats",1,"F",26,1,106,"3",175,29,91,"norm",5,84,84,607.985823406,1,1
"distr_stats",1,"F",26,1,106,"4",175,28,91,"norm",5,84,84,1264.35636606,1,1
"distr_stats",1,"F",26,1,106,"5",175,28,91,"norm",5,84,84,701.650980565,1,1
"distr_stats",1,"F",26,1,106,"6",175,2,91,"norm",5,84,84,779.874629193,1,1
"distr_stats",1,"F",26,1,107,"0",123,3,11,"norm",15,-68,32,3811.09322451,1,1
"distr_stats",1,"F",26,1,107,"1",123,11,11,"norm",15,-68,32,509.117418277,1,1
"distr_stats",1,"F",26,1,107,"2",123,23,11,"norm",15,-68,32,545.421452177,1,1
"distr_stats",1,"F",26,1,107,"3",123,4,11,"norm",15,-68,32,545.469200679,1,1
"distr_stats",1,"F",26,1,107,"4",123,7,11,"norm",15,-68,32,623.618325945,1,1
"distr_stats",1,"F",26,1,107,"5",123,28,11,"norm",15,-68,32,967.20538976,1,1
"distr_stats",1,"F",26,1,108,"0",131,15,31,"norm",10,-80,-60,639.192816285,1,1
"distr_stats",1,"F",26,1,108,"1",131,32,31,"norm",10,-80,-60,795.518287924,1,1
"distr_stats",1,"F",26,1,108,"2",131,33,31,"norm",10,-80,-60,576.63558502,1,1
"distr_stats",1,"F",26,1,108,"3",131,23,31,"norm",10,-80,-60,561.089208283,1,1
"distr_stats",1,"F",26,1,108,"4",131,6,31,"norm",10,-80,-60,561.224867579,1,1
"distr_stats",1,"F",26,1,108,"5",131,7,31,"norm",10,-80,-60,576.724388309,1,1
"distr_stats",1,"F",26,1,108,"6",131,17,31,"norm",10,-80,-60,592.26407133,1,1
"distr_stats",1,"F",26,1,109,"0",96,16,171,"norm",5,-75,65,1451.78842485,1,1
"distr_stats",1,"F",26,1,109,"1",96,19,171,"norm",5,-75,65,685.929228489,1,1
"distr_stats",1,"F",26,1,109,"2",96,5,171,"norm",5,-75,65,685.970283276,1,1
"distr_stats",1,"F",26,1,109,"3",96,4,171,"norm",5,-75,65,967.472692121,1,1
"distr_stats",1,"F",26,1,109,"4",96,17,171,"norm",5,-75,65,561.134725547,1,1
"distr_stats",1,"F",26,1,110,"0",160,11,71,"norm",15,89,-11,873.496946575,1,1
"distr_stats",1,"F",26,1,110,"1",160,21,71,"norm",15,89,-11,889.225838614,1,1
"distr_stats",1,"F",26,1,110,"2",160,4,71,"norm",15,89,-11,904.900734683,1,1
"distr_stats",1,"F",26,1,110,"3",160,21,71,"norm",15,89,-11,842.370278278,1,1
"distr_stats",1,"F",26,1,110,"4",160,14,71,"norm",15,89,-11,780.003594773,1,1
"distr_stats",1,"F",26,1,111,"0",65,25,151,"norm",5,-86,-6,576.636923763,1,1
"distr_stats",1,"F",26,1,111,"1",65,31,151,"norm",5,-86,-6,576.617735113,1,1
"distr_stats",1,"F",26,1,111,"2",65,27,151,"norm",5,-86,-6,623.666074447,1,1
"distr_stats",1,"F",26,1,111,"3",65,7,151,"norm",5,-86,-6,686.138072405,1,1
"distr_stats",1,"F",26,1,111,"4",65,29,151,"norm",5,-86,-6,717.507499441,1,1
"distr_stats",1,"F",26,1,111,"5",65,24,151,"norm",5,-86,-6,623.631713375,1,1
"distr_stats",1,"F",26,1,111,"6",65,0,151,"norm",5,-86,-6,576.677532302,1,1
"distr_stats",1,"F",26,1,112,"0",74,34,171,"norm",15,83,-77,701.629114429,1,1
"distr_stats",1,"F",26,1,112,"1",74,12,171,"norm",15,83,-77,1107.87336899,1,1
"distr_stats",1,"F",26,1,112,"2",74,6,171,"norm",15,83,-77,561.162839151,1,1
"distr_stats",1,"F",26,1,112,"3",74,9,171,"norm",15,83,-77,670.328855783,0,1
"distr_stats",1,"F",26,1,112,"4",74,32,171,"norm",15,83,-77,826.690473485,1,0
"distr_stats",1,"F",26,1,112,"5",74,5,171,"norm",15,83,-77,654.763736644,1,1
"distr_stats",1,"F",26,1,113,"0",53,14,171,"norm",10,62,62,4514.31397253,1,1
"distr_stats",1,"F",26,1,113,"1",53,32,171,"norm",10,62,62,748.644877682,1,1
"distr_stats",1,"F",26,1,113,"2",53,10,171,"norm",10,62,62,1014.21713678,1,1
"distr_stats",1,"F",26,1,113,"3",53,30,171,"norm",10,62,62,623.746399029,1,1
"distr_stats",1,"F",26,1,113,"4",53,29,171,"norm",10,62,62,608.043835604,1,1
"distr_stats",1,"F",26,1,113,"5",53,20,171,"norm",10,62,62,686.230891922,1,1
"distr_stats",1,"F",26,1,113,"6",53,19,171,"norm",10,62,62,998.6703138,1,1
"distr_stats",1,"F",26,1,114,"0",60,20,131,"norm",5,-71,69,654.979720522,1,1
"distr_stats",1,"F",26,1,114,"1",60,3,131,"norm",5,-71,69,717.250014528,1,1
"distr_stats",1,"F",26,1,114,"2",60,8,131,"norm",5,-71,69,529.877752927,1,1
"distr_stats",1,"F",26,1,114,"3",60,23,131,"norm",5,-71,69,608.025093201,1,1
"distr_stats",1,"F",26,1,114,"4",60,17,131,"norm",5,-71,69,561.036997305,1,1
"distr_stats",1,"F",26,1,114,"5",60,11,131,"norm",5,-71,69,576.683779769,1,1
"distr_stats",1,"F",26,1,115,"0",113,14,11,"norm",15,-78,-18,2217.64985245,1,1
"distr_stats",1,"F",26,1,115,"1",113,18,11,"norm",15,-78,-18,717.274558151,1,1
"distr_stats",1,"F",26,1,115,"2",113,27,11,"norm",15,-78,-18,1623.75309274,1,1
"distr_stats",1,"F",26,1,115,"3",113,31,11,"norm",15,-78,-18,795.444210809,1,1
"distr_stats",1,"F",26,1,115,"4",113,12,11,"norm",15,-78,-18,576.740899473,1,1
"distr_stats",1,"F",26,1,116,"0",103,20,31,"norm",10,72,-88,1076.68868849,1,1
"distr_stats",1,"F",26,1,116,"1",103,35,31,"norm",10,72,-88,576.65298868,1,1
"distr_stats",1,"F",26,1,116,"2",103,23,31,"norm",10,72,-88,1373.66428946,1,1
"distr_stats",1,"F",26,1,116,"3",103,21,31,"norm",10,72,-88,732.902598213,1,1
"distr_stats",1,"F",26,1,116,"4",103,17,31,"norm",10,72,-88,592.324761015,1,1
"distr_stats",1,"F",26,1,116,"5",103,18,31,"norm",10,72,-88,639.243688521,1,1
"distr_stats",1,"F",26,1,117,"0",173,3,91,"norm",5,82,-38,811.271723585,0,1
"distr_stats",1,"F",26,1,117,"1",173,15,91,"norm",5,82,-38,873.570131195,1,0
"distr_stats",1,"F",26,1,117,"2",173,29,91,"norm",5,82,-38,576.68556476,1,1
"distr_stats",1,"F",26,1,117,"3",173,31,91,"norm",5,82,-38,717.306241736,1,1
"distr_stats",1,"F",26,1,117,"4",173,19,91,"norm",5,82,-38,607.891665145,1,1
"distr_stats",1,"F",26,1,118,"0",37,23,111,"norm",10,-74,-54,623.610293486,1,1
"distr_stats",1,"F",26,1,118,"1",37,13,111,"norm",10,-74,-54,592.455065338,1,1
"distr_stats",1,"F",26,1,118,"2",37,26,111,"norm",10,-74,-54,998.790800674,1,1
"distr_stats",1,"F",26,1,118,"3",37,33,111,"norm",10,-74,-54,826.827025276,1,1
"distr_stats",1,"F",26,1,118,"4",37,33,111,"norm",10,-74,-54,576.581142803,1,1
"distr_stats",1,"F",26,1,118,"5",37,19,111,"norm",10,-74,-54,576.683333522,1,1
"distr_stats",1,"F",26,1,119,"0",127,6,31,"norm",5,-84,16,607.944322371,1,1
"distr_stats",1,"F",26,1,119,"1",127,6,31,"norm",5,-84,16,592.347965894,1,1
"distr_stats",1,"F",26,1,119,"2",127,9,31,"norm",5,-84,16,1717.34997401,1,1
"distr_stats",1,"F",26,1,119,"3",127,7,31,"norm",5,-84,16,607.939859894,1,1
"distr_stats",1,"F",26,1,119,"4",127,17,31,"norm",5,-84,16,592.341272179,1,1
"distr_stats",1,"F",26,1,120,"0",136,14,71,"norm",15,65,-75,857.916655015,1,1
"distr_stats",1,"F",26,1,120,"1",136,19,71,"norm",15,65,-75,639.128556619,1,1
"distr_stats",1,"F",26,1,120,"2",136,35,71,"norm",15,65,-75,576.715909603,1,1
"distr_stats",1,"F",26,1,120,"3",136,28,71,"norm",15,65,-75,717.478939589,1,1
"distr_stats",1,"F",26,1,120,"4",136,13,71,"norm",15,65,-75,592.323422272,1,1
"distr_stats",1,"F",26,1,120,"5",136,6,71,"norm",15,65,-75,1295.47723314,0,1
"distr_stats",1,"F",26,1,120,"6",136,35,71,"norm",15,65,-75,639.23610231,1,0
"distr_stats",1,"F",26,1,121,"0",18,31,91,"norm",10,-73,-53,2170.42122905,1,1
"distr_stats",1,"F",26,1,121,"1",18,7,91,"norm",10,-73,-53,576.685118513,1,1
"distr_stats",1,"F",26,1,121,"2",18,28,91,"norm",10,-73,-53,1045.92838954,1,1
"distr_stats",1,"F",26,1,121,"3",18,1,91,"norm",10,-73,-53,607.890772649,1,1
"distr_stats",1,"F",26,1,121,"4",18,26,91,"norm",10,-73,-53,623.598691047,1,1
"distr_stats",1,"F",26,1,121,"5",18,27,91,"norm",10,-73,-53,889.286974546,1,1
"distr_stats",1,"F",26,1,121,"6",18,30,91,"norm",10,-73,-53,576.650757441,1,1
"distr_stats",1,"F",26,1,122,"0",83,32,11,"norm",15,72,-8,1467.51106942,1,1
"distr_stats",1,"F",26,1,122,"1",83,35,11,"norm",15,72,-8,1248.56856933,1,1
"distr_stats",1,"F",26,1,122,"2",83,33,11,"norm",15,72,-8,1154.88600851,0,1
"distr_stats",1,"F",26,1,122,"3",83,19,11,"norm",15,72,-8,1045.55755772,1,0
"distr_stats",1,"F",26,1,122,"4",83,20,11,"norm",15,72,-8,1076.61461138,1,1
"distr_stats",1,"F",26,1,122,"5",83,12,11,"norm",15,72,-8,1811.2297763,1,1
"distr_stats",1,"F",26,1,122,"6",83,4,11,"norm",15,72,-8,842.463097796,1,1
"distr_stats",1,"F",26,1,123,"0",55,27,171,"norm",5,64,44,670.389099221,1,1
"distr_stats",1,"F",26,1,123,"1",55,9,171,"norm",5,64,44,607.994302111,1,1
"distr_stats",1,"F",26,1,123,"2",55,3,171,"norm",5,64,44,623.721409159,1,1
"distr_stats",1,"F",26,1,123,"3",55,12,171,"norm",5,64,44,623.614309715,1,1
"distr_stats",1,"F",26,1,123,"4",55,22,171,"norm",5,64,44,701.714793984,1,1
"distr_stats",1,"F",26,1,123,"5",55,18,171,"norm",5,64,44,732.875823352,1,1
"distr_stats",1,"F",26,1,124,"0",20,35,111,"norm",15,89,29,1670.4131966,1,1
"distr_stats",1,"F",26,1,124,"1",20,28,111,"norm",15,89,29,1030.03260087,1,1
"distr_stats",1,"F",26,1,124,"2",20,2,111,"norm",15,89,29,655.018990318,1,1
"distr_stats",1,"F",26,1,124,"3",20,13,111,"norm",15,89,29,1123.68080062,1,1
"distr_stats",1,"F",26,1,124,"4",20,19,111,"norm",15,89,29,717.362915192,1,1
"distr_stats",1,"F",26,1,124,"5",20,32,111,"norm",15,89,29,1092.50102885,1,1
"distr_stats",1,"F",26,1,125,"0",113,35,11,"norm",10,-78,2,1232.84369352,1,1
"distr_stats",1,"F",26,1,125,"1",113,0,11,"norm",10,-78,2,795.490620568,1,1
"distr_stats",1,"F",26,1,125,"2",113,32,11,"norm",10,-78,2,717.478047093,1,1
"distr_stats",1,"F",26,1,125,"3",113,9,11,"norm",10,-78,2,1076.76187311,1,1
"distr_stats",1,"F",26,1,125,"4",113,20,11,"norm",10,-78,2,608.042496861,1,1
"distr_stats",1,"F",26,1,125,"5",113,18,11,"norm",10,-78,2,561.149897968,1,1
"distr_stats",1,"F",26,1,126,"0",147,19,51,"norm",5,-84,-44,608.019738229,1,1
"distr_stats",1,"F",26,1,126,"1",147,10,51,"norm",5,-84,-44,639.202187487,1,1
"distr_stats",1,"F",26,1,126,"2",147,30,51,"norm",5,-84,-44,545.54417029,1,1
"distr_stats",1,"F",26,1,126,"3",147,22,51,"norm",5,-84,-44,514.136812201,1,1
"distr_stats",1,"F",26,1,126,"4",147,23,51,"norm",5,-84,-44,529.889801614,1,1
"distr_stats",1,"F",26,1,126,"5",147,15,51,"norm",5,-84,-44,701.959783961,1,1
"distr_stats",1,"F",26,1,127,"0",165,11,91,"norm",10,74,-66,654.823533834,1,1
"distr_stats",1,"F",26,1,127,"1",165,16,91,"norm",10,74,-66,826.689134742,1,1
"distr_stats",1,"F",26,1,127,"2",165,27,91,"norm",10,74,-66,779.965217473,1,1
"distr_stats",1,"F",26,1,127,"3",165,30,91,"norm",10,74,-66,1201.73844511,1,1
"distr_stats",1,"F",26,1,127,"4",165,20,91,"norm",10,74,-66,654.829781301,1,1
"distr_stats",1,"F",26,1,127,"5",165,29,91,"norm",10,74,-66,1967.57175911,1,1
"distr_stats",1,"F",26,1,128,"0",79,14,151,"norm",5,-72,-12,951.691589104,1,1
"distr_stats",1,"F",26,1,128,"1",79,13,151,"norm",5,-72,-12,545.380397391,1,1
"distr_stats",1,"F",26,1,128,"2",79,24,151,"norm",5,-72,-12,604.372109679,1,1
"distr_stats",1,"F",26,1,128,"3",79,5,151,"norm",5,-72,-12,654.521870401,1,1
"distr_stats",1,"F",26,1,128,"4",79,20,151,"norm",5,-72,-12,1097.39725841,1,1
"distr_stats",1,"F",26,1,129,"0",99,2,171,"norm",10,-72,-52,686.174664714,1,1
"distr_stats",1,"F",26,1,129,"1",99,21,171,"norm",10,-72,-52,904.930633277,1,1
"distr_stats",1,"F",26,1,129,"2",99,33,171,"norm",10,-72,-52,2420.52431227,1,1
"distr_stats",1,"F",26,1,129,"3",99,16,171,"norm",10,-72,-52,639.159793957,1,1
"distr_stats",1,"F",26,1,129,"4",99,29,171,"norm",10,-72,-52,623.639745833,1,1
"distr_stats",1,"F",26,1,129,"5",99,11,171,"norm",10,-72,-52,639.241457283,1,1
"distr_stats",1,"F",26,1,130,"0",70,34,171,"norm",15,79,79,639.191031294,1,1
"distr_stats",1,"F",26,1,130,"1",70,6,171,"norm",15,79,79,654.765967883,1,1
"distr_stats",1,"F",26,1,130,"2",70,34,171,"norm",15,79,79,686.168417247,1,1
"distr_stats",1,"F",26,1,130,"3",70,12,171,"norm",15,79,79,811.276186062,1,1
"distr_stats",1,"F",26,1,130,"4",70,29,171,"norm",15,79,79,701.753171284,1,1
"distr_stats",1,"F",26,1,130,"5",70,24,171,"norm",15,79,79,889.083485603,1,1
"distr_stats",1,"F",26,1,130,"6",70,17,171,"norm",15,79,79,545.391553583,1,1
"distr_stats",1,"F",26,1,131,"0",159,0,91,"norm",10,68,-12,2623.50051656,1,1
"distr_stats",1,"F",26,1,131,"1",159,12,91,"norm",10,68,-12,717.434761068,1,1
"distr_stats",1,"F",26,1,131,"2",159,7,91,"norm",10,68,-12,951.671061711,1,1
"distr_stats",1,"F",26,1,131,"3",159,1,91,"norm",10,68,-12,592.560826038,1,1
"distr_stats",1,"F",26,1,131,"4",159,18,91,"norm",10,68,-12,967.424051124,1,1
"distr_stats",1,"F",26,1,132,"0",77,2,151,"norm",5,-74,-14,779.987529857,1,1
"distr_stats",1,"F",26,1,132,"1",77,35,151,"norm",5,-74,-14,545.420113434,1,1
"distr_stats",1,"F",26,1,132,"2",77,27,151,"norm",5,-74,-14,748.614532839,1,1
"distr_stats",1,"F",26,1,132,"3",77,32,151,"norm",5,-74,-14,842.417580532,1,1
"distr_stats",1,"F",26,1,132,"4",77,12,151,"norm",5,-74,-14,545.410295985,1,1
"distr_stats",1,"F",26,1,133,"0",98,28,31,"norm",10,67,-53,592.389913176,1,1
"distr_stats",1,"F",26,1,133,"1",98,27,31,"norm",10,67,-53,1451.65499679,1,1
"distr_stats",1,"F",26,1,133,"2",98,23,31,"norm",10,67,-53,764.190808171,1,1
"distr_stats",1,"F",26,1,133,"3",98,2,31,"norm",10,67,-53,686.172433476,1,1
"distr_stats",1,"F",26,1,133,"4",98,12,31,"norm",10,67,-53,592.476485226,1,1
"distr_stats",1,"F",26,1,133,"5",98,19,31,"norm",10,67,-53,811.157930426,1,1
"distr_stats",1,"F",26,1,134,"0",145,11,51,"norm",15,-86,-66,686.201885823,1,1
"distr_stats",1,"F",26,1,134,"1",145,8,51,"norm",15,-86,-66,764.54512883,1,1
"distr_stats",1,"F",26,1,134,"2",145,10,51,"norm",15,-86,-66,717.444578517,1,1
"distr_stats",1,"F",26,1,134,"3",145,25,51,"norm",15,-86,-66,592.527357462,1,1
"distr_stats",1,"F",26,1,134,"4",145,4,51,"norm",15,-86,-66,623.529522656,1,1
"distr_stats",1,"F",26,1,135,"0",176,23,111,"norm",5,65,-55,638.987096104,1,1
"distr_stats",1,"F",26,1,135,"1",176,24,111,"norm",5,65,-55,654.901627178,1,1
"distr_stats",1,"F",26,1,135,"2",176,20,111,"norm",5,65,-55,1389.20798871,1,1
"distr_stats",1,"F",26,1,135,"3",176,23,111,"norm",5,65,-55,639.17452013,1,1
"distr_stats",1,"F",26,1,135,"4",176,13,111,"norm",5,65,-55,607.99831834,1,1
"distr_stats",1,"F",26,1,135,"5",176,28,111,"norm",5,65,-55,607.952354829,1,1
"distr_stats",1,"F",26,1,136,"0",114,3,11,"norm",15,-77,3,2123.63483711,1,1
"distr_stats",1,"F",26,1,136,"1",114,31,11,"norm",15,-77,3,655.283615194,1,1
"distr_stats",1,"F",26,1,136,"2",114,7,11,"norm",15,-77,3,561.344908205,1,1
"distr_stats",1,"F",26,1,136,"3",114,20,11,"norm",15,-77,3,701.692035352,1,1
"distr_stats",1,"F",26,1,136,"4",114,7,11,"norm",15,-77,3,654.796758973,1,1
"distr_stats",1,"F",26,1,136,"5",114,35,11,"norm",15,-77,3,686.038559172,1,1
"distr_stats",1,"F",26,1,136,"6",114,33,11,"norm",15,-77,3,717.455734709,1,1
"distr_stats",1,"F",26,1,137,"0",106,29,31,"norm",10,75,-85,686.204117061,1,1
"distr_stats",1,"F",26,1,137,"1",106,4,31,"norm",10,75,-85,607.975113461,1,1
"distr_stats",1,"F",26,1,137,"2",106,5,31,"norm",10,75,-85,967.478939589,1,1
"distr_stats",1,"F",26,1,137,"3",106,6,31,"norm",10,75,-85,1279.9317489,1,1
"distr_stats",1,"F",26,1,137,"4",106,20,31,"norm",10,75,-85,873.615648458,1,1
"distr_stats",1,"F",26,1,137,"5",106,12,31,"norm",10,75,-85,592.451941604,1,1
"distr_stats",1,"F",26,1,137,"6",106,31,31,"norm",10,75,-85,1014.17072703,1,1
"distr_stats",1,"F",26,1,138,"0",85,4,11,"norm",15,74,54,670.406949128,1,1
"distr_stats",1,"F",26,1,138,"1",85,10,11,"norm",15,74,54,2342.27612002,1,1
"distr_stats",1,"F",26,1,138,"2",85,18,11,"norm",15,74,54,811.160607912,1,1
"distr_stats",1,"F",26,1,138,"3",85,30,11,"norm",15,74,54,639.203079982,1,1
"distr_stats",1,"F",26,1,138,"4",85,3,11,"norm",15,74,54,773.103713118,1,1
"distr_stats",1,"F",26,1,139,"0",3,6,91,"norm",5,-88,-8,904.879761042,1,1
"distr_stats",1,"F",26,1,139,"1",3,23,91,"norm",5,-88,-8,592.275227522,1,1
"distr_stats",1,"F",26,1,139,"2",3,16,91,"norm",5,-88,-8,701.689357866,1,1
"distr_stats",1,"F",26,1,139,"3",3,1,91,"norm",5,-88,-8,576.64897245,1,1
"distr_stats",1,"F",26,1,139,"4",3,33,91,"norm",5,-88,-8,748.515465854,1,1
"distr_stats",1,"F",26,1,139,"5",3,24,91,"norm",5,-88,-8,811.21505013,1,1
"distr_stats",1,"F",26,1,140,"0",104,12,11,"norm",10,-87,13,639.27849584,1,1
"distr_stats",1,"F",26,1,140,"1",104,12,11,"norm",10,-87,13,920.426137778,1,1
"distr_stats",1,"F",26,1,140,"2",104,22,11,"norm",10,-87,13,529.962986234,1,1
"distr_stats",1,"F",26,1,140,"3",104,20,11,"norm",10,-87,13,1311.25119619,1,1
"distr_stats",1,"F",26,1,140,"4",104,25,11,"norm",10,-87,13,1061.18738277,1,1
"distr_stats",1,"F",26,1,140,"5",104,32,11,"norm",10,-87,13,998.708244853,1,1
"distr_stats",1,"F",26,1,140,"6",104,20,11,"norm",10,-87,13,686.039451667,1,1
"distr_stats",1,"F",26,1,141,"0",42,9,131,"norm",15,-89,31,623.738812819,1,1
"distr_stats",1,"F",26,1,141,"1",42,11,131,"norm",15,-89,31,529.962093739,1,1
"distr_stats",1,"F",26,1,141,"2",42,30,131,"norm",15,-89,31,686.496409293,1,1
"distr_stats",1,"F",26,1,141,"3",42,26,131,"norm",15,-89,31,717.27277316,1,1
"distr_stats",1,"F",26,1,141,"4",42,25,131,"norm",15,-89,31,623.649117035,1,1
"distr_stats",1,"F",26,1,141,"5",42,7,131,"norm",15,-89,31,545.421452177,1,1
"distr_stats",1,"F",26,1,142,"0",107,18,11,"norm",5,-84,-24,857.976005957,1,1
"distr_stats",1,"F",26,1,142,"1",107,23,11,"norm",5,-84,-24,545.416989701,1,1
"distr_stats",1,"F",26,1,142,"2",107,6,11,"norm",5,-84,-24,592.459527814,1,1
"distr_stats",1,"F",26,1,142,"3",107,27,11,"norm",5,-84,-24,717.396383768,0,1
"distr_stats",1,"F",26,1,142,"4",107,7,11,"norm",5,-84,-24,498.565445594,1,0
"distr_stats",1,"F",26,1,142,"5",107,22,11,"norm",5,-84,-24,498.59132796,1,1
"distr_stats",1,"F",26,1,143,"0",74,30,171,"norm",10,83,63,717.501251973,1,1
"distr_stats",1,"F",26,1,143,"1",74,3,171,"norm",10,83,63,1076.69181223,1,1
"distr_stats",1,"F",26,1,143,"2",74,0,171,"norm",10,83,63,1076.62710631,1,1
"distr_stats",1,"F",26,1,143,"3",74,3,171,"norm",10,83,63,1905.01452784,1,1
"distr_stats",1,"F",26,1,143,"4",74,19,171,"norm",10,83,63,1264.17429701,1,1
"distr_stats",1,"F",26,1,143,"5",74,25,171,"norm",10,83,63,1107.93138119,1,1
"distr_stats",1,"F",26,1,144,"0",84,11,171,"norm",15,-87,-87,1201.59118338,1,1
"distr_stats",1,"F",26,1,144,"1",84,5,171,"norm",15,-87,-87,4013.94894193,1,1
"distr_stats",1,"F",26,1,144,"2",84,22,171,"norm",15,-87,-87,764.205534344,1,1
"distr_stats",1,"F",26,1,144,"3",84,16,171,"norm",15,-87,-87,904.855663667,1,1
"distr_stats",1,"F",26,1,144,"4",84,27,171,"norm",15,-87,-87,623.558082508,1,1
"distr_stats",1,"F",26,1,145,"0",51,9,151,"norm",5,80,60,842.618838237,1,1
"distr_stats",1,"F",26,1,145,"1",51,7,151,"norm",5,80,60,592.298432401,1,1
"distr_stats",1,"F",26,1,145,"2",51,15,151,"norm",5,80,60,732.971766604,1,1
"distr_stats",1,"F",26,1,145,"3",51,17,151,"norm",5,80,60,561.06109468,1,1
"distr_stats",1,"F",26,1,145,"4",51,35,151,"norm",5,80,60,576.706984649,1,1
"distr_stats",1,"F",26,1,146,"0",114,11,11,"norm",10,-77,-37,1389.33784678,1,1
"distr_stats",1,"F",26,1,146,"1",114,12,11,"norm",10,-77,-37,592.199365416,1,1
"distr_stats",1,"F",26,1,146,"2",114,2,11,"norm",10,-77,-37,732.7798801,1,1
"distr_stats",1,"F",26,1,146,"3",114,6,11,"norm",10,-77,-37,561.285557263,1,1
"distr_stats",1,"F",26,1,146,"4",114,20,11,"norm",10,-77,-37,623.60583101,1,1
"distr_stats",1,"F",26,1,146,"5",114,12,11,"norm",10,-77,-37,592.694254095,1,1
"distr_stats",1,"F",26,1,146,"6",114,34,11,"norm",10,-77,-37,654.989537971,1,1
"distr_stats",1,"F",26,1,147,"0",108,32,171,"norm",5,-63,-83,1139.16336394,1,1
"distr_stats",1,"F",26,1,147,"1",108,2,171,"norm",5,-63,-83,561.216388873,1,1
"distr_stats",1,"F",26,1,147,"2",108,5,171,"norm",5,-63,-83,607.976898452,1,1
"distr_stats",1,"F",26,1,147,"3",108,28,171,"norm",5,-63,-83,576.669053596,1,1
"distr_stats",1,"F",26,1,147,"4",108,25,171,"norm",5,-63,-83,1107.88943391,1,1
"distr_stats",1,"F",26,1,147,"5",108,13,171,"norm",5,-63,-83,592.456404081,1,1
"distr_stats",1,"F",26,1,147,"6",108,29,171,"norm",5,-63,-83,592.259162606,1,1
"distr_stats",1,"F",26,1,148,"0",12,29,91,"norm",10,-79,21,873.527737665,1,1
"distr_stats",1,"F",26,1,148,"1",12,3,91,"norm",10,-79,21,686.128701203,1,1
"distr_stats",1,"F",26,1,148,"2",12,34,91,"norm",10,-79,21,1982.94320675,1,1
"distr_stats",1,"F",26,1,148,"3",12,14,91,"norm",10,-79,21,748.697088661,1,1
"distr_stats",1,"F",26,1,148,"4",12,8,91,"norm",10,-79,21,1686.25989802,1,1
"distr_stats",1,"F",26,1,148,"5",12,9,91,"norm",10,-79,21,717.381657594,0,1
"distr_stats",1,"F",26,1,149,"0",14,12,111,"norm",5,83,-77,623.693295555,1,0
"distr_stats",1,"F",26,1,149,"1",14,6,111,"norm",5,83,-77,576.64138624,1,1
"distr_stats",1,"F",26,1,149,"2",14,35,111,"norm",5,83,-77,561.294482217,1,1
"distr_stats",1,"F",26,1,149,"3",14,31,111,"norm",5,83,-77,1498.81936053,1,1
"distr_stats",1,"F",26,1,149,"4",14,28,111,"norm",5,83,-77,639.210219945,1,1
"distr_stats",1,"F",26,1,149,"5",14,6,111,"norm",5,83,-77,685.955557103,1,1
"distr_stats",1,"F",26,1,150,"0",47,30,111,"norm",10,-64,-64,670.447557667,1,1
"distr_stats",1,"F",26,1,150,"1",47,17,111,"norm",10,-64,-64,592.514862527,1,1
"distr_stats",1,"F",26,1,150,"2",47,6,111,"norm",10,-64,-64,795.546847776,1,1
"distr_stats",1,"F",26,1,150,"3",47,22,111,"norm",10,-64,-64,639.178090112,1,1
"distr_stats",1,"F",26,1,150,"4",47,31,111,"norm",10,-64,-64,764.137704697,1,1
"distr_stats",1,"F",26,1,150,"5",47,33,111,"norm",10,-64,-64,873.737920323,1,1
"distr_stats",1,"F",26,1,151,"0",81,25,11,"norm",5,70,-30,623.749076515,1,1
"distr_stats",1,"F",26,1,151,"1",81,15,11,"norm",5,70,-30,967.547215484,1,1
"distr_stats",1,"F",26,1,151,"2",81,22,11,"norm",5,70,-30,561.138295528,1,1
"distr_stats",1,"F",26,1,151,"3",81,22,11,"norm",5,70,-30,545.529444117,1,1
"distr_stats",1,"F",26,1,151,"4",81,30,11,"norm",5,70,-30,623.517473969,1,1
"distr_stats",1,"F",26,1,151,"5",81,0,11,"norm",5,70,-30,623.523721436,1,1
"distr_stats",1,"F",26,1,151,"6",81,11,11,"norm",5,70,-30,607.938521151,1,1
"distr_stats",1,"F",26,1,152,"0",137,8,51,"norm",15,86,-54,1233.45906907,1,1
"distr_stats",1,"F",26,1,152,"1",137,6,51,"norm",15,86,-54,623.665181951,1,1
"distr_stats",1,"F",26,1,152,"2",137,3,51,"norm",15,86,-54,982.969981613,0,1
"distr_stats",1,"F",26,1,152,"3",137,14,51,"norm",15,86,-54,1061.07939083,1,0
"distr_stats",1,"F",26,1,152,"4",137,27,51,"norm",15,86,-54,1358.02420071,1,1
"distr_stats",1,"F",26,1,152,"5",137,29,51,"norm",15,86,-54,607.956817306,1,1
"distr_stats",1,"F",26,1,152,"6",137,32,51,"norm",15,86,-54,1092.20962911,1,1
"distr_stats",1,"F",26,1,153,"0",144,28,71,"norm",5,73,-87,607.865336532,1,1
"distr_stats",1,"F",26,1,153,"1",144,18,71,"norm",5,73,-87,529.874629193,1,1
"distr_stats",1,"F",26,1,153,"2",144,31,71,"norm",5,73,-87,576.691812228,1,1
"distr_stats",1,"F",26,1,153,"3",144,4,71,"norm",5,73,-87,1029.90363529,1,1
"distr_stats",1,"F",26,1,153,"4",144,24,71,"norm",5,73,-87,545.528551621,1,1
"distr_stats",1,"F",26,1,154,"0",154,27,51,"norm",10,-77,83,1389.25216723,1,1
"distr_stats",1,"F",26,1,154,"1",154,5,51,"norm",10,-77,83,592.439000421,1,1
"distr_stats",1,"F",26,1,154,"2",154,17,51,"norm",10,-77,83,592.389466929,1,1
"distr_stats",1,"F",26,1,154,"3",154,23,51,"norm",10,-77,83,576.701183429,1,1
"distr_stats",1,"F",26,1,154,"4",154,10,51,"norm",10,-77,83,623.61921844,1,1
"distr_stats",1,"F",26,1,154,"5",154,24,51,"norm",10,-77,83,623.399218333,1,1
"distr_stats",1,"F",26,1,155,"0",168,11,51,"norm",15,-63,-63,639.183445084,1,1
"distr_stats",1,"F",26,1,155,"1",168,24,51,"norm",15,-63,-63,1279.93755012,1,1
"distr_stats",1,"F",26,1,155,"2",168,4,51,"norm",15,-63,-63,1248.54447195,1,1
"distr_stats",1,"F",26,1,155,"3",168,24,51,"norm",15,-63,-63,1045.45849074,1,1
"distr_stats",1,"F",26,1,155,"4",168,31,51,"norm",15,-63,-63,842.417580533,1,1
"distr_stats",1,"F",26,1,156,"0",51,14,131,"norm",5,-80,0,1029.7764547,1,1
"distr_stats",1,"F",26,1,156,"1",51,35,131,"norm",5,-80,0,623.60583101,1,1
"distr_stats",1,"F",26,1,156,"2",51,33,131,"norm",5,-80,0,607.85016411,1,1
"distr_stats",1,"F",26,1,156,"3",51,33,131,"norm",5,-80,0,639.233424824,1,1
"distr_stats",1,"F",26,1,156,"4",51,28,131,"norm",5,-80,0,670.527882249,1,1
"distr_stats",1,"F",26,1,156,"5",51,21,131,"norm",5,-80,0,701.599215834,1,1
"distr_stats",1,"F",26,1,157,"0",77,24,11,"norm",10,66,-54,2420.48058,1,1
"distr_stats",1,"F",26,1,157,"1",77,12,11,"norm",10,66,-54,686.142088634,1,1
"distr_stats",1,"F",26,1,157,"2",77,10,11,"norm",10,66,-54,764.188130684,1,1
"distr_stats",1,"F",26,1,157,"3",77,18,11,"norm",10,66,-54,717.465552158,1,1
"distr_stats",1,"F",26,1,157,"4",77,1,11,"norm",10,66,-54,857.924687473,1,1
"distr_stats",1,"F",26,1,157,"5",77,15,11,"norm",10,66,-54,1217.4668909,1,1
"distr_stats",1,"F",26,1,158,"0",58,33,131,"norm",5,-73,47,1107.93718241,1,1
"distr_stats",1,"F",26,1,158,"1",58,35,131,"norm",5,-73,47,842.531373692,1,1
"distr_stats",1,"F",26,1,158,"2",58,6,131,"norm",5,-73,47,1029.88578538,1,1
"distr_stats",1,"F",26,1,158,"3",58,34,131,"norm",5,-73,47,545.414312214,1,1
"distr_stats",1,"F",26,1,158,"4",58,13,131,"norm",5,-73,47,545.368794951,1,1
"distr_stats",1,"F",26,1,158,"5",58,10,131,"norm",5,-73,47,1014.31709626,1,1
"distr_stats",1,"F",26,1,159,"0",43,3,131,"norm",15,-88,-88,748.565891842,1,1
"distr_stats",1,"F",26,1,159,"1",43,28,131,"norm",15,-88,-88,654.903412169,1,1
"distr_stats",1,"F",26,1,159,"2",43,6,131,"norm",15,-88,-88,576.806497882,1,1
"distr_stats",1,"F",26,1,159,"3",43,6,131,"norm",15,-88,-88,639.174966378,1,1
"distr_stats",1,"F",26,1,159,"4",43,30,131,"norm",15,-88,-88,655.009172869,1,1
"distr_stats",1,"F",26,1,160,"0",55,1,131,"norm",5,-76,-76,748.551165669,1,1
"distr_stats",1,"F",26,1,160,"1",55,6,131,"norm",5,-76,-76,576.751609417,1,1
"distr_stats",1,"F",26,1,160,"2",55,23,131,"norm",5,-76,-76,608.034464403,1,1
"distr_stats",1,"F",26,1,160,"3",55,30,131,"norm",5,-76,-76,774.024768333,1,1
"distr_stats",1,"F",26,1,160,"4",55,14,131,"norm",5,-76,-76,1514.24658913,1,1
"distr_stats",1,"F",26,1,161,"0",40,16,151,"norm",15,69,89,1748.55161192,1,1
"distr_stats",1,"F",26,1,161,"1",40,6,151,"norm",15,69,89,732.849048491,1,1
"distr_stats",1,"F",26,1,161,"2",40,21,151,"norm",15,69,89,654.792742744,1,1
"distr_stats",1,"F",26,1,161,"3",40,33,151,"norm",15,69,89,623.448305578,1,1
"distr_stats",1,"F",26,1,161,"4",40,2,151,"norm",15,69,89,1045.40538726,1,1
"distr_stats",1,"F",26,1,161,"5",40,8,151,"norm",15,69,89,670.414089091,1,1
"distr_stats",1,"F",26,1,162,"0",122,19,51,"norm",10,71,-29,654.911890875,1,1
"distr_stats",1,"F",26,1,162,"1",122,11,51,"norm",10,71,-29,686.126023717,1,1
"distr_stats",1,"F",26,1,162,"2",122,8,51,"norm",10,71,-29,840.521920381,1,1
"distr_stats",1,"F",26,1,162,"3",122,19,51,"norm",10,71,-29,592.419365523,1,1
"distr_stats",1,"F",26,1,162,"4",122,22,51,"norm",10,71,-29,639.24770475,1,1
"distr_stats",1,"F",26,1,162,"5",122,28,51,"norm",10,71,-29,561.109735677,1,1
"distr_stats",1,"F",26,1,163,"0",60,4,171,"norm",15,69,9,1482.97087411,1,1
"distr_stats",1,"F",26,1,163,"1",60,1,171,"norm",15,69,9,842.349304637,1,1
"distr_stats",1,"F",26,1,163,"2",60,31,171,"norm",15,69,9,905.017651575,1,1
"distr_stats",1,"F",26,1,163,"3",60,0,171,"norm",15,69,9,592.500582602,1,1
"distr_stats",1,"F",26,1,163,"4",60,27,171,"norm",15,69,9,576.650311194,1,1
"distr_stats",1,"F",26,1,164,"0",131,17,51,"norm",10,80,-40,623.709360472,1,1
"distr_stats",1,"F",26,1,164,"1",131,23,51,"norm",10,80,-40,639.598455428,1,1
"distr_stats",1,"F",26,1,164,"2",131,34,51,"norm",10,80,-40,545.418328444,1,1
"distr_stats",1,"F",26,1,164,"3",131,20,51,"norm",10,80,-40,811.28421852,1,1
"distr_stats",1,"F",26,1,164,"4",131,29,51,"norm",10,80,-40,514.1948244,1,1
"distr_stats",1,"F",26,1,164,"5",131,10,51,"norm",10,80,-40,607.981360929,1,1
"distr_stats",1,"F",26,1,165,"0",174,9,91,"norm",15,83,-57,1623.70891422,1,1
"distr_stats",1,"F",26,1,165,"1",174,1,91,"norm",15,83,-57,1092.48719517,1,1
"distr_stats",1,"F",26,1,165,"2",174,23,91,"norm",15,83,-57,1795.43439336,1,1
"distr_stats",1,"F",26,1,165,"3",174,18,91,"norm",15,83,-57,795.522304153,1,1
"distr_stats",1,"F",26,1,165,"4",174,2,91,"norm",15,83,-57,842.340379683,1,1
"distr_stats",1,"F",26,1,166,"0",98,20,31,"norm",5,67,7,732.938744275,1,1
"distr_stats",1,"F",26,1,166,"1",98,9,31,"norm",5,67,7,686.229106931,1,1
"distr_stats",1,"F",26,1,166,"2",98,10,31,"norm",5,67,7,529.867042982,1,1
"distr_stats",1,"F",26,1,166,"3",98,29,31,"norm",5,67,7,592.392144415,1,1
"distr_stats",1,"F",26,1,166,"4",98,32,31,"norm",5,67,7,561.052615974,1,1
"distr_stats",1,"F",26,1,166,"5",98,19,31,"norm",5,67,7,623.624127164,1,1
"distr_stats",1,"F",26,1,166,"6",98,27,31,"norm",5,67,7,514.142167173,1,1
"distr_stats",1,"F",26,1,167,"0",174,24,91,"norm",10,83,-37,1373.32692621,1,1
"distr_stats",1,"F",26,1,167,"1",174,1,91,"norm",10,83,-37,561.49797116,1,1
"distr_stats",1,"F",26,1,167,"2",174,6,91,"norm",10,83,-37,920.329748279,1,1
"distr_stats",1,"F",26,1,167,"3",174,2,91,"norm",10,83,-37,592.260501349,1,1
"distr_stats",1,"F",26,1,167,"4",174,19,91,"norm",10,83,-37,639.308394435,1,1
"distr_stats",1,"F",26,1,167,"5",174,28,91,"norm",10,83,-37,686.068011519,1,1
"distr_stats",1,"F",26,1,168,"0",9,15,71,"norm",15,-62,-82,576.706984649,1,1
"distr_stats",1,"F",26,1,168,"1",9,11,71,"norm",15,-62,-82,1186.04168291,1,1
"distr_stats",1,"F",26,1,168,"2",9,26,71,"norm",15,-62,-82,967.063036749,0,1
"distr_stats",1,"F",26,1,168,"3",9,12,71,"norm",15,-62,-82,1092.63981188,1,0
"distr_stats",1,"F",26,1,168,"4",9,11,71,"norm",15,-62,-82,1951.58761339,1,1
"distr_stats",1,"F",26,1,168,"5",9,11,71,"norm",15,-62,-82,607.9773447,1,1
"distr_stats",1,"F",26,1,169,"0",83,5,171,"norm",10,-88,12,1357.92781121,1,1
"distr_stats",1,"F",26,1,169,"1",83,8,171,"norm",10,-88,12,967.264740701,1,1
"distr_stats",1,"F",26,1,169,"2",83,24,171,"norm",10,-88,12,576.665929862,1,1
"distr_stats",1,"F",26,1,169,"3",83,17,171,"norm",10,-88,12,764.49693408,1,1
"distr_stats",1,"F",26,1,169,"4",83,3,171,"norm",10,-88,12,748.709583596,0,1
"distr_stats",1,"F",26,1,169,"5",83,19,171,"norm",10,-88,12,608.002780818,1,0
"distr_stats",1,"F",26,1,170,"0",166,21,51,"norm",15,-65,-5,764.187238189,1,1
"distr_stats",1,"F",26,1,170,"1",166,4,51,"norm",15,-65,-5,592.339040941,1,1
"distr_stats",1,"F",26,1,170,"2",166,9,51,"norm",15,-65,-5,1279.92282394,1,1
"distr_stats",1,"F",26,1,170,"3",166,6,51,"norm",15,-65,-5,670.377050533,1,1
"distr_stats",1,"F",26,1,170,"4",166,15,51,"norm",15,-65,-5,701.523353728,1,1
"distr_stats",1,"F",26,1,170,"5",166,23,51,"norm",15,-65,-5,1123.96952287,1,1
"distr_stats",1,"F",26,1,171,"0",169,34,91,"norm",10,78,-62,1060.92097291,1,1
"distr_stats",1,"F",26,1,171,"1",169,10,91,"norm",10,78,-62,592.422935505,1,1
"distr_stats",1,"F",26,1,171,"2",169,32,91,"norm",10,78,-62,748.573478053,1,1
"distr_stats",1,"F",26,1,171,"3",169,5,91,"norm",10,78,-62,664.781550852,1,1
"distr_stats",1,"F",26,1,171,"4",169,20,91,"norm",10,78,-62,764.119408541,1,1
"distr_stats",1,"F",26,1,171,"5",169,27,91,"norm",10,78,-62,1030.18387884,0,1
"distr_stats",1,"F",26,1,171,"6",169,7,91,"norm",10,78,-62,529.930856401,1,0
"distr_stats",1,"F",26,1,172,"0",6,3,71,"norm",15,-65,-85,702.066437157,1,1
"distr_stats",1,"F",26,1,172,"1",6,7,71,"norm",15,-65,-85,654.713310656,1,1
"distr_stats",1,"F",26,1,172,"2",6,10,71,"norm",15,-65,-85,1139.26109218,1,1
"distr_stats",1,"F",26,1,172,"3",6,23,71,"norm",15,-65,-85,576.711893373,1,1
"distr_stats",1,"F",26,1,172,"4",6,32,71,"norm",15,-65,-85,1107.96529601,1,1
"distr_stats",1,"F",26,1,172,"5",6,30,71,"norm",15,-65,-85,1670.28199978,1,1
"distr_stats",1,"F",26,1,173,"0",159,23,91,"norm",5,68,88,826.723495813,1,1
"distr_stats",1,"F",26,1,173,"1",159,3,91,"norm",5,68,88,560.912940449,1,1
"distr_stats",1,"F",26,1,173,"2",159,17,91,"norm",5,68,88,655.036393978,1,1
"distr_stats",1,"F",26,1,173,"3",159,20,91,"norm",5,68,88,717.542753007,1,1
"distr_stats",1,"F",26,1,173,"4",159,34,91,"norm",5,68,88,779.741201136,1,1
"distr_stats",1,"F",26,1,173,"5",159,14,91,"norm",5,68,88,717.43833105,1,1
"distr_stats",1,"F",26,1,174,"0",162,0,51,"norm",10,-69,71,654.820856347,1,1
"distr_stats",1,"F",26,1,174,"1",162,11,51,"norm",10,-69,71,638.965676215,1,1
"distr_stats",1,"F",26,1,174,"2",162,23,51,"norm",10,-69,71,529.98306738,1,1
"distr_stats",1,"F",26,1,174,"3",162,31,51,"norm",10,-69,71,701.724165185,1,1
"distr_stats",1,"F",26,1,174,"4",162,31,51,"norm",10,-69,71,732.976675328,1,1
"distr_stats",1,"F",26,1,174,"5",162,31,51,"norm",10,-69,71,561.13606429,1,1
"distr_stats",1,"F",26,1,175,"0",11,7,131,"norm",15,60,-40,998.636845223,1,1
"distr_stats",1,"F",26,1,175,"1",11,29,131,"norm",15,60,-40,545.368794951,1,1
"distr_stats",1,"F",26,1,175,"2",11,3,131,"norm",15,60,-40,670.536807203,0,1
"distr_stats",1,"F",26,1,175,"3",11,31,131,"norm",15,60,-40,639.159347709,1,0
"distr_stats",1,"F",26,1,175,"4",11,32,131,"norm",15,60,-40,701.685341636,1,1
"distr_stats",1,"F",26,1,175,"5",11,10,131,"norm",15,60,-40,543.388793987,1,1
"distr_stats",1,"F",26,1,176,"0",83,13,151,"norm",5,-68,-48,561.060648432,1,1
"distr_stats",1,"F",26,1,176,"1",83,26,151,"norm",5,-68,-48,623.57102369,1,1
"distr_stats",1,"F",26,1,176,"2",83,23,151,"norm",5,-68,-48,514.238110425,1,1
"distr_stats",1,"F",26,1,176,"3",83,25,151,"norm",5,-68,-48,655.122966028,1,1
"distr_stats",1,"F",26,1,176,"4",83,5,151,"norm",5,-68,-48,811.180689058,1,1
"distr_stats",1,"F",26,1,176,"5",83,10,151,"norm",5,-68,-48,686.228660684,1,1
"distr_stats",1,"F",26,1,177,"0",54,13,151,"norm",15,83,83,607.9483386,1,1
"distr_stats",1,"F",26,1,177,"1",54,19,151,"norm",15,83,83,545.870377345,1,1
"distr_stats",1,"F",26,1,177,"2",54,17,151,"norm",15,83,83,701.72505768,1,1
"distr_stats",1,"F",26,1,177,"3",54,9,151,"norm",15,83,83,826.711893374,1,1
"distr_stats",1,"F",26,1,177,"4",54,15,151,"norm",15,83,83,639.350341717,1,1
"distr_stats",1,"F",26,1,177,"5",54,20,151,"norm",15,83,83,561.217281368,1,1
"distr_stats",1,"F",26,1,177,"6",54,0,151,"norm",15,83,83,576.677086054,1,1
"distr_stats",1,"F",26,1,178,"0",118,27,31,"norm",10,87,-33,2155.00604914,1,1
"distr_stats",1,"F",26,1,178,"1",118,11,31,"norm",10,87,-33,623.920435625,1,1
"distr_stats",1,"F",26,1,178,"2",118,1,31,"norm",10,87,-33,730.850305125,1,1
"distr_stats",1,"F",26,1,178,"3",118,22,31,"norm",10,87,-33,732.813348677,1,1
"distr_stats",1,"F",26,1,178,"4",118,15,31,"norm",10,87,-33,670.496198664,1,1
"distr_stats",1,"F",26,1,178,"5",118,34,31,"norm",10,87,-33,545.098368856,1,1
"distr_stats",1,"F",26,1,179,"0",124,4,51,"norm",5,73,-87,576.686903504,1,1
"distr_stats",1,"F",26,1,179,"1",124,2,51,"norm",5,73,-87,826.703860915,1,1
"distr_stats",1,"F",26,1,179,"2",124,8,51,"norm",5,73,-87,576.668161101,1,1
"distr_stats",1,"F",26,1,179,"3",124,21,51,"norm",5,73,-87,764.14082843,1,1
"distr_stats",1,"F",26,1,179,"4",124,24,51,"norm",5,73,-87,592.257377615,1,1
"distr_stats",1,"F",26,1,180,"0",104,9,171,"norm",15,-67,53,2061.25342743,1,1
"distr_stats",1,"F",26,1,180,"1",104,11,171,"norm",15,-67,53,670.469423803,1,1
"distr_stats",1,"F",26,1,180,"2",104,9,171,"norm",15,-67,53,670.524312268,1,1
"distr_stats",1,"F",26,1,180,"3",104,33,171,"norm",15,-67,53,1108.12862266,1,1
"distr_stats",1,"F",26,1,180,"4",104,24,171,"norm",15,-67,53,576.744469455,0,1
"distr_stats",1,"F",26,1,180,"5",104,7,171,"norm",15,-67,53,1076.75562565,1,0
"distr_stats",1,"F",26,1,181,"0",28,17,131,"norm",10,77,37,529.921038952,1,1
"distr_stats",1,"F",26,1,181,"1",28,23,131,"norm",10,77,37,529.819740728,1,1
"distr_stats",1,"F",26,1,181,"2",28,17,131,"norm",10,77,37,529.895602834,1,1
"distr_stats",1,"F",26,1,181,"3",28,27,131,"norm",10,77,37,561.15525294,1,1
"distr_stats",1,"F",26,1,181,"4",28,27,131,"norm",10,77,37,545.525427887,1,1
"distr_stats",1,"F",26,1,181,"5",28,33,131,"norm",10,77,37,623.659826979,1,1
"distr_stats",1,"F",26,1,181,"6",28,30,131,"norm",10,77,37,701.692481599,1,1
"distr_stats",1,"F",26,1,182,"0",157,21,71,"norm",15,86,26,1638.99691355,1,1
"distr_stats",1,"F",26,1,182,"1",157,11,71,"norm",15,86,26,670.607314337,1,1
"distr_stats",1,"F",26,1,182,"2",157,16,71,"norm",15,86,26,607.981360929,1,1
"distr_stats",1,"F",26,1,182,"3",157,11,71,"norm",15,86,26,1764.04354644,1,1
"distr_stats",1,"F",26,1,182,"4",157,20,71,"norm",15,86,26,951.724165185,1,1
"distr_stats",1,"F",26,1,183,"0",162,2,51,"norm",10,-69,-89,592.524679976,1,1
"distr_stats",1,"F",26,1,183,"1",162,31,51,"norm",10,-69,-89,639.171396397,1,1
"distr_stats",1,"F",26,1,183,"2",162,12,51,"norm",10,-69,-89,639.209327449,1,1
"distr_stats",1,"F",26,1,183,"3",162,35,51,"norm",10,-69,-89,670.410965357,1,1
"distr_stats",1,"F",26,1,183,"4",162,3,51,"norm",10,-69,-89,655.012296603,1,1
"distr_stats",1,"F",26,1,183,"5",162,15,51,"norm",10,-69,-89,701.656335537,1,1
"distr_stats",1,"F",26,1,184,"0",37,21,151,"norm",15,66,-14,842.552347332,1,1
"distr_stats",1,"F",26,1,184,"1",37,9,151,"norm",15,66,-14,2545.43885584,1,1
"distr_stats",1,"F",26,1,184,"2",37,26,151,"norm",15,66,-14,904.898057196,1,1
"distr_stats",1,"F",26,1,184,"3",37,8,151,"norm",15,66,-14,654.788726514,1,1
"distr_stats",1,"F",26,1,184,"4",37,27,151,"norm",15,66,-14,1139.16648767,1,1
"distr_stats",1,"F",26,1,184,"5",37,13,151,"norm",15,66,-14,2139.18299884,1,1
"distr_stats",1,"F",26,1,184,"6",37,31,151,"norm",15,66,-14,857.967081003,1,1
"distr_stats",1,"F",26,1,185,"0",131,2,71,"norm",5,60,-20,889.286528298,1,1
"distr_stats",1,"F",26,1,185,"1",131,8,71,"norm",5,60,-20,654.743209251,1,1
"distr_stats",1,"F",26,1,185,"2",131,8,71,"norm",5,60,-20,967.287053086,1,1
"distr_stats",1,"F",26,1,185,"3",131,31,71,"norm",5,60,-20,607.926026216,1,1
"distr_stats",1,"F",26,1,185,"4",131,8,71,"norm",5,60,-20,576.681994779,1,1
"distr_stats",1,"F",26,1,185,"5",131,18,71,"norm",5,60,-20,748.735912209,1,1
"distr_stats",1,"F",26,1,186,"0",168,28,71,"norm",10,-83,-83,1296.13500222,1,1
"distr_stats",1,"F",26,1,186,"1",168,25,71,"norm",10,-83,-83,717.306241736,1,1
"distr_stats",1,"F",26,1,186,"2",168,7,71,"norm",10,-83,-83,1029.88667788,1,1
"distr_stats",1,"F",26,1,186,"3",168,35,71,"norm",10,-83,-83,654.830673796,1,1
"distr_stats",1,"F",26,1,186,"4",168,14,71,"norm",10,-83,-83,1076.71814084,1,1
"distr_stats",1,"F",26,1,186,"5",168,33,71,"norm",10,-83,-83,920.440417704,0,1
"distr_stats",1,"F",26,1,186,"6",168,12,71,"norm",10,-83,-83,1420.50333863,1,0
"distr_stats",1,"F",26,1,187,"0",21,15,131,"norm",15,70,-50,1311.37212931,1,1
"distr_stats",1,"F",26,1,187,"1",21,9,131,"norm",15,70,-50,592.463097796,1,1
"distr_stats",1,"F",26,1,187,"2",21,8,131,"norm",15,70,-50,764.329144952,1,1
"distr_stats",1,"F",26,1,187,"3",21,1,131,"norm",15,70,-50,623.733457846,1,1
"distr_stats",1,"F",26,1,187,"4",21,8,131,"norm",15,70,-50,1029.79207337,1,1
"distr_stats",1,"F",26,1,187,"5",21,9,131,"norm",15,70,-50,982.977567823,1,1
"distr_stats",1,"F",26,1,188,"0",138,8,71,"norm",5,67,7,686.408052252,1,1
"distr_stats",1,"F",26,1,188,"1",138,22,71,"norm",5,67,7,654.986414238,1,1
"distr_stats",1,"F",26,1,188,"2",138,15,71,"norm",5,67,7,701.695605333,1,1
"distr_stats",1,"F",26,1,188,"3",138,3,71,"norm",5,67,7,967.431191087,1,1
"distr_stats",1,"F",26,1,188,"4",138,12,71,"norm",5,67,7,1123.86376217,1,1
"distr_stats",1,"F",26,1,189,"0",75,34,11,"norm",10,64,4,1264.23141671,1,1
"distr_stats",1,"F",26,1,189,"1",75,11,11,"norm",10,64,4,638.974601169,1,1
"distr_stats",1,"F",26,1,189,"2",75,6,11,"norm",10,64,4,1420.48548872,1,1
"distr_stats",1,"F",26,1,189,"3",75,8,11,"norm",10,64,4,2826.65343493,1,1
"distr_stats",1,"F",26,1,189,"4",75,23,11,"norm",10,64,4,1076.69672095,1,1
"distr_stats",1,"F",26,1,189,"5",75,9,11,"norm",10,64,4,655.074325031,1,1
"distr_stats",1,"F",26,1,189,"6",75,12,11,"norm",10,64,4,1186.08898516,1,1
"distr_stats",1,"F",26,1,190,"0",19,18,131,"norm",15,68,8,3108.00411956,1,1
"distr_stats",1,"F",26,1,190,"1",19,32,131,"norm",15,68,8,2592.39125192,1,1
"distr_stats",1,"F",26,1,190,"2",19,30,131,"norm",15,68,8,998.658265112,1,1
"distr_stats",1,"F",26,1,190,"3",19,19,131,"norm",15,68,8,1076.783293,1,1
"distr_stats",1,"F",26,1,190,"4",19,10,131,"norm",15,68,8,670.511371085,1,1
"distr_stats",1,"F",26,1,191,"0",48,32,151,"norm",5,77,-83,1139.20531122,1,1
"distr_stats",1,"F",26,1,191,"1",48,27,151,"norm",5,77,-83,841.314010015,1,1
"distr_stats",1,"F",26,1,191,"2",48,9,151,"norm",5,77,-83,764.151092127,1,1
"distr_stats",1,"F",26,1,191,"3",48,32,151,"norm",5,77,-83,1014.24792787,1,1
"distr_stats",1,"F",26,1,191,"4",48,13,151,"norm",5,77,-83,576.734652005,1,1
"distr_stats",1,"F",26,1,191,"5",48,3,151,"norm",5,77,-83,982.986492777,1,1
"distr_stats",1,"F",26,1,192,"0",130,19,31,"norm",15,-81,-21,732.988724016,1,1
"distr_stats",1,"F",26,1,192,"1",130,5,31,"norm",15,-81,-21,795.485711843,1,1
"distr_stats",1,"F",26,1,192,"2",130,8,31,"norm",15,-81,-21,1139.2472585,1,1
"distr_stats",1,"F",26,1,192,"3",130,12,31,"norm",15,-81,-21,592.568412249,1,1
"distr_stats",1,"F",26,1,192,"4",130,3,31,"norm",15,-81,-21,935.719938327,1,1
"distr_stats",1,"F",26,1,193,"0",174,16,91,"norm",5,83,-37,1014.68391186,1,1
"distr_stats",1,"F",26,1,193,"1",174,6,91,"norm",5,83,-37,733.000772703,1,1
"distr_stats",1,"F",26,1,193,"2",174,27,91,"norm",5,83,-37,873.649563282,1,1
"distr_stats",1,"F",26,1,193,"3",174,12,91,"norm",5,83,-37,795.442872066,1,1
"distr_stats",1,"F",26,1,193,"4",174,31,91,"norm",5,83,-37,779.756373558,1,1
"distr_stats",1,"F",26,1,193,"5",174,24,91,"norm",5,83,-37,623.747291525,1,1
"distr_stats",1,"F",26,1,194,"0",120,12,51,"norm",15,69,29,686.278194177,1,1
"distr_stats",1,"F",26,1,194,"1",120,27,51,"norm",15,69,29,873.695973041,1,1
"distr_stats",1,"F",26,1,194,"2",120,28,51,"norm",15,69,29,623.596906056,1,1
"distr_stats",1,"F",26,1,194,"3",120,27,51,"norm",15,69,29,842.37563325,1,1
"distr_stats",1,"F",26,1,194,"4",120,5,51,"norm",15,69,29,717.292408058,1,1
"distr_stats",1,"F",26,1,194,"5",120,6,51,"norm",15,69,29,795.433500865,1,1
"distr_stats",1,"F",26,1,195,"0",103,11,11,"norm",10,-88,52,826.717248346,1,1
"distr_stats",1,"F",26,1,195,"1",103,12,11,"norm",10,-88,52,1123.69508055,1,1
"distr_stats",1,"F",26,1,195,"2",103,16,11,"norm",10,-88,52,1607.95101609,1,1
"distr_stats",1,"F",26,1,195,"3",103,15,11,"norm",10,-88,52,1373.54737256,0,1
"distr_stats",1,"F",26,1,195,"4",103,28,11,"norm",10,-88,52,701.729520157,0,0
"distr_stats",1,"F",26,1,195,"5",103,5,11,"norm",10,-88,52,748.504309662,1,0
"distr_stats",1,"F",26,1,195,"6",103,15,11,"norm",10,-88,52,857.914423776,1,1
"distr_stats",1,"F",26,1,196,"0",89,8,11,"norm",5,78,78,764.265777781,1,1
"distr_stats",1,"F",26,1,196,"1",89,10,11,"norm",5,78,78,592.333239721,1,1
"distr_stats",1,"F",26,1,196,"2",89,33,11,"norm",5,78,78,1155.01675908,1,1
"distr_stats",1,"F",26,1,196,"3",89,5,11,"norm",5,78,78,592.492103895,1,1
"distr_stats",1,"F",26,1,196,"4",89,3,11,"norm",5,78,78,889.241457282,1,1
"distr_stats",1,"F",26,1,197,"0",167,6,51,"norm",10,-64,-24,670.496644912,1,1
"distr_stats",1,"F",26,1,197,"1",167,18,51,"norm",10,-64,-24,592.612590769,1,1
"distr_stats",1,"F",26,1,197,"2",167,0,51,"norm",10,-64,-24,608.00233457,1,1
"distr_stats",1,"F",26,1,197,"3",167,24,51,"norm",10,-64,-24,561.22665257,1,1
"distr_stats",1,"F",26,1,197,"4",167,22,51,"norm",10,-64,-24,1295.4076185,1,1
"distr_stats",1,"F",26,1,198,"0",63,30,131,"norm",15,-68,12,1014.2528366,1,1
"distr_stats",1,"F",26,1,198,"1",63,10,131,"norm",15,-68,12,686.18135843,1,1
"distr_stats",1,"F",26,1,198,"2",63,22,131,"norm",15,-68,12,607.961726031,1,1
"distr_stats",1,"F",26,1,198,"3",63,18,131,"norm",15,-68,12,592.242205194,1,1
"distr_stats",1,"F",26,1,198,"4",63,18,131,"norm",15,-68,12,623.38627715,1,1
"distr_stats",1,"F",26,1,198,"5",63,31,131,"norm",15,-68,12,967.535613045,1,1
"distr_stats",1,"F",26,1,199,"0",22,6,91,"norm",5,-69,71,732.932943055,1,1
"distr_stats",1,"F",26,1,199,"1",22,33,91,"norm",5,-69,71,561.324380812,1,1
"distr_stats",1,"F",26,1,199,"2",22,30,91,"norm",5,-69,71,1029.91345274,0,1
"distr_stats",1,"F",26,1,199,"3",22,31,91,"norm",5,-69,71,686.075151481,1,0
"distr_stats",1,"F",26,1,199,"4",22,15,91,"norm",5,-69,71,623.531307647,1,1
"distr_stats",1,"F",26,1,200,"0",17,25,111,"norm",15,86,-74,732.851725977,1,1
"distr_stats",1,"F",26,1,200,"1",17,33,111,"norm",15,86,-74,623.536662619,1,1
"distr_stats",1,"F",26,1,200,"2",17,22,111,"norm",15,86,-74,482.989616511,1,1
"distr_stats",1,"F",26,1,200,"3",17,22,111,"norm",15,86,-74,842.371170774,1,1
"distr_stats",1,"F",26,1,200,"4",17,35,111,"norm",15,86,-74,920.772872227,1,1
"distr_stats",1,"F",26,1,200,"5",17,25,111,"norm",15,86,-74,717.371393898,1,1
"distr_stats",1,"F",26,1,201,"0",135,18,51,"norm",10,84,24,811.128031832,1,1
"distr_stats",1,"F",26,1,201,"1",135,22,51,"norm",10,84,24,1123.59065859,1,1
"distr_stats",1,"F",26,1,201,"2",135,26,51,"norm",10,84,24,967.348189018,1,1
"distr_stats",1,"F",26,1,201,"3",135,10,51,"norm",10,84,24,545.436624599,1,1
"distr_stats",1,"F",26,1,201,"4",135,18,51,"norm",10,84,24,514.230077967,1,1
"distr_stats",1,"F",26,1,202,"0",12,4,111,"norm",15,81,-39,1139.17362764,1,1
"distr_stats",1,"F",26,1,202,"1",12,0,111,"norm",15,81,-39,576.717248346,1,1
"distr_stats",1,"F",26,1,202,"2",12,6,111,"norm",15,81,-39,639.264662162,1,1
"distr_stats",1,"F",26,1,202,"3",12,28,111,"norm",15,81,-39,748.635952728,1,1
"distr_stats",1,"F",26,1,202,"4",12,14,111,"norm",15,81,-39,702.425220293,1,1
"distr_stats",1,"F",26,1,203,"0",39,20,111,"norm",10,-72,-72,592.253361386,1,1
"distr_stats",1,"F",26,1,203,"1",39,19,111,"norm",10,-72,-72,576.692704723,1,1
"distr_stats",1,"F",26,1,203,"2",39,7,111,"norm",10,-72,-72,592.548777351,1,1
"distr_stats",1,"F",26,1,203,"3",39,23,111,"norm",10,-72,-72,670.128936822,1,1
"distr_stats",1,"F",26,1,203,"4",39,17,111,"norm",10,-72,-72,545.413865967,1,1
"distr_stats",1,"F",26,1,204,"0",87,16,11,"norm",5,76,-24,686.022048007,1,1
"distr_stats",1,"F",26,1,204,"1",87,2,11,"norm",5,76,-24,623.59601356,1,1
"distr_stats",1,"F",26,1,204,"2",87,31,11,"norm",5,76,-24,779.972803683,1,1
"distr_stats",1,"F",26,1,204,"3",87,6,11,"norm",5,76,-24,655.029254015,1,1
"distr_stats",1,"F",26,1,204,"4",87,34,11,"norm",5,76,-24,701.726842671,1,1
"distr_stats",1,"F",26,1,204,"5",87,7,11,"norm",5,76,-24,779.889801614,1,1
"distr_stats",1,"F",26,1,204,"6",87,22,11,"norm",5,76,-24,592.532712435,1,1
"distr_stats",1,"F",26,1,205,"0",12,4,91,"norm",10,-79,1,1295.57897761,1,1
"distr_stats",1,"F",26,1,205,"1",12,34,91,"norm",10,-79,1,561.115536897,1,1
"distr_stats",1,"F",26,1,205,"2",12,19,91,"norm",10,-79,1,733.50771007,1,1
"distr_stats",1,"F",26,1,205,"3",12,7,91,"norm",10,-79,1,576.787755479,1,1
"distr_stats",1,"F",26,1,205,"4",12,25,91,"norm",10,-79,1,1248.66228134,1,1
"distr_stats",1,"F",26,1,205,"5",12,10,91,"norm",10,-79,1,576.692258475,1,1
"distr_stats",1,"F",26,1,206,"0",116,12,31,"norm",5,85,25,545.442872066,1,1
"distr_stats",1,"F",26,1,206,"1",116,23,31,"norm",5,85,25,561.095009504,1,1
"distr_stats",1,"F",26,1,206,"2",116,15,31,"norm",5,85,25,701.633576905,1,1
"distr_stats",1,"F",26,1,206,"3",116,35,31,"norm",5,85,25,498.672991286,1,1
"distr_stats",1,"F",26,1,206,"4",116,23,31,"norm",5,85,25,545.769971617,1,1
"distr_stats",1,"F",26,1,206,"5",116,24,31,"norm",5,85,25,576.740899473,1,1
"distr_stats",1,"F",26,1,206,"6",116,18,31,"norm",5,85,25,529.817063242,1,1
"distr_stats",1,"F",26,1,207,"0",107,3,11,"norm",10,-84,76,733.023977582,1,1
"distr_stats",1,"F",26,1,207,"1",107,4,11,"norm",10,-84,76,545.588795058,1,1
"distr_stats",1,"F",26,1,207,"2",107,11,11,"norm",10,-84,76,561.083407064,1,1
"distr_stats",1,"F",26,1,207,"3",107,19,11,"norm",10,-84,76,686.182697173,1,1
"distr_stats",1,"F",26,1,207,"4",107,4,11,"norm",10,-84,76,686.105942571,1,1
"distr_stats",1,"F",26,1,207,"5",107,24,11,"norm",10,-84,76,623.789685054,1,1
"distr_stats",1,"F",26,1,208,"0",91,21,171,"norm",5,-80,80,1029.90854402,0,1
"distr_stats",1,"F",26,1,208,"1",91,10,171,"norm",5,-80,80,560.953102741,1,0
"distr_stats",1,"F",26,1,208,"2",91,11,171,"norm",5,-80,80,498.506987148,1,1
"distr_stats",1,"F",26,1,208,"3",91,1,171,"norm",5,-80,80,1686.23490815,1,1
"distr_stats",1,"F",26,1,208,"4",91,5,171,"norm",5,-80,80,623.618772192,1,1
"distr_stats",1,"F",26,1,208,"5",91,32,171,"norm",5,-80,80,1467.66591737,1,1
"distr_stats",1,"F",26,1,208,"6",91,24,171,"norm",5,-80,80,545.466969441,1,1
"distr_stats",1,"F",26,1,209,"0",63,26,151,"norm",15,-88,72,623.627697146,1,1
"distr_stats",1,"F",26,1,209,"1",63,1,151,"norm",15,-88,72,576.777938031,1,1
"distr_stats",1,"F",26,1,209,"2",63,7,151,"norm",15,-88,72,2701.61617325,0,1
"distr_stats",1,"F",26,1,209,"3",63,1,151,"norm",15,-88,72,686.232230666,1,0
"distr_stats",1,"F",26,1,209,"4",63,18,151,"norm",15,-88,72,608.000549579,1,1
"distr_stats",1,"F",26,1,209,"5",63,25,151,"norm",15,-88,72,592.341718427,1,1
"distr_stats",1,"F",26,1,209,"6",63,31,151,"norm",15,-88,72,717.277681884,1,1
"distr_stats",1,"F",26,1,210,"0",19,11,91,"norm",10,-72,48,967.447256004,1,1
"distr_stats",1,"F",26,1,210,"1",19,34,91,"norm",10,-72,48,607.91174629,1,1
"distr_stats",1,"F",26,1,210,"2",19,16,91,"norm",10,-72,48,717.259831977,1,1
"distr_stats",1,"F",26,1,210,"3",19,12,91,"norm",10,-72,48,623.564776223,1,1
"distr_stats",1,"F",26,1,210,"4",19,22,91,"norm",10,-72,48,670.823744463,1,1
"distr_stats",1,"F",26,1,211,"0",24,22,111,"norm",5,-87,-67,498.757332098,1,1
"distr_stats",1,"F",26,1,211,"1",24,26,111,"norm",5,-87,-67,733.052091186,1,1
"distr_stats",1,"F",26,1,211,"2",24,31,111,"norm",5,-87,-67,561.118660631,1,1
"distr_stats",1,"F",26,1,211,"3",24,7,111,"norm",5,-87,-67,545.396908555,1,1
"distr_stats",1,"F",26,1,211,"4",24,21,111,"norm",5,-87,-67,904.90698215,1,1
"distr_stats",1,"F",26,1,212,"0",103,12,31,"norm",10,72,-8,1764.20642684,1,1
"distr_stats",1,"F",26,1,212,"1",103,22,31,"norm",10,72,-8,607.968419746,1,1
"distr_stats",1,"F",26,1,212,"2",103,2,31,"norm",10,72,-8,795.496868036,1,1
"distr_stats",1,"F",26,1,212,"3",103,6,31,"norm",10,72,-8,514.209550573,1,1
"distr_stats",1,"F",26,1,212,"4",103,0,31,"norm",10,72,-8,764.148860888,1,1
"distr_stats",1,"F",26,1,212,"5",103,9,31,"norm",10,72,-8,779.94647507,1,1
"distr_stats",1,"F",26,1,213,"0",15,25,111,"norm",5,84,-16,732.976229081,1,1
"distr_stats",1,"F",26,1,213,"1",15,20,111,"norm",5,84,-16,936.149674845,1,1
"distr_stats",1,"F",26,1,213,"2",15,29,111,"norm",5,84,-16,592.256485119,1,1
"distr_stats",1,"F",26,1,213,"3",15,32,111,"norm",5,84,-16,920.390884211,1,1
"distr_stats",1,"F",26,1,213,"4",15,21,111,"norm",5,84,-16,842.322529776,1,1
"distr_stats",1,"F",26,1,214,"0",117,15,31,"norm",15,86,6,1166.58885396,1,1
"distr_stats",1,"F",26,1,214,"1",117,19,31,"norm",15,86,6,607.975559709,1,1
"distr_stats",1,"F",26,1,214,"2",117,0,31,"norm",15,86,6,1591.51839145,0,1
"distr_stats",1,"F",26,1,214,"3",117,29,31,"norm",15,86,6,576.658343652,1,0
"distr_stats",1,"F",26,1,214,"4",117,3,31,"norm",15,86,6,529.906759026,0,1
"distr_stats",1,"F",26,1,215,"0",78,16,171,"norm",5,87,47,467.44413227,1,0
"distr_stats",1,"F",26,1,215,"1",78,2,171,"norm",5,87,47,592.344395913,1,1
"distr_stats",1,"F",26,1,215,"2",78,19,171,"norm",5,87,47,545.477233138,1,1
"distr_stats",1,"F",26,1,215,"3",78,30,171,"norm",5,87,47,607.947446105,1,1
"distr_stats",1,"F",26,1,215,"4",78,20,171,"norm",5,87,47,858.054099301,1,1
"distr_stats",1,"F",26,1,215,"5",78,34,171,"norm",5,87,47,561.241824991,1,1
"distr_stats",1,"F",26,1,216,"0",122,15,31,"norm",10,-89,-49,623.625465908,1,1
"distr_stats",1,"F",26,1,216,"1",122,17,31,"norm",10,-89,-49,529.891140357,1,1
"distr_stats",1,"F",26,1,216,"2",122,23,31,"norm",10,-89,-49,623.612970973,1,1
"distr_stats",1,"F",26,1,216,"3",122,17,31,"norm",10,-89,-49,514.222938004,1,1
"distr_stats",1,"F",26,1,216,"4",122,5,31,"norm",10,-89,-49,592.285044971,1,1
"distr_stats",1,"F",26,1,217,"0",174,19,111,"norm",5,63,-37,576.82613278,1,1
"distr_stats",1,"F",26,1,217,"1",174,12,111,"norm",5,63,-37,545.528997869,1,1
"distr_stats",1,"F",26,1,217,"2",174,10,111,"norm",5,63,-37,701.625990695,1,1
"distr_stats",1,"F",26,1,217,"3",174,26,111,"norm",5,63,-37,982.932943055,1,1
"distr_stats",1,"F",26,1,217,"4",174,24,111,"norm",5,63,-37,529.993331077,1,1
